"trial_type","trial_index","time_elapsed","internal_node_id","sub_id","risk_good_first","block1_A","block1_B","block1_C","block1_D","block2_A","block2_B","block2_C","block2_D","interactions","blur_events","focus_events","fullscreenenter_events","fullscreenexit_events","success","rt","stimulus","key_press","button_pressed","task_part","timestamp","card_choice","choice_position","points_earned","block","correct","response"
"pavlovia","0","5","0.0-0.0","A1068","true","img/card_backs/set1/purple.gif","img/card_backs/set1/green.gif","img/card_backs/set1/yellow.gif","img/card_backs/set1/red.gif","img/card_backs/set2/gray.gif","img/card_backs/set2/blue.gif","img/card_backs/set2/orange.gif","img/card_backs/set2/pink.gif","""event"",""trial"",""time""
""fullscreenenter"",""1"",""3755""
","
","
","""event"",""trial"",""time""
""fullscreenenter"",""1"",""3755""
","
","","","","","","","","","","","","",""
"fullscreen","1","4083","0.0-1.0","A1068","true","img/card_backs/set1/purple.gif","img/card_backs/set1/green.gif","img/card_backs/set1/yellow.gif","img/card_backs/set1/red.gif","img/card_backs/set2/gray.gif","img/card_backs/set2/blue.gif","img/card_backs/set2/orange.gif","img/card_backs/set2/pink.gif","""event"",""trial"",""time""
""fullscreenenter"",""1"",""3755""
","
","
","""event"",""trial"",""time""
""fullscreenenter"",""1"",""3755""
","
","true","","","","","","","","","","","",""
"audio-keyboard-response","2","7401","0.0-2.0","A1068","true","img/card_backs/set1/purple.gif","img/card_backs/set1/green.gif","img/card_backs/set1/yellow.gif","img/card_backs/set1/red.gif","img/card_backs/set2/gray.gif","img/card_backs/set2/blue.gif","img/card_backs/set2/orange.gif","img/card_backs/set2/pink.gif","""event"",""trial"",""time""
""fullscreenenter"",""1"",""3755""
","
","
","""event"",""trial"",""time""
""fullscreenenter"",""1"",""3755""
","
","","3222","audio/beep_loop.wav","32","","","","","","","","",""
"audio-button-response","3","10215","0.0-3.0","A1068","true","img/card_backs/set1/purple.gif","img/card_backs/set1/green.gif","img/card_backs/set1/yellow.gif","img/card_backs/set1/red.gif","img/card_backs/set2/gray.gif","img/card_backs/set2/blue.gif","img/card_backs/set2/orange.gif","img/card_backs/set2/pink.gif","""event"",""trial"",""time""
""fullscreenenter"",""1"",""3755""
","
","
","""event"",""trial"",""time""
""fullscreenenter"",""1"",""3755""
","
","","NaN","audio/turtle.mp3","","3","","","","","","","",""
"audio-button-response","4","12421","0.0-4.0","A1068","true","img/card_backs/set1/purple.gif","img/card_backs/set1/green.gif","img/card_backs/set1/yellow.gif","img/card_backs/set1/red.gif","img/card_backs/set2/gray.gif","img/card_backs/set2/blue.gif","img/card_backs/set2/orange.gif","img/card_backs/set2/pink.gif","""event"",""trial"",""time""
""fullscreenenter"",""1"",""3755""
","
","
","""event"",""trial"",""time""
""fullscreenenter"",""1"",""3755""
","
","","NaN","audio/shark.mp3","","2","","","","","","","",""
"fullscreen","5","15682","0.0-5.0","A1068","true","img/card_backs/set1/purple.gif","img/card_backs/set1/green.gif","img/card_backs/set1/yellow.gif","img/card_backs/set1/red.gif","img/card_backs/set2/gray.gif","img/card_backs/set2/blue.gif","img/card_backs/set2/orange.gif","img/card_backs/set2/pink.gif","""event"",""trial"",""time""
""fullscreenenter"",""1"",""3755""
","
","
","""event"",""trial"",""time""
""fullscreenenter"",""1"",""3755""
","
","true","","","","","","","","","","","",""
"casino-keyboard-response","6","18852","0.0-6.0-0.0","A1068","true","img/card_backs/set1/purple.gif","img/card_backs/set1/green.gif","img/card_backs/set1/yellow.gif","img/card_backs/set1/red.gif","img/card_backs/set2/gray.gif","img/card_backs/set2/blue.gif","img/card_backs/set2/orange.gif","img/card_backs/set2/pink.gif","""event"",""trial"",""time""
""fullscreenenter"",""1"",""3755""
","
","
","""event"",""trial"",""time""
""fullscreenenter"",""1"",""3755""
","
","","3166.949999984354","Welcome to the casino!","71","","instructions","2021-04-01 09:23:13.880","","","","","",""
"casino-keyboard-response","7","28473","0.0-6.0-0.1","A1068","true","img/card_backs/set1/purple.gif","img/card_backs/set1/green.gif","img/card_backs/set1/yellow.gif","img/card_backs/set1/red.gif","img/card_backs/set2/gray.gif","img/card_backs/set2/blue.gif","img/card_backs/set2/orange.gif","img/card_backs/set2/pink.gif","""event"",""trial"",""time""
""fullscreenenter"",""1"",""3755""
","
","
","""event"",""trial"",""time""
""fullscreenenter"",""1"",""3755""
","
","","9619.50499995146","Today you will be playing a game to earn tokens. </br> At the end of the experiment, you will be paid a bonus based on how many tokens you win. ","69","","instructions","2021-04-01 09:23:23.501","","","","","",""
"casino-keyboard-response","8","36273","0.0-6.0-0.2","A1068","true","img/card_backs/set1/purple.gif","img/card_backs/set1/green.gif","img/card_backs/set1/yellow.gif","img/card_backs/set1/red.gif","img/card_backs/set2/gray.gif","img/card_backs/set2/blue.gif","img/card_backs/set2/orange.gif","img/card_backs/set2/pink.gif","""event"",""trial"",""time""
""fullscreenenter"",""1"",""3755""
","
","
","""event"",""trial"",""time""
""fullscreenenter"",""1"",""3755""
","
","","7785.964999930002","On every turn, you will be shown four different decks of cards. </br> You need to select a card from one of the four decks.  ","75","","instructions","2021-04-01 09:23:31.301","","","","","",""
"casino-keyboard-response","9","41139","0.0-6.0-0.3","A1068","true","img/card_backs/set1/purple.gif","img/card_backs/set1/green.gif","img/card_backs/set1/yellow.gif","img/card_backs/set1/red.gif","img/card_backs/set2/gray.gif","img/card_backs/set2/blue.gif","img/card_backs/set2/orange.gif","img/card_backs/set2/pink.gif","""event"",""trial"",""time""
""fullscreenenter"",""1"",""3755""
","
","
","""event"",""trial"",""time""
""fullscreenenter"",""1"",""3755""
","
","","4864.26499998197","On the next screen, you will see what the decks will look like. ","66","","instructions","2021-04-01 09:23:36.167","","","","","",""
"card-selection-trial","10","45157","0.0-7.0-0.0","A1068","true","img/card_backs/set1/purple.gif","img/card_backs/set1/green.gif","img/card_backs/set1/yellow.gif","img/card_backs/set1/red.gif","img/card_backs/set2/gray.gif","img/card_backs/set2/blue.gif","img/card_backs/set2/orange.gif","img/card_backs/set2/pink.gif","""event"",""trial"",""time""
""fullscreenenter"",""1"",""3755""
","
","
","""event"",""trial"",""time""
""fullscreenenter"",""1"",""3755""
","
","","null","","","","practice","2021-04-01 09:23:40.185","null","null","null","0","",""
"casino-keyboard-response","11","52974","0.0-8.0-0.0","A1068","true","img/card_backs/set1/purple.gif","img/card_backs/set1/green.gif","img/card_backs/set1/yellow.gif","img/card_backs/set1/red.gif","img/card_backs/set2/gray.gif","img/card_backs/set2/blue.gif","img/card_backs/set2/orange.gif","img/card_backs/set2/pink.gif","""event"",""trial"",""time""
""fullscreenenter"",""1"",""3755""
","
","
","""event"",""trial"",""time""
""fullscreenenter"",""1"",""3755""
","
","","7816.079999902286","You should pick a card from a deck using the '2', '4', '6', and '8' keys at the top of the keyboard.","85","","instructions","2021-04-01 09:23:48.002","","","","","",""
"casino-keyboard-response","12","58590","0.0-8.0-0.1","A1068","true","img/card_backs/set1/purple.gif","img/card_backs/set1/green.gif","img/card_backs/set1/yellow.gif","img/card_backs/set1/red.gif","img/card_backs/set2/gray.gif","img/card_backs/set2/blue.gif","img/card_backs/set2/orange.gif","img/card_backs/set2/pink.gif","""event"",""trial"",""time""
""fullscreenenter"",""1"",""3755""
","
","
","""event"",""trial"",""time""
""fullscreenenter"",""1"",""3755""
","
","","5613.974999985658","Once you select a card, it will turn over and you will see how many tokens you earned.","83","","instructions","2021-04-01 09:23:53.618","","","","","",""
"casino-keyboard-response","13","77965","0.0-8.0-0.2","A1068","true","img/card_backs/set1/purple.gif","img/card_backs/set1/green.gif","img/card_backs/set1/yellow.gif","img/card_backs/set1/red.gif","img/card_backs/set2/gray.gif","img/card_backs/set2/blue.gif","img/card_backs/set2/orange.gif","img/card_backs/set2/pink.gif","""event"",""trial"",""time""
""fullscreenenter"",""1"",""3755""
","
","
","""event"",""trial"",""time""
""fullscreenenter"",""1"",""3755""
","
","","19372.94999998994","Let's try practicing that! </br> First, try to put your fingers over the '2', '4', '6', and '8' keys. </br>  You can use whatever fingers are most comfortable for you. Try to find a comfortable position now. ","50","","instructions","2021-04-01 09:24:12.993","","","","","",""
"casino-keyboard-response","14","81909","0.0-8.0-0.3","A1068","true","img/card_backs/set1/purple.gif","img/card_backs/set1/green.gif","img/card_backs/set1/yellow.gif","img/card_backs/set1/red.gif","img/card_backs/set2/gray.gif","img/card_backs/set2/blue.gif","img/card_backs/set2/orange.gif","img/card_backs/set2/pink.gif","""event"",""trial"",""time""
""fullscreenenter"",""1"",""3755""
","
","
","""event"",""trial"",""time""
""fullscreenenter"",""1"",""3755""
","
","","3942.54999991972","Okay ready? </br> On the next screen, press '2' to select the left deck. ","50","","instructions","2021-04-01 09:24:16.937","","","","","",""
"card-selection-trial","15","84894","0.0-9.0-0.0","A1068","true","img/card_backs/set1/purple.gif","img/card_backs/set1/green.gif","img/card_backs/set1/yellow.gif","img/card_backs/set1/red.gif","img/card_backs/set2/gray.gif","img/card_backs/set2/blue.gif","img/card_backs/set2/orange.gif","img/card_backs/set2/pink.gif","""event"",""trial"",""time""
""fullscreenenter"",""1"",""3755""
","
","
","""event"",""trial"",""time""
""fullscreenenter"",""1"",""3755""
","
","","969.3550000665709","","","","practice_card_selection","2021-04-01 09:24:19.923","img/practice_cards/backs/dark_green.gif","0","200","","",""
"casino-keyboard-response","16","90472","0.0-10.0-0.0","A1068","true","img/card_backs/set1/purple.gif","img/card_backs/set1/green.gif","img/card_backs/set1/yellow.gif","img/card_backs/set1/red.gif","img/card_backs/set2/gray.gif","img/card_backs/set2/blue.gif","img/card_backs/set2/orange.gif","img/card_backs/set2/pink.gif","""event"",""trial"",""time""
""fullscreenenter"",""1"",""3755""
","
","
","""event"",""trial"",""time""
""fullscreenenter"",""1"",""3755""
","
","","5574.105000006966","Great! Now on the next screen, try pressing '6' to select the third deck.","54","","instructions","2021-04-01 09:24:25.500","","","","","",""
"card-selection-trial","17","93963","0.0-11.0-0.0","A1068","true","img/card_backs/set1/purple.gif","img/card_backs/set1/green.gif","img/card_backs/set1/yellow.gif","img/card_backs/set1/red.gif","img/card_backs/set2/gray.gif","img/card_backs/set2/blue.gif","img/card_backs/set2/orange.gif","img/card_backs/set2/pink.gif","""event"",""trial"",""time""
""fullscreenenter"",""1"",""3755""
","
","
","""event"",""trial"",""time""
""fullscreenenter"",""1"",""3755""
","
","","1484.969999990426","","","","practice_card_selection","2021-04-01 09:24:28.991","img/practice_cards/backs/brown.gif","2","-100","","",""
"casino-keyboard-response","18","94806","0.0-12.0-0.0","A1068","true","img/card_backs/set1/purple.gif","img/card_backs/set1/green.gif","img/card_backs/set1/yellow.gif","img/card_backs/set1/red.gif","img/card_backs/set2/gray.gif","img/card_backs/set2/blue.gif","img/card_backs/set2/orange.gif","img/card_backs/set2/pink.gif","""event"",""trial"",""time""
""fullscreenenter"",""1"",""3755""
","
","
","""event"",""trial"",""time""
""fullscreenenter"",""1"",""3755""
","
","","841.1700000287965","Now on the next screen, try pressing '4' to select the second deck.","52","","instructions","2021-04-01 09:24:29.834","","","","","",""
"card-selection-trial","19","97302","0.0-13.0-0.0","A1068","true","img/card_backs/set1/purple.gif","img/card_backs/set1/green.gif","img/card_backs/set1/yellow.gif","img/card_backs/set1/red.gif","img/card_backs/set2/gray.gif","img/card_backs/set2/blue.gif","img/card_backs/set2/orange.gif","img/card_backs/set2/pink.gif","""event"",""trial"",""time""
""fullscreenenter"",""1"",""3755""
","
","
","""event"",""trial"",""time""
""fullscreenenter"",""1"",""3755""
","
","","491.32999998982996","","","","practice_card_selection","2021-04-01 09:24:32.330","img/practice_cards/backs/black.gif","1","100","","",""
"casino-keyboard-response","20","98167","0.0-14.0-0.0","A1068","true","img/card_backs/set1/purple.gif","img/card_backs/set1/green.gif","img/card_backs/set1/yellow.gif","img/card_backs/set1/red.gif","img/card_backs/set2/gray.gif","img/card_backs/set2/blue.gif","img/card_backs/set2/orange.gif","img/card_backs/set2/pink.gif","""event"",""trial"",""time""
""fullscreenenter"",""1"",""3755""
","
","
","""event"",""trial"",""time""
""fullscreenenter"",""1"",""3755""
","
","","863.8450000435114","Finally, try pressing '8' to select the deck all the way on the right.","56","","instructions","2021-04-01 09:24:33.195","","","","","",""
"card-selection-trial","21","100651","0.0-15.0-0.0","A1068","true","img/card_backs/set1/purple.gif","img/card_backs/set1/green.gif","img/card_backs/set1/yellow.gif","img/card_backs/set1/red.gif","img/card_backs/set2/gray.gif","img/card_backs/set2/blue.gif","img/card_backs/set2/orange.gif","img/card_backs/set2/pink.gif","""event"",""trial"",""time""
""fullscreenenter"",""1"",""3755""
","
","
","""event"",""trial"",""time""
""fullscreenenter"",""1"",""3755""
","
","","479.4599999440834","","","","practice_card_selection","2021-04-01 09:24:35.679","img/practice_cards/backs/dark_green.gif","3","-200","","",""
"casino-keyboard-response","22","105207","0.0-16.0-0.0","A1068","true","img/card_backs/set1/purple.gif","img/card_backs/set1/green.gif","img/card_backs/set1/yellow.gif","img/card_backs/set1/red.gif","img/card_backs/set2/gray.gif","img/card_backs/set2/blue.gif","img/card_backs/set2/orange.gif","img/card_backs/set2/pink.gif","""event"",""trial"",""time""
""fullscreenenter"",""1"",""3755""
","
","
","""event"",""trial"",""time""
""fullscreenenter"",""1"",""3755""
","
","","4554.175000055693","Great! It seems like you are getting the hang of this.","80","","instructions","2021-04-01 09:24:40.235","","","","","",""
"casino-keyboard-response","23","113209","0.0-16.0-0.1","A1068","true","img/card_backs/set1/purple.gif","img/card_backs/set1/green.gif","img/card_backs/set1/yellow.gif","img/card_backs/set1/red.gif","img/card_backs/set2/gray.gif","img/card_backs/set2/blue.gif","img/card_backs/set2/orange.gif","img/card_backs/set2/pink.gif","""event"",""trial"",""time""
""fullscreenenter"",""1"",""3755""
","
","
","""event"",""trial"",""time""
""fullscreenenter"",""1"",""3755""
","
","","7998.710000072606","You may have noticed that some cards will cause you to <b> win </b> tokens while other cards will cause you to <b> lose </b>  tokens.","70","","instructions","2021-04-01 09:24:48.237","","","","","",""
"casino-keyboard-response","24","122802","0.0-16.0-0.2","A1068","true","img/card_backs/set1/purple.gif","img/card_backs/set1/green.gif","img/card_backs/set1/yellow.gif","img/card_backs/set1/red.gif","img/card_backs/set2/gray.gif","img/card_backs/set2/blue.gif","img/card_backs/set2/orange.gif","img/card_backs/set2/pink.gif","""event"",""trial"",""time""
""fullscreenenter"",""1"",""3755""
","
","
","""event"",""trial"",""time""
""fullscreenenter"",""1"",""3755""
","
","","9591.275000013411","Each deck has a mix of cards that will cause you to win and lose tokens. </br> However, the cards in each colored deck are different.","73","","instructions","2021-04-01 09:24:57.830","","","","","",""
"casino-keyboard-response","25","132155","0.0-16.0-0.3","A1068","true","img/card_backs/set1/purple.gif","img/card_backs/set1/green.gif","img/card_backs/set1/yellow.gif","img/card_backs/set1/red.gif","img/card_backs/set2/gray.gif","img/card_backs/set2/blue.gif","img/card_backs/set2/orange.gif","img/card_backs/set2/pink.gif","""event"",""trial"",""time""
""fullscreenenter"",""1"",""3755""
","
","
","""event"",""trial"",""time""
""fullscreenenter"",""1"",""3755""
","
","","9352.214999962598","Some colored decks are luckier than others. </br> If you choose the lucky decks, you will earn more tokens than if you choose the unlucky decks.","69","","instructions","2021-04-01 09:25:07.184","","","","","",""
"casino-keyboard-response","26","153158","0.0-16.0-0.4","A1068","true","img/card_backs/set1/purple.gif","img/card_backs/set1/green.gif","img/card_backs/set1/yellow.gif","img/card_backs/set1/red.gif","img/card_backs/set2/gray.gif","img/card_backs/set2/blue.gif","img/card_backs/set2/orange.gif","img/card_backs/set2/pink.gif","""event"",""trial"",""time""
""fullscreenenter"",""1"",""3755""
","
","
","""event"",""trial"",""time""
""fullscreenenter"",""1"",""3755""
","
","","21000.695000053383","You should try to figure out which decks are lucky. </br> Then, try to choose the lucky decks so you can win the most tokens.","87","","instructions","2021-04-01 09:25:28.186","","","","","",""
"casino-keyboard-response","27","165418","0.0-16.0-0.5","A1068","true","img/card_backs/set1/purple.gif","img/card_backs/set1/green.gif","img/card_backs/set1/yellow.gif","img/card_backs/set1/red.gif","img/card_backs/set2/gray.gif","img/card_backs/set2/blue.gif","img/card_backs/set2/orange.gif","img/card_backs/set2/pink.gif","""event"",""trial"",""time""
""fullscreenenter"",""1"",""3755""
","
","
","""event"",""trial"",""time""
""fullscreenenter"",""1"",""3755""
","
","","12258.020000066608","To make it trickier, the casino dealer will switch the locations of the decks on every turn. </br> The color of the deck determines how lucky it is. The location does not matter.","88","","instructions","2021-04-01 09:25:40.446","","","","","",""
"casino-keyboard-response","28","174925","0.0-16.0-0.6","A1068","true","img/card_backs/set1/purple.gif","img/card_backs/set1/green.gif","img/card_backs/set1/yellow.gif","img/card_backs/set1/red.gif","img/card_backs/set2/gray.gif","img/card_backs/set2/blue.gif","img/card_backs/set2/orange.gif","img/card_backs/set2/pink.gif","""event"",""trial"",""time""
""fullscreenenter"",""1"",""3755""
","
","
","""event"",""trial"",""time""
""fullscreenenter"",""1"",""3755""
","
","","9505.094999913126","The mix of cards in each colored deck will stay the same throughout the game. </br> That means that a deck that is lucky early on will stay lucky.","79","","instructions","2021-04-01 09:25:49.953","","","","","",""
"casino-keyboard-response","29","184431","0.0-16.0-0.7","A1068","true","img/card_backs/set1/purple.gif","img/card_backs/set1/green.gif","img/card_backs/set1/yellow.gif","img/card_backs/set1/red.gif","img/card_backs/set2/gray.gif","img/card_backs/set2/blue.gif","img/card_backs/set2/orange.gif","img/card_backs/set2/pink.gif","""event"",""trial"",""time""
""fullscreenenter"",""1"",""3755""
","
","
","""event"",""trial"",""time""
""fullscreenenter"",""1"",""3755""
","
","","9503.784999949858","Remember though, all the decks have a <b> mix </b> of both <b> good </b> and <b> bad </b> cards so it may take a couple of turns to figure out if a deck is lucky.","69","","instructions","2021-04-01 09:25:59.459","","","","","",""
"casino-keyboard-response","30","192711","0.0-16.0-0.8","A1068","true","img/card_backs/set1/purple.gif","img/card_backs/set1/green.gif","img/card_backs/set1/yellow.gif","img/card_backs/set1/red.gif","img/card_backs/set2/gray.gif","img/card_backs/set2/blue.gif","img/card_backs/set2/orange.gif","img/card_backs/set2/pink.gif","""event"",""trial"",""time""
""fullscreenenter"",""1"",""3755""
","
","
","""event"",""trial"",""time""
""fullscreenenter"",""1"",""3755""
","
","","8278.554999968037","At the end of the game, you will be paid bonus money based on how many tokens you win. </br> If you win more tokens, you will earn more money!","72","","instructions","2021-04-01 09:26:07.739","","","","","",""
"casino-keyboard-response","31","202869","0.0-16.0-0.9","A1068","true","img/card_backs/set1/purple.gif","img/card_backs/set1/green.gif","img/card_backs/set1/yellow.gif","img/card_backs/set1/red.gif","img/card_backs/set2/gray.gif","img/card_backs/set2/blue.gif","img/card_backs/set2/orange.gif","img/card_backs/set2/pink.gif","""event"",""trial"",""time""
""fullscreenenter"",""1"",""3755""
","
","
","""event"",""trial"",""time""
""fullscreenenter"",""1"",""3755""
","
","","10155.720000038855","You will never <b> lose </b> money. </br> If you end up with fewer than 0 tokens, you will earn $0 of bonus money, but you will still be paid for playing the game.","83","","instructions","2021-04-01 09:26:17.897","","","","","",""
"casino-keyboard-response","32","207397","0.0-16.0-0.10","A1068","true","img/card_backs/set1/purple.gif","img/card_backs/set1/green.gif","img/card_backs/set1/yellow.gif","img/card_backs/set1/red.gif","img/card_backs/set2/gray.gif","img/card_backs/set2/blue.gif","img/card_backs/set2/orange.gif","img/card_backs/set2/pink.gif","""event"",""trial"",""time""
""fullscreenenter"",""1"",""3755""
","
","
","""event"",""trial"",""time""
""fullscreenenter"",""1"",""3755""
","
","","4517.295000026934","You will have 10 seconds to make each choice.","82","","instructions","2021-04-01 09:26:22.425","","","","","",""
"casino-keyboard-response","33","215850","0.0-16.0-0.11","A1068","true","img/card_backs/set1/purple.gif","img/card_backs/set1/green.gif","img/card_backs/set1/yellow.gif","img/card_backs/set1/red.gif","img/card_backs/set2/gray.gif","img/card_backs/set2/blue.gif","img/card_backs/set2/orange.gif","img/card_backs/set2/pink.gif","""event"",""trial"",""time""
""fullscreenenter"",""1"",""3755""
","
","
","""event"",""trial"",""time""
""fullscreenenter"",""1"",""3755""
","
","","8450.670000049286","Before you play the game for real, you will play with practice decks. </br> The tokens you earn during practice won't count toward your total.","86","","instructions","2021-04-01 09:26:30.878","","","","","",""
"casino-keyboard-response","34","223992","0.0-16.0-0.12","A1068","true","img/card_backs/set1/purple.gif","img/card_backs/set1/green.gif","img/card_backs/set1/yellow.gif","img/card_backs/set1/red.gif","img/card_backs/set2/gray.gif","img/card_backs/set2/blue.gif","img/card_backs/set2/orange.gif","img/card_backs/set2/pink.gif","""event"",""trial"",""time""
""fullscreenenter"",""1"",""3755""
","
","
","""event"",""trial"",""time""
""fullscreenenter"",""1"",""3755""
","
","","8140.3999999165535","Ready? Remember, use the '2', '4', '6', and '8' keys to select the decks. </br> Put your fingers on those keys now and then press '2' to begin.","50","","instructions","2021-04-01 09:26:39.020","","","","","",""
"casino-fixation","35","224498","0.0-17.0-0.0","A1068","true","img/card_backs/set1/purple.gif","img/card_backs/set1/green.gif","img/card_backs/set1/yellow.gif","img/card_backs/set1/red.gif","img/card_backs/set2/gray.gif","img/card_backs/set2/blue.gif","img/card_backs/set2/orange.gif","img/card_backs/set2/pink.gif","""event"",""trial"",""time""
""fullscreenenter"",""1"",""3755""
","
","
","""event"",""trial"",""time""
""fullscreenenter"",""1"",""3755""
","
","","null","","null","","fixation","2021-04-01 09:26:39.527","","","","","",""
"card-selection-trial","36","227406","0.0-17.0-1.0","A1068","true","img/card_backs/set1/purple.gif","img/card_backs/set1/green.gif","img/card_backs/set1/yellow.gif","img/card_backs/set1/red.gif","img/card_backs/set2/gray.gif","img/card_backs/set2/blue.gif","img/card_backs/set2/orange.gif","img/card_backs/set2/pink.gif","""event"",""trial"",""time""
""fullscreenenter"",""1"",""3755""
","
","
","""event"",""trial"",""time""
""fullscreenenter"",""1"",""3755""
","
","","903.0499999644235","","","","practice","2021-04-01 09:26:42.435","img/practice_cards/backs/brown.gif","0","-100","0","",""
"casino-fixation","37","227911","0.0-17.0-0.1","A1068","true","img/card_backs/set1/purple.gif","img/card_backs/set1/green.gif","img/card_backs/set1/yellow.gif","img/card_backs/set1/red.gif","img/card_backs/set2/gray.gif","img/card_backs/set2/blue.gif","img/card_backs/set2/orange.gif","img/card_backs/set2/pink.gif","""event"",""trial"",""time""
""fullscreenenter"",""1"",""3755""
","
","
","""event"",""trial"",""time""
""fullscreenenter"",""1"",""3755""
","
","","null","","null","","fixation","2021-04-01 09:26:42.939","","","","","",""
"card-selection-trial","38","230384","0.0-17.0-1.1","A1068","true","img/card_backs/set1/purple.gif","img/card_backs/set1/green.gif","img/card_backs/set1/yellow.gif","img/card_backs/set1/red.gif","img/card_backs/set2/gray.gif","img/card_backs/set2/blue.gif","img/card_backs/set2/orange.gif","img/card_backs/set2/pink.gif","""event"",""trial"",""time""
""fullscreenenter"",""1"",""3755""
","
","
","""event"",""trial"",""time""
""fullscreenenter"",""1"",""3755""
","
","","465.8199999248609","","","","practice","2021-04-01 09:26:45.412","img/practice_cards/backs/dark_blue.gif","0","200","0","",""
"casino-fixation","39","230889","0.0-17.0-0.2","A1068","true","img/card_backs/set1/purple.gif","img/card_backs/set1/green.gif","img/card_backs/set1/yellow.gif","img/card_backs/set1/red.gif","img/card_backs/set2/gray.gif","img/card_backs/set2/blue.gif","img/card_backs/set2/orange.gif","img/card_backs/set2/pink.gif","""event"",""trial"",""time""
""fullscreenenter"",""1"",""3755""
","
","
","""event"",""trial"",""time""
""fullscreenenter"",""1"",""3755""
","
","","null","","null","","fixation","2021-04-01 09:26:45.917","","","","","",""
"card-selection-trial","40","233240","0.0-17.0-1.2","A1068","true","img/card_backs/set1/purple.gif","img/card_backs/set1/green.gif","img/card_backs/set1/yellow.gif","img/card_backs/set1/red.gif","img/card_backs/set2/gray.gif","img/card_backs/set2/blue.gif","img/card_backs/set2/orange.gif","img/card_backs/set2/pink.gif","""event"",""trial"",""time""
""fullscreenenter"",""1"",""3755""
","
","
","""event"",""trial"",""time""
""fullscreenenter"",""1"",""3755""
","
","","341.4399999892339","","","","practice","2021-04-01 09:26:48.269","img/practice_cards/backs/black.gif","0","-100","0","",""
"casino-fixation","41","233745","0.0-17.0-0.3","A1068","true","img/card_backs/set1/purple.gif","img/card_backs/set1/green.gif","img/card_backs/set1/yellow.gif","img/card_backs/set1/red.gif","img/card_backs/set2/gray.gif","img/card_backs/set2/blue.gif","img/card_backs/set2/orange.gif","img/card_backs/set2/pink.gif","""event"",""trial"",""time""
""fullscreenenter"",""1"",""3755""
","
","
","""event"",""trial"",""time""
""fullscreenenter"",""1"",""3755""
","
","","null","","null","","fixation","2021-04-01 09:26:48.773","","","","","",""
"card-selection-trial","42","236143","0.0-17.0-1.3","A1068","true","img/card_backs/set1/purple.gif","img/card_backs/set1/green.gif","img/card_backs/set1/yellow.gif","img/card_backs/set1/red.gif","img/card_backs/set2/gray.gif","img/card_backs/set2/blue.gif","img/card_backs/set2/orange.gif","img/card_backs/set2/pink.gif","""event"",""trial"",""time""
""fullscreenenter"",""1"",""3755""
","
","
","""event"",""trial"",""time""
""fullscreenenter"",""1"",""3755""
","
","","387.8350000595674","","","","practice","2021-04-01 09:26:51.171","img/practice_cards/backs/black.gif","0","100","0","",""
"casino-fixation","43","236648","0.0-17.0-0.4","A1068","true","img/card_backs/set1/purple.gif","img/card_backs/set1/green.gif","img/card_backs/set1/yellow.gif","img/card_backs/set1/red.gif","img/card_backs/set2/gray.gif","img/card_backs/set2/blue.gif","img/card_backs/set2/orange.gif","img/card_backs/set2/pink.gif","""event"",""trial"",""time""
""fullscreenenter"",""1"",""3755""
","
","
","""event"",""trial"",""time""
""fullscreenenter"",""1"",""3755""
","
","","null","","null","","fixation","2021-04-01 09:26:51.676","","","","","",""
"card-selection-trial","44","238699","0.0-17.0-1.4","A1068","true","img/card_backs/set1/purple.gif","img/card_backs/set1/green.gif","img/card_backs/set1/yellow.gif","img/card_backs/set1/red.gif","img/card_backs/set2/gray.gif","img/card_backs/set2/blue.gif","img/card_backs/set2/orange.gif","img/card_backs/set2/pink.gif","""event"",""trial"",""time""
""fullscreenenter"",""1"",""3755""
","
","
","""event"",""trial"",""time""
""fullscreenenter"",""1"",""3755""
","
","","41.345000034198165","","","","practice","2021-04-01 09:26:53.727","img/practice_cards/backs/black.gif","0","100","0","",""
"casino-fixation","45","239202","0.0-17.0-0.5","A1068","true","img/card_backs/set1/purple.gif","img/card_backs/set1/green.gif","img/card_backs/set1/yellow.gif","img/card_backs/set1/red.gif","img/card_backs/set2/gray.gif","img/card_backs/set2/blue.gif","img/card_backs/set2/orange.gif","img/card_backs/set2/pink.gif","""event"",""trial"",""time""
""fullscreenenter"",""1"",""3755""
","
","
","""event"",""trial"",""time""
""fullscreenenter"",""1"",""3755""
","
","","null","","null","","fixation","2021-04-01 09:26:54.230","","","","","",""
"card-selection-trial","46","241617","0.0-17.0-1.5","A1068","true","img/card_backs/set1/purple.gif","img/card_backs/set1/green.gif","img/card_backs/set1/yellow.gif","img/card_backs/set1/red.gif","img/card_backs/set2/gray.gif","img/card_backs/set2/blue.gif","img/card_backs/set2/orange.gif","img/card_backs/set2/pink.gif","""event"",""trial"",""time""
""fullscreenenter"",""1"",""3755""
","
","
","""event"",""trial"",""time""
""fullscreenenter"",""1"",""3755""
","
","","405.57499998249114","","","","practice","2021-04-01 09:26:56.645","img/practice_cards/backs/dark_green.gif","0","-200","0","",""
"casino-fixation","47","242121","0.0-17.0-0.6","A1068","true","img/card_backs/set1/purple.gif","img/card_backs/set1/green.gif","img/card_backs/set1/yellow.gif","img/card_backs/set1/red.gif","img/card_backs/set2/gray.gif","img/card_backs/set2/blue.gif","img/card_backs/set2/orange.gif","img/card_backs/set2/pink.gif","""event"",""trial"",""time""
""fullscreenenter"",""1"",""3755""
","
","
","""event"",""trial"",""time""
""fullscreenenter"",""1"",""3755""
","
","","null","","null","","fixation","2021-04-01 09:26:57.149","","","","","",""
"card-selection-trial","48","244264","0.0-17.0-1.6","A1068","true","img/card_backs/set1/purple.gif","img/card_backs/set1/green.gif","img/card_backs/set1/yellow.gif","img/card_backs/set1/red.gif","img/card_backs/set2/gray.gif","img/card_backs/set2/blue.gif","img/card_backs/set2/orange.gif","img/card_backs/set2/pink.gif","""event"",""trial"",""time""
""fullscreenenter"",""1"",""3755""
","
","
","""event"",""trial"",""time""
""fullscreenenter"",""1"",""3755""
","
","","136.97500003036112","","","","practice","2021-04-01 09:26:59.292","img/practice_cards/backs/dark_green.gif","0","-200","0","",""
"casino-fixation","49","244766","0.0-17.0-0.7","A1068","true","img/card_backs/set1/purple.gif","img/card_backs/set1/green.gif","img/card_backs/set1/yellow.gif","img/card_backs/set1/red.gif","img/card_backs/set2/gray.gif","img/card_backs/set2/blue.gif","img/card_backs/set2/orange.gif","img/card_backs/set2/pink.gif","""event"",""trial"",""time""
""fullscreenenter"",""1"",""3755""
","
","
","""event"",""trial"",""time""
""fullscreenenter"",""1"",""3755""
","
","","null","","null","","fixation","2021-04-01 09:26:59.794","","","","","",""
"card-selection-trial","50","247184","0.0-17.0-1.7","A1068","true","img/card_backs/set1/purple.gif","img/card_backs/set1/green.gif","img/card_backs/set1/yellow.gif","img/card_backs/set1/red.gif","img/card_backs/set2/gray.gif","img/card_backs/set2/blue.gif","img/card_backs/set2/orange.gif","img/card_backs/set2/pink.gif","""event"",""trial"",""time""
""fullscreenenter"",""1"",""3755""
","
","
","""event"",""trial"",""time""
""fullscreenenter"",""1"",""3755""
","
","","411.01999999955297","","","","practice","2021-04-01 09:27:02.212","img/practice_cards/backs/black.gif","0","-100","0","",""
"casino-fixation","51","247689","0.0-17.0-0.8","A1068","true","img/card_backs/set1/purple.gif","img/card_backs/set1/green.gif","img/card_backs/set1/yellow.gif","img/card_backs/set1/red.gif","img/card_backs/set2/gray.gif","img/card_backs/set2/blue.gif","img/card_backs/set2/orange.gif","img/card_backs/set2/pink.gif","""event"",""trial"",""time""
""fullscreenenter"",""1"",""3755""
","
","
","""event"",""trial"",""time""
""fullscreenenter"",""1"",""3755""
","
","","null","","null","","fixation","2021-04-01 09:27:02.717","","","","","",""
"card-selection-trial","52","250232","0.0-17.0-1.8","A1068","true","img/card_backs/set1/purple.gif","img/card_backs/set1/green.gif","img/card_backs/set1/yellow.gif","img/card_backs/set1/red.gif","img/card_backs/set2/gray.gif","img/card_backs/set2/blue.gif","img/card_backs/set2/orange.gif","img/card_backs/set2/pink.gif","""event"",""trial"",""time""
""fullscreenenter"",""1"",""3755""
","
","
","""event"",""trial"",""time""
""fullscreenenter"",""1"",""3755""
","
","","533.5350000532344","","","","practice","2021-04-01 09:27:05.260","img/practice_cards/backs/dark_green.gif","1","200","0","",""
"casino-fixation","53","250737","0.0-17.0-0.9","A1068","true","img/card_backs/set1/purple.gif","img/card_backs/set1/green.gif","img/card_backs/set1/yellow.gif","img/card_backs/set1/red.gif","img/card_backs/set2/gray.gif","img/card_backs/set2/blue.gif","img/card_backs/set2/orange.gif","img/card_backs/set2/pink.gif","""event"",""trial"",""time""
""fullscreenenter"",""1"",""3755""
","
","
","""event"",""trial"",""time""
""fullscreenenter"",""1"",""3755""
","
","","null","","null","","fixation","2021-04-01 09:27:05.765","","","","","",""
"card-selection-trial","54","253097","0.0-17.0-1.9","A1068","true","img/card_backs/set1/purple.gif","img/card_backs/set1/green.gif","img/card_backs/set1/yellow.gif","img/card_backs/set1/red.gif","img/card_backs/set2/gray.gif","img/card_backs/set2/blue.gif","img/card_backs/set2/orange.gif","img/card_backs/set2/pink.gif","""event"",""trial"",""time""
""fullscreenenter"",""1"",""3755""
","
","
","""event"",""trial"",""time""
""fullscreenenter"",""1"",""3755""
","
","","352.2499999962747","","","","practice","2021-04-01 09:27:08.125","img/practice_cards/backs/dark_green.gif","2","200","0","",""
"casino-keyboard-response","55","255996","0.0-18.0","A1068","true","img/card_backs/set1/purple.gif","img/card_backs/set1/green.gif","img/card_backs/set1/yellow.gif","img/card_backs/set1/red.gif","img/card_backs/set2/gray.gif","img/card_backs/set2/blue.gif","img/card_backs/set2/orange.gif","img/card_backs/set2/pink.gif","""event"",""trial"",""time""
""fullscreenenter"",""1"",""3755""
","
","
","""event"",""trial"",""time""
""fullscreenenter"",""1"",""3755""
","
","","2897.4750000052154","You earned 100 tokens during the practice round!","75","","","2021-04-01 09:27:11.024","","","","","",""
"casino-keyboard-response","56","260242","0.0-19.0-0.0","A1068","true","img/card_backs/set1/purple.gif","img/card_backs/set1/green.gif","img/card_backs/set1/yellow.gif","img/card_backs/set1/red.gif","img/card_backs/set2/gray.gif","img/card_backs/set2/blue.gif","img/card_backs/set2/orange.gif","img/card_backs/set2/pink.gif","""event"",""trial"",""time""
""fullscreenenter"",""1"",""3755""
","
","
","""event"",""trial"",""time""
""fullscreenenter"",""1"",""3755""
","
","","4244.734999956563","Nice job! You are almost ready to play the real game.","86","","instructions","2021-04-01 09:27:15.270","","","","","",""
"casino-keyboard-response","57","266527","0.0-19.0-0.1","A1068","true","img/card_backs/set1/purple.gif","img/card_backs/set1/green.gif","img/card_backs/set1/yellow.gif","img/card_backs/set1/red.gif","img/card_backs/set2/gray.gif","img/card_backs/set2/blue.gif","img/card_backs/set2/orange.gif","img/card_backs/set2/pink.gif","""event"",""trial"",""time""
""fullscreenenter"",""1"",""3755""
","
","
","""event"",""trial"",""time""
""fullscreenenter"",""1"",""3755""
","
","","6283.290000050329","You will play two rounds of the real game. In each round, you will pick 100 cards in total.","73","","instructions","2021-04-01 09:27:21.555","","","","","",""
"casino-keyboard-response","58","270823","0.0-19.0-0.2","A1068","true","img/card_backs/set1/purple.gif","img/card_backs/set1/green.gif","img/card_backs/set1/yellow.gif","img/card_backs/set1/red.gif","img/card_backs/set2/gray.gif","img/card_backs/set2/blue.gif","img/card_backs/set2/orange.gif","img/card_backs/set2/pink.gif","""event"",""trial"",""time""
""fullscreenenter"",""1"",""3755""
","
","
","""event"",""trial"",""time""
""fullscreenenter"",""1"",""3755""
","
","","4294.060000102036","We are now going to ask you some questions about how the game works.","66","","instructions","2021-04-01 09:27:25.851","","","","","",""
"casino-keyboard-response","59","276864","0.0-19.0-0.3","A1068","true","img/card_backs/set1/purple.gif","img/card_backs/set1/green.gif","img/card_backs/set1/yellow.gif","img/card_backs/set1/red.gif","img/card_backs/set2/gray.gif","img/card_backs/set2/blue.gif","img/card_backs/set2/orange.gif","img/card_backs/set2/pink.gif","""event"",""trial"",""time""
""fullscreenenter"",""1"",""3755""
","
","
","""event"",""trial"",""time""
""fullscreenenter"",""1"",""3755""
","
","","6039.624999975786","Answer carefully. You will not be able to begin the game until you answer them correctly.","67","","instructions","2021-04-01 09:27:31.892","","","","","",""
"casino-comp_q","60","283738","0.0-20.0-0.0","A1068","true","img/card_backs/set1/purple.gif","img/card_backs/set1/green.gif","img/card_backs/set1/yellow.gif","img/card_backs/set1/red.gif","img/card_backs/set2/gray.gif","img/card_backs/set2/blue.gif","img/card_backs/set2/orange.gif","img/card_backs/set2/pink.gif","""event"",""trial"",""time""
""fullscreenenter"",""1"",""3755""
","
","
","""event"",""trial"",""time""
""fullscreenenter"",""1"",""3755""
","
","","6863.98000002373","True or False: All the decks have some cards that cause you to win tokens and some cards that cause you to lose tokens.","84","","","2021-04-01 09:27:38.766","","","","","",""
"casino-keyboard-response","61","286812","0.0-20.0-1.0","A1068","true","img/card_backs/set1/purple.gif","img/card_backs/set1/green.gif","img/card_backs/set1/yellow.gif","img/card_backs/set1/red.gif","img/card_backs/set2/gray.gif","img/card_backs/set2/blue.gif","img/card_backs/set2/orange.gif","img/card_backs/set2/pink.gif","""event"",""trial"",""time""
""fullscreenenter"",""1"",""3755""
","
","
","""event"",""trial"",""time""
""fullscreenenter"",""1"",""3755""
","
","","3071.6450000181794","True is correct! All the decks have a mix of winning and losing cards.","77","","","2021-04-01 09:27:41.840","","","","","true",""
"casino-comp_q","62","290659","0.0-21.0-0.0","A1068","true","img/card_backs/set1/purple.gif","img/card_backs/set1/green.gif","img/card_backs/set1/yellow.gif","img/card_backs/set1/red.gif","img/card_backs/set2/gray.gif","img/card_backs/set2/blue.gif","img/card_backs/set2/orange.gif","img/card_backs/set2/pink.gif","""event"",""trial"",""time""
""fullscreenenter"",""1"",""3755""
","
","
","""event"",""trial"",""time""
""fullscreenenter"",""1"",""3755""
","
","","3844.5649999193847","True or False: You will have as much time as you want to make your response.","70","","","2021-04-01 09:27:45.687","","","","","",""
"casino-keyboard-response","63","293347","0.0-21.0-1.0","A1068","true","img/card_backs/set1/purple.gif","img/card_backs/set1/green.gif","img/card_backs/set1/yellow.gif","img/card_backs/set1/red.gif","img/card_backs/set2/gray.gif","img/card_backs/set2/blue.gif","img/card_backs/set2/orange.gif","img/card_backs/set2/pink.gif","""event"",""trial"",""time""
""fullscreenenter"",""1"",""3755""
","
","
","""event"",""trial"",""time""
""fullscreenenter"",""1"",""3755""
","
","","2686.115000047721","False is correct! You will only have 10 seconds to make each choice.","75","","","2021-04-01 09:27:48.375","","","","","true",""
"casino-comp_q","64","299727","0.0-22.0-0.0","A1068","true","img/card_backs/set1/purple.gif","img/card_backs/set1/green.gif","img/card_backs/set1/yellow.gif","img/card_backs/set1/red.gif","img/card_backs/set2/gray.gif","img/card_backs/set2/blue.gif","img/card_backs/set2/orange.gif","img/card_backs/set2/pink.gif","""event"",""trial"",""time""
""fullscreenenter"",""1"",""3755""
","
","
","""event"",""trial"",""time""
""fullscreenenter"",""1"",""3755""
","
","","6377.609999966808","True or False: The location of the deck determines how lucky it is.","70","","","2021-04-01 09:27:54.755","","","","","",""
"casino-keyboard-response","65","303113","0.0-22.0-1.0","A1068","true","img/card_backs/set1/purple.gif","img/card_backs/set1/green.gif","img/card_backs/set1/yellow.gif","img/card_backs/set1/red.gif","img/card_backs/set2/gray.gif","img/card_backs/set2/blue.gif","img/card_backs/set2/orange.gif","img/card_backs/set2/pink.gif","""event"",""trial"",""time""
""fullscreenenter"",""1"",""3755""
","
","
","""event"",""trial"",""time""
""fullscreenenter"",""1"",""3755""
","
","","3384.6700000576675","False is correct! The <i>color</i>  of the deck determines how lucky or unlucky it is.","68","","","2021-04-01 09:27:58.141","","","","","true",""
"casino-keyboard-response","66","309015","0.0-23.0-0.0","A1068","true","img/card_backs/set1/purple.gif","img/card_backs/set1/green.gif","img/card_backs/set1/yellow.gif","img/card_backs/set1/red.gif","img/card_backs/set2/gray.gif","img/card_backs/set2/blue.gif","img/card_backs/set2/orange.gif","img/card_backs/set2/pink.gif","""event"",""trial"",""time""
""fullscreenenter"",""1"",""3755""
","
","
","""event"",""trial"",""time""
""fullscreenenter"",""1"",""3755""
","
","","5900.779999908991","Great job! Now it's time to start the real game.","82","","instructions","2021-04-01 09:28:04.044","","","","","",""
"casino-keyboard-response","67","314290","0.0-23.0-0.1","A1068","true","img/card_backs/set1/purple.gif","img/card_backs/set1/green.gif","img/card_backs/set1/yellow.gif","img/card_backs/set1/red.gif","img/card_backs/set2/gray.gif","img/card_backs/set2/blue.gif","img/card_backs/set2/orange.gif","img/card_backs/set2/pink.gif","""event"",""trial"",""time""
""fullscreenenter"",""1"",""3755""
","
","
","""event"",""trial"",""time""
""fullscreenenter"",""1"",""3755""
","
","","5273.469999898225","Before we start, we're going to head into a new room of the casino.","86","","instructions","2021-04-01 09:28:09.318","","","","","",""
"casino-keyboard-response","68","320523","0.0-24.0-0.0","A1068","true","img/card_backs/set1/purple.gif","img/card_backs/set1/green.gif","img/card_backs/set1/yellow.gif","img/card_backs/set1/red.gif","img/card_backs/set2/gray.gif","img/card_backs/set2/blue.gif","img/card_backs/set2/orange.gif","img/card_backs/set2/pink.gif","""event"",""trial"",""time""
""fullscreenenter"",""1"",""3755""
","
","
","""event"",""trial"",""time""
""fullscreenenter"",""1"",""3755""
","
","","6229.764999938197","Here we are! The real game will use different cards, but the rules will be the same.","71","","instructions","2021-04-01 09:28:15.551","","","","","",""
"casino-keyboard-response","69","329606","0.0-24.0-0.1","A1068","true","img/card_backs/set1/purple.gif","img/card_backs/set1/green.gif","img/card_backs/set1/yellow.gif","img/card_backs/set1/red.gif","img/card_backs/set2/gray.gif","img/card_backs/set2/blue.gif","img/card_backs/set2/orange.gif","img/card_backs/set2/pink.gif","""event"",""trial"",""time""
""fullscreenenter"",""1"",""3755""
","
","
","""event"",""trial"",""time""
""fullscreenenter"",""1"",""3755""
","
","","9080.715000047348","Ready? Put your fingers over the '2', '4', 6', and '8' keys so you are ready to play the game. </br> Then press 2 to start.","50","","instructions","2021-04-01 09:28:24.634","","","","","",""
"casino-fixation","70","330108","0.0-25.0-0.0","A1068","true","img/card_backs/set1/purple.gif","img/card_backs/set1/green.gif","img/card_backs/set1/yellow.gif","img/card_backs/set1/red.gif","img/card_backs/set2/gray.gif","img/card_backs/set2/blue.gif","img/card_backs/set2/orange.gif","img/card_backs/set2/pink.gif","""event"",""trial"",""time""
""fullscreenenter"",""1"",""3755""
","
","
","""event"",""trial"",""time""
""fullscreenenter"",""1"",""3755""
","
","","null","","null","","fixation","2021-04-01 09:28:25.136","","","","","",""
"card-selection-trial","71","339385","0.0-25.0-1.0","A1068","true","img/card_backs/set1/purple.gif","img/card_backs/set1/green.gif","img/card_backs/set1/yellow.gif","img/card_backs/set1/red.gif","img/card_backs/set2/gray.gif","img/card_backs/set2/blue.gif","img/card_backs/set2/orange.gif","img/card_backs/set2/pink.gif","""event"",""trial"",""time""
""fullscreenenter"",""1"",""3755""
","
","
","""event"",""trial"",""time""
""fullscreenenter"",""1"",""3755""
","
","","7259.554999996908","","","","real_trial","2021-04-01 09:28:34.413","img/card_backs/set1/green.gif","0","-210","1","",""
"casino-fixation","72","339890","0.0-25.0-0.1","A1068","true","img/card_backs/set1/purple.gif","img/card_backs/set1/green.gif","img/card_backs/set1/yellow.gif","img/card_backs/set1/red.gif","img/card_backs/set2/gray.gif","img/card_backs/set2/blue.gif","img/card_backs/set2/orange.gif","img/card_backs/set2/pink.gif","""event"",""trial"",""time""
""fullscreenenter"",""1"",""3755""
","
","
","""event"",""trial"",""time""
""fullscreenenter"",""1"",""3755""
","
","","null","","null","","fixation","2021-04-01 09:28:34.918","","","","","",""
"card-selection-trial","73","345480","0.0-25.0-1.1","A1068","true","img/card_backs/set1/purple.gif","img/card_backs/set1/green.gif","img/card_backs/set1/yellow.gif","img/card_backs/set1/red.gif","img/card_backs/set2/gray.gif","img/card_backs/set2/blue.gif","img/card_backs/set2/orange.gif","img/card_backs/set2/pink.gif","""event"",""trial"",""time""
""fullscreenenter"",""1"",""3755""
","
","
","""event"",""trial"",""time""
""fullscreenenter"",""1"",""3755""
","
","","3578.8750000065193","","","","real_trial","2021-04-01 09:28:40.508","img/card_backs/set1/red.gif","1","40","1","",""
"casino-fixation","74","345987","0.0-25.0-0.2","A1068","true","img/card_backs/set1/purple.gif","img/card_backs/set1/green.gif","img/card_backs/set1/yellow.gif","img/card_backs/set1/red.gif","img/card_backs/set2/gray.gif","img/card_backs/set2/blue.gif","img/card_backs/set2/orange.gif","img/card_backs/set2/pink.gif","""event"",""trial"",""time""
""fullscreenenter"",""1"",""3755""
","
","
","""event"",""trial"",""time""
""fullscreenenter"",""1"",""3755""
","
","","null","","null","","fixation","2021-04-01 09:28:41.015","","","","","",""
"card-selection-trial","75","352496","0.0-25.0-1.2","A1068","true","img/card_backs/set1/purple.gif","img/card_backs/set1/green.gif","img/card_backs/set1/yellow.gif","img/card_backs/set1/red.gif","img/card_backs/set2/gray.gif","img/card_backs/set2/blue.gif","img/card_backs/set2/orange.gif","img/card_backs/set2/pink.gif","""event"",""trial"",""time""
""fullscreenenter"",""1"",""3755""
","
","
","""event"",""trial"",""time""
""fullscreenenter"",""1"",""3755""
","
","","4502.319999970496","","","","real_trial","2021-04-01 09:28:47.524","img/card_backs/set1/purple.gif","2","-200","1","",""
"casino-fixation","76","353001","0.0-25.0-0.3","A1068","true","img/card_backs/set1/purple.gif","img/card_backs/set1/green.gif","img/card_backs/set1/yellow.gif","img/card_backs/set1/red.gif","img/card_backs/set2/gray.gif","img/card_backs/set2/blue.gif","img/card_backs/set2/orange.gif","img/card_backs/set2/pink.gif","""event"",""trial"",""time""
""fullscreenenter"",""1"",""3755""
","
","
","""event"",""trial"",""time""
""fullscreenenter"",""1"",""3755""
","
","","null","","null","","fixation","2021-04-01 09:28:48.029","","","","","",""
"card-selection-trial","77","357344","0.0-25.0-1.3","A1068","true","img/card_backs/set1/purple.gif","img/card_backs/set1/green.gif","img/card_backs/set1/yellow.gif","img/card_backs/set1/red.gif","img/card_backs/set2/gray.gif","img/card_backs/set2/blue.gif","img/card_backs/set2/orange.gif","img/card_backs/set2/pink.gif","""event"",""trial"",""time""
""fullscreenenter"",""1"",""3755""
","
","
","""event"",""trial"",""time""
""fullscreenenter"",""1"",""3755""
","
","","2334.059999906458","","","","real_trial","2021-04-01 09:28:52.372","img/card_backs/set1/yellow.gif","3","50","1","",""
"casino-fixation","78","357849","0.0-25.0-0.4","A1068","true","img/card_backs/set1/purple.gif","img/card_backs/set1/green.gif","img/card_backs/set1/yellow.gif","img/card_backs/set1/red.gif","img/card_backs/set2/gray.gif","img/card_backs/set2/blue.gif","img/card_backs/set2/orange.gif","img/card_backs/set2/pink.gif","""event"",""trial"",""time""
""fullscreenenter"",""1"",""3755""
","
","
","""event"",""trial"",""time""
""fullscreenenter"",""1"",""3755""
","
","","null","","null","","fixation","2021-04-01 09:28:52.877","","","","","",""
"card-selection-trial","79","362332","0.0-25.0-1.4","A1068","true","img/card_backs/set1/purple.gif","img/card_backs/set1/green.gif","img/card_backs/set1/yellow.gif","img/card_backs/set1/red.gif","img/card_backs/set2/gray.gif","img/card_backs/set2/blue.gif","img/card_backs/set2/orange.gif","img/card_backs/set2/pink.gif","""event"",""trial"",""time""
""fullscreenenter"",""1"",""3755""
","
","
","""event"",""trial"",""time""
""fullscreenenter"",""1"",""3755""
","
","","2475.1150000374764","","","","real_trial","2021-04-01 09:28:57.360","img/card_backs/set1/yellow.gif","3","40","1","",""
"casino-fixation","80","362837","0.0-25.0-0.5","A1068","true","img/card_backs/set1/purple.gif","img/card_backs/set1/green.gif","img/card_backs/set1/yellow.gif","img/card_backs/set1/red.gif","img/card_backs/set2/gray.gif","img/card_backs/set2/blue.gif","img/card_backs/set2/orange.gif","img/card_backs/set2/pink.gif","""event"",""trial"",""time""
""fullscreenenter"",""1"",""3755""
","
","
","""event"",""trial"",""time""
""fullscreenenter"",""1"",""3755""
","
","","null","","null","","fixation","2021-04-01 09:28:57.865","","","","","",""
"card-selection-trial","81","365522","0.0-25.0-1.5","A1068","true","img/card_backs/set1/purple.gif","img/card_backs/set1/green.gif","img/card_backs/set1/yellow.gif","img/card_backs/set1/red.gif","img/card_backs/set2/gray.gif","img/card_backs/set2/blue.gif","img/card_backs/set2/orange.gif","img/card_backs/set2/pink.gif","""event"",""trial"",""time""
""fullscreenenter"",""1"",""3755""
","
","
","""event"",""trial"",""time""
""fullscreenenter"",""1"",""3755""
","
","","676.5700000105426","","","","real_trial","2021-04-01 09:29:00.550","img/card_backs/set1/yellow.gif","3","40","1","",""
"casino-fixation","82","366027","0.0-25.0-0.6","A1068","true","img/card_backs/set1/purple.gif","img/card_backs/set1/green.gif","img/card_backs/set1/yellow.gif","img/card_backs/set1/red.gif","img/card_backs/set2/gray.gif","img/card_backs/set2/blue.gif","img/card_backs/set2/orange.gif","img/card_backs/set2/pink.gif","""event"",""trial"",""time""
""fullscreenenter"",""1"",""3755""
","
","
","""event"",""trial"",""time""
""fullscreenenter"",""1"",""3755""
","
","","null","","null","","fixation","2021-04-01 09:29:01.055","","","","","",""
"card-selection-trial","83","369264","0.0-25.0-1.6","A1068","true","img/card_backs/set1/purple.gif","img/card_backs/set1/green.gif","img/card_backs/set1/yellow.gif","img/card_backs/set1/red.gif","img/card_backs/set2/gray.gif","img/card_backs/set2/blue.gif","img/card_backs/set2/orange.gif","img/card_backs/set2/pink.gif","""event"",""trial"",""time""
""fullscreenenter"",""1"",""3755""
","
","
","""event"",""trial"",""time""
""fullscreenenter"",""1"",""3755""
","
","","1231.0850000940263","","","","real_trial","2021-04-01 09:29:04.292","img/card_backs/set1/yellow.gif","1","50","1","",""
"casino-fixation","84","369769","0.0-25.0-0.7","A1068","true","img/card_backs/set1/purple.gif","img/card_backs/set1/green.gif","img/card_backs/set1/yellow.gif","img/card_backs/set1/red.gif","img/card_backs/set2/gray.gif","img/card_backs/set2/blue.gif","img/card_backs/set2/orange.gif","img/card_backs/set2/pink.gif","""event"",""trial"",""time""
""fullscreenenter"",""1"",""3755""
","
","
","""event"",""trial"",""time""
""fullscreenenter"",""1"",""3755""
","
","","null","","null","","fixation","2021-04-01 09:29:04.797","","","","","",""
"card-selection-trial","85","372999","0.0-25.0-1.7","A1068","true","img/card_backs/set1/purple.gif","img/card_backs/set1/green.gif","img/card_backs/set1/yellow.gif","img/card_backs/set1/red.gif","img/card_backs/set2/gray.gif","img/card_backs/set2/blue.gif","img/card_backs/set2/orange.gif","img/card_backs/set2/pink.gif","""event"",""trial"",""time""
""fullscreenenter"",""1"",""3755""
","
","
","""event"",""trial"",""time""
""fullscreenenter"",""1"",""3755""
","
","","1223.424999974668","","","","real_trial","2021-04-01 09:29:08.028","img/card_backs/set1/yellow.gif","1","60","1","",""
"casino-fixation","86","373504","0.0-25.0-0.8","A1068","true","img/card_backs/set1/purple.gif","img/card_backs/set1/green.gif","img/card_backs/set1/yellow.gif","img/card_backs/set1/red.gif","img/card_backs/set2/gray.gif","img/card_backs/set2/blue.gif","img/card_backs/set2/orange.gif","img/card_backs/set2/pink.gif","""event"",""trial"",""time""
""fullscreenenter"",""1"",""3755""
","
","
","""event"",""trial"",""time""
""fullscreenenter"",""1"",""3755""
","
","","null","","null","","fixation","2021-04-01 09:29:08.532","","","","","",""
"card-selection-trial","87","376852","0.0-25.0-1.8","A1068","true","img/card_backs/set1/purple.gif","img/card_backs/set1/green.gif","img/card_backs/set1/yellow.gif","img/card_backs/set1/red.gif","img/card_backs/set2/gray.gif","img/card_backs/set2/blue.gif","img/card_backs/set2/orange.gif","img/card_backs/set2/pink.gif","""event"",""trial"",""time""
""fullscreenenter"",""1"",""3755""
","
","
","""event"",""trial"",""time""
""fullscreenenter"",""1"",""3755""
","
","","1338.0400000605732","","","","real_trial","2021-04-01 09:29:11.880","img/card_backs/set1/yellow.gif","0","40","1","",""
"casino-fixation","88","377357","0.0-25.0-0.9","A1068","true","img/card_backs/set1/purple.gif","img/card_backs/set1/green.gif","img/card_backs/set1/yellow.gif","img/card_backs/set1/red.gif","img/card_backs/set2/gray.gif","img/card_backs/set2/blue.gif","img/card_backs/set2/orange.gif","img/card_backs/set2/pink.gif","""event"",""trial"",""time""
""fullscreenenter"",""1"",""3755""
","
","
","""event"",""trial"",""time""
""fullscreenenter"",""1"",""3755""
","
","","null","","null","","fixation","2021-04-01 09:29:12.385","","","","","",""
"card-selection-trial","89","380566","0.0-25.0-1.9","A1068","true","img/card_backs/set1/purple.gif","img/card_backs/set1/green.gif","img/card_backs/set1/yellow.gif","img/card_backs/set1/red.gif","img/card_backs/set2/gray.gif","img/card_backs/set2/blue.gif","img/card_backs/set2/orange.gif","img/card_backs/set2/pink.gif","""event"",""trial"",""time""
""fullscreenenter"",""1"",""3755""
","
","
","""event"",""trial"",""time""
""fullscreenenter"",""1"",""3755""
","
","","1202.3300000000745","","","","real_trial","2021-04-01 09:29:15.595","img/card_backs/set1/yellow.gif","1","60","1","",""
"casino-fixation","90","381073","0.0-25.0-0.10","A1068","true","img/card_backs/set1/purple.gif","img/card_backs/set1/green.gif","img/card_backs/set1/yellow.gif","img/card_backs/set1/red.gif","img/card_backs/set2/gray.gif","img/card_backs/set2/blue.gif","img/card_backs/set2/orange.gif","img/card_backs/set2/pink.gif","""event"",""trial"",""time""
""fullscreenenter"",""1"",""3755""
","
","
","""event"",""trial"",""time""
""fullscreenenter"",""1"",""3755""
","
","","null","","null","","fixation","2021-04-01 09:29:16.101","","","","","",""
"card-selection-trial","91","384149","0.0-25.0-1.10","A1068","true","img/card_backs/set1/purple.gif","img/card_backs/set1/green.gif","img/card_backs/set1/yellow.gif","img/card_backs/set1/red.gif","img/card_backs/set2/gray.gif","img/card_backs/set2/blue.gif","img/card_backs/set2/orange.gif","img/card_backs/set2/pink.gif","""event"",""trial"",""time""
""fullscreenenter"",""1"",""3755""
","
","
","""event"",""trial"",""time""
""fullscreenenter"",""1"",""3755""
","
","","1065.5900000128895","","","","real_trial","2021-04-01 09:29:19.177","img/card_backs/set1/yellow.gif","2","-100","1","",""
"casino-fixation","92","384653","0.0-25.0-0.11","A1068","true","img/card_backs/set1/purple.gif","img/card_backs/set1/green.gif","img/card_backs/set1/yellow.gif","img/card_backs/set1/red.gif","img/card_backs/set2/gray.gif","img/card_backs/set2/blue.gif","img/card_backs/set2/orange.gif","img/card_backs/set2/pink.gif","""event"",""trial"",""time""
""fullscreenenter"",""1"",""3755""
","
","
","""event"",""trial"",""time""
""fullscreenenter"",""1"",""3755""
","
","","null","","null","","fixation","2021-04-01 09:29:19.681","","","","","",""
"card-selection-trial","93","389977","0.0-25.0-1.11","A1068","true","img/card_backs/set1/purple.gif","img/card_backs/set1/green.gif","img/card_backs/set1/yellow.gif","img/card_backs/set1/red.gif","img/card_backs/set2/gray.gif","img/card_backs/set2/blue.gif","img/card_backs/set2/orange.gif","img/card_backs/set2/pink.gif","""event"",""trial"",""time""
""fullscreenenter"",""1"",""3755""
","
","
","""event"",""trial"",""time""
""fullscreenenter"",""1"",""3755""
","
","","3316.4749999996275","","","","real_trial","2021-04-01 09:29:25.005","img/card_backs/set1/red.gif","0","60","1","",""
"casino-fixation","94","390484","0.0-25.0-0.12","A1068","true","img/card_backs/set1/purple.gif","img/card_backs/set1/green.gif","img/card_backs/set1/yellow.gif","img/card_backs/set1/red.gif","img/card_backs/set2/gray.gif","img/card_backs/set2/blue.gif","img/card_backs/set2/orange.gif","img/card_backs/set2/pink.gif","""event"",""trial"",""time""
""fullscreenenter"",""1"",""3755""
","
","
","""event"",""trial"",""time""
""fullscreenenter"",""1"",""3755""
","
","","null","","null","","fixation","2021-04-01 09:29:25.512","","","","","",""
"card-selection-trial","95","393658","0.0-25.0-1.12","A1068","true","img/card_backs/set1/purple.gif","img/card_backs/set1/green.gif","img/card_backs/set1/yellow.gif","img/card_backs/set1/red.gif","img/card_backs/set2/gray.gif","img/card_backs/set2/blue.gif","img/card_backs/set2/orange.gif","img/card_backs/set2/pink.gif","""event"",""trial"",""time""
""fullscreenenter"",""1"",""3755""
","
","
","""event"",""trial"",""time""
""fullscreenenter"",""1"",""3755""
","
","","1164.9400000460446","","","","real_trial","2021-04-01 09:29:28.686","img/card_backs/set1/red.gif","3","50","1","",""
"casino-fixation","96","394163","0.0-25.0-0.13","A1068","true","img/card_backs/set1/purple.gif","img/card_backs/set1/green.gif","img/card_backs/set1/yellow.gif","img/card_backs/set1/red.gif","img/card_backs/set2/gray.gif","img/card_backs/set2/blue.gif","img/card_backs/set2/orange.gif","img/card_backs/set2/pink.gif","""event"",""trial"",""time""
""fullscreenenter"",""1"",""3755""
","
","
","""event"",""trial"",""time""
""fullscreenenter"",""1"",""3755""
","
","","null","","null","","fixation","2021-04-01 09:29:29.191","","","","","",""
"card-selection-trial","97","397367","0.0-25.0-1.13","A1068","true","img/card_backs/set1/purple.gif","img/card_backs/set1/green.gif","img/card_backs/set1/yellow.gif","img/card_backs/set1/red.gif","img/card_backs/set2/gray.gif","img/card_backs/set2/blue.gif","img/card_backs/set2/orange.gif","img/card_backs/set2/pink.gif","""event"",""trial"",""time""
""fullscreenenter"",""1"",""3755""
","
","
","""event"",""trial"",""time""
""fullscreenenter"",""1"",""3755""
","
","","1198.6950000282377","","","","real_trial","2021-04-01 09:29:32.395","img/card_backs/set1/red.gif","3","40","1","",""
"casino-fixation","98","397872","0.0-25.0-0.14","A1068","true","img/card_backs/set1/purple.gif","img/card_backs/set1/green.gif","img/card_backs/set1/yellow.gif","img/card_backs/set1/red.gif","img/card_backs/set2/gray.gif","img/card_backs/set2/blue.gif","img/card_backs/set2/orange.gif","img/card_backs/set2/pink.gif","""event"",""trial"",""time""
""fullscreenenter"",""1"",""3755""
","
","
","""event"",""trial"",""time""
""fullscreenenter"",""1"",""3755""
","
","","null","","null","","fixation","2021-04-01 09:29:32.900","","","","","",""
"card-selection-trial","99","401019","0.0-25.0-1.14","A1068","true","img/card_backs/set1/purple.gif","img/card_backs/set1/green.gif","img/card_backs/set1/yellow.gif","img/card_backs/set1/red.gif","img/card_backs/set2/gray.gif","img/card_backs/set2/blue.gif","img/card_backs/set2/orange.gif","img/card_backs/set2/pink.gif","""event"",""trial"",""time""
""fullscreenenter"",""1"",""3755""
","
","
","""event"",""trial"",""time""
""fullscreenenter"",""1"",""3755""
","
","","1138.0199999548495","","","","real_trial","2021-04-01 09:29:36.047","img/card_backs/set1/red.gif","3","40","1","",""
"casino-fixation","100","401524","0.0-25.0-0.15","A1068","true","img/card_backs/set1/purple.gif","img/card_backs/set1/green.gif","img/card_backs/set1/yellow.gif","img/card_backs/set1/red.gif","img/card_backs/set2/gray.gif","img/card_backs/set2/blue.gif","img/card_backs/set2/orange.gif","img/card_backs/set2/pink.gif","""event"",""trial"",""time""
""fullscreenenter"",""1"",""3755""
","
","
","""event"",""trial"",""time""
""fullscreenenter"",""1"",""3755""
","
","","null","","null","","fixation","2021-04-01 09:29:36.552","","","","","",""
"card-selection-trial","101","404642","0.0-25.0-1.15","A1068","true","img/card_backs/set1/purple.gif","img/card_backs/set1/green.gif","img/card_backs/set1/yellow.gif","img/card_backs/set1/red.gif","img/card_backs/set2/gray.gif","img/card_backs/set2/blue.gif","img/card_backs/set2/orange.gif","img/card_backs/set2/pink.gif","""event"",""trial"",""time""
""fullscreenenter"",""1"",""3755""
","
","
","""event"",""trial"",""time""
""fullscreenenter"",""1"",""3755""
","
","","1112.3999999836087","","","","real_trial","2021-04-01 09:29:39.670","img/card_backs/set1/red.gif","2","50","1","",""
"casino-fixation","102","405146","0.0-25.0-0.16","A1068","true","img/card_backs/set1/purple.gif","img/card_backs/set1/green.gif","img/card_backs/set1/yellow.gif","img/card_backs/set1/red.gif","img/card_backs/set2/gray.gif","img/card_backs/set2/blue.gif","img/card_backs/set2/orange.gif","img/card_backs/set2/pink.gif","""event"",""trial"",""time""
""fullscreenenter"",""1"",""3755""
","
","
","""event"",""trial"",""time""
""fullscreenenter"",""1"",""3755""
","
","","null","","null","","fixation","2021-04-01 09:29:40.174","","","","","",""
"card-selection-trial","103","408261","0.0-25.0-1.16","A1068","true","img/card_backs/set1/purple.gif","img/card_backs/set1/green.gif","img/card_backs/set1/yellow.gif","img/card_backs/set1/red.gif","img/card_backs/set2/gray.gif","img/card_backs/set2/blue.gif","img/card_backs/set2/orange.gif","img/card_backs/set2/pink.gif","""event"",""trial"",""time""
""fullscreenenter"",""1"",""3755""
","
","
","""event"",""trial"",""time""
""fullscreenenter"",""1"",""3755""
","
","","1108.2750000059605","","","","real_trial","2021-04-01 09:29:43.289","img/card_backs/set1/red.gif","1","-110","1","",""
"casino-fixation","104","408763","0.0-25.0-0.17","A1068","true","img/card_backs/set1/purple.gif","img/card_backs/set1/green.gif","img/card_backs/set1/yellow.gif","img/card_backs/set1/red.gif","img/card_backs/set2/gray.gif","img/card_backs/set2/blue.gif","img/card_backs/set2/orange.gif","img/card_backs/set2/pink.gif","""event"",""trial"",""time""
""fullscreenenter"",""1"",""3755""
","
","
","""event"",""trial"",""time""
""fullscreenenter"",""1"",""3755""
","
","","null","","null","","fixation","2021-04-01 09:29:43.791","","","","","",""
"card-selection-trial","105","413088","0.0-25.0-1.17","A1068","true","img/card_backs/set1/purple.gif","img/card_backs/set1/green.gif","img/card_backs/set1/yellow.gif","img/card_backs/set1/red.gif","img/card_backs/set2/gray.gif","img/card_backs/set2/blue.gif","img/card_backs/set2/orange.gif","img/card_backs/set2/pink.gif","""event"",""trial"",""time""
""fullscreenenter"",""1"",""3755""
","
","
","""event"",""trial"",""time""
""fullscreenenter"",""1"",""3755""
","
","","2317.9149999050424","","","","real_trial","2021-04-01 09:29:48.116","img/card_backs/set1/green.gif","3","-200","1","",""
"casino-fixation","106","413593","0.0-25.0-0.18","A1068","true","img/card_backs/set1/purple.gif","img/card_backs/set1/green.gif","img/card_backs/set1/yellow.gif","img/card_backs/set1/red.gif","img/card_backs/set2/gray.gif","img/card_backs/set2/blue.gif","img/card_backs/set2/orange.gif","img/card_backs/set2/pink.gif","""event"",""trial"",""time""
""fullscreenenter"",""1"",""3755""
","
","
","""event"",""trial"",""time""
""fullscreenenter"",""1"",""3755""
","
","","null","","null","","fixation","2021-04-01 09:29:48.621","","","","","",""
"card-selection-trial","107","417425","0.0-25.0-1.18","A1068","true","img/card_backs/set1/purple.gif","img/card_backs/set1/green.gif","img/card_backs/set1/yellow.gif","img/card_backs/set1/red.gif","img/card_backs/set2/gray.gif","img/card_backs/set2/blue.gif","img/card_backs/set2/orange.gif","img/card_backs/set2/pink.gif","""event"",""trial"",""time""
""fullscreenenter"",""1"",""3755""
","
","
","""event"",""trial"",""time""
""fullscreenenter"",""1"",""3755""
","
","","1822.054999996908","","","","real_trial","2021-04-01 09:29:52.453","img/card_backs/set1/purple.gif","3","240","1","",""
"casino-fixation","108","417929","0.0-25.0-0.19","A1068","true","img/card_backs/set1/purple.gif","img/card_backs/set1/green.gif","img/card_backs/set1/yellow.gif","img/card_backs/set1/red.gif","img/card_backs/set2/gray.gif","img/card_backs/set2/blue.gif","img/card_backs/set2/orange.gif","img/card_backs/set2/pink.gif","""event"",""trial"",""time""
""fullscreenenter"",""1"",""3755""
","
","
","""event"",""trial"",""time""
""fullscreenenter"",""1"",""3755""
","
","","null","","null","","fixation","2021-04-01 09:29:52.957","","","","","",""
"card-selection-trial","109","421255","0.0-25.0-1.19","A1068","true","img/card_backs/set1/purple.gif","img/card_backs/set1/green.gif","img/card_backs/set1/yellow.gif","img/card_backs/set1/red.gif","img/card_backs/set2/gray.gif","img/card_backs/set2/blue.gif","img/card_backs/set2/orange.gif","img/card_backs/set2/pink.gif","""event"",""trial"",""time""
""fullscreenenter"",""1"",""3755""
","
","
","""event"",""trial"",""time""
""fullscreenenter"",""1"",""3755""
","
","","1315.1349999243394","","","","real_trial","2021-04-01 09:29:56.283","img/card_backs/set1/purple.gif","2","260","1","",""
"casino-fixation","110","421761","0.0-25.0-0.20","A1068","true","img/card_backs/set1/purple.gif","img/card_backs/set1/green.gif","img/card_backs/set1/yellow.gif","img/card_backs/set1/red.gif","img/card_backs/set2/gray.gif","img/card_backs/set2/blue.gif","img/card_backs/set2/orange.gif","img/card_backs/set2/pink.gif","""event"",""trial"",""time""
""fullscreenenter"",""1"",""3755""
","
","
","""event"",""trial"",""time""
""fullscreenenter"",""1"",""3755""
","
","","null","","null","","fixation","2021-04-01 09:29:56.789","","","","","",""
"card-selection-trial","111","424854","0.0-25.0-1.20","A1068","true","img/card_backs/set1/purple.gif","img/card_backs/set1/green.gif","img/card_backs/set1/yellow.gif","img/card_backs/set1/red.gif","img/card_backs/set2/gray.gif","img/card_backs/set2/blue.gif","img/card_backs/set2/orange.gif","img/card_backs/set2/pink.gif","""event"",""trial"",""time""
""fullscreenenter"",""1"",""3755""
","
","
","""event"",""trial"",""time""
""fullscreenenter"",""1"",""3755""
","
","","1088.2200000341982","","","","real_trial","2021-04-01 09:29:59.882","img/card_backs/set1/purple.gif","3","-210","1","",""
"casino-fixation","112","425360","0.0-25.0-0.21","A1068","true","img/card_backs/set1/purple.gif","img/card_backs/set1/green.gif","img/card_backs/set1/yellow.gif","img/card_backs/set1/red.gif","img/card_backs/set2/gray.gif","img/card_backs/set2/blue.gif","img/card_backs/set2/orange.gif","img/card_backs/set2/pink.gif","""event"",""trial"",""time""
""fullscreenenter"",""1"",""3755""
","
","
","""event"",""trial"",""time""
""fullscreenenter"",""1"",""3755""
","
","","null","","null","","fixation","2021-04-01 09:30:00.388","","","","","",""
"card-selection-trial","113","428454","0.0-25.0-1.21","A1068","true","img/card_backs/set1/purple.gif","img/card_backs/set1/green.gif","img/card_backs/set1/yellow.gif","img/card_backs/set1/red.gif","img/card_backs/set2/gray.gif","img/card_backs/set2/blue.gif","img/card_backs/set2/orange.gif","img/card_backs/set2/pink.gif","""event"",""trial"",""time""
""fullscreenenter"",""1"",""3755""
","
","
","""event"",""trial"",""time""
""fullscreenenter"",""1"",""3755""
","
","","1085.07999998983","","","","real_trial","2021-04-01 09:30:03.482","img/card_backs/set1/purple.gif","2","-200","1","",""
"casino-fixation","114","428959","0.0-25.0-0.22","A1068","true","img/card_backs/set1/purple.gif","img/card_backs/set1/green.gif","img/card_backs/set1/yellow.gif","img/card_backs/set1/red.gif","img/card_backs/set2/gray.gif","img/card_backs/set2/blue.gif","img/card_backs/set2/orange.gif","img/card_backs/set2/pink.gif","""event"",""trial"",""time""
""fullscreenenter"",""1"",""3755""
","
","
","""event"",""trial"",""time""
""fullscreenenter"",""1"",""3755""
","
","","null","","null","","fixation","2021-04-01 09:30:03.987","","","","","",""
"card-selection-trial","115","435130","0.0-25.0-1.22","A1068","true","img/card_backs/set1/purple.gif","img/card_backs/set1/green.gif","img/card_backs/set1/yellow.gif","img/card_backs/set1/red.gif","img/card_backs/set2/gray.gif","img/card_backs/set2/blue.gif","img/card_backs/set2/orange.gif","img/card_backs/set2/pink.gif","""event"",""trial"",""time""
""fullscreenenter"",""1"",""3755""
","
","
","""event"",""trial"",""time""
""fullscreenenter"",""1"",""3755""
","
","","4162.219999940135","","","","real_trial","2021-04-01 09:30:10.158","img/card_backs/set1/yellow.gif","3","-100","1","",""
"casino-fixation","116","435634","0.0-25.0-0.23","A1068","true","img/card_backs/set1/purple.gif","img/card_backs/set1/green.gif","img/card_backs/set1/yellow.gif","img/card_backs/set1/red.gif","img/card_backs/set2/gray.gif","img/card_backs/set2/blue.gif","img/card_backs/set2/orange.gif","img/card_backs/set2/pink.gif","""event"",""trial"",""time""
""fullscreenenter"",""1"",""3755""
","
","
","""event"",""trial"",""time""
""fullscreenenter"",""1"",""3755""
","
","","null","","null","","fixation","2021-04-01 09:30:10.662","","","","","",""
"card-selection-trial","117","439718","0.0-25.0-1.23","A1068","true","img/card_backs/set1/purple.gif","img/card_backs/set1/green.gif","img/card_backs/set1/yellow.gif","img/card_backs/set1/red.gif","img/card_backs/set2/gray.gif","img/card_backs/set2/blue.gif","img/card_backs/set2/orange.gif","img/card_backs/set2/pink.gif","""event"",""trial"",""time""
""fullscreenenter"",""1"",""3755""
","
","
","""event"",""trial"",""time""
""fullscreenenter"",""1"",""3755""
","
","","2077.0799999590963","","","","real_trial","2021-04-01 09:30:14.746","img/card_backs/set1/red.gif","2","60","1","",""
"casino-fixation","118","440221","0.0-25.0-0.24","A1068","true","img/card_backs/set1/purple.gif","img/card_backs/set1/green.gif","img/card_backs/set1/yellow.gif","img/card_backs/set1/red.gif","img/card_backs/set2/gray.gif","img/card_backs/set2/blue.gif","img/card_backs/set2/orange.gif","img/card_backs/set2/pink.gif","""event"",""trial"",""time""
""fullscreenenter"",""1"",""3755""
","
","
","""event"",""trial"",""time""
""fullscreenenter"",""1"",""3755""
","
","","null","","null","","fixation","2021-04-01 09:30:15.249","","","","","",""
"card-selection-trial","119","443066","0.0-25.0-1.24","A1068","true","img/card_backs/set1/purple.gif","img/card_backs/set1/green.gif","img/card_backs/set1/yellow.gif","img/card_backs/set1/red.gif","img/card_backs/set2/gray.gif","img/card_backs/set2/blue.gif","img/card_backs/set2/orange.gif","img/card_backs/set2/pink.gif","""event"",""trial"",""time""
""fullscreenenter"",""1"",""3755""
","
","
","""event"",""trial"",""time""
""fullscreenenter"",""1"",""3755""
","
","","836.600000038743","","","","real_trial","2021-04-01 09:30:18.094","img/card_backs/set1/red.gif","2","-90","1","",""
"casino-fixation","120","443571","0.0-25.0-0.25","A1068","true","img/card_backs/set1/purple.gif","img/card_backs/set1/green.gif","img/card_backs/set1/yellow.gif","img/card_backs/set1/red.gif","img/card_backs/set2/gray.gif","img/card_backs/set2/blue.gif","img/card_backs/set2/orange.gif","img/card_backs/set2/pink.gif","""event"",""trial"",""time""
""fullscreenenter"",""1"",""3755""
","
","
","""event"",""trial"",""time""
""fullscreenenter"",""1"",""3755""
","
","","null","","null","","fixation","2021-04-01 09:30:18.599","","","","","",""
"card-selection-trial","121","448302","0.0-25.0-1.25","A1068","true","img/card_backs/set1/purple.gif","img/card_backs/set1/green.gif","img/card_backs/set1/yellow.gif","img/card_backs/set1/red.gif","img/card_backs/set2/gray.gif","img/card_backs/set2/blue.gif","img/card_backs/set2/orange.gif","img/card_backs/set2/pink.gif","""event"",""trial"",""time""
""fullscreenenter"",""1"",""3755""
","
","
","""event"",""trial"",""time""
""fullscreenenter"",""1"",""3755""
","
","","2722.09500009194","","","","real_trial","2021-04-01 09:30:23.330","img/card_backs/set1/red.gif","0","40","1","",""
"casino-fixation","122","448807","0.0-25.0-0.26","A1068","true","img/card_backs/set1/purple.gif","img/card_backs/set1/green.gif","img/card_backs/set1/yellow.gif","img/card_backs/set1/red.gif","img/card_backs/set2/gray.gif","img/card_backs/set2/blue.gif","img/card_backs/set2/orange.gif","img/card_backs/set2/pink.gif","""event"",""trial"",""time""
""fullscreenenter"",""1"",""3755""
","
","
","""event"",""trial"",""time""
""fullscreenenter"",""1"",""3755""
","
","","null","","null","","fixation","2021-04-01 09:30:23.835","","","","","",""
"card-selection-trial","123","451959","0.0-25.0-1.26","A1068","true","img/card_backs/set1/purple.gif","img/card_backs/set1/green.gif","img/card_backs/set1/yellow.gif","img/card_backs/set1/red.gif","img/card_backs/set2/gray.gif","img/card_backs/set2/blue.gif","img/card_backs/set2/orange.gif","img/card_backs/set2/pink.gif","""event"",""trial"",""time""
""fullscreenenter"",""1"",""3755""
","
","
","""event"",""trial"",""time""
""fullscreenenter"",""1"",""3755""
","
","","1146.5050000697374","","","","real_trial","2021-04-01 09:30:26.987","img/card_backs/set1/red.gif","2","-110","1","",""
"casino-fixation","124","452464","0.0-25.0-0.27","A1068","true","img/card_backs/set1/purple.gif","img/card_backs/set1/green.gif","img/card_backs/set1/yellow.gif","img/card_backs/set1/red.gif","img/card_backs/set2/gray.gif","img/card_backs/set2/blue.gif","img/card_backs/set2/orange.gif","img/card_backs/set2/pink.gif","""event"",""trial"",""time""
""fullscreenenter"",""1"",""3755""
","
","
","""event"",""trial"",""time""
""fullscreenenter"",""1"",""3755""
","
","","null","","null","","fixation","2021-04-01 09:30:27.492","","","","","",""
"card-selection-trial","125","456551","0.0-25.0-1.27","A1068","true","img/card_backs/set1/purple.gif","img/card_backs/set1/green.gif","img/card_backs/set1/yellow.gif","img/card_backs/set1/red.gif","img/card_backs/set2/gray.gif","img/card_backs/set2/blue.gif","img/card_backs/set2/orange.gif","img/card_backs/set2/pink.gif","""event"",""trial"",""time""
""fullscreenenter"",""1"",""3755""
","
","
","""event"",""trial"",""time""
""fullscreenenter"",""1"",""3755""
","
","","2078.5000000614673","","","","real_trial","2021-04-01 09:30:31.579","img/card_backs/set1/yellow.gif","0","50","1","",""
"casino-fixation","126","457056","0.0-25.0-0.28","A1068","true","img/card_backs/set1/purple.gif","img/card_backs/set1/green.gif","img/card_backs/set1/yellow.gif","img/card_backs/set1/red.gif","img/card_backs/set2/gray.gif","img/card_backs/set2/blue.gif","img/card_backs/set2/orange.gif","img/card_backs/set2/pink.gif","""event"",""trial"",""time""
""fullscreenenter"",""1"",""3755""
","
","
","""event"",""trial"",""time""
""fullscreenenter"",""1"",""3755""
","
","","null","","null","","fixation","2021-04-01 09:30:32.084","","","","","",""
"card-selection-trial","127","460290","0.0-25.0-1.28","A1068","true","img/card_backs/set1/purple.gif","img/card_backs/set1/green.gif","img/card_backs/set1/yellow.gif","img/card_backs/set1/red.gif","img/card_backs/set2/gray.gif","img/card_backs/set2/blue.gif","img/card_backs/set2/orange.gif","img/card_backs/set2/pink.gif","""event"",""trial"",""time""
""fullscreenenter"",""1"",""3755""
","
","
","""event"",""trial"",""time""
""fullscreenenter"",""1"",""3755""
","
","","1228.3550000283867","","","","real_trial","2021-04-01 09:30:35.318","img/card_backs/set1/yellow.gif","3","-100","1","",""
"casino-fixation","128","460795","0.0-25.0-0.29","A1068","true","img/card_backs/set1/purple.gif","img/card_backs/set1/green.gif","img/card_backs/set1/yellow.gif","img/card_backs/set1/red.gif","img/card_backs/set2/gray.gif","img/card_backs/set2/blue.gif","img/card_backs/set2/orange.gif","img/card_backs/set2/pink.gif","""event"",""trial"",""time""
""fullscreenenter"",""1"",""3755""
","
","
","""event"",""trial"",""time""
""fullscreenenter"",""1"",""3755""
","
","","null","","null","","fixation","2021-04-01 09:30:35.823","","","","","",""
"card-selection-trial","129","465351","0.0-25.0-1.29","A1068","true","img/card_backs/set1/purple.gif","img/card_backs/set1/green.gif","img/card_backs/set1/yellow.gif","img/card_backs/set1/red.gif","img/card_backs/set2/gray.gif","img/card_backs/set2/blue.gif","img/card_backs/set2/orange.gif","img/card_backs/set2/pink.gif","""event"",""trial"",""time""
""fullscreenenter"",""1"",""3755""
","
","
","""event"",""trial"",""time""
""fullscreenenter"",""1"",""3755""
","
","","2550.5450000055134","","","","real_trial","2021-04-01 09:30:40.379","img/card_backs/set1/purple.gif","1","-210","1","",""
"casino-fixation","130","465857","0.0-25.0-0.30","A1068","true","img/card_backs/set1/purple.gif","img/card_backs/set1/green.gif","img/card_backs/set1/yellow.gif","img/card_backs/set1/red.gif","img/card_backs/set2/gray.gif","img/card_backs/set2/blue.gif","img/card_backs/set2/orange.gif","img/card_backs/set2/pink.gif","""event"",""trial"",""time""
""fullscreenenter"",""1"",""3755""
","
","
","""event"",""trial"",""time""
""fullscreenenter"",""1"",""3755""
","
","","null","","null","","fixation","2021-04-01 09:30:40.885","","","","","",""
"card-selection-trial","131","469938","0.0-25.0-1.30","A1068","true","img/card_backs/set1/purple.gif","img/card_backs/set1/green.gif","img/card_backs/set1/yellow.gif","img/card_backs/set1/red.gif","img/card_backs/set2/gray.gif","img/card_backs/set2/blue.gif","img/card_backs/set2/orange.gif","img/card_backs/set2/pink.gif","""event"",""trial"",""time""
""fullscreenenter"",""1"",""3755""
","
","
","""event"",""trial"",""time""
""fullscreenenter"",""1"",""3755""
","
","","2073.9449999528006","","","","real_trial","2021-04-01 09:30:44.966","img/card_backs/set1/green.gif","0","260","1","",""
"casino-fixation","132","470442","0.0-25.0-0.31","A1068","true","img/card_backs/set1/purple.gif","img/card_backs/set1/green.gif","img/card_backs/set1/yellow.gif","img/card_backs/set1/red.gif","img/card_backs/set2/gray.gif","img/card_backs/set2/blue.gif","img/card_backs/set2/orange.gif","img/card_backs/set2/pink.gif","""event"",""trial"",""time""
""fullscreenenter"",""1"",""3755""
","
","
","""event"",""trial"",""time""
""fullscreenenter"",""1"",""3755""
","
","","null","","null","","fixation","2021-04-01 09:30:45.470","","","","","",""
"card-selection-trial","133","473467","0.0-25.0-1.31","A1068","true","img/card_backs/set1/purple.gif","img/card_backs/set1/green.gif","img/card_backs/set1/yellow.gif","img/card_backs/set1/red.gif","img/card_backs/set2/gray.gif","img/card_backs/set2/blue.gif","img/card_backs/set2/orange.gif","img/card_backs/set2/pink.gif","""event"",""trial"",""time""
""fullscreenenter"",""1"",""3755""
","
","
","""event"",""trial"",""time""
""fullscreenenter"",""1"",""3755""
","
","","1016.4399999193847","","","","real_trial","2021-04-01 09:30:48.496","img/card_backs/set1/green.gif","0","240","1","",""
"casino-fixation","134","473972","0.0-25.0-0.32","A1068","true","img/card_backs/set1/purple.gif","img/card_backs/set1/green.gif","img/card_backs/set1/yellow.gif","img/card_backs/set1/red.gif","img/card_backs/set2/gray.gif","img/card_backs/set2/blue.gif","img/card_backs/set2/orange.gif","img/card_backs/set2/pink.gif","""event"",""trial"",""time""
""fullscreenenter"",""1"",""3755""
","
","
","""event"",""trial"",""time""
""fullscreenenter"",""1"",""3755""
","
","","null","","null","","fixation","2021-04-01 09:30:49.000","","","","","",""
"card-selection-trial","135","477615","0.0-25.0-1.32","A1068","true","img/card_backs/set1/purple.gif","img/card_backs/set1/green.gif","img/card_backs/set1/yellow.gif","img/card_backs/set1/red.gif","img/card_backs/set2/gray.gif","img/card_backs/set2/blue.gif","img/card_backs/set2/orange.gif","img/card_backs/set2/pink.gif","""event"",""trial"",""time""
""fullscreenenter"",""1"",""3755""
","
","
","""event"",""trial"",""time""
""fullscreenenter"",""1"",""3755""
","
","","1631.9900000235066","","","","real_trial","2021-04-01 09:30:52.643","img/card_backs/set1/green.gif","1","250","1","",""
"casino-fixation","136","478120","0.0-25.0-0.33","A1068","true","img/card_backs/set1/purple.gif","img/card_backs/set1/green.gif","img/card_backs/set1/yellow.gif","img/card_backs/set1/red.gif","img/card_backs/set2/gray.gif","img/card_backs/set2/blue.gif","img/card_backs/set2/orange.gif","img/card_backs/set2/pink.gif","""event"",""trial"",""time""
""fullscreenenter"",""1"",""3755""
","
","
","""event"",""trial"",""time""
""fullscreenenter"",""1"",""3755""
","
","","null","","null","","fixation","2021-04-01 09:30:53.148","","","","","",""
"card-selection-trial","137","481706","0.0-25.0-1.33","A1068","true","img/card_backs/set1/purple.gif","img/card_backs/set1/green.gif","img/card_backs/set1/yellow.gif","img/card_backs/set1/red.gif","img/card_backs/set2/gray.gif","img/card_backs/set2/blue.gif","img/card_backs/set2/orange.gif","img/card_backs/set2/pink.gif","""event"",""trial"",""time""
""fullscreenenter"",""1"",""3755""
","
","
","""event"",""trial"",""time""
""fullscreenenter"",""1"",""3755""
","
","","1580.7649999624118","","","","real_trial","2021-04-01 09:30:56.734","img/card_backs/set1/green.gif","0","250","1","",""
"casino-fixation","138","482210","0.0-25.0-0.34","A1068","true","img/card_backs/set1/purple.gif","img/card_backs/set1/green.gif","img/card_backs/set1/yellow.gif","img/card_backs/set1/red.gif","img/card_backs/set2/gray.gif","img/card_backs/set2/blue.gif","img/card_backs/set2/orange.gif","img/card_backs/set2/pink.gif","""event"",""trial"",""time""
""fullscreenenter"",""1"",""3755""
","
","
","""event"",""trial"",""time""
""fullscreenenter"",""1"",""3755""
","
","","null","","null","","fixation","2021-04-01 09:30:57.238","","","","","",""
"card-selection-trial","139","484886","0.0-25.0-1.34","A1068","true","img/card_backs/set1/purple.gif","img/card_backs/set1/green.gif","img/card_backs/set1/yellow.gif","img/card_backs/set1/red.gif","img/card_backs/set2/gray.gif","img/card_backs/set2/blue.gif","img/card_backs/set2/orange.gif","img/card_backs/set2/pink.gif","""event"",""trial"",""time""
""fullscreenenter"",""1"",""3755""
","
","
","""event"",""trial"",""time""
""fullscreenenter"",""1"",""3755""
","
","","669.1449999343604","","","","real_trial","2021-04-01 09:30:59.914","img/card_backs/set1/green.gif","0","-210","1","",""
"casino-fixation","140","485390","0.0-25.0-0.35","A1068","true","img/card_backs/set1/purple.gif","img/card_backs/set1/green.gif","img/card_backs/set1/yellow.gif","img/card_backs/set1/red.gif","img/card_backs/set2/gray.gif","img/card_backs/set2/blue.gif","img/card_backs/set2/orange.gif","img/card_backs/set2/pink.gif","""event"",""trial"",""time""
""fullscreenenter"",""1"",""3755""
","
","
","""event"",""trial"",""time""
""fullscreenenter"",""1"",""3755""
","
","","null","","null","","fixation","2021-04-01 09:31:00.418","","","","","",""
"card-selection-trial","141","488199","0.0-25.0-1.35","A1068","true","img/card_backs/set1/purple.gif","img/card_backs/set1/green.gif","img/card_backs/set1/yellow.gif","img/card_backs/set1/red.gif","img/card_backs/set2/gray.gif","img/card_backs/set2/blue.gif","img/card_backs/set2/orange.gif","img/card_backs/set2/pink.gif","""event"",""trial"",""time""
""fullscreenenter"",""1"",""3755""
","
","
","""event"",""trial"",""time""
""fullscreenenter"",""1"",""3755""
","
","","800.5400000838563","","","","real_trial","2021-04-01 09:31:03.227","img/card_backs/set1/green.gif","0","240","1","",""
"casino-fixation","142","488701","0.0-25.0-0.36","A1068","true","img/card_backs/set1/purple.gif","img/card_backs/set1/green.gif","img/card_backs/set1/yellow.gif","img/card_backs/set1/red.gif","img/card_backs/set2/gray.gif","img/card_backs/set2/blue.gif","img/card_backs/set2/orange.gif","img/card_backs/set2/pink.gif","""event"",""trial"",""time""
""fullscreenenter"",""1"",""3755""
","
","
","""event"",""trial"",""time""
""fullscreenenter"",""1"",""3755""
","
","","null","","null","","fixation","2021-04-01 09:31:03.729","","","","","",""
"card-selection-trial","143","492522","0.0-25.0-1.36","A1068","true","img/card_backs/set1/purple.gif","img/card_backs/set1/green.gif","img/card_backs/set1/yellow.gif","img/card_backs/set1/red.gif","img/card_backs/set2/gray.gif","img/card_backs/set2/blue.gif","img/card_backs/set2/orange.gif","img/card_backs/set2/pink.gif","""event"",""trial"",""time""
""fullscreenenter"",""1"",""3755""
","
","
","""event"",""trial"",""time""
""fullscreenenter"",""1"",""3755""
","
","","1815.3699999675155","","","","real_trial","2021-04-01 09:31:07.550","img/card_backs/set1/green.gif","2","240","1","",""
"casino-fixation","144","493024","0.0-25.0-0.37","A1068","true","img/card_backs/set1/purple.gif","img/card_backs/set1/green.gif","img/card_backs/set1/yellow.gif","img/card_backs/set1/red.gif","img/card_backs/set2/gray.gif","img/card_backs/set2/blue.gif","img/card_backs/set2/orange.gif","img/card_backs/set2/pink.gif","""event"",""trial"",""time""
""fullscreenenter"",""1"",""3755""
","
","
","""event"",""trial"",""time""
""fullscreenenter"",""1"",""3755""
","
","","null","","null","","fixation","2021-04-01 09:31:08.052","","","","","",""
"card-selection-trial","145","495893","0.0-25.0-1.37","A1068","true","img/card_backs/set1/purple.gif","img/card_backs/set1/green.gif","img/card_backs/set1/yellow.gif","img/card_backs/set1/red.gif","img/card_backs/set2/gray.gif","img/card_backs/set2/blue.gif","img/card_backs/set2/orange.gif","img/card_backs/set2/pink.gif","""event"",""trial"",""time""
""fullscreenenter"",""1"",""3755""
","
","
","""event"",""trial"",""time""
""fullscreenenter"",""1"",""3755""
","
","","861.7450000019744","","","","real_trial","2021-04-01 09:31:10.921","img/card_backs/set1/green.gif","0","-210","1","",""
"casino-fixation","146","496398","0.0-25.0-0.38","A1068","true","img/card_backs/set1/purple.gif","img/card_backs/set1/green.gif","img/card_backs/set1/yellow.gif","img/card_backs/set1/red.gif","img/card_backs/set2/gray.gif","img/card_backs/set2/blue.gif","img/card_backs/set2/orange.gif","img/card_backs/set2/pink.gif","""event"",""trial"",""time""
""fullscreenenter"",""1"",""3755""
","
","
","""event"",""trial"",""time""
""fullscreenenter"",""1"",""3755""
","
","","null","","null","","fixation","2021-04-01 09:31:11.426","","","","","",""
"card-selection-trial","147","499217","0.0-25.0-1.38","A1068","true","img/card_backs/set1/purple.gif","img/card_backs/set1/green.gif","img/card_backs/set1/yellow.gif","img/card_backs/set1/red.gif","img/card_backs/set2/gray.gif","img/card_backs/set2/blue.gif","img/card_backs/set2/orange.gif","img/card_backs/set2/pink.gif","""event"",""trial"",""time""
""fullscreenenter"",""1"",""3755""
","
","
","""event"",""trial"",""time""
""fullscreenenter"",""1"",""3755""
","
","","809.3349999981001","","","","real_trial","2021-04-01 09:31:14.245","img/card_backs/set1/green.gif","0","-210","1","",""
"casino-fixation","148","499719","0.0-25.0-0.39","A1068","true","img/card_backs/set1/purple.gif","img/card_backs/set1/green.gif","img/card_backs/set1/yellow.gif","img/card_backs/set1/red.gif","img/card_backs/set2/gray.gif","img/card_backs/set2/blue.gif","img/card_backs/set2/orange.gif","img/card_backs/set2/pink.gif","""event"",""trial"",""time""
""fullscreenenter"",""1"",""3755""
","
","
","""event"",""trial"",""time""
""fullscreenenter"",""1"",""3755""
","
","","null","","null","","fixation","2021-04-01 09:31:14.747","","","","","",""
"card-selection-trial","149","503556","0.0-25.0-1.39","A1068","true","img/card_backs/set1/purple.gif","img/card_backs/set1/green.gif","img/card_backs/set1/yellow.gif","img/card_backs/set1/red.gif","img/card_backs/set2/gray.gif","img/card_backs/set2/blue.gif","img/card_backs/set2/orange.gif","img/card_backs/set2/pink.gif","""event"",""trial"",""time""
""fullscreenenter"",""1"",""3755""
","
","
","""event"",""trial"",""time""
""fullscreenenter"",""1"",""3755""
","
","","1828.8549999706447","","","","real_trial","2021-04-01 09:31:18.584","img/card_backs/set1/green.gif","1","-210","1","",""
"casino-fixation","150","504060","0.0-25.0-0.40","A1068","true","img/card_backs/set1/purple.gif","img/card_backs/set1/green.gif","img/card_backs/set1/yellow.gif","img/card_backs/set1/red.gif","img/card_backs/set2/gray.gif","img/card_backs/set2/blue.gif","img/card_backs/set2/orange.gif","img/card_backs/set2/pink.gif","""event"",""trial"",""time""
""fullscreenenter"",""1"",""3755""
","
","
","""event"",""trial"",""time""
""fullscreenenter"",""1"",""3755""
","
","","null","","null","","fixation","2021-04-01 09:31:19.088","","","","","",""
"card-selection-trial","151","508095","0.0-25.0-1.40","A1068","true","img/card_backs/set1/purple.gif","img/card_backs/set1/green.gif","img/card_backs/set1/yellow.gif","img/card_backs/set1/red.gif","img/card_backs/set2/gray.gif","img/card_backs/set2/blue.gif","img/card_backs/set2/orange.gif","img/card_backs/set2/pink.gif","""event"",""trial"",""time""
""fullscreenenter"",""1"",""3755""
","
","
","""event"",""trial"",""time""
""fullscreenenter"",""1"",""3755""
","
","","2026.049999985844","","","","real_trial","2021-04-01 09:31:23.123","img/card_backs/set1/green.gif","0","240","1","",""
"casino-fixation","152","508600","0.0-25.0-0.41","A1068","true","img/card_backs/set1/purple.gif","img/card_backs/set1/green.gif","img/card_backs/set1/yellow.gif","img/card_backs/set1/red.gif","img/card_backs/set2/gray.gif","img/card_backs/set2/blue.gif","img/card_backs/set2/orange.gif","img/card_backs/set2/pink.gif","""event"",""trial"",""time""
""fullscreenenter"",""1"",""3755""
","
","
","""event"",""trial"",""time""
""fullscreenenter"",""1"",""3755""
","
","","null","","null","","fixation","2021-04-01 09:31:23.628","","","","","",""
"card-selection-trial","153","512472","0.0-25.0-1.41","A1068","true","img/card_backs/set1/purple.gif","img/card_backs/set1/green.gif","img/card_backs/set1/yellow.gif","img/card_backs/set1/red.gif","img/card_backs/set2/gray.gif","img/card_backs/set2/blue.gif","img/card_backs/set2/orange.gif","img/card_backs/set2/pink.gif","""event"",""trial"",""time""
""fullscreenenter"",""1"",""3755""
","
","
","""event"",""trial"",""time""
""fullscreenenter"",""1"",""3755""
","
","","1866.6850000154227","","","","real_trial","2021-04-01 09:31:27.501","img/card_backs/set1/green.gif","1","-200","1","",""
"casino-fixation","154","512979","0.0-25.0-0.42","A1068","true","img/card_backs/set1/purple.gif","img/card_backs/set1/green.gif","img/card_backs/set1/yellow.gif","img/card_backs/set1/red.gif","img/card_backs/set2/gray.gif","img/card_backs/set2/blue.gif","img/card_backs/set2/orange.gif","img/card_backs/set2/pink.gif","""event"",""trial"",""time""
""fullscreenenter"",""1"",""3755""
","
","
","""event"",""trial"",""time""
""fullscreenenter"",""1"",""3755""
","
","","null","","null","","fixation","2021-04-01 09:31:28.007","","","","","",""
"card-selection-trial","155","516433","0.0-25.0-1.42","A1068","true","img/card_backs/set1/purple.gif","img/card_backs/set1/green.gif","img/card_backs/set1/yellow.gif","img/card_backs/set1/red.gif","img/card_backs/set2/gray.gif","img/card_backs/set2/blue.gif","img/card_backs/set2/orange.gif","img/card_backs/set2/pink.gif","""event"",""trial"",""time""
""fullscreenenter"",""1"",""3755""
","
","
","""event"",""trial"",""time""
""fullscreenenter"",""1"",""3755""
","
","","1445.4949999926612","","","","real_trial","2021-04-01 09:31:31.462","img/card_backs/set1/green.gif","3","-200","1","",""
"casino-fixation","156","516936","0.0-25.0-0.43","A1068","true","img/card_backs/set1/purple.gif","img/card_backs/set1/green.gif","img/card_backs/set1/yellow.gif","img/card_backs/set1/red.gif","img/card_backs/set2/gray.gif","img/card_backs/set2/blue.gif","img/card_backs/set2/orange.gif","img/card_backs/set2/pink.gif","""event"",""trial"",""time""
""fullscreenenter"",""1"",""3755""
","
","
","""event"",""trial"",""time""
""fullscreenenter"",""1"",""3755""
","
","","null","","null","","fixation","2021-04-01 09:31:31.964","","","","","",""
"card-selection-trial","157","521958","0.0-25.0-1.43","A1068","true","img/card_backs/set1/purple.gif","img/card_backs/set1/green.gif","img/card_backs/set1/yellow.gif","img/card_backs/set1/red.gif","img/card_backs/set2/gray.gif","img/card_backs/set2/blue.gif","img/card_backs/set2/orange.gif","img/card_backs/set2/pink.gif","""event"",""trial"",""time""
""fullscreenenter"",""1"",""3755""
","
","
","""event"",""trial"",""time""
""fullscreenenter"",""1"",""3755""
","
","","3012.8500000573695","","","","real_trial","2021-04-01 09:31:36.986","img/card_backs/set1/yellow.gif","0","-110","1","",""
"casino-fixation","158","522463","0.0-25.0-0.44","A1068","true","img/card_backs/set1/purple.gif","img/card_backs/set1/green.gif","img/card_backs/set1/yellow.gif","img/card_backs/set1/red.gif","img/card_backs/set2/gray.gif","img/card_backs/set2/blue.gif","img/card_backs/set2/orange.gif","img/card_backs/set2/pink.gif","""event"",""trial"",""time""
""fullscreenenter"",""1"",""3755""
","
","
","""event"",""trial"",""time""
""fullscreenenter"",""1"",""3755""
","
","","null","","null","","fixation","2021-04-01 09:31:37.491","","","","","",""
"card-selection-trial","159","526144","0.0-25.0-1.44","A1068","true","img/card_backs/set1/purple.gif","img/card_backs/set1/green.gif","img/card_backs/set1/yellow.gif","img/card_backs/set1/red.gif","img/card_backs/set2/gray.gif","img/card_backs/set2/blue.gif","img/card_backs/set2/orange.gif","img/card_backs/set2/pink.gif","""event"",""trial"",""time""
""fullscreenenter"",""1"",""3755""
","
","
","""event"",""trial"",""time""
""fullscreenenter"",""1"",""3755""
","
","","1675.4199999850243","","","","real_trial","2021-04-01 09:31:41.172","img/card_backs/set1/yellow.gif","2","-110","1","",""
"casino-fixation","160","526648","0.0-25.0-0.45","A1068","true","img/card_backs/set1/purple.gif","img/card_backs/set1/green.gif","img/card_backs/set1/yellow.gif","img/card_backs/set1/red.gif","img/card_backs/set2/gray.gif","img/card_backs/set2/blue.gif","img/card_backs/set2/orange.gif","img/card_backs/set2/pink.gif","""event"",""trial"",""time""
""fullscreenenter"",""1"",""3755""
","
","
","""event"",""trial"",""time""
""fullscreenenter"",""1"",""3755""
","
","","null","","null","","fixation","2021-04-01 09:31:41.676","","","","","",""
"card-selection-trial","161","531620","0.0-25.0-1.45","A1068","true","img/card_backs/set1/purple.gif","img/card_backs/set1/green.gif","img/card_backs/set1/yellow.gif","img/card_backs/set1/red.gif","img/card_backs/set2/gray.gif","img/card_backs/set2/blue.gif","img/card_backs/set2/orange.gif","img/card_backs/set2/pink.gif","""event"",""trial"",""time""
""fullscreenenter"",""1"",""3755""
","
","
","""event"",""trial"",""time""
""fullscreenenter"",""1"",""3755""
","
","","2963.5550000239164","","","","real_trial","2021-04-01 09:31:46.648","img/card_backs/set1/red.gif","0","-100","1","",""
"casino-fixation","162","532123","0.0-25.0-0.46","A1068","true","img/card_backs/set1/purple.gif","img/card_backs/set1/green.gif","img/card_backs/set1/yellow.gif","img/card_backs/set1/red.gif","img/card_backs/set2/gray.gif","img/card_backs/set2/blue.gif","img/card_backs/set2/orange.gif","img/card_backs/set2/pink.gif","""event"",""trial"",""time""
""fullscreenenter"",""1"",""3755""
","
","
","""event"",""trial"",""time""
""fullscreenenter"",""1"",""3755""
","
","","null","","null","","fixation","2021-04-01 09:31:47.151","","","","","",""
"card-selection-trial","163","535977","0.0-25.0-1.46","A1068","true","img/card_backs/set1/purple.gif","img/card_backs/set1/green.gif","img/card_backs/set1/yellow.gif","img/card_backs/set1/red.gif","img/card_backs/set2/gray.gif","img/card_backs/set2/blue.gif","img/card_backs/set2/orange.gif","img/card_backs/set2/pink.gif","""event"",""trial"",""time""
""fullscreenenter"",""1"",""3755""
","
","
","""event"",""trial"",""time""
""fullscreenenter"",""1"",""3755""
","
","","1845.9699999075383","","","","real_trial","2021-04-01 09:31:51.005","img/card_backs/set1/red.gif","3","50","1","",""
"casino-fixation","164","536482","0.0-25.0-0.47","A1068","true","img/card_backs/set1/purple.gif","img/card_backs/set1/green.gif","img/card_backs/set1/yellow.gif","img/card_backs/set1/red.gif","img/card_backs/set2/gray.gif","img/card_backs/set2/blue.gif","img/card_backs/set2/orange.gif","img/card_backs/set2/pink.gif","""event"",""trial"",""time""
""fullscreenenter"",""1"",""3755""
","
","
","""event"",""trial"",""time""
""fullscreenenter"",""1"",""3755""
","
","","null","","null","","fixation","2021-04-01 09:31:51.510","","","","","",""
"card-selection-trial","165","539507","0.0-25.0-1.47","A1068","true","img/card_backs/set1/purple.gif","img/card_backs/set1/green.gif","img/card_backs/set1/yellow.gif","img/card_backs/set1/red.gif","img/card_backs/set2/gray.gif","img/card_backs/set2/blue.gif","img/card_backs/set2/orange.gif","img/card_backs/set2/pink.gif","""event"",""trial"",""time""
""fullscreenenter"",""1"",""3755""
","
","
","""event"",""trial"",""time""
""fullscreenenter"",""1"",""3755""
","
","","1019.3100000033155","","","","real_trial","2021-04-01 09:31:54.535","img/card_backs/set1/red.gif","1","40","1","",""
"casino-fixation","166","540011","0.0-25.0-0.48","A1068","true","img/card_backs/set1/purple.gif","img/card_backs/set1/green.gif","img/card_backs/set1/yellow.gif","img/card_backs/set1/red.gif","img/card_backs/set2/gray.gif","img/card_backs/set2/blue.gif","img/card_backs/set2/orange.gif","img/card_backs/set2/pink.gif","""event"",""trial"",""time""
""fullscreenenter"",""1"",""3755""
","
","
","""event"",""trial"",""time""
""fullscreenenter"",""1"",""3755""
","
","","null","","null","","fixation","2021-04-01 09:31:55.039","","","","","",""
