"trial_type","trial_index","time_elapsed","internal_node_id","sub_id","risk_good_first","block1_A","block1_B","block1_C","block1_D","block2_A","block2_B","block2_C","block2_D","interactions","blur_events","focus_events","fullscreenenter_events","fullscreenexit_events","success","rt","stimulus","key_press","button_pressed","task_part","timestamp","card_choice","choice_position","points_earned","block","correct","response"
"pavlovia","0","5","0.0-0.0","277","true","img/card_backs/set1/red.gif","img/card_backs/set1/green.gif","img/card_backs/set1/yellow.gif","img/card_backs/set1/purple.gif","img/card_backs/set2/pink.gif","img/card_backs/set2/orange.gif","img/card_backs/set2/gray.gif","img/card_backs/set2/blue.gif","""event"",""trial"",""time""
""fullscreenenter"",""1"",""3946""
","
","
","""event"",""trial"",""time""
""fullscreenenter"",""1"",""3946""
","
","","","","","","","","","","","","",""
"fullscreen","1","4901","0.0-1.0","277","true","img/card_backs/set1/red.gif","img/card_backs/set1/green.gif","img/card_backs/set1/yellow.gif","img/card_backs/set1/purple.gif","img/card_backs/set2/pink.gif","img/card_backs/set2/orange.gif","img/card_backs/set2/gray.gif","img/card_backs/set2/blue.gif","""event"",""trial"",""time""
""fullscreenenter"",""1"",""3946""
","
","
","""event"",""trial"",""time""
""fullscreenenter"",""1"",""3946""
","
","true","","","","","","","","","","","",""
"audio-keyboard-response","2","6966","0.0-2.0","277","true","img/card_backs/set1/red.gif","img/card_backs/set1/green.gif","img/card_backs/set1/yellow.gif","img/card_backs/set1/purple.gif","img/card_backs/set2/pink.gif","img/card_backs/set2/orange.gif","img/card_backs/set2/gray.gif","img/card_backs/set2/blue.gif","""event"",""trial"",""time""
""fullscreenenter"",""1"",""3946""
","
","
","""event"",""trial"",""time""
""fullscreenenter"",""1"",""3946""
","
","","1931","audio/beep_loop.wav","32","","","","","","","","",""
"audio-button-response","3","8274","0.0-3.0","277","true","img/card_backs/set1/red.gif","img/card_backs/set1/green.gif","img/card_backs/set1/yellow.gif","img/card_backs/set1/purple.gif","img/card_backs/set2/pink.gif","img/card_backs/set2/orange.gif","img/card_backs/set2/gray.gif","img/card_backs/set2/blue.gif","""event"",""trial"",""time""
""fullscreenenter"",""1"",""3946""
","
","
","""event"",""trial"",""time""
""fullscreenenter"",""1"",""3946""
","
","","NaN","audio/turtle.mp3","","3","","","","","","","",""
"audio-button-response","4","10148","0.0-4.0","277","true","img/card_backs/set1/red.gif","img/card_backs/set1/green.gif","img/card_backs/set1/yellow.gif","img/card_backs/set1/purple.gif","img/card_backs/set2/pink.gif","img/card_backs/set2/orange.gif","img/card_backs/set2/gray.gif","img/card_backs/set2/blue.gif","""event"",""trial"",""time""
""fullscreenenter"",""1"",""3946""
","
","
","""event"",""trial"",""time""
""fullscreenenter"",""1"",""3946""
","
","","NaN","audio/shark.mp3","","2","","","","","","","",""
"fullscreen","5","13963","0.0-5.0","277","true","img/card_backs/set1/red.gif","img/card_backs/set1/green.gif","img/card_backs/set1/yellow.gif","img/card_backs/set1/purple.gif","img/card_backs/set2/pink.gif","img/card_backs/set2/orange.gif","img/card_backs/set2/gray.gif","img/card_backs/set2/blue.gif","""event"",""trial"",""time""
""fullscreenenter"",""1"",""3946""
","
","
","""event"",""trial"",""time""
""fullscreenenter"",""1"",""3946""
","
","true","","","","","","","","","","","",""
"casino-keyboard-response","6","17171","0.0-6.0-0.0","277","true","img/card_backs/set1/red.gif","img/card_backs/set1/green.gif","img/card_backs/set1/yellow.gif","img/card_backs/set1/purple.gif","img/card_backs/set2/pink.gif","img/card_backs/set2/orange.gif","img/card_backs/set2/gray.gif","img/card_backs/set2/blue.gif","""event"",""trial"",""time""
""fullscreenenter"",""1"",""3946""
","
","
","""event"",""trial"",""time""
""fullscreenenter"",""1"",""3946""
","
","","3201.8000000044703","Welcome to the casino!","71","","instructions","2021-06-10 13:30:03.106","","","","","",""
"casino-keyboard-response","7","26768","0.0-6.0-0.1","277","true","img/card_backs/set1/red.gif","img/card_backs/set1/green.gif","img/card_backs/set1/yellow.gif","img/card_backs/set1/purple.gif","img/card_backs/set2/pink.gif","img/card_backs/set2/orange.gif","img/card_backs/set2/gray.gif","img/card_backs/set2/blue.gif","""event"",""trial"",""time""
""fullscreenenter"",""1"",""3946""
","
","
","""event"",""trial"",""time""
""fullscreenenter"",""1"",""3946""
","
","","9593.60000000149","Today you will be playing a game to earn tokens. </br> At the end of the experiment, you will be paid a bonus based on how many tokens you win. ","69","","instructions","2021-06-10 13:30:12.703","","","","","",""
"casino-keyboard-response","8","38502","0.0-6.0-0.2","277","true","img/card_backs/set1/red.gif","img/card_backs/set1/green.gif","img/card_backs/set1/yellow.gif","img/card_backs/set1/purple.gif","img/card_backs/set2/pink.gif","img/card_backs/set2/orange.gif","img/card_backs/set2/gray.gif","img/card_backs/set2/blue.gif","""event"",""trial"",""time""
""fullscreenenter"",""1"",""3946""
","
","
","""event"",""trial"",""time""
""fullscreenenter"",""1"",""3946""
","
","","11730.59999999404","On every turn, you will be shown four different decks of cards. </br> You need to select a card from one of the four decks.  ","75","","instructions","2021-06-10 13:30:24.437","","","","","",""
"casino-keyboard-response","9","43660","0.0-6.0-0.3","277","true","img/card_backs/set1/red.gif","img/card_backs/set1/green.gif","img/card_backs/set1/yellow.gif","img/card_backs/set1/purple.gif","img/card_backs/set2/pink.gif","img/card_backs/set2/orange.gif","img/card_backs/set2/gray.gif","img/card_backs/set2/blue.gif","""event"",""trial"",""time""
""fullscreenenter"",""1"",""3946""
","
","
","""event"",""trial"",""time""
""fullscreenenter"",""1"",""3946""
","
","","5154.5","On the next screen, you will see what the decks will look like. ","66","","instructions","2021-06-10 13:30:29.595","","","","","",""
"card-selection-trial","10","47704","0.0-7.0-0.0","277","true","img/card_backs/set1/red.gif","img/card_backs/set1/green.gif","img/card_backs/set1/yellow.gif","img/card_backs/set1/purple.gif","img/card_backs/set2/pink.gif","img/card_backs/set2/orange.gif","img/card_backs/set2/gray.gif","img/card_backs/set2/blue.gif","""event"",""trial"",""time""
""fullscreenenter"",""1"",""3946""
","
","
","""event"",""trial"",""time""
""fullscreenenter"",""1"",""3946""
","
","","null","","","","practice","2021-06-10 13:30:33.639","null","null","null","0","",""
"casino-keyboard-response","11","55285","0.0-8.0-0.0","277","true","img/card_backs/set1/red.gif","img/card_backs/set1/green.gif","img/card_backs/set1/yellow.gif","img/card_backs/set1/purple.gif","img/card_backs/set2/pink.gif","img/card_backs/set2/orange.gif","img/card_backs/set2/gray.gif","img/card_backs/set2/blue.gif","""event"",""trial"",""time""
""fullscreenenter"",""1"",""3946""
","
","
","""event"",""trial"",""time""
""fullscreenenter"",""1"",""3946""
","
","","7578.69999999553","You should pick a card from a deck using the '2', '4', '6', and '8' keys at the top of the keyboard.","85","","instructions","2021-06-10 13:30:41.220","","","","","",""
"casino-keyboard-response","12","61215","0.0-8.0-0.1","277","true","img/card_backs/set1/red.gif","img/card_backs/set1/green.gif","img/card_backs/set1/yellow.gif","img/card_backs/set1/purple.gif","img/card_backs/set2/pink.gif","img/card_backs/set2/orange.gif","img/card_backs/set2/gray.gif","img/card_backs/set2/blue.gif","""event"",""trial"",""time""
""fullscreenenter"",""1"",""3946""
","
","
","""event"",""trial"",""time""
""fullscreenenter"",""1"",""3946""
","
","","5927.4000000059605","Once you select a card, it will turn over and you will see how many tokens you earned.","83","","instructions","2021-06-10 13:30:47.150","","","","","",""
"casino-keyboard-response","13","76022","0.0-8.0-0.2","277","true","img/card_backs/set1/red.gif","img/card_backs/set1/green.gif","img/card_backs/set1/yellow.gif","img/card_backs/set1/purple.gif","img/card_backs/set2/pink.gif","img/card_backs/set2/orange.gif","img/card_backs/set2/gray.gif","img/card_backs/set2/blue.gif","""event"",""trial"",""time""
""fullscreenenter"",""1"",""3946""
","
","
","""event"",""trial"",""time""
""fullscreenenter"",""1"",""3946""
","
","","14802.90000000596","Let's try practicing that! </br> First, try to put your fingers over the '2', '4', '6', and '8' keys. </br>  You can use whatever fingers are most comfortable for you. Try to find a comfortable position now. ","50","","instructions","2021-06-10 13:31:01.957","","","","","",""
"casino-keyboard-response","14","82376","0.0-8.0-0.3","277","true","img/card_backs/set1/red.gif","img/card_backs/set1/green.gif","img/card_backs/set1/yellow.gif","img/card_backs/set1/purple.gif","img/card_backs/set2/pink.gif","img/card_backs/set2/orange.gif","img/card_backs/set2/gray.gif","img/card_backs/set2/blue.gif","""event"",""trial"",""time""
""fullscreenenter"",""1"",""3946""
","
","
","""event"",""trial"",""time""
""fullscreenenter"",""1"",""3946""
","
","","6350.89999999851","Okay ready? </br> On the next screen, press '2' to select the left deck. ","50","","instructions","2021-06-10 13:31:08.312","","","","","",""
"card-selection-trial","15","87025","0.0-9.0-0.0","277","true","img/card_backs/set1/red.gif","img/card_backs/set1/green.gif","img/card_backs/set1/yellow.gif","img/card_backs/set1/purple.gif","img/card_backs/set2/pink.gif","img/card_backs/set2/orange.gif","img/card_backs/set2/gray.gif","img/card_backs/set2/blue.gif","""event"",""trial"",""time""
""fullscreenenter"",""1"",""3946""
","
","
","""event"",""trial"",""time""
""fullscreenenter"",""1"",""3946""
","
","","2620.2000000029802","","","","practice_card_selection","2021-06-10 13:31:12.961","img/practice_cards/backs/brown.gif","0","-100","","",""
"casino-keyboard-response","16","93027","0.0-10.0-0.0","277","true","img/card_backs/set1/red.gif","img/card_backs/set1/green.gif","img/card_backs/set1/yellow.gif","img/card_backs/set1/purple.gif","img/card_backs/set2/pink.gif","img/card_backs/set2/orange.gif","img/card_backs/set2/gray.gif","img/card_backs/set2/blue.gif","""event"",""trial"",""time""
""fullscreenenter"",""1"",""3946""
","
","
","""event"",""trial"",""time""
""fullscreenenter"",""1"",""3946""
","
","","5997.70000000298","Great! Now on the next screen, try pressing '6' to select the third deck.","54","","instructions","2021-06-10 13:31:18.962","","","","","",""
"card-selection-trial","17","95820","0.0-11.0-0.0","277","true","img/card_backs/set1/red.gif","img/card_backs/set1/green.gif","img/card_backs/set1/yellow.gif","img/card_backs/set1/purple.gif","img/card_backs/set2/pink.gif","img/card_backs/set2/orange.gif","img/card_backs/set2/gray.gif","img/card_backs/set2/blue.gif","""event"",""trial"",""time""
""fullscreenenter"",""1"",""3946""
","
","
","""event"",""trial"",""time""
""fullscreenenter"",""1"",""3946""
","
","","771.1999999955297","","","","practice_card_selection","2021-06-10 13:31:21.755","img/practice_cards/backs/brown.gif","2","-100","","",""
"casino-keyboard-response","18","100611","0.0-12.0-0.0","277","true","img/card_backs/set1/red.gif","img/card_backs/set1/green.gif","img/card_backs/set1/yellow.gif","img/card_backs/set1/purple.gif","img/card_backs/set2/pink.gif","img/card_backs/set2/orange.gif","img/card_backs/set2/gray.gif","img/card_backs/set2/blue.gif","""event"",""trial"",""time""
""fullscreenenter"",""1"",""3946""
","
","
","""event"",""trial"",""time""
""fullscreenenter"",""1"",""3946""
","
","","4789.19999999553","Now on the next screen, try pressing '4' to select the second deck.","52","","instructions","2021-06-10 13:31:26.546","","","","","",""
"card-selection-trial","19","103064","0.0-13.0-0.0","277","true","img/card_backs/set1/red.gif","img/card_backs/set1/green.gif","img/card_backs/set1/yellow.gif","img/card_backs/set1/purple.gif","img/card_backs/set2/pink.gif","img/card_backs/set2/orange.gif","img/card_backs/set2/gray.gif","img/card_backs/set2/blue.gif","""event"",""trial"",""time""
""fullscreenenter"",""1"",""3946""
","
","
","""event"",""trial"",""time""
""fullscreenenter"",""1"",""3946""
","
","","428.20000000298023","","","","practice_card_selection","2021-06-10 13:31:28.999","img/practice_cards/backs/dark_blue.gif","1","-200","","",""
"casino-keyboard-response","20","106736","0.0-14.0-0.0","277","true","img/card_backs/set1/red.gif","img/card_backs/set1/green.gif","img/card_backs/set1/yellow.gif","img/card_backs/set1/purple.gif","img/card_backs/set2/pink.gif","img/card_backs/set2/orange.gif","img/card_backs/set2/gray.gif","img/card_backs/set2/blue.gif","""event"",""trial"",""time""
""fullscreenenter"",""1"",""3946""
","
","
","""event"",""trial"",""time""
""fullscreenenter"",""1"",""3946""
","
","","3668.2000000029802","Finally, try pressing '8' to select the deck all the way on the right.","56","","instructions","2021-06-10 13:31:32.671","","","","","",""
"card-selection-trial","21","109515","0.0-15.0-0.0","277","true","img/card_backs/set1/red.gif","img/card_backs/set1/green.gif","img/card_backs/set1/yellow.gif","img/card_backs/set1/purple.gif","img/card_backs/set2/pink.gif","img/card_backs/set2/orange.gif","img/card_backs/set2/gray.gif","img/card_backs/set2/blue.gif","""event"",""trial"",""time""
""fullscreenenter"",""1"",""3946""
","
","
","""event"",""trial"",""time""
""fullscreenenter"",""1"",""3946""
","
","","758","","","","practice_card_selection","2021-06-10 13:31:35.450","img/practice_cards/backs/dark_green.gif","3","200","","",""
"casino-keyboard-response","22","113952","0.0-16.0-0.0","277","true","img/card_backs/set1/red.gif","img/card_backs/set1/green.gif","img/card_backs/set1/yellow.gif","img/card_backs/set1/purple.gif","img/card_backs/set2/pink.gif","img/card_backs/set2/orange.gif","img/card_backs/set2/gray.gif","img/card_backs/set2/blue.gif","""event"",""trial"",""time""
""fullscreenenter"",""1"",""3946""
","
","
","""event"",""trial"",""time""
""fullscreenenter"",""1"",""3946""
","
","","4433.79999999702","Great! It seems like you are getting the hang of this.","80","","instructions","2021-06-10 13:31:39.887","","","","","",""
"casino-keyboard-response","23","121528","0.0-16.0-0.1","277","true","img/card_backs/set1/red.gif","img/card_backs/set1/green.gif","img/card_backs/set1/yellow.gif","img/card_backs/set1/purple.gif","img/card_backs/set2/pink.gif","img/card_backs/set2/orange.gif","img/card_backs/set2/gray.gif","img/card_backs/set2/blue.gif","""event"",""trial"",""time""
""fullscreenenter"",""1"",""3946""
","
","
","""event"",""trial"",""time""
""fullscreenenter"",""1"",""3946""
","
","","7573","You may have noticed that some cards will cause you to <b> win </b> tokens while other cards will cause you to <b> lose </b>  tokens.","70","","instructions","2021-06-10 13:31:47.463","","","","","",""
"casino-keyboard-response","24","129971","0.0-16.0-0.2","277","true","img/card_backs/set1/red.gif","img/card_backs/set1/green.gif","img/card_backs/set1/yellow.gif","img/card_backs/set1/purple.gif","img/card_backs/set2/pink.gif","img/card_backs/set2/orange.gif","img/card_backs/set2/gray.gif","img/card_backs/set2/blue.gif","""event"",""trial"",""time""
""fullscreenenter"",""1"",""3946""
","
","
","""event"",""trial"",""time""
""fullscreenenter"",""1"",""3946""
","
","","8441.59999999404","Each deck has a mix of cards that will cause you to win and lose tokens. </br> However, the cards in each colored deck are different.","73","","instructions","2021-06-10 13:31:55.907","","","","","",""
"casino-keyboard-response","25","138228","0.0-16.0-0.3","277","true","img/card_backs/set1/red.gif","img/card_backs/set1/green.gif","img/card_backs/set1/yellow.gif","img/card_backs/set1/purple.gif","img/card_backs/set2/pink.gif","img/card_backs/set2/orange.gif","img/card_backs/set2/gray.gif","img/card_backs/set2/blue.gif","""event"",""trial"",""time""
""fullscreenenter"",""1"",""3946""
","
","
","""event"",""trial"",""time""
""fullscreenenter"",""1"",""3946""
","
","","8253.89999999851","Some colored decks are luckier than others. </br> If you choose the lucky decks, you will earn more tokens than if you choose the unlucky decks.","69","","instructions","2021-06-10 13:32:04.163","","","","","",""
"casino-keyboard-response","26","145308","0.0-16.0-0.4","277","true","img/card_backs/set1/red.gif","img/card_backs/set1/green.gif","img/card_backs/set1/yellow.gif","img/card_backs/set1/purple.gif","img/card_backs/set2/pink.gif","img/card_backs/set2/orange.gif","img/card_backs/set2/gray.gif","img/card_backs/set2/blue.gif","""event"",""trial"",""time""
""fullscreenenter"",""1"",""3946""
","
","
","""event"",""trial"",""time""
""fullscreenenter"",""1"",""3946""
","
","","7077.60000000149","You should try to figure out which decks are lucky. </br> Then, try to choose the lucky decks so you can win the most tokens.","87","","instructions","2021-06-10 13:32:11.243","","","","","",""
"casino-keyboard-response","27","165530","0.0-16.0-0.5","277","true","img/card_backs/set1/red.gif","img/card_backs/set1/green.gif","img/card_backs/set1/yellow.gif","img/card_backs/set1/purple.gif","img/card_backs/set2/pink.gif","img/card_backs/set2/orange.gif","img/card_backs/set2/gray.gif","img/card_backs/set2/blue.gif","""event"",""trial"",""time""
""fullscreenenter"",""1"",""3946""
","
","
","""event"",""trial"",""time""
""fullscreenenter"",""1"",""3946""
","
","","20218","To make it trickier, the casino dealer will switch the locations of the decks on every turn. </br> The color of the deck determines how lucky it is. The location does not matter.","88","","instructions","2021-06-10 13:32:31.465","","","","","",""
"casino-keyboard-response","28","175458","0.0-16.0-0.6","277","true","img/card_backs/set1/red.gif","img/card_backs/set1/green.gif","img/card_backs/set1/yellow.gif","img/card_backs/set1/purple.gif","img/card_backs/set2/pink.gif","img/card_backs/set2/orange.gif","img/card_backs/set2/gray.gif","img/card_backs/set2/blue.gif","""event"",""trial"",""time""
""fullscreenenter"",""1"",""3946""
","
","
","""event"",""trial"",""time""
""fullscreenenter"",""1"",""3946""
","
","","9924.5","The mix of cards in each colored deck will stay the same throughout the game. </br> That means that a deck that is lucky early on will stay lucky.","79","","instructions","2021-06-10 13:32:41.393","","","","","",""
"casino-keyboard-response","29","183866","0.0-16.0-0.7","277","true","img/card_backs/set1/red.gif","img/card_backs/set1/green.gif","img/card_backs/set1/yellow.gif","img/card_backs/set1/purple.gif","img/card_backs/set2/pink.gif","img/card_backs/set2/orange.gif","img/card_backs/set2/gray.gif","img/card_backs/set2/blue.gif","""event"",""trial"",""time""
""fullscreenenter"",""1"",""3946""
","
","
","""event"",""trial"",""time""
""fullscreenenter"",""1"",""3946""
","
","","8404.10000000149","Remember though, all the decks have a <b> mix </b> of both <b> good </b> and <b> bad </b> cards so it may take a couple of turns to figure out if a deck is lucky.","69","","instructions","2021-06-10 13:32:49.801","","","","","",""
"casino-keyboard-response","30","192042","0.0-16.0-0.8","277","true","img/card_backs/set1/red.gif","img/card_backs/set1/green.gif","img/card_backs/set1/yellow.gif","img/card_backs/set1/purple.gif","img/card_backs/set2/pink.gif","img/card_backs/set2/orange.gif","img/card_backs/set2/gray.gif","img/card_backs/set2/blue.gif","""event"",""trial"",""time""
""fullscreenenter"",""1"",""3946""
","
","
","""event"",""trial"",""time""
""fullscreenenter"",""1"",""3946""
","
","","8173.5","At the end of the game, you will be paid bonus money based on how many tokens you win. </br> If you win more tokens, you will earn more money!","72","","instructions","2021-06-10 13:32:57.977","","","","","",""
"casino-keyboard-response","31","202187","0.0-16.0-0.9","277","true","img/card_backs/set1/red.gif","img/card_backs/set1/green.gif","img/card_backs/set1/yellow.gif","img/card_backs/set1/purple.gif","img/card_backs/set2/pink.gif","img/card_backs/set2/orange.gif","img/card_backs/set2/gray.gif","img/card_backs/set2/blue.gif","""event"",""trial"",""time""
""fullscreenenter"",""1"",""3946""
","
","
","""event"",""trial"",""time""
""fullscreenenter"",""1"",""3946""
","
","","10141.19999999553","You will never <b> lose </b> money. </br> If you end up with fewer than 0 tokens, you will earn $0 of bonus money, but you will still be paid for playing the game.","83","","instructions","2021-06-10 13:33:08.122","","","","","",""
"casino-keyboard-response","32","225157","0.0-16.0-0.10","277","true","img/card_backs/set1/red.gif","img/card_backs/set1/green.gif","img/card_backs/set1/yellow.gif","img/card_backs/set1/purple.gif","img/card_backs/set2/pink.gif","img/card_backs/set2/orange.gif","img/card_backs/set2/gray.gif","img/card_backs/set2/blue.gif","""event"",""trial"",""time""
""fullscreenenter"",""1"",""3946""
","
","
","""event"",""trial"",""time""
""fullscreenenter"",""1"",""3946""
","
","","22966.29999999702","You will have 10 seconds to make each choice.","82","","instructions","2021-06-10 13:33:31.093","","","","","",""
"casino-keyboard-response","33","233215","0.0-16.0-0.11","277","true","img/card_backs/set1/red.gif","img/card_backs/set1/green.gif","img/card_backs/set1/yellow.gif","img/card_backs/set1/purple.gif","img/card_backs/set2/pink.gif","img/card_backs/set2/orange.gif","img/card_backs/set2/gray.gif","img/card_backs/set2/blue.gif","""event"",""trial"",""time""
""fullscreenenter"",""1"",""3946""
","
","
","""event"",""trial"",""time""
""fullscreenenter"",""1"",""3946""
","
","","8051.39999999851","Before you play the game for real, you will play with practice decks. </br> The tokens you earn during practice won't count toward your total.","86","","instructions","2021-06-10 13:33:39.150","","","","","",""
"casino-keyboard-response","34","245686","0.0-16.0-0.12","277","true","img/card_backs/set1/red.gif","img/card_backs/set1/green.gif","img/card_backs/set1/yellow.gif","img/card_backs/set1/purple.gif","img/card_backs/set2/pink.gif","img/card_backs/set2/orange.gif","img/card_backs/set2/gray.gif","img/card_backs/set2/blue.gif","""event"",""trial"",""time""
""fullscreenenter"",""1"",""3946""
","
","
","""event"",""trial"",""time""
""fullscreenenter"",""1"",""3946""
","
","","12468.20000000298","Ready? Remember, use the '2', '4', '6', and '8' keys to select the decks. </br> Put your fingers on those keys now and then press '2' to begin.","50","","instructions","2021-06-10 13:33:51.621","","","","","",""
"casino-fixation","35","246194","0.0-17.0-0.0","277","true","img/card_backs/set1/red.gif","img/card_backs/set1/green.gif","img/card_backs/set1/yellow.gif","img/card_backs/set1/purple.gif","img/card_backs/set2/pink.gif","img/card_backs/set2/orange.gif","img/card_backs/set2/gray.gif","img/card_backs/set2/blue.gif","""event"",""trial"",""time""
""fullscreenenter"",""1"",""3946""
","
","
","""event"",""trial"",""time""
""fullscreenenter"",""1"",""3946""
","
","","null","","null","","fixation","2021-06-10 13:33:52.130","","","","","",""
"card-selection-trial","36","250064","0.0-17.0-1.0","277","true","img/card_backs/set1/red.gif","img/card_backs/set1/green.gif","img/card_backs/set1/yellow.gif","img/card_backs/set1/purple.gif","img/card_backs/set2/pink.gif","img/card_backs/set2/orange.gif","img/card_backs/set2/gray.gif","img/card_backs/set2/blue.gif","""event"",""trial"",""time""
""fullscreenenter"",""1"",""3946""
","
","
","""event"",""trial"",""time""
""fullscreenenter"",""1"",""3946""
","
","","1856.2999999970198","","","","practice","2021-06-10 13:33:56.000","img/practice_cards/backs/brown.gif","1","-100","0","",""
"casino-fixation","37","250573","0.0-17.0-0.1","277","true","img/card_backs/set1/red.gif","img/card_backs/set1/green.gif","img/card_backs/set1/yellow.gif","img/card_backs/set1/purple.gif","img/card_backs/set2/pink.gif","img/card_backs/set2/orange.gif","img/card_backs/set2/gray.gif","img/card_backs/set2/blue.gif","""event"",""trial"",""time""
""fullscreenenter"",""1"",""3946""
","
","
","""event"",""trial"",""time""
""fullscreenenter"",""1"",""3946""
","
","","null","","null","","fixation","2021-06-10 13:33:56.508","","","","","",""
"card-selection-trial","38","254193","0.0-17.0-1.1","277","true","img/card_backs/set1/red.gif","img/card_backs/set1/green.gif","img/card_backs/set1/yellow.gif","img/card_backs/set1/purple.gif","img/card_backs/set2/pink.gif","img/card_backs/set2/orange.gif","img/card_backs/set2/gray.gif","img/card_backs/set2/blue.gif","""event"",""trial"",""time""
""fullscreenenter"",""1"",""3946""
","
","
","""event"",""trial"",""time""
""fullscreenenter"",""1"",""3946""
","
","","1605.5","","","","practice","2021-06-10 13:34:00.128","img/practice_cards/backs/dark_blue.gif","3","200","0","",""
"casino-fixation","39","254714","0.0-17.0-0.2","277","true","img/card_backs/set1/red.gif","img/card_backs/set1/green.gif","img/card_backs/set1/yellow.gif","img/card_backs/set1/purple.gif","img/card_backs/set2/pink.gif","img/card_backs/set2/orange.gif","img/card_backs/set2/gray.gif","img/card_backs/set2/blue.gif","""event"",""trial"",""time""
""fullscreenenter"",""1"",""3946""
","
","
","""event"",""trial"",""time""
""fullscreenenter"",""1"",""3946""
","
","","null","","null","","fixation","2021-06-10 13:34:00.649","","","","","",""
"card-selection-trial","40","257254","0.0-17.0-1.2","277","true","img/card_backs/set1/red.gif","img/card_backs/set1/green.gif","img/card_backs/set1/yellow.gif","img/card_backs/set1/purple.gif","img/card_backs/set2/pink.gif","img/card_backs/set2/orange.gif","img/card_backs/set2/gray.gif","img/card_backs/set2/blue.gif","""event"",""trial"",""time""
""fullscreenenter"",""1"",""3946""
","
","
","""event"",""trial"",""time""
""fullscreenenter"",""1"",""3946""
","
","","523.7999999970198","","","","practice","2021-06-10 13:34:03.189","img/practice_cards/backs/dark_green.gif","3","-200","0","",""
"casino-fixation","41","257773","0.0-17.0-0.3","277","true","img/card_backs/set1/red.gif","img/card_backs/set1/green.gif","img/card_backs/set1/yellow.gif","img/card_backs/set1/purple.gif","img/card_backs/set2/pink.gif","img/card_backs/set2/orange.gif","img/card_backs/set2/gray.gif","img/card_backs/set2/blue.gif","""event"",""trial"",""time""
""fullscreenenter"",""1"",""3946""
","
","
","""event"",""trial"",""time""
""fullscreenenter"",""1"",""3946""
","
","","null","","null","","fixation","2021-06-10 13:34:03.708","","","","","",""
"card-selection-trial","42","260316","0.0-17.0-1.3","277","true","img/card_backs/set1/red.gif","img/card_backs/set1/green.gif","img/card_backs/set1/yellow.gif","img/card_backs/set1/purple.gif","img/card_backs/set2/pink.gif","img/card_backs/set2/orange.gif","img/card_backs/set2/gray.gif","img/card_backs/set2/blue.gif","""event"",""trial"",""time""
""fullscreenenter"",""1"",""3946""
","
","
","""event"",""trial"",""time""
""fullscreenenter"",""1"",""3946""
","
","","537.6000000014901","","","","practice","2021-06-10 13:34:06.252","img/practice_cards/backs/dark_blue.gif","2","200","0","",""
"casino-fixation","43","260830","0.0-17.0-0.4","277","true","img/card_backs/set1/red.gif","img/card_backs/set1/green.gif","img/card_backs/set1/yellow.gif","img/card_backs/set1/purple.gif","img/card_backs/set2/pink.gif","img/card_backs/set2/orange.gif","img/card_backs/set2/gray.gif","img/card_backs/set2/blue.gif","""event"",""trial"",""time""
""fullscreenenter"",""1"",""3946""
","
","
","""event"",""trial"",""time""
""fullscreenenter"",""1"",""3946""
","
","","null","","null","","fixation","2021-06-10 13:34:06.766","","","","","",""
"card-selection-trial","44","263314","0.0-17.0-1.4","277","true","img/card_backs/set1/red.gif","img/card_backs/set1/green.gif","img/card_backs/set1/yellow.gif","img/card_backs/set1/purple.gif","img/card_backs/set2/pink.gif","img/card_backs/set2/orange.gif","img/card_backs/set2/gray.gif","img/card_backs/set2/blue.gif","""event"",""trial"",""time""
""fullscreenenter"",""1"",""3946""
","
","
","""event"",""trial"",""time""
""fullscreenenter"",""1"",""3946""
","
","","468.19999999552965","","","","practice","2021-06-10 13:34:09.249","img/practice_cards/backs/dark_blue.gif","2","-200","0","",""
"casino-fixation","45","263817","0.0-17.0-0.5","277","true","img/card_backs/set1/red.gif","img/card_backs/set1/green.gif","img/card_backs/set1/yellow.gif","img/card_backs/set1/purple.gif","img/card_backs/set2/pink.gif","img/card_backs/set2/orange.gif","img/card_backs/set2/gray.gif","img/card_backs/set2/blue.gif","""event"",""trial"",""time""
""fullscreenenter"",""1"",""3946""
","
","
","""event"",""trial"",""time""
""fullscreenenter"",""1"",""3946""
","
","","null","","null","","fixation","2021-06-10 13:34:09.752","","","","","",""
"card-selection-trial","46","266444","0.0-17.0-1.5","277","true","img/card_backs/set1/red.gif","img/card_backs/set1/green.gif","img/card_backs/set1/yellow.gif","img/card_backs/set1/purple.gif","img/card_backs/set2/pink.gif","img/card_backs/set2/orange.gif","img/card_backs/set2/gray.gif","img/card_backs/set2/blue.gif","""event"",""trial"",""time""
""fullscreenenter"",""1"",""3946""
","
","
","""event"",""trial"",""time""
""fullscreenenter"",""1"",""3946""
","
","","612.3999999985099","","","","practice","2021-06-10 13:34:12.379","img/practice_cards/backs/dark_green.gif","0","-200","0","",""
"casino-fixation","47","266963","0.0-17.0-0.6","277","true","img/card_backs/set1/red.gif","img/card_backs/set1/green.gif","img/card_backs/set1/yellow.gif","img/card_backs/set1/purple.gif","img/card_backs/set2/pink.gif","img/card_backs/set2/orange.gif","img/card_backs/set2/gray.gif","img/card_backs/set2/blue.gif","""event"",""trial"",""time""
""fullscreenenter"",""1"",""3946""
","
","
","""event"",""trial"",""time""
""fullscreenenter"",""1"",""3946""
","
","","null","","null","","fixation","2021-06-10 13:34:12.899","","","","","",""
"card-selection-trial","48","269244","0.0-17.0-1.6","277","true","img/card_backs/set1/red.gif","img/card_backs/set1/green.gif","img/card_backs/set1/yellow.gif","img/card_backs/set1/purple.gif","img/card_backs/set2/pink.gif","img/card_backs/set2/orange.gif","img/card_backs/set2/gray.gif","img/card_backs/set2/blue.gif","""event"",""trial"",""time""
""fullscreenenter"",""1"",""3946""
","
","
","""event"",""trial"",""time""
""fullscreenenter"",""1"",""3946""
","
","","266","","","","practice","2021-06-10 13:34:15.179","img/practice_cards/backs/black.gif","3","100","0","",""
"casino-fixation","49","269764","0.0-17.0-0.7","277","true","img/card_backs/set1/red.gif","img/card_backs/set1/green.gif","img/card_backs/set1/yellow.gif","img/card_backs/set1/purple.gif","img/card_backs/set2/pink.gif","img/card_backs/set2/orange.gif","img/card_backs/set2/gray.gif","img/card_backs/set2/blue.gif","""event"",""trial"",""time""
""fullscreenenter"",""1"",""3946""
","
","
","""event"",""trial"",""time""
""fullscreenenter"",""1"",""3946""
","
","","null","","null","","fixation","2021-06-10 13:34:15.699","","","","","",""
"card-selection-trial","50","272364","0.0-17.0-1.7","277","true","img/card_backs/set1/red.gif","img/card_backs/set1/green.gif","img/card_backs/set1/yellow.gif","img/card_backs/set1/purple.gif","img/card_backs/set2/pink.gif","img/card_backs/set2/orange.gif","img/card_backs/set2/gray.gif","img/card_backs/set2/blue.gif","""event"",""trial"",""time""
""fullscreenenter"",""1"",""3946""
","
","
","""event"",""trial"",""time""
""fullscreenenter"",""1"",""3946""
","
","","581.1000000014901","","","","practice","2021-06-10 13:34:18.299","img/practice_cards/backs/dark_blue.gif","3","200","0","",""
"casino-fixation","51","272883","0.0-17.0-0.8","277","true","img/card_backs/set1/red.gif","img/card_backs/set1/green.gif","img/card_backs/set1/yellow.gif","img/card_backs/set1/purple.gif","img/card_backs/set2/pink.gif","img/card_backs/set2/orange.gif","img/card_backs/set2/gray.gif","img/card_backs/set2/blue.gif","""event"",""trial"",""time""
""fullscreenenter"",""1"",""3946""
","
","
","""event"",""trial"",""time""
""fullscreenenter"",""1"",""3946""
","
","","null","","null","","fixation","2021-06-10 13:34:18.818","","","","","",""
"card-selection-trial","52","275907","0.0-17.0-1.8","277","true","img/card_backs/set1/red.gif","img/card_backs/set1/green.gif","img/card_backs/set1/yellow.gif","img/card_backs/set1/purple.gif","img/card_backs/set2/pink.gif","img/card_backs/set2/orange.gif","img/card_backs/set2/gray.gif","img/card_backs/set2/blue.gif","""event"",""trial"",""time""
""fullscreenenter"",""1"",""3946""
","
","
","""event"",""trial"",""time""
""fullscreenenter"",""1"",""3946""
","
","","1017.2999999970198","","","","practice","2021-06-10 13:34:21.842","img/practice_cards/backs/brown.gif","2","-100","0","",""
"casino-fixation","53","276411","0.0-17.0-0.9","277","true","img/card_backs/set1/red.gif","img/card_backs/set1/green.gif","img/card_backs/set1/yellow.gif","img/card_backs/set1/purple.gif","img/card_backs/set2/pink.gif","img/card_backs/set2/orange.gif","img/card_backs/set2/gray.gif","img/card_backs/set2/blue.gif","""event"",""trial"",""time""
""fullscreenenter"",""1"",""3946""
","
","
","""event"",""trial"",""time""
""fullscreenenter"",""1"",""3946""
","
","","null","","null","","fixation","2021-06-10 13:34:22.346","","","","","",""
"card-selection-trial","54","278710","0.0-17.0-1.9","277","true","img/card_backs/set1/red.gif","img/card_backs/set1/green.gif","img/card_backs/set1/yellow.gif","img/card_backs/set1/purple.gif","img/card_backs/set2/pink.gif","img/card_backs/set2/orange.gif","img/card_backs/set2/gray.gif","img/card_backs/set2/blue.gif","""event"",""trial"",""time""
""fullscreenenter"",""1"",""3946""
","
","
","""event"",""trial"",""time""
""fullscreenenter"",""1"",""3946""
","
","","286.8999999985099","","","","practice","2021-06-10 13:34:24.645","img/practice_cards/backs/dark_blue.gif","3","-200","0","",""
"casino-keyboard-response","55","281701","0.0-18.0","277","true","img/card_backs/set1/red.gif","img/card_backs/set1/green.gif","img/card_backs/set1/yellow.gif","img/card_backs/set1/purple.gif","img/card_backs/set2/pink.gif","img/card_backs/set2/orange.gif","img/card_backs/set2/gray.gif","img/card_backs/set2/blue.gif","""event"",""trial"",""time""
""fullscreenenter"",""1"",""3946""
","
","
","""event"",""trial"",""time""
""fullscreenenter"",""1"",""3946""
","
","","2988.3000000044703","You earned -300 tokens during the practice round!","82","","","2021-06-10 13:34:27.637","","","","","",""
"casino-keyboard-response","56","286802","0.0-19.0-0.0","277","true","img/card_backs/set1/red.gif","img/card_backs/set1/green.gif","img/card_backs/set1/yellow.gif","img/card_backs/set1/purple.gif","img/card_backs/set2/pink.gif","img/card_backs/set2/orange.gif","img/card_backs/set2/gray.gif","img/card_backs/set2/blue.gif","""event"",""trial"",""time""
""fullscreenenter"",""1"",""3946""
","
","
","""event"",""trial"",""time""
""fullscreenenter"",""1"",""3946""
","
","","5097.39999999851","Nice job! You are almost ready to play the real game.","86","","instructions","2021-06-10 13:34:32.738","","","","","",""
"casino-keyboard-response","57","293517","0.0-19.0-0.1","277","true","img/card_backs/set1/red.gif","img/card_backs/set1/green.gif","img/card_backs/set1/yellow.gif","img/card_backs/set1/purple.gif","img/card_backs/set2/pink.gif","img/card_backs/set2/orange.gif","img/card_backs/set2/gray.gif","img/card_backs/set2/blue.gif","""event"",""trial"",""time""
""fullscreenenter"",""1"",""3946""
","
","
","""event"",""trial"",""time""
""fullscreenenter"",""1"",""3946""
","
","","6712","You will play two rounds of the real game. In each round, you will pick 100 cards in total.","73","","instructions","2021-06-10 13:34:39.452","","","","","",""
"casino-keyboard-response","58","298553","0.0-19.0-0.2","277","true","img/card_backs/set1/red.gif","img/card_backs/set1/green.gif","img/card_backs/set1/yellow.gif","img/card_backs/set1/purple.gif","img/card_backs/set2/pink.gif","img/card_backs/set2/orange.gif","img/card_backs/set2/gray.gif","img/card_backs/set2/blue.gif","""event"",""trial"",""time""
""fullscreenenter"",""1"",""3946""
","
","
","""event"",""trial"",""time""
""fullscreenenter"",""1"",""3946""
","
","","5032.30000000447","We are now going to ask you some questions about how the game works.","66","","instructions","2021-06-10 13:34:44.489","","","","","",""
"casino-keyboard-response","59","304432","0.0-19.0-0.3","277","true","img/card_backs/set1/red.gif","img/card_backs/set1/green.gif","img/card_backs/set1/yellow.gif","img/card_backs/set1/purple.gif","img/card_backs/set2/pink.gif","img/card_backs/set2/orange.gif","img/card_backs/set2/gray.gif","img/card_backs/set2/blue.gif","""event"",""trial"",""time""
""fullscreenenter"",""1"",""3946""
","
","
","""event"",""trial"",""time""
""fullscreenenter"",""1"",""3946""
","
","","5873.30000000447","Answer carefully. You will not be able to begin the game until you answer them correctly.","67","","instructions","2021-06-10 13:34:50.367","","","","","",""
"casino-comp_q","60","310630","0.0-20.0-0.0","277","true","img/card_backs/set1/red.gif","img/card_backs/set1/green.gif","img/card_backs/set1/yellow.gif","img/card_backs/set1/purple.gif","img/card_backs/set2/pink.gif","img/card_backs/set2/orange.gif","img/card_backs/set2/gray.gif","img/card_backs/set2/blue.gif","""event"",""trial"",""time""
""fullscreenenter"",""1"",""3946""
","
","
","""event"",""trial"",""time""
""fullscreenenter"",""1"",""3946""
","
","","6192.80000000447","True or False: All the decks have some cards that cause you to win tokens and some cards that cause you to lose tokens.","84","","","2021-06-10 13:34:56.569","","","","","",""
"casino-keyboard-response","61","313726","0.0-20.0-1.0","277","true","img/card_backs/set1/red.gif","img/card_backs/set1/green.gif","img/card_backs/set1/yellow.gif","img/card_backs/set1/purple.gif","img/card_backs/set2/pink.gif","img/card_backs/set2/orange.gif","img/card_backs/set2/gray.gif","img/card_backs/set2/blue.gif","""event"",""trial"",""time""
""fullscreenenter"",""1"",""3946""
","
","
","""event"",""trial"",""time""
""fullscreenenter"",""1"",""3946""
","
","","3087.8000000044703","True is correct! All the decks have a mix of winning and losing cards.","77","","","2021-06-10 13:34:59.662","","","","","true",""
"casino-comp_q","62","315975","0.0-21.0-0.0","277","true","img/card_backs/set1/red.gif","img/card_backs/set1/green.gif","img/card_backs/set1/yellow.gif","img/card_backs/set1/purple.gif","img/card_backs/set2/pink.gif","img/card_backs/set2/orange.gif","img/card_backs/set2/gray.gif","img/card_backs/set2/blue.gif","""event"",""trial"",""time""
""fullscreenenter"",""1"",""3946""
","
","
","""event"",""trial"",""time""
""fullscreenenter"",""1"",""3946""
","
","","2245","True or False: You will have as much time as you want to make your response.","70","","","2021-06-10 13:35:01.910","","","","","",""
"casino-keyboard-response","63","319178","0.0-21.0-1.0","277","true","img/card_backs/set1/red.gif","img/card_backs/set1/green.gif","img/card_backs/set1/yellow.gif","img/card_backs/set1/purple.gif","img/card_backs/set2/pink.gif","img/card_backs/set2/orange.gif","img/card_backs/set2/gray.gif","img/card_backs/set2/blue.gif","""event"",""trial"",""time""
""fullscreenenter"",""1"",""3946""
","
","
","""event"",""trial"",""time""
""fullscreenenter"",""1"",""3946""
","
","","3200","False is correct! You will only have 10 seconds to make each choice.","75","","","2021-06-10 13:35:05.113","","","","","true",""
"casino-comp_q","64","322899","0.0-22.0-0.0","277","true","img/card_backs/set1/red.gif","img/card_backs/set1/green.gif","img/card_backs/set1/yellow.gif","img/card_backs/set1/purple.gif","img/card_backs/set2/pink.gif","img/card_backs/set2/orange.gif","img/card_backs/set2/gray.gif","img/card_backs/set2/blue.gif","""event"",""trial"",""time""
""fullscreenenter"",""1"",""3946""
","
","
","""event"",""trial"",""time""
""fullscreenenter"",""1"",""3946""
","
","","3718.7000000029802","True or False: The location of the deck determines how lucky it is.","70","","","2021-06-10 13:35:08.834","","","","","",""
"casino-keyboard-response","65","330856","0.0-22.0-1.0","277","true","img/card_backs/set1/red.gif","img/card_backs/set1/green.gif","img/card_backs/set1/yellow.gif","img/card_backs/set1/purple.gif","img/card_backs/set2/pink.gif","img/card_backs/set2/orange.gif","img/card_backs/set2/gray.gif","img/card_backs/set2/blue.gif","""event"",""trial"",""time""
""fullscreenenter"",""1"",""3946""
","
","
","""event"",""trial"",""time""
""fullscreenenter"",""1"",""3946""
","
","","7953.39999999851","False is correct! The <i>color</i>  of the deck determines how lucky or unlucky it is.","68","","","2021-06-10 13:35:16.791","","","","","true",""
"casino-keyboard-response","66","347447","0.0-23.0-0.0","277","true","img/card_backs/set1/red.gif","img/card_backs/set1/green.gif","img/card_backs/set1/yellow.gif","img/card_backs/set1/purple.gif","img/card_backs/set2/pink.gif","img/card_backs/set2/orange.gif","img/card_backs/set2/gray.gif","img/card_backs/set2/blue.gif","""event"",""trial"",""time""
""fullscreenenter"",""1"",""3946""
","
","
","""event"",""trial"",""time""
""fullscreenenter"",""1"",""3946""
","
","","16588.09999999404","Great job! Now it's time to start the real game.","82","","instructions","2021-06-10 13:35:33.382","","","","","",""
"casino-keyboard-response","67","352784","0.0-23.0-0.1","277","true","img/card_backs/set1/red.gif","img/card_backs/set1/green.gif","img/card_backs/set1/yellow.gif","img/card_backs/set1/purple.gif","img/card_backs/set2/pink.gif","img/card_backs/set2/orange.gif","img/card_backs/set2/gray.gif","img/card_backs/set2/blue.gif","""event"",""trial"",""time""
""fullscreenenter"",""1"",""3946""
","
","
","""event"",""trial"",""time""
""fullscreenenter"",""1"",""3946""
","
","","5334.5","Before we start, we're going to head into a new room of the casino.","86","","instructions","2021-06-10 13:35:38.719","","","","","",""
"casino-keyboard-response","68","358992","0.0-24.0-0.0","277","true","img/card_backs/set1/red.gif","img/card_backs/set1/green.gif","img/card_backs/set1/yellow.gif","img/card_backs/set1/purple.gif","img/card_backs/set2/pink.gif","img/card_backs/set2/orange.gif","img/card_backs/set2/gray.gif","img/card_backs/set2/blue.gif","""event"",""trial"",""time""
""fullscreenenter"",""1"",""3946""
","
","
","""event"",""trial"",""time""
""fullscreenenter"",""1"",""3946""
","
","","6205.5","Here we are! The real game will use different cards, but the rules will be the same.","71","","instructions","2021-06-10 13:35:44.927","","","","","",""
"casino-keyboard-response","69","368962","0.0-24.0-0.1","277","true","img/card_backs/set1/red.gif","img/card_backs/set1/green.gif","img/card_backs/set1/yellow.gif","img/card_backs/set1/purple.gif","img/card_backs/set2/pink.gif","img/card_backs/set2/orange.gif","img/card_backs/set2/gray.gif","img/card_backs/set2/blue.gif","""event"",""trial"",""time""
""fullscreenenter"",""1"",""3946""
","
","
","""event"",""trial"",""time""
""fullscreenenter"",""1"",""3946""
","
","","9966.70000000298","Ready? Put your fingers over the '2', '4', 6', and '8' keys so you are ready to play the game. </br> Then press 2 to start.","50","","instructions","2021-06-10 13:35:54.897","","","","","",""
"casino-fixation","70","369477","0.0-25.0-0.0","277","true","img/card_backs/set1/red.gif","img/card_backs/set1/green.gif","img/card_backs/set1/yellow.gif","img/card_backs/set1/purple.gif","img/card_backs/set2/pink.gif","img/card_backs/set2/orange.gif","img/card_backs/set2/gray.gif","img/card_backs/set2/blue.gif","""event"",""trial"",""time""
""fullscreenenter"",""1"",""3946""
","
","
","""event"",""trial"",""time""
""fullscreenenter"",""1"",""3946""
","
","","null","","null","","fixation","2021-06-10 13:35:55.412","","","","","",""
"card-selection-trial","71","372546","0.0-25.0-1.0","277","true","img/card_backs/set1/red.gif","img/card_backs/set1/green.gif","img/card_backs/set1/yellow.gif","img/card_backs/set1/purple.gif","img/card_backs/set2/pink.gif","img/card_backs/set2/orange.gif","img/card_backs/set2/gray.gif","img/card_backs/set2/blue.gif","""event"",""trial"",""time""
""fullscreenenter"",""1"",""3946""
","
","
","""event"",""trial"",""time""
""fullscreenenter"",""1"",""3946""
","
","","1042.7999999970198","","","","real_trial","2021-06-10 13:35:58.481","img/card_backs/set1/red.gif","2","240","1","",""
"casino-fixation","72","373063","0.0-25.0-0.1","277","true","img/card_backs/set1/red.gif","img/card_backs/set1/green.gif","img/card_backs/set1/yellow.gif","img/card_backs/set1/purple.gif","img/card_backs/set2/pink.gif","img/card_backs/set2/orange.gif","img/card_backs/set2/gray.gif","img/card_backs/set2/blue.gif","""event"",""trial"",""time""
""fullscreenenter"",""1"",""3946""
","
","
","""event"",""trial"",""time""
""fullscreenenter"",""1"",""3946""
","
","","null","","null","","fixation","2021-06-10 13:35:58.999","","","","","",""
"card-selection-trial","73","376006","0.0-25.0-1.1","277","true","img/card_backs/set1/red.gif","img/card_backs/set1/green.gif","img/card_backs/set1/yellow.gif","img/card_backs/set1/purple.gif","img/card_backs/set2/pink.gif","img/card_backs/set2/orange.gif","img/card_backs/set2/gray.gif","img/card_backs/set2/blue.gif","""event"",""trial"",""time""
""fullscreenenter"",""1"",""3946""
","
","
","""event"",""trial"",""time""
""fullscreenenter"",""1"",""3946""
","
","","920.5","","","","real_trial","2021-06-10 13:36:01.941","img/card_backs/set1/red.gif","2","-200","1","",""
"casino-fixation","74","376515","0.0-25.0-0.2","277","true","img/card_backs/set1/red.gif","img/card_backs/set1/green.gif","img/card_backs/set1/yellow.gif","img/card_backs/set1/purple.gif","img/card_backs/set2/pink.gif","img/card_backs/set2/orange.gif","img/card_backs/set2/gray.gif","img/card_backs/set2/blue.gif","""event"",""trial"",""time""
""fullscreenenter"",""1"",""3946""
","
","
","""event"",""trial"",""time""
""fullscreenenter"",""1"",""3946""
","
","","null","","null","","fixation","2021-06-10 13:36:02.450","","","","","",""
"card-selection-trial","75","378874","0.0-25.0-1.2","277","true","img/card_backs/set1/red.gif","img/card_backs/set1/green.gif","img/card_backs/set1/yellow.gif","img/card_backs/set1/purple.gif","img/card_backs/set2/pink.gif","img/card_backs/set2/orange.gif","img/card_backs/set2/gray.gif","img/card_backs/set2/blue.gif","""event"",""trial"",""time""
""fullscreenenter"",""1"",""3946""
","
","
","""event"",""trial"",""time""
""fullscreenenter"",""1"",""3946""
","
","","334","","","","real_trial","2021-06-10 13:36:04.809","img/card_backs/set1/red.gif","3","260","1","",""
"casino-fixation","76","379386","0.0-25.0-0.3","277","true","img/card_backs/set1/red.gif","img/card_backs/set1/green.gif","img/card_backs/set1/yellow.gif","img/card_backs/set1/purple.gif","img/card_backs/set2/pink.gif","img/card_backs/set2/orange.gif","img/card_backs/set2/gray.gif","img/card_backs/set2/blue.gif","""event"",""trial"",""time""
""fullscreenenter"",""1"",""3946""
","
","
","""event"",""trial"",""time""
""fullscreenenter"",""1"",""3946""
","
","","null","","null","","fixation","2021-06-10 13:36:05.321","","","","","",""
"card-selection-trial","77","382856","0.0-25.0-1.3","277","true","img/card_backs/set1/red.gif","img/card_backs/set1/green.gif","img/card_backs/set1/yellow.gif","img/card_backs/set1/purple.gif","img/card_backs/set2/pink.gif","img/card_backs/set2/orange.gif","img/card_backs/set2/gray.gif","img/card_backs/set2/blue.gif","""event"",""trial"",""time""
""fullscreenenter"",""1"",""3946""
","
","
","""event"",""trial"",""time""
""fullscreenenter"",""1"",""3946""
","
","","1448.6999999955297","","","","real_trial","2021-06-10 13:36:08.791","img/card_backs/set1/red.gif","1","-210","1","",""
"casino-fixation","78","383375","0.0-25.0-0.4","277","true","img/card_backs/set1/red.gif","img/card_backs/set1/green.gif","img/card_backs/set1/yellow.gif","img/card_backs/set1/purple.gif","img/card_backs/set2/pink.gif","img/card_backs/set2/orange.gif","img/card_backs/set2/gray.gif","img/card_backs/set2/blue.gif","""event"",""trial"",""time""
""fullscreenenter"",""1"",""3946""
","
","
","""event"",""trial"",""time""
""fullscreenenter"",""1"",""3946""
","
","","null","","null","","fixation","2021-06-10 13:36:09.311","","","","","",""
"card-selection-trial","79","387176","0.0-25.0-1.4","277","true","img/card_backs/set1/red.gif","img/card_backs/set1/green.gif","img/card_backs/set1/yellow.gif","img/card_backs/set1/purple.gif","img/card_backs/set2/pink.gif","img/card_backs/set2/orange.gif","img/card_backs/set2/gray.gif","img/card_backs/set2/blue.gif","""event"",""trial"",""time""
""fullscreenenter"",""1"",""3946""
","
","
","""event"",""trial"",""time""
""fullscreenenter"",""1"",""3946""
","
","","1790.6000000014901","","","","real_trial","2021-06-10 13:36:13.111","img/card_backs/set1/purple.gif","1","-90","1","",""
"casino-fixation","80","387694","0.0-25.0-0.5","277","true","img/card_backs/set1/red.gif","img/card_backs/set1/green.gif","img/card_backs/set1/yellow.gif","img/card_backs/set1/purple.gif","img/card_backs/set2/pink.gif","img/card_backs/set2/orange.gif","img/card_backs/set2/gray.gif","img/card_backs/set2/blue.gif","""event"",""trial"",""time""
""fullscreenenter"",""1"",""3946""
","
","
","""event"",""trial"",""time""
""fullscreenenter"",""1"",""3946""
","
","","null","","null","","fixation","2021-06-10 13:36:13.629","","","","","",""
"card-selection-trial","81","391186","0.0-25.0-1.5","277","true","img/card_backs/set1/red.gif","img/card_backs/set1/green.gif","img/card_backs/set1/yellow.gif","img/card_backs/set1/purple.gif","img/card_backs/set2/pink.gif","img/card_backs/set2/orange.gif","img/card_backs/set2/gray.gif","img/card_backs/set2/blue.gif","""event"",""trial"",""time""
""fullscreenenter"",""1"",""3946""
","
","
","""event"",""trial"",""time""
""fullscreenenter"",""1"",""3946""
","
","","1471.9000000059605","","","","real_trial","2021-06-10 13:36:17.121","img/card_backs/set1/red.gif","3","-200","1","",""
"casino-fixation","82","391691","0.0-25.0-0.6","277","true","img/card_backs/set1/red.gif","img/card_backs/set1/green.gif","img/card_backs/set1/yellow.gif","img/card_backs/set1/purple.gif","img/card_backs/set2/pink.gif","img/card_backs/set2/orange.gif","img/card_backs/set2/gray.gif","img/card_backs/set2/blue.gif","""event"",""trial"",""time""
""fullscreenenter"",""1"",""3946""
","
","
","""event"",""trial"",""time""
""fullscreenenter"",""1"",""3946""
","
","","null","","null","","fixation","2021-06-10 13:36:17.626","","","","","",""
"card-selection-trial","83","395106","0.0-25.0-1.6","277","true","img/card_backs/set1/red.gif","img/card_backs/set1/green.gif","img/card_backs/set1/yellow.gif","img/card_backs/set1/purple.gif","img/card_backs/set2/pink.gif","img/card_backs/set2/orange.gif","img/card_backs/set2/gray.gif","img/card_backs/set2/blue.gif","""event"",""trial"",""time""
""fullscreenenter"",""1"",""3946""
","
","
","""event"",""trial"",""time""
""fullscreenenter"",""1"",""3946""
","
","","1393.2000000029802","","","","real_trial","2021-06-10 13:36:21.041","img/card_backs/set1/green.gif","1","-200","1","",""
"casino-fixation","84","395626","0.0-25.0-0.7","277","true","img/card_backs/set1/red.gif","img/card_backs/set1/green.gif","img/card_backs/set1/yellow.gif","img/card_backs/set1/purple.gif","img/card_backs/set2/pink.gif","img/card_backs/set2/orange.gif","img/card_backs/set2/gray.gif","img/card_backs/set2/blue.gif","""event"",""trial"",""time""
""fullscreenenter"",""1"",""3946""
","
","
","""event"",""trial"",""time""
""fullscreenenter"",""1"",""3946""
","
","","null","","null","","fixation","2021-06-10 13:36:21.561","","","","","",""
"card-selection-trial","85","400149","0.0-25.0-1.7","277","true","img/card_backs/set1/red.gif","img/card_backs/set1/green.gif","img/card_backs/set1/yellow.gif","img/card_backs/set1/purple.gif","img/card_backs/set2/pink.gif","img/card_backs/set2/orange.gif","img/card_backs/set2/gray.gif","img/card_backs/set2/blue.gif","""event"",""trial"",""time""
""fullscreenenter"",""1"",""3946""
","
","
","""event"",""trial"",""time""
""fullscreenenter"",""1"",""3946""
","
","","2510.39999999851","","","","real_trial","2021-06-10 13:36:26.084","img/card_backs/set1/red.gif","2","-200","1","",""
"casino-fixation","86","400653","0.0-25.0-0.8","277","true","img/card_backs/set1/red.gif","img/card_backs/set1/green.gif","img/card_backs/set1/yellow.gif","img/card_backs/set1/purple.gif","img/card_backs/set2/pink.gif","img/card_backs/set2/orange.gif","img/card_backs/set2/gray.gif","img/card_backs/set2/blue.gif","""event"",""trial"",""time""
""fullscreenenter"",""1"",""3946""
","
","
","""event"",""trial"",""time""
""fullscreenenter"",""1"",""3946""
","
","","null","","null","","fixation","2021-06-10 13:36:26.588","","","","","",""
"card-selection-trial","87","404569","0.0-25.0-1.8","277","true","img/card_backs/set1/red.gif","img/card_backs/set1/green.gif","img/card_backs/set1/yellow.gif","img/card_backs/set1/purple.gif","img/card_backs/set2/pink.gif","img/card_backs/set2/orange.gif","img/card_backs/set2/gray.gif","img/card_backs/set2/blue.gif","""event"",""trial"",""time""
""fullscreenenter"",""1"",""3946""
","
","
","""event"",""trial"",""time""
""fullscreenenter"",""1"",""3946""
","
","","1903.2999999970198","","","","real_trial","2021-06-10 13:36:30.504","img/card_backs/set1/green.gif","2","-200","1","",""
"casino-fixation","88","405074","0.0-25.0-0.9","277","true","img/card_backs/set1/red.gif","img/card_backs/set1/green.gif","img/card_backs/set1/yellow.gif","img/card_backs/set1/purple.gif","img/card_backs/set2/pink.gif","img/card_backs/set2/orange.gif","img/card_backs/set2/gray.gif","img/card_backs/set2/blue.gif","""event"",""trial"",""time""
""fullscreenenter"",""1"",""3946""
","
","
","""event"",""trial"",""time""
""fullscreenenter"",""1"",""3946""
","
","","null","","null","","fixation","2021-06-10 13:36:31.009","","","","","",""
"card-selection-trial","89","409342","0.0-25.0-1.9","277","true","img/card_backs/set1/red.gif","img/card_backs/set1/green.gif","img/card_backs/set1/yellow.gif","img/card_backs/set1/purple.gif","img/card_backs/set2/pink.gif","img/card_backs/set2/orange.gif","img/card_backs/set2/gray.gif","img/card_backs/set2/blue.gif","""event"",""trial"",""time""
""fullscreenenter"",""1"",""3946""
","
","
","""event"",""trial"",""time""
""fullscreenenter"",""1"",""3946""
","
","","2249.39999999851","","","","real_trial","2021-06-10 13:36:35.277","img/card_backs/set1/red.gif","0","260","1","",""
"casino-fixation","90","409844","0.0-25.0-0.10","277","true","img/card_backs/set1/red.gif","img/card_backs/set1/green.gif","img/card_backs/set1/yellow.gif","img/card_backs/set1/purple.gif","img/card_backs/set2/pink.gif","img/card_backs/set2/orange.gif","img/card_backs/set2/gray.gif","img/card_backs/set2/blue.gif","""event"",""trial"",""time""
""fullscreenenter"",""1"",""3946""
","
","
","""event"",""trial"",""time""
""fullscreenenter"",""1"",""3946""
","
","","null","","null","","fixation","2021-06-10 13:36:35.780","","","","","",""
"card-selection-trial","91","412716","0.0-25.0-1.10","277","true","img/card_backs/set1/red.gif","img/card_backs/set1/green.gif","img/card_backs/set1/yellow.gif","img/card_backs/set1/purple.gif","img/card_backs/set2/pink.gif","img/card_backs/set2/orange.gif","img/card_backs/set2/gray.gif","img/card_backs/set2/blue.gif","""event"",""trial"",""time""
""fullscreenenter"",""1"",""3946""
","
","
","""event"",""trial"",""time""
""fullscreenenter"",""1"",""3946""
","
","","859.2000000029802","","","","real_trial","2021-06-10 13:36:38.651","img/card_backs/set1/red.gif","2","-210","1","",""
"casino-fixation","92","413218","0.0-25.0-0.11","277","true","img/card_backs/set1/red.gif","img/card_backs/set1/green.gif","img/card_backs/set1/yellow.gif","img/card_backs/set1/purple.gif","img/card_backs/set2/pink.gif","img/card_backs/set2/orange.gif","img/card_backs/set2/gray.gif","img/card_backs/set2/blue.gif","""event"",""trial"",""time""
""fullscreenenter"",""1"",""3946""
","
","
","""event"",""trial"",""time""
""fullscreenenter"",""1"",""3946""
","
","","null","","null","","fixation","2021-06-10 13:36:39.154","","","","","",""
"card-selection-trial","93","417080","0.0-25.0-1.11","277","true","img/card_backs/set1/red.gif","img/card_backs/set1/green.gif","img/card_backs/set1/yellow.gif","img/card_backs/set1/purple.gif","img/card_backs/set2/pink.gif","img/card_backs/set2/orange.gif","img/card_backs/set2/gray.gif","img/card_backs/set2/blue.gif","""event"",""trial"",""time""
""fullscreenenter"",""1"",""3946""
","
","
","""event"",""trial"",""time""
""fullscreenenter"",""1"",""3946""
","
","","1851.5","","","","real_trial","2021-06-10 13:36:43.015","img/card_backs/set1/purple.gif","1","50","1","",""
"casino-fixation","94","417583","0.0-25.0-0.12","277","true","img/card_backs/set1/red.gif","img/card_backs/set1/green.gif","img/card_backs/set1/yellow.gif","img/card_backs/set1/purple.gif","img/card_backs/set2/pink.gif","img/card_backs/set2/orange.gif","img/card_backs/set2/gray.gif","img/card_backs/set2/blue.gif","""event"",""trial"",""time""
""fullscreenenter"",""1"",""3946""
","
","
","""event"",""trial"",""time""
""fullscreenenter"",""1"",""3946""
","
","","null","","null","","fixation","2021-06-10 13:36:43.518","","","","","",""
"card-selection-trial","95","421713","0.0-25.0-1.12","277","true","img/card_backs/set1/red.gif","img/card_backs/set1/green.gif","img/card_backs/set1/yellow.gif","img/card_backs/set1/purple.gif","img/card_backs/set2/pink.gif","img/card_backs/set2/orange.gif","img/card_backs/set2/gray.gif","img/card_backs/set2/blue.gif","""event"",""trial"",""time""
""fullscreenenter"",""1"",""3946""
","
","
","""event"",""trial"",""time""
""fullscreenenter"",""1"",""3946""
","
","","2115.60000000149","","","","real_trial","2021-06-10 13:36:47.648","img/card_backs/set1/purple.gif","2","-110","1","",""
"casino-fixation","96","422218","0.0-25.0-0.13","277","true","img/card_backs/set1/red.gif","img/card_backs/set1/green.gif","img/card_backs/set1/yellow.gif","img/card_backs/set1/purple.gif","img/card_backs/set2/pink.gif","img/card_backs/set2/orange.gif","img/card_backs/set2/gray.gif","img/card_backs/set2/blue.gif","""event"",""trial"",""time""
""fullscreenenter"",""1"",""3946""
","
","
","""event"",""trial"",""time""
""fullscreenenter"",""1"",""3946""
","
","","null","","null","","fixation","2021-06-10 13:36:48.153","","","","","",""
"card-selection-trial","97","426774","0.0-25.0-1.13","277","true","img/card_backs/set1/red.gif","img/card_backs/set1/green.gif","img/card_backs/set1/yellow.gif","img/card_backs/set1/purple.gif","img/card_backs/set2/pink.gif","img/card_backs/set2/orange.gif","img/card_backs/set2/gray.gif","img/card_backs/set2/blue.gif","""event"",""trial"",""time""
""fullscreenenter"",""1"",""3946""
","
","
","""event"",""trial"",""time""
""fullscreenenter"",""1"",""3946""
","
","","2547","","","","real_trial","2021-06-10 13:36:52.713","img/card_backs/set1/red.gif","2","-210","1","",""
"casino-fixation","98","427282","0.0-25.0-0.14","277","true","img/card_backs/set1/red.gif","img/card_backs/set1/green.gif","img/card_backs/set1/yellow.gif","img/card_backs/set1/purple.gif","img/card_backs/set2/pink.gif","img/card_backs/set2/orange.gif","img/card_backs/set2/gray.gif","img/card_backs/set2/blue.gif","""event"",""trial"",""time""
""fullscreenenter"",""1"",""3946""
","
","
","""event"",""trial"",""time""
""fullscreenenter"",""1"",""3946""
","
","","null","","null","","fixation","2021-06-10 13:36:53.217","","","","","",""
"card-selection-trial","99","430879","0.0-25.0-1.14","277","true","img/card_backs/set1/red.gif","img/card_backs/set1/green.gif","img/card_backs/set1/yellow.gif","img/card_backs/set1/purple.gif","img/card_backs/set2/pink.gif","img/card_backs/set2/orange.gif","img/card_backs/set2/gray.gif","img/card_backs/set2/blue.gif","""event"",""trial"",""time""
""fullscreenenter"",""1"",""3946""
","
","
","""event"",""trial"",""time""
""fullscreenenter"",""1"",""3946""
","
","","1583.3999999985099","","","","real_trial","2021-06-10 13:36:56.814","img/card_backs/set1/green.gif","1","240","1","",""
"casino-fixation","100","431381","0.0-25.0-0.15","277","true","img/card_backs/set1/red.gif","img/card_backs/set1/green.gif","img/card_backs/set1/yellow.gif","img/card_backs/set1/purple.gif","img/card_backs/set2/pink.gif","img/card_backs/set2/orange.gif","img/card_backs/set2/gray.gif","img/card_backs/set2/blue.gif","""event"",""trial"",""time""
""fullscreenenter"",""1"",""3946""
","
","
","""event"",""trial"",""time""
""fullscreenenter"",""1"",""3946""
","
","","null","","null","","fixation","2021-06-10 13:36:57.317","","","","","",""
"card-selection-trial","101","434906","0.0-25.0-1.15","277","true","img/card_backs/set1/red.gif","img/card_backs/set1/green.gif","img/card_backs/set1/yellow.gif","img/card_backs/set1/purple.gif","img/card_backs/set2/pink.gif","img/card_backs/set2/orange.gif","img/card_backs/set2/gray.gif","img/card_backs/set2/blue.gif","""event"",""trial"",""time""
""fullscreenenter"",""1"",""3946""
","
","
","""event"",""trial"",""time""
""fullscreenenter"",""1"",""3946""
","
","","1512.2000000029802","","","","real_trial","2021-06-10 13:37:00.841","img/card_backs/set1/green.gif","3","240","1","",""
"casino-fixation","102","435408","0.0-25.0-0.16","277","true","img/card_backs/set1/red.gif","img/card_backs/set1/green.gif","img/card_backs/set1/yellow.gif","img/card_backs/set1/purple.gif","img/card_backs/set2/pink.gif","img/card_backs/set2/orange.gif","img/card_backs/set2/gray.gif","img/card_backs/set2/blue.gif","""event"",""trial"",""time""
""fullscreenenter"",""1"",""3946""
","
","
","""event"",""trial"",""time""
""fullscreenenter"",""1"",""3946""
","
","","null","","null","","fixation","2021-06-10 13:37:01.343","","","","","",""
"card-selection-trial","103","438290","0.0-25.0-1.16","277","true","img/card_backs/set1/red.gif","img/card_backs/set1/green.gif","img/card_backs/set1/yellow.gif","img/card_backs/set1/purple.gif","img/card_backs/set2/pink.gif","img/card_backs/set2/orange.gif","img/card_backs/set2/gray.gif","img/card_backs/set2/blue.gif","""event"",""trial"",""time""
""fullscreenenter"",""1"",""3946""
","
","
","""event"",""trial"",""time""
""fullscreenenter"",""1"",""3946""
","
","","868.8999999985099","","","","real_trial","2021-06-10 13:37:04.225","img/card_backs/set1/green.gif","3","-190","1","",""
"casino-fixation","104","438794","0.0-25.0-0.17","277","true","img/card_backs/set1/red.gif","img/card_backs/set1/green.gif","img/card_backs/set1/yellow.gif","img/card_backs/set1/purple.gif","img/card_backs/set2/pink.gif","img/card_backs/set2/orange.gif","img/card_backs/set2/gray.gif","img/card_backs/set2/blue.gif","""event"",""trial"",""time""
""fullscreenenter"",""1"",""3946""
","
","
","""event"",""trial"",""time""
""fullscreenenter"",""1"",""3946""
","
","","null","","null","","fixation","2021-06-10 13:37:04.729","","","","","",""
"card-selection-trial","105","443451","0.0-25.0-1.17","277","true","img/card_backs/set1/red.gif","img/card_backs/set1/green.gif","img/card_backs/set1/yellow.gif","img/card_backs/set1/purple.gif","img/card_backs/set2/pink.gif","img/card_backs/set2/orange.gif","img/card_backs/set2/gray.gif","img/card_backs/set2/blue.gif","""event"",""trial"",""time""
""fullscreenenter"",""1"",""3946""
","
","
","""event"",""trial"",""time""
""fullscreenenter"",""1"",""3946""
","
","","2642.10000000149","","","","real_trial","2021-06-10 13:37:09.386","img/card_backs/set1/red.gif","2","-200","1","",""
"casino-fixation","106","443955","0.0-25.0-0.18","277","true","img/card_backs/set1/red.gif","img/card_backs/set1/green.gif","img/card_backs/set1/yellow.gif","img/card_backs/set1/purple.gif","img/card_backs/set2/pink.gif","img/card_backs/set2/orange.gif","img/card_backs/set2/gray.gif","img/card_backs/set2/blue.gif","""event"",""trial"",""time""
""fullscreenenter"",""1"",""3946""
","
","
","""event"",""trial"",""time""
""fullscreenenter"",""1"",""3946""
","
","","null","","null","","fixation","2021-06-10 13:37:09.890","","","","","",""
"card-selection-trial","107","447165","0.0-25.0-1.18","277","true","img/card_backs/set1/red.gif","img/card_backs/set1/green.gif","img/card_backs/set1/yellow.gif","img/card_backs/set1/purple.gif","img/card_backs/set2/pink.gif","img/card_backs/set2/orange.gif","img/card_backs/set2/gray.gif","img/card_backs/set2/blue.gif","""event"",""trial"",""time""
""fullscreenenter"",""1"",""3946""
","
","
","""event"",""trial"",""time""
""fullscreenenter"",""1"",""3946""
","
","","1196.5","","","","real_trial","2021-06-10 13:37:13.100","img/card_backs/set1/green.gif","2","240","1","",""
"casino-fixation","108","447669","0.0-25.0-0.19","277","true","img/card_backs/set1/red.gif","img/card_backs/set1/green.gif","img/card_backs/set1/yellow.gif","img/card_backs/set1/purple.gif","img/card_backs/set2/pink.gif","img/card_backs/set2/orange.gif","img/card_backs/set2/gray.gif","img/card_backs/set2/blue.gif","""event"",""trial"",""time""
""fullscreenenter"",""1"",""3946""
","
","
","""event"",""trial"",""time""
""fullscreenenter"",""1"",""3946""
","
","","null","","null","","fixation","2021-06-10 13:37:13.604","","","","","",""
"card-selection-trial","109","450402","0.0-25.0-1.19","277","true","img/card_backs/set1/red.gif","img/card_backs/set1/green.gif","img/card_backs/set1/yellow.gif","img/card_backs/set1/purple.gif","img/card_backs/set2/pink.gif","img/card_backs/set2/orange.gif","img/card_backs/set2/gray.gif","img/card_backs/set2/blue.gif","""event"",""trial"",""time""
""fullscreenenter"",""1"",""3946""
","
","
","""event"",""trial"",""time""
""fullscreenenter"",""1"",""3946""
","
","","719.3000000044703","","","","real_trial","2021-06-10 13:37:16.337","img/card_backs/set1/green.gif","0","-200","1","",""
"casino-fixation","110","450905","0.0-25.0-0.20","277","true","img/card_backs/set1/red.gif","img/card_backs/set1/green.gif","img/card_backs/set1/yellow.gif","img/card_backs/set1/purple.gif","img/card_backs/set2/pink.gif","img/card_backs/set2/orange.gif","img/card_backs/set2/gray.gif","img/card_backs/set2/blue.gif","""event"",""trial"",""time""
""fullscreenenter"",""1"",""3946""
","
","
","""event"",""trial"",""time""
""fullscreenenter"",""1"",""3946""
","
","","null","","null","","fixation","2021-06-10 13:37:16.840","","","","","",""
"card-selection-trial","111","454074","0.0-25.0-1.20","277","true","img/card_backs/set1/red.gif","img/card_backs/set1/green.gif","img/card_backs/set1/yellow.gif","img/card_backs/set1/purple.gif","img/card_backs/set2/pink.gif","img/card_backs/set2/orange.gif","img/card_backs/set2/gray.gif","img/card_backs/set2/blue.gif","""event"",""trial"",""time""
""fullscreenenter"",""1"",""3946""
","
","
","""event"",""trial"",""time""
""fullscreenenter"",""1"",""3946""
","
","","1162.8999999985099","","","","real_trial","2021-06-10 13:37:20.009","img/card_backs/set1/yellow.gif","3","-90","1","",""
"casino-fixation","112","454577","0.0-25.0-0.21","277","true","img/card_backs/set1/red.gif","img/card_backs/set1/green.gif","img/card_backs/set1/yellow.gif","img/card_backs/set1/purple.gif","img/card_backs/set2/pink.gif","img/card_backs/set2/orange.gif","img/card_backs/set2/gray.gif","img/card_backs/set2/blue.gif","""event"",""trial"",""time""
""fullscreenenter"",""1"",""3946""
","
","
","""event"",""trial"",""time""
""fullscreenenter"",""1"",""3946""
","
","","null","","null","","fixation","2021-06-10 13:37:20.513","","","","","",""
"card-selection-trial","113","459299","0.0-25.0-1.21","277","true","img/card_backs/set1/red.gif","img/card_backs/set1/green.gif","img/card_backs/set1/yellow.gif","img/card_backs/set1/purple.gif","img/card_backs/set2/pink.gif","img/card_backs/set2/orange.gif","img/card_backs/set2/gray.gif","img/card_backs/set2/blue.gif","""event"",""trial"",""time""
""fullscreenenter"",""1"",""3946""
","
","
","""event"",""trial"",""time""
""fullscreenenter"",""1"",""3946""
","
","","2706.60000000149","","","","real_trial","2021-06-10 13:37:25.234","img/card_backs/set1/green.gif","1","-210","1","",""
"casino-fixation","114","459805","0.0-25.0-0.22","277","true","img/card_backs/set1/red.gif","img/card_backs/set1/green.gif","img/card_backs/set1/yellow.gif","img/card_backs/set1/purple.gif","img/card_backs/set2/pink.gif","img/card_backs/set2/orange.gif","img/card_backs/set2/gray.gif","img/card_backs/set2/blue.gif","""event"",""trial"",""time""
""fullscreenenter"",""1"",""3946""
","
","
","""event"",""trial"",""time""
""fullscreenenter"",""1"",""3946""
","
","","null","","null","","fixation","2021-06-10 13:37:25.740","","","","","",""
"card-selection-trial","115","462372","0.0-25.0-1.22","277","true","img/card_backs/set1/red.gif","img/card_backs/set1/green.gif","img/card_backs/set1/yellow.gif","img/card_backs/set1/purple.gif","img/card_backs/set2/pink.gif","img/card_backs/set2/orange.gif","img/card_backs/set2/gray.gif","img/card_backs/set2/blue.gif","""event"",""trial"",""time""
""fullscreenenter"",""1"",""3946""
","
","
","""event"",""trial"",""time""
""fullscreenenter"",""1"",""3946""
","
","","558.6000000014901","","","","real_trial","2021-06-10 13:37:28.307","img/card_backs/set1/purple.gif","0","50","1","",""
"casino-fixation","116","462876","0.0-25.0-0.23","277","true","img/card_backs/set1/red.gif","img/card_backs/set1/green.gif","img/card_backs/set1/yellow.gif","img/card_backs/set1/purple.gif","img/card_backs/set2/pink.gif","img/card_backs/set2/orange.gif","img/card_backs/set2/gray.gif","img/card_backs/set2/blue.gif","""event"",""trial"",""time""
""fullscreenenter"",""1"",""3946""
","
","
","""event"",""trial"",""time""
""fullscreenenter"",""1"",""3946""
","
","","null","","null","","fixation","2021-06-10 13:37:28.811","","","","","",""
"card-selection-trial","117","465789","0.0-25.0-1.23","277","true","img/card_backs/set1/red.gif","img/card_backs/set1/green.gif","img/card_backs/set1/yellow.gif","img/card_backs/set1/purple.gif","img/card_backs/set2/pink.gif","img/card_backs/set2/orange.gif","img/card_backs/set2/gray.gif","img/card_backs/set2/blue.gif","""event"",""trial"",""time""
""fullscreenenter"",""1"",""3946""
","
","
","""event"",""trial"",""time""
""fullscreenenter"",""1"",""3946""
","
","","903.5","","","","real_trial","2021-06-10 13:37:31.724","img/card_backs/set1/purple.gif","0","-100","1","",""
"casino-fixation","118","466294","0.0-25.0-0.24","277","true","img/card_backs/set1/red.gif","img/card_backs/set1/green.gif","img/card_backs/set1/yellow.gif","img/card_backs/set1/purple.gif","img/card_backs/set2/pink.gif","img/card_backs/set2/orange.gif","img/card_backs/set2/gray.gif","img/card_backs/set2/blue.gif","""event"",""trial"",""time""
""fullscreenenter"",""1"",""3946""
","
","
","""event"",""trial"",""time""
""fullscreenenter"",""1"",""3946""
","
","","null","","null","","fixation","2021-06-10 13:37:32.229","","","","","",""
"card-selection-trial","119","469455","0.0-25.0-1.24","277","true","img/card_backs/set1/red.gif","img/card_backs/set1/green.gif","img/card_backs/set1/yellow.gif","img/card_backs/set1/purple.gif","img/card_backs/set2/pink.gif","img/card_backs/set2/orange.gif","img/card_backs/set2/gray.gif","img/card_backs/set2/blue.gif","""event"",""trial"",""time""
""fullscreenenter"",""1"",""3946""
","
","
","""event"",""trial"",""time""
""fullscreenenter"",""1"",""3946""
","
","","1152.2999999970198","","","","real_trial","2021-06-10 13:37:35.391","img/card_backs/set1/purple.gif","1","50","1","",""
"casino-fixation","120","469959","0.0-25.0-0.25","277","true","img/card_backs/set1/red.gif","img/card_backs/set1/green.gif","img/card_backs/set1/yellow.gif","img/card_backs/set1/purple.gif","img/card_backs/set2/pink.gif","img/card_backs/set2/orange.gif","img/card_backs/set2/gray.gif","img/card_backs/set2/blue.gif","""event"",""trial"",""time""
""fullscreenenter"",""1"",""3946""
","
","
","""event"",""trial"",""time""
""fullscreenenter"",""1"",""3946""
","
","","null","","null","","fixation","2021-06-10 13:37:35.895","","","","","",""
"card-selection-trial","121","473092","0.0-25.0-1.25","277","true","img/card_backs/set1/red.gif","img/card_backs/set1/green.gif","img/card_backs/set1/yellow.gif","img/card_backs/set1/purple.gif","img/card_backs/set2/pink.gif","img/card_backs/set2/orange.gif","img/card_backs/set2/gray.gif","img/card_backs/set2/blue.gif","""event"",""trial"",""time""
""fullscreenenter"",""1"",""3946""
","
","
","""event"",""trial"",""time""
""fullscreenenter"",""1"",""3946""
","
","","1118.2000000029802","","","","real_trial","2021-06-10 13:37:39.027","img/card_backs/set1/purple.gif","3","-110","1","",""
"casino-fixation","122","473594","0.0-25.0-0.26","277","true","img/card_backs/set1/red.gif","img/card_backs/set1/green.gif","img/card_backs/set1/yellow.gif","img/card_backs/set1/purple.gif","img/card_backs/set2/pink.gif","img/card_backs/set2/orange.gif","img/card_backs/set2/gray.gif","img/card_backs/set2/blue.gif","""event"",""trial"",""time""
""fullscreenenter"",""1"",""3946""
","
","
","""event"",""trial"",""time""
""fullscreenenter"",""1"",""3946""
","
","","null","","null","","fixation","2021-06-10 13:37:39.530","","","","","",""
"card-selection-trial","123","476354","0.0-25.0-1.26","277","true","img/card_backs/set1/red.gif","img/card_backs/set1/green.gif","img/card_backs/set1/yellow.gif","img/card_backs/set1/purple.gif","img/card_backs/set2/pink.gif","img/card_backs/set2/orange.gif","img/card_backs/set2/gray.gif","img/card_backs/set2/blue.gif","""event"",""trial"",""time""
""fullscreenenter"",""1"",""3946""
","
","
","""event"",""trial"",""time""
""fullscreenenter"",""1"",""3946""
","
","","752.7000000029802","","","","real_trial","2021-06-10 13:37:42.289","img/card_backs/set1/red.gif","0","240","1","",""
"casino-fixation","124","476858","0.0-25.0-0.27","277","true","img/card_backs/set1/red.gif","img/card_backs/set1/green.gif","img/card_backs/set1/yellow.gif","img/card_backs/set1/purple.gif","img/card_backs/set2/pink.gif","img/card_backs/set2/orange.gif","img/card_backs/set2/gray.gif","img/card_backs/set2/blue.gif","""event"",""trial"",""time""
""fullscreenenter"",""1"",""3946""
","
","
","""event"",""trial"",""time""
""fullscreenenter"",""1"",""3946""
","
","","null","","null","","fixation","2021-06-10 13:37:42.793","","","","","",""
"card-selection-trial","125","482852","0.0-25.0-1.27","277","true","img/card_backs/set1/red.gif","img/card_backs/set1/green.gif","img/card_backs/set1/yellow.gif","img/card_backs/set1/purple.gif","img/card_backs/set2/pink.gif","img/card_backs/set2/orange.gif","img/card_backs/set2/gray.gif","img/card_backs/set2/blue.gif","""event"",""trial"",""time""
""fullscreenenter"",""1"",""3946""
","
","
","""event"",""trial"",""time""
""fullscreenenter"",""1"",""3946""
","
","","3984.1999999955297","","","","real_trial","2021-06-10 13:37:48.787","img/card_backs/set1/yellow.gif","0","50","1","",""
"casino-fixation","126","483356","0.0-25.0-0.28","277","true","img/card_backs/set1/red.gif","img/card_backs/set1/green.gif","img/card_backs/set1/yellow.gif","img/card_backs/set1/purple.gif","img/card_backs/set2/pink.gif","img/card_backs/set2/orange.gif","img/card_backs/set2/gray.gif","img/card_backs/set2/blue.gif","""event"",""trial"",""time""
""fullscreenenter"",""1"",""3946""
","
","
","""event"",""trial"",""time""
""fullscreenenter"",""1"",""3946""
","
","","null","","null","","fixation","2021-06-10 13:37:49.291","","","","","",""
"card-selection-trial","127","488991","0.0-25.0-1.28","277","true","img/card_backs/set1/red.gif","img/card_backs/set1/green.gif","img/card_backs/set1/yellow.gif","img/card_backs/set1/purple.gif","img/card_backs/set2/pink.gif","img/card_backs/set2/orange.gif","img/card_backs/set2/gray.gif","img/card_backs/set2/blue.gif","""event"",""trial"",""time""
""fullscreenenter"",""1"",""3946""
","
","
","""event"",""trial"",""time""
""fullscreenenter"",""1"",""3946""
","
","","3619.60000000149","","","","real_trial","2021-06-10 13:37:54.926","img/card_backs/set1/green.gif","0","-210","1","",""
"casino-fixation","128","489496","0.0-25.0-0.29","277","true","img/card_backs/set1/red.gif","img/card_backs/set1/green.gif","img/card_backs/set1/yellow.gif","img/card_backs/set1/purple.gif","img/card_backs/set2/pink.gif","img/card_backs/set2/orange.gif","img/card_backs/set2/gray.gif","img/card_backs/set2/blue.gif","""event"",""trial"",""time""
""fullscreenenter"",""1"",""3946""
","
","
","""event"",""trial"",""time""
""fullscreenenter"",""1"",""3946""
","
","","null","","null","","fixation","2021-06-10 13:37:55.432","","","","","",""
"card-selection-trial","129","495207","0.0-25.0-1.29","277","true","img/card_backs/set1/red.gif","img/card_backs/set1/green.gif","img/card_backs/set1/yellow.gif","img/card_backs/set1/purple.gif","img/card_backs/set2/pink.gif","img/card_backs/set2/orange.gif","img/card_backs/set2/gray.gif","img/card_backs/set2/blue.gif","""event"",""trial"",""time""
""fullscreenenter"",""1"",""3946""
","
","
","""event"",""trial"",""time""
""fullscreenenter"",""1"",""3946""
","
","","3689.9000000059605","","","","real_trial","2021-06-10 13:38:01.142","img/card_backs/set1/purple.gif","1","-110","1","",""
"casino-fixation","130","495712","0.0-25.0-0.30","277","true","img/card_backs/set1/red.gif","img/card_backs/set1/green.gif","img/card_backs/set1/yellow.gif","img/card_backs/set1/purple.gif","img/card_backs/set2/pink.gif","img/card_backs/set2/orange.gif","img/card_backs/set2/gray.gif","img/card_backs/set2/blue.gif","""event"",""trial"",""time""
""fullscreenenter"",""1"",""3946""
","
","
","""event"",""trial"",""time""
""fullscreenenter"",""1"",""3946""
","
","","null","","null","","fixation","2021-06-10 13:38:01.647","","","","","",""
"card-selection-trial","131","498572","0.0-25.0-1.30","277","true","img/card_backs/set1/red.gif","img/card_backs/set1/green.gif","img/card_backs/set1/yellow.gif","img/card_backs/set1/purple.gif","img/card_backs/set2/pink.gif","img/card_backs/set2/orange.gif","img/card_backs/set2/gray.gif","img/card_backs/set2/blue.gif","""event"",""trial"",""time""
""fullscreenenter"",""1"",""3946""
","
","
","""event"",""trial"",""time""
""fullscreenenter"",""1"",""3946""
","
","","846.5","","","","real_trial","2021-06-10 13:38:04.507","img/card_backs/set1/yellow.gif","2","-110","1","",""
"casino-fixation","132","499076","0.0-25.0-0.31","277","true","img/card_backs/set1/red.gif","img/card_backs/set1/green.gif","img/card_backs/set1/yellow.gif","img/card_backs/set1/purple.gif","img/card_backs/set2/pink.gif","img/card_backs/set2/orange.gif","img/card_backs/set2/gray.gif","img/card_backs/set2/blue.gif","""event"",""trial"",""time""
""fullscreenenter"",""1"",""3946""
","
","
","""event"",""trial"",""time""
""fullscreenenter"",""1"",""3946""
","
","","null","","null","","fixation","2021-06-10 13:38:05.011","","","","","",""
"card-selection-trial","133","502097","0.0-25.0-1.31","277","true","img/card_backs/set1/red.gif","img/card_backs/set1/green.gif","img/card_backs/set1/yellow.gif","img/card_backs/set1/purple.gif","img/card_backs/set2/pink.gif","img/card_backs/set2/orange.gif","img/card_backs/set2/gray.gif","img/card_backs/set2/blue.gif","""event"",""trial"",""time""
""fullscreenenter"",""1"",""3946""
","
","
","""event"",""trial"",""time""
""fullscreenenter"",""1"",""3946""
","
","","1010.7999999970198","","","","real_trial","2021-06-10 13:38:08.032","img/card_backs/set1/yellow.gif","1","50","1","",""
"casino-fixation","134","502602","0.0-25.0-0.32","277","true","img/card_backs/set1/red.gif","img/card_backs/set1/green.gif","img/card_backs/set1/yellow.gif","img/card_backs/set1/purple.gif","img/card_backs/set2/pink.gif","img/card_backs/set2/orange.gif","img/card_backs/set2/gray.gif","img/card_backs/set2/blue.gif","""event"",""trial"",""time""
""fullscreenenter"",""1"",""3946""
","
","
","""event"",""trial"",""time""
""fullscreenenter"",""1"",""3946""
","
","","null","","null","","fixation","2021-06-10 13:38:08.537","","","","","",""
"card-selection-trial","135","505415","0.0-25.0-1.32","277","true","img/card_backs/set1/red.gif","img/card_backs/set1/green.gif","img/card_backs/set1/yellow.gif","img/card_backs/set1/purple.gif","img/card_backs/set2/pink.gif","img/card_backs/set2/orange.gif","img/card_backs/set2/gray.gif","img/card_backs/set2/blue.gif","""event"",""trial"",""time""
""fullscreenenter"",""1"",""3946""
","
","
","""event"",""trial"",""time""
""fullscreenenter"",""1"",""3946""
","
","","798","","","","real_trial","2021-06-10 13:38:11.350","img/card_backs/set1/yellow.gif","2","50","1","",""
"casino-fixation","136","505920","0.0-25.0-0.33","277","true","img/card_backs/set1/red.gif","img/card_backs/set1/green.gif","img/card_backs/set1/yellow.gif","img/card_backs/set1/purple.gif","img/card_backs/set2/pink.gif","img/card_backs/set2/orange.gif","img/card_backs/set2/gray.gif","img/card_backs/set2/blue.gif","""event"",""trial"",""time""
""fullscreenenter"",""1"",""3946""
","
","
","""event"",""trial"",""time""
""fullscreenenter"",""1"",""3946""
","
","","null","","null","","fixation","2021-06-10 13:38:11.855","","","","","",""
"card-selection-trial","137","508704","0.0-25.0-1.33","277","true","img/card_backs/set1/red.gif","img/card_backs/set1/green.gif","img/card_backs/set1/yellow.gif","img/card_backs/set1/purple.gif","img/card_backs/set2/pink.gif","img/card_backs/set2/orange.gif","img/card_backs/set2/gray.gif","img/card_backs/set2/blue.gif","""event"",""trial"",""time""
""fullscreenenter"",""1"",""3946""
","
","
","""event"",""trial"",""time""
""fullscreenenter"",""1"",""3946""
","
","","769.4000000059605","","","","real_trial","2021-06-10 13:38:14.639","img/card_backs/set1/yellow.gif","0","-100","1","",""
"casino-fixation","138","509207","0.0-25.0-0.34","277","true","img/card_backs/set1/red.gif","img/card_backs/set1/green.gif","img/card_backs/set1/yellow.gif","img/card_backs/set1/purple.gif","img/card_backs/set2/pink.gif","img/card_backs/set2/orange.gif","img/card_backs/set2/gray.gif","img/card_backs/set2/blue.gif","""event"",""trial"",""time""
""fullscreenenter"",""1"",""3946""
","
","
","""event"",""trial"",""time""
""fullscreenenter"",""1"",""3946""
","
","","null","","null","","fixation","2021-06-10 13:38:15.143","","","","","",""
"card-selection-trial","139","511976","0.0-25.0-1.34","277","true","img/card_backs/set1/red.gif","img/card_backs/set1/green.gif","img/card_backs/set1/yellow.gif","img/card_backs/set1/purple.gif","img/card_backs/set2/pink.gif","img/card_backs/set2/orange.gif","img/card_backs/set2/gray.gif","img/card_backs/set2/blue.gif","""event"",""trial"",""time""
""fullscreenenter"",""1"",""3946""
","
","
","""event"",""trial"",""time""
""fullscreenenter"",""1"",""3946""
","
","","755.6000000014901","","","","real_trial","2021-06-10 13:38:17.911","img/card_backs/set1/red.gif","2","-200","1","",""
"casino-fixation","140","512480","0.0-25.0-0.35","277","true","img/card_backs/set1/red.gif","img/card_backs/set1/green.gif","img/card_backs/set1/yellow.gif","img/card_backs/set1/purple.gif","img/card_backs/set2/pink.gif","img/card_backs/set2/orange.gif","img/card_backs/set2/gray.gif","img/card_backs/set2/blue.gif","""event"",""trial"",""time""
""fullscreenenter"",""1"",""3946""
","
","
","""event"",""trial"",""time""
""fullscreenenter"",""1"",""3946""
","
","","null","","null","","fixation","2021-06-10 13:38:18.415","","","","","",""
"card-selection-trial","141","515133","0.0-25.0-1.35","277","true","img/card_backs/set1/red.gif","img/card_backs/set1/green.gif","img/card_backs/set1/yellow.gif","img/card_backs/set1/purple.gif","img/card_backs/set2/pink.gif","img/card_backs/set2/orange.gif","img/card_backs/set2/gray.gif","img/card_backs/set2/blue.gif","""event"",""trial"",""time""
""fullscreenenter"",""1"",""3946""
","
","
","""event"",""trial"",""time""
""fullscreenenter"",""1"",""3946""
","
","","644.0999999940395","","","","real_trial","2021-06-10 13:38:21.068","img/card_backs/set1/red.gif","3","260","1","",""
"casino-fixation","142","515636","0.0-25.0-0.36","277","true","img/card_backs/set1/red.gif","img/card_backs/set1/green.gif","img/card_backs/set1/yellow.gif","img/card_backs/set1/purple.gif","img/card_backs/set2/pink.gif","img/card_backs/set2/orange.gif","img/card_backs/set2/gray.gif","img/card_backs/set2/blue.gif","""event"",""trial"",""time""
""fullscreenenter"",""1"",""3946""
","
","
","""event"",""trial"",""time""
""fullscreenenter"",""1"",""3946""
","
","","null","","null","","fixation","2021-06-10 13:38:21.572","","","","","",""
"card-selection-trial","143","518838","0.0-25.0-1.36","277","true","img/card_backs/set1/red.gif","img/card_backs/set1/green.gif","img/card_backs/set1/yellow.gif","img/card_backs/set1/purple.gif","img/card_backs/set2/pink.gif","img/card_backs/set2/orange.gif","img/card_backs/set2/gray.gif","img/card_backs/set2/blue.gif","""event"",""trial"",""time""
""fullscreenenter"",""1"",""3946""
","
","
","""event"",""trial"",""time""
""fullscreenenter"",""1"",""3946""
","
","","1186.6000000014901","","","","real_trial","2021-06-10 13:38:24.773","img/card_backs/set1/red.gif","1","-210","1","",""
"casino-fixation","144","519341","0.0-25.0-0.37","277","true","img/card_backs/set1/red.gif","img/card_backs/set1/green.gif","img/card_backs/set1/yellow.gif","img/card_backs/set1/purple.gif","img/card_backs/set2/pink.gif","img/card_backs/set2/orange.gif","img/card_backs/set2/gray.gif","img/card_backs/set2/blue.gif","""event"",""trial"",""time""
""fullscreenenter"",""1"",""3946""
","
","
","""event"",""trial"",""time""
""fullscreenenter"",""1"",""3946""
","
","","null","","null","","fixation","2021-06-10 13:38:25.276","","","","","",""
"card-selection-trial","145","522233","0.0-25.0-1.37","277","true","img/card_backs/set1/red.gif","img/card_backs/set1/green.gif","img/card_backs/set1/yellow.gif","img/card_backs/set1/purple.gif","img/card_backs/set2/pink.gif","img/card_backs/set2/orange.gif","img/card_backs/set2/gray.gif","img/card_backs/set2/blue.gif","""event"",""trial"",""time""
""fullscreenenter"",""1"",""3946""
","
","
","""event"",""trial"",""time""
""fullscreenenter"",""1"",""3946""
","
","","878.2999999970198","","","","real_trial","2021-06-10 13:38:28.168","img/card_backs/set1/yellow.gif","3","-100","1","",""
"casino-fixation","146","522736","0.0-25.0-0.38","277","true","img/card_backs/set1/red.gif","img/card_backs/set1/green.gif","img/card_backs/set1/yellow.gif","img/card_backs/set1/purple.gif","img/card_backs/set2/pink.gif","img/card_backs/set2/orange.gif","img/card_backs/set2/gray.gif","img/card_backs/set2/blue.gif","""event"",""trial"",""time""
""fullscreenenter"",""1"",""3946""
","
","
","""event"",""trial"",""time""
""fullscreenenter"",""1"",""3946""
","
","","null","","null","","fixation","2021-06-10 13:38:28.672","","","","","",""
"card-selection-trial","147","526380","0.0-25.0-1.38","277","true","img/card_backs/set1/red.gif","img/card_backs/set1/green.gif","img/card_backs/set1/yellow.gif","img/card_backs/set1/purple.gif","img/card_backs/set2/pink.gif","img/card_backs/set2/orange.gif","img/card_backs/set2/gray.gif","img/card_backs/set2/blue.gif","""event"",""trial"",""time""
""fullscreenenter"",""1"",""3946""
","
","
","""event"",""trial"",""time""
""fullscreenenter"",""1"",""3946""
","
","","1629.1000000014901","","","","real_trial","2021-06-10 13:38:32.315","img/card_backs/set1/green.gif","1","240","1","",""
"casino-fixation","148","526884","0.0-25.0-0.39","277","true","img/card_backs/set1/red.gif","img/card_backs/set1/green.gif","img/card_backs/set1/yellow.gif","img/card_backs/set1/purple.gif","img/card_backs/set2/pink.gif","img/card_backs/set2/orange.gif","img/card_backs/set2/gray.gif","img/card_backs/set2/blue.gif","""event"",""trial"",""time""
""fullscreenenter"",""1"",""3946""
","
","
","""event"",""trial"",""time""
""fullscreenenter"",""1"",""3946""
","
","","null","","null","","fixation","2021-06-10 13:38:32.819","","","","","",""
"card-selection-trial","149","529550","0.0-25.0-1.39","277","true","img/card_backs/set1/red.gif","img/card_backs/set1/green.gif","img/card_backs/set1/yellow.gif","img/card_backs/set1/purple.gif","img/card_backs/set2/pink.gif","img/card_backs/set2/orange.gif","img/card_backs/set2/gray.gif","img/card_backs/set2/blue.gif","""event"",""trial"",""time""
""fullscreenenter"",""1"",""3946""
","
","
","""event"",""trial"",""time""
""fullscreenenter"",""1"",""3946""
","
","","653","","","","real_trial","2021-06-10 13:38:35.486","img/card_backs/set1/green.gif","0","-200","1","",""
"casino-fixation","150","530054","0.0-25.0-0.40","277","true","img/card_backs/set1/red.gif","img/card_backs/set1/green.gif","img/card_backs/set1/yellow.gif","img/card_backs/set1/purple.gif","img/card_backs/set2/pink.gif","img/card_backs/set2/orange.gif","img/card_backs/set2/gray.gif","img/card_backs/set2/blue.gif","""event"",""trial"",""time""
""fullscreenenter"",""1"",""3946""
","
","
","""event"",""trial"",""time""
""fullscreenenter"",""1"",""3946""
","
","","null","","null","","fixation","2021-06-10 13:38:35.990","","","","","",""
"card-selection-trial","151","532791","0.0-25.0-1.40","277","true","img/card_backs/set1/red.gif","img/card_backs/set1/green.gif","img/card_backs/set1/yellow.gif","img/card_backs/set1/purple.gif","img/card_backs/set2/pink.gif","img/card_backs/set2/orange.gif","img/card_backs/set2/gray.gif","img/card_backs/set2/blue.gif","""event"",""trial"",""time""
""fullscreenenter"",""1"",""3946""
","
","
","""event"",""trial"",""time""
""fullscreenenter"",""1"",""3946""
","
","","722.5","","","","real_trial","2021-06-10 13:38:38.726","img/card_backs/set1/green.gif","0","260","1","",""
"casino-fixation","152","533295","0.0-25.0-0.41","277","true","img/card_backs/set1/red.gif","img/card_backs/set1/green.gif","img/card_backs/set1/yellow.gif","img/card_backs/set1/purple.gif","img/card_backs/set2/pink.gif","img/card_backs/set2/orange.gif","img/card_backs/set2/gray.gif","img/card_backs/set2/blue.gif","""event"",""trial"",""time""
""fullscreenenter"",""1"",""3946""
","
","
","""event"",""trial"",""time""
""fullscreenenter"",""1"",""3946""
","
","","null","","null","","fixation","2021-06-10 13:38:39.230","","","","","",""
"card-selection-trial","153","536175","0.0-25.0-1.41","277","true","img/card_backs/set1/red.gif","img/card_backs/set1/green.gif","img/card_backs/set1/yellow.gif","img/card_backs/set1/purple.gif","img/card_backs/set2/pink.gif","img/card_backs/set2/orange.gif","img/card_backs/set2/gray.gif","img/card_backs/set2/blue.gif","""event"",""trial"",""time""
""fullscreenenter"",""1"",""3946""
","
","
","""event"",""trial"",""time""
""fullscreenenter"",""1"",""3946""
","
","","868.8999999985099","","","","real_trial","2021-06-10 13:38:42.110","img/card_backs/set1/green.gif","1","-200","1","",""
"casino-fixation","154","536678","0.0-25.0-0.42","277","true","img/card_backs/set1/red.gif","img/card_backs/set1/green.gif","img/card_backs/set1/yellow.gif","img/card_backs/set1/purple.gif","img/card_backs/set2/pink.gif","img/card_backs/set2/orange.gif","img/card_backs/set2/gray.gif","img/card_backs/set2/blue.gif","""event"",""trial"",""time""
""fullscreenenter"",""1"",""3946""
","
","
","""event"",""trial"",""time""
""fullscreenenter"",""1"",""3946""
","
","","null","","null","","fixation","2021-06-10 13:38:42.614","","","","","",""
"card-selection-trial","155","542534","0.0-25.0-1.42","277","true","img/card_backs/set1/red.gif","img/card_backs/set1/green.gif","img/card_backs/set1/yellow.gif","img/card_backs/set1/purple.gif","img/card_backs/set2/pink.gif","img/card_backs/set2/orange.gif","img/card_backs/set2/gray.gif","img/card_backs/set2/blue.gif","""event"",""trial"",""time""
""fullscreenenter"",""1"",""3946""
","
","
","""event"",""trial"",""time""
""fullscreenenter"",""1"",""3946""
","
","","3839.2999999970198","","","","real_trial","2021-06-10 13:38:48.469","img/card_backs/set1/purple.gif","3","40","1","",""
"casino-fixation","156","543040","0.0-25.0-0.43","277","true","img/card_backs/set1/red.gif","img/card_backs/set1/green.gif","img/card_backs/set1/yellow.gif","img/card_backs/set1/purple.gif","img/card_backs/set2/pink.gif","img/card_backs/set2/orange.gif","img/card_backs/set2/gray.gif","img/card_backs/set2/blue.gif","""event"",""trial"",""time""
""fullscreenenter"",""1"",""3946""
","
","
","""event"",""trial"",""time""
""fullscreenenter"",""1"",""3946""
","
","","null","","null","","fixation","2021-06-10 13:38:48.975","","","","","",""
"card-selection-trial","157","545562","0.0-25.0-1.43","277","true","img/card_backs/set1/red.gif","img/card_backs/set1/green.gif","img/card_backs/set1/yellow.gif","img/card_backs/set1/purple.gif","img/card_backs/set2/pink.gif","img/card_backs/set2/orange.gif","img/card_backs/set2/gray.gif","img/card_backs/set2/blue.gif","""event"",""trial"",""time""
""fullscreenenter"",""1"",""3946""
","
","
","""event"",""trial"",""time""
""fullscreenenter"",""1"",""3946""
","
","","512.6000000014901","","","","real_trial","2021-06-10 13:38:51.497","img/card_backs/set1/purple.gif","3","60","1","",""
"casino-fixation","158","546066","0.0-25.0-0.44","277","true","img/card_backs/set1/red.gif","img/card_backs/set1/green.gif","img/card_backs/set1/yellow.gif","img/card_backs/set1/purple.gif","img/card_backs/set2/pink.gif","img/card_backs/set2/orange.gif","img/card_backs/set2/gray.gif","img/card_backs/set2/blue.gif","""event"",""trial"",""time""
""fullscreenenter"",""1"",""3946""
","
","
","""event"",""trial"",""time""
""fullscreenenter"",""1"",""3946""
","
","","null","","null","","fixation","2021-06-10 13:38:52.001","","","","","",""
"card-selection-trial","159","548547","0.0-25.0-1.44","277","true","img/card_backs/set1/red.gif","img/card_backs/set1/green.gif","img/card_backs/set1/yellow.gif","img/card_backs/set1/purple.gif","img/card_backs/set2/pink.gif","img/card_backs/set2/orange.gif","img/card_backs/set2/gray.gif","img/card_backs/set2/blue.gif","""event"",""trial"",""time""
""fullscreenenter"",""1"",""3946""
","
","
","""event"",""trial"",""time""
""fullscreenenter"",""1"",""3946""
","
","","471.69999999552965","","","","real_trial","2021-06-10 13:38:54.483","img/card_backs/set1/purple.gif","3","50","1","",""
"casino-fixation","160","549051","0.0-25.0-0.45","277","true","img/card_backs/set1/red.gif","img/card_backs/set1/green.gif","img/card_backs/set1/yellow.gif","img/card_backs/set1/purple.gif","img/card_backs/set2/pink.gif","img/card_backs/set2/orange.gif","img/card_backs/set2/gray.gif","img/card_backs/set2/blue.gif","""event"",""trial"",""time""
""fullscreenenter"",""1"",""3946""
","
","
","""event"",""trial"",""time""
""fullscreenenter"",""1"",""3946""
","
","","null","","null","","fixation","2021-06-10 13:38:54.987","","","","","",""
"card-selection-trial","161","551631","0.0-25.0-1.45","277","true","img/card_backs/set1/red.gif","img/card_backs/set1/green.gif","img/card_backs/set1/yellow.gif","img/card_backs/set1/purple.gif","img/card_backs/set2/pink.gif","img/card_backs/set2/orange.gif","img/card_backs/set2/gray.gif","img/card_backs/set2/blue.gif","""event"",""trial"",""time""
""fullscreenenter"",""1"",""3946""
","
","
","""event"",""trial"",""time""
""fullscreenenter"",""1"",""3946""
","
","","570.8999999985099","","","","real_trial","2021-06-10 13:38:57.567","img/card_backs/set1/purple.gif","0","-100","1","",""
"casino-fixation","162","552136","0.0-25.0-0.46","277","true","img/card_backs/set1/red.gif","img/card_backs/set1/green.gif","img/card_backs/set1/yellow.gif","img/card_backs/set1/purple.gif","img/card_backs/set2/pink.gif","img/card_backs/set2/orange.gif","img/card_backs/set2/gray.gif","img/card_backs/set2/blue.gif","""event"",""trial"",""time""
""fullscreenenter"",""1"",""3946""
","
","
","""event"",""trial"",""time""
""fullscreenenter"",""1"",""3946""
","
","","null","","null","","fixation","2021-06-10 13:38:58.071","","","","","",""
"card-selection-trial","163","555391","0.0-25.0-1.46","277","true","img/card_backs/set1/red.gif","img/card_backs/set1/green.gif","img/card_backs/set1/yellow.gif","img/card_backs/set1/purple.gif","img/card_backs/set2/pink.gif","img/card_backs/set2/orange.gif","img/card_backs/set2/gray.gif","img/card_backs/set2/blue.gif","""event"",""trial"",""time""
""fullscreenenter"",""1"",""3946""
","
","
","""event"",""trial"",""time""
""fullscreenenter"",""1"",""3946""
","
","","1239.3999999985099","","","","real_trial","2021-06-10 13:39:01.326","img/card_backs/set1/purple.gif","1","50","1","",""
"casino-fixation","164","555896","0.0-25.0-0.47","277","true","img/card_backs/set1/red.gif","img/card_backs/set1/green.gif","img/card_backs/set1/yellow.gif","img/card_backs/set1/purple.gif","img/card_backs/set2/pink.gif","img/card_backs/set2/orange.gif","img/card_backs/set2/gray.gif","img/card_backs/set2/blue.gif","""event"",""trial"",""time""
""fullscreenenter"",""1"",""3946""
","
","
","""event"",""trial"",""time""
""fullscreenenter"",""1"",""3946""
","
","","null","","null","","fixation","2021-06-10 13:39:01.831","","","","","",""
"card-selection-trial","165","558402","0.0-25.0-1.47","277","true","img/card_backs/set1/red.gif","img/card_backs/set1/green.gif","img/card_backs/set1/yellow.gif","img/card_backs/set1/purple.gif","img/card_backs/set2/pink.gif","img/card_backs/set2/orange.gif","img/card_backs/set2/gray.gif","img/card_backs/set2/blue.gif","""event"",""trial"",""time""
""fullscreenenter"",""1"",""3946""
","
","
","""event"",""trial"",""time""
""fullscreenenter"",""1"",""3946""
","
","","492.69999999552965","","","","real_trial","2021-06-10 13:39:04.337","img/card_backs/set1/purple.gif","1","-90","1","",""
"casino-fixation","166","558906","0.0-25.0-0.48","277","true","img/card_backs/set1/red.gif","img/card_backs/set1/green.gif","img/card_backs/set1/yellow.gif","img/card_backs/set1/purple.gif","img/card_backs/set2/pink.gif","img/card_backs/set2/orange.gif","img/card_backs/set2/gray.gif","img/card_backs/set2/blue.gif","""event"",""trial"",""time""
""fullscreenenter"",""1"",""3946""
","
","
","""event"",""trial"",""time""
""fullscreenenter"",""1"",""3946""
","
","","null","","null","","fixation","2021-06-10 13:39:04.841","","","","","",""
"card-selection-trial","167","561860","0.0-25.0-1.48","277","true","img/card_backs/set1/red.gif","img/card_backs/set1/green.gif","img/card_backs/set1/yellow.gif","img/card_backs/set1/purple.gif","img/card_backs/set2/pink.gif","img/card_backs/set2/orange.gif","img/card_backs/set2/gray.gif","img/card_backs/set2/blue.gif","""event"",""trial"",""time""
""fullscreenenter"",""1"",""3946""
","
","
","""event"",""trial"",""time""
""fullscreenenter"",""1"",""3946""
","
","","940.8000000044703","","","","real_trial","2021-06-10 13:39:07.796","img/card_backs/set1/purple.gif","0","-100","1","",""
