"trial_type","trial_index","time_elapsed","internal_node_id","sub_id","risk_good_first","block1_A","block1_B","block1_C","block1_D","block2_A","block2_B","block2_C","block2_D","interactions","blur_events","focus_events","fullscreenenter_events","fullscreenexit_events","success","rt","stimulus","key_press","button_pressed","task_part","timestamp","card_choice","choice_position","points_earned","block","correct","response"
"pavlovia","0","16","0.0-0.0","894","true","img/card_backs/set1/yellow.gif","img/card_backs/set1/red.gif","img/card_backs/set1/purple.gif","img/card_backs/set1/green.gif","img/card_backs/set2/blue.gif","img/card_backs/set2/pink.gif","img/card_backs/set2/orange.gif","img/card_backs/set2/gray.gif","""event"",""trial"",""time""
""fullscreenenter"",""1"",""8156""
","
","
","""event"",""trial"",""time""
""fullscreenenter"",""1"",""8156""
","
","","","","","","","","","","","","",""
"fullscreen","1","9110","0.0-1.0","894","true","img/card_backs/set1/yellow.gif","img/card_backs/set1/red.gif","img/card_backs/set1/purple.gif","img/card_backs/set1/green.gif","img/card_backs/set2/blue.gif","img/card_backs/set2/pink.gif","img/card_backs/set2/orange.gif","img/card_backs/set2/gray.gif","""event"",""trial"",""time""
""fullscreenenter"",""1"",""8156""
","
","
","""event"",""trial"",""time""
""fullscreenenter"",""1"",""8156""
","
","true","","","","","","","","","","","",""
"audio-keyboard-response","2","13184","0.0-2.0","894","true","img/card_backs/set1/yellow.gif","img/card_backs/set1/red.gif","img/card_backs/set1/purple.gif","img/card_backs/set1/green.gif","img/card_backs/set2/blue.gif","img/card_backs/set2/pink.gif","img/card_backs/set2/orange.gif","img/card_backs/set2/gray.gif","""event"",""trial"",""time""
""fullscreenenter"",""1"",""8156""
","
","
","""event"",""trial"",""time""
""fullscreenenter"",""1"",""8156""
","
","","3770","audio/beep_loop.wav","32","","","","","","","","",""
"audio-button-response","3","15991","0.0-3.0","894","true","img/card_backs/set1/yellow.gif","img/card_backs/set1/red.gif","img/card_backs/set1/purple.gif","img/card_backs/set1/green.gif","img/card_backs/set2/blue.gif","img/card_backs/set2/pink.gif","img/card_backs/set2/orange.gif","img/card_backs/set2/gray.gif","""event"",""trial"",""time""
""fullscreenenter"",""1"",""8156""
","
","
","""event"",""trial"",""time""
""fullscreenenter"",""1"",""8156""
","
","","NaN","audio/turtle.mp3","","3","","","","","","","",""
"audio-button-response","4","19196","0.0-4.0","894","true","img/card_backs/set1/yellow.gif","img/card_backs/set1/red.gif","img/card_backs/set1/purple.gif","img/card_backs/set1/green.gif","img/card_backs/set2/blue.gif","img/card_backs/set2/pink.gif","img/card_backs/set2/orange.gif","img/card_backs/set2/gray.gif","""event"",""trial"",""time""
""fullscreenenter"",""1"",""8156""
","
","
","""event"",""trial"",""time""
""fullscreenenter"",""1"",""8156""
","
","","NaN","audio/shark.mp3","","2","","","","","","","",""
"fullscreen","5","23888","0.0-5.0","894","true","img/card_backs/set1/yellow.gif","img/card_backs/set1/red.gif","img/card_backs/set1/purple.gif","img/card_backs/set1/green.gif","img/card_backs/set2/blue.gif","img/card_backs/set2/pink.gif","img/card_backs/set2/orange.gif","img/card_backs/set2/gray.gif","""event"",""trial"",""time""
""fullscreenenter"",""1"",""8156""
","
","
","""event"",""trial"",""time""
""fullscreenenter"",""1"",""8156""
","
","true","","","","","","","","","","","",""
"casino-keyboard-response","6","28049","0.0-6.0-0.0","894","true","img/card_backs/set1/yellow.gif","img/card_backs/set1/red.gif","img/card_backs/set1/purple.gif","img/card_backs/set1/green.gif","img/card_backs/set2/blue.gif","img/card_backs/set2/pink.gif","img/card_backs/set2/orange.gif","img/card_backs/set2/gray.gif","""event"",""trial"",""time""
""fullscreenenter"",""1"",""8156""
","
","
","""event"",""trial"",""time""
""fullscreenenter"",""1"",""8156""
","
","","4150.505000026897","Welcome to the casino!","71","","instructions","2021-04-10 21:15:55.083","","","","","",""
"casino-keyboard-response","7","37566","0.0-6.0-0.1","894","true","img/card_backs/set1/yellow.gif","img/card_backs/set1/red.gif","img/card_backs/set1/purple.gif","img/card_backs/set1/green.gif","img/card_backs/set2/blue.gif","img/card_backs/set2/pink.gif","img/card_backs/set2/orange.gif","img/card_backs/set2/gray.gif","""event"",""trial"",""time""
""fullscreenenter"",""1"",""8156""
","
","
","""event"",""trial"",""time""
""fullscreenenter"",""1"",""8156""
","
","","9512.794999987818","Today you will be playing a game to earn tokens. </br> At the end of the experiment, you will be paid a bonus based on how many tokens you win. ","69","","instructions","2021-04-10 21:16:04.600","","","","","",""
"casino-keyboard-response","8","45302","0.0-6.0-0.2","894","true","img/card_backs/set1/yellow.gif","img/card_backs/set1/red.gif","img/card_backs/set1/purple.gif","img/card_backs/set1/green.gif","img/card_backs/set2/blue.gif","img/card_backs/set2/pink.gif","img/card_backs/set2/orange.gif","img/card_backs/set2/gray.gif","""event"",""trial"",""time""
""fullscreenenter"",""1"",""8156""
","
","
","""event"",""trial"",""time""
""fullscreenenter"",""1"",""8156""
","
","","7727.554999990389","On every turn, you will be shown four different decks of cards. </br> You need to select a card from one of the four decks.  ","75","","instructions","2021-04-10 21:16:12.335","","","","","",""
"casino-keyboard-response","9","50032","0.0-6.0-0.3","894","true","img/card_backs/set1/yellow.gif","img/card_backs/set1/red.gif","img/card_backs/set1/purple.gif","img/card_backs/set1/green.gif","img/card_backs/set2/blue.gif","img/card_backs/set2/pink.gif","img/card_backs/set2/orange.gif","img/card_backs/set2/gray.gif","""event"",""trial"",""time""
""fullscreenenter"",""1"",""8156""
","
","
","""event"",""trial"",""time""
""fullscreenenter"",""1"",""8156""
","
","","4726.840000017546","On the next screen, you will see what the decks will look like. ","66","","instructions","2021-04-10 21:16:17.065","","","","","",""
"card-selection-trial","10","54047","0.0-7.0-0.0","894","true","img/card_backs/set1/yellow.gif","img/card_backs/set1/red.gif","img/card_backs/set1/purple.gif","img/card_backs/set1/green.gif","img/card_backs/set2/blue.gif","img/card_backs/set2/pink.gif","img/card_backs/set2/orange.gif","img/card_backs/set2/gray.gif","""event"",""trial"",""time""
""fullscreenenter"",""1"",""8156""
","
","
","""event"",""trial"",""time""
""fullscreenenter"",""1"",""8156""
","
","","null","","","","practice","2021-04-10 21:16:21.081","null","null","null","0","",""
"casino-keyboard-response","11","62635","0.0-8.0-0.0","894","true","img/card_backs/set1/yellow.gif","img/card_backs/set1/red.gif","img/card_backs/set1/purple.gif","img/card_backs/set1/green.gif","img/card_backs/set2/blue.gif","img/card_backs/set2/pink.gif","img/card_backs/set2/orange.gif","img/card_backs/set2/gray.gif","""event"",""trial"",""time""
""fullscreenenter"",""1"",""8156""
","
","
","""event"",""trial"",""time""
""fullscreenenter"",""1"",""8156""
","
","","8583.55500001926","You should pick a card from a deck using the '2', '4', '6', and '8' keys at the top of the keyboard.","85","","instructions","2021-04-10 21:16:29.668","","","","","",""
"casino-keyboard-response","12","68290","0.0-8.0-0.1","894","true","img/card_backs/set1/yellow.gif","img/card_backs/set1/red.gif","img/card_backs/set1/purple.gif","img/card_backs/set1/green.gif","img/card_backs/set2/blue.gif","img/card_backs/set2/pink.gif","img/card_backs/set2/orange.gif","img/card_backs/set2/gray.gif","""event"",""trial"",""time""
""fullscreenenter"",""1"",""8156""
","
","
","""event"",""trial"",""time""
""fullscreenenter"",""1"",""8156""
","
","","5650.03500005696","Once you select a card, it will turn over and you will see how many tokens you earned.","83","","instructions","2021-04-10 21:16:35.323","","","","","",""
"casino-keyboard-response","13","83638","0.0-8.0-0.2","894","true","img/card_backs/set1/yellow.gif","img/card_backs/set1/red.gif","img/card_backs/set1/purple.gif","img/card_backs/set1/green.gif","img/card_backs/set2/blue.gif","img/card_backs/set2/pink.gif","img/card_backs/set2/orange.gif","img/card_backs/set2/gray.gif","""event"",""trial"",""time""
""fullscreenenter"",""1"",""8156""
","
","
","""event"",""trial"",""time""
""fullscreenenter"",""1"",""8156""
","
","","15343.60000002198","Let's try practicing that! </br> First, try to put your fingers over the '2', '4', '6', and '8' keys. </br>  You can use whatever fingers are most comfortable for you. Try to find a comfortable position now. ","50","","instructions","2021-04-10 21:16:50.671","","","","","",""
"casino-keyboard-response","14","89294","0.0-8.0-0.3","894","true","img/card_backs/set1/yellow.gif","img/card_backs/set1/red.gif","img/card_backs/set1/purple.gif","img/card_backs/set1/green.gif","img/card_backs/set2/blue.gif","img/card_backs/set2/pink.gif","img/card_backs/set2/orange.gif","img/card_backs/set2/gray.gif","""event"",""trial"",""time""
""fullscreenenter"",""1"",""8156""
","
","
","""event"",""trial"",""time""
""fullscreenenter"",""1"",""8156""
","
","","5651.44499996677","Okay ready? </br> On the next screen, press '2' to select the left deck. ","50","","instructions","2021-04-10 21:16:56.327","","","","","",""
"card-selection-trial","15","92467","0.0-9.0-0.0","894","true","img/card_backs/set1/yellow.gif","img/card_backs/set1/red.gif","img/card_backs/set1/purple.gif","img/card_backs/set1/green.gif","img/card_backs/set2/blue.gif","img/card_backs/set2/pink.gif","img/card_backs/set2/orange.gif","img/card_backs/set2/gray.gif","""event"",""trial"",""time""
""fullscreenenter"",""1"",""8156""
","
","
","""event"",""trial"",""time""
""fullscreenenter"",""1"",""8156""
","
","","1126.3700000708923","","","","practice_card_selection","2021-04-10 21:16:59.501","img/practice_cards/backs/brown.gif","0","100","","",""
"casino-keyboard-response","16","98290","0.0-10.0-0.0","894","true","img/card_backs/set1/yellow.gif","img/card_backs/set1/red.gif","img/card_backs/set1/purple.gif","img/card_backs/set1/green.gif","img/card_backs/set2/blue.gif","img/card_backs/set2/pink.gif","img/card_backs/set2/orange.gif","img/card_backs/set2/gray.gif","""event"",""trial"",""time""
""fullscreenenter"",""1"",""8156""
","
","
","""event"",""trial"",""time""
""fullscreenenter"",""1"",""8156""
","
","","5818.549999967217","Great! Now on the next screen, try pressing '6' to select the third deck.","54","","instructions","2021-04-10 21:17:05.324","","","","","",""
"card-selection-trial","17","100942","0.0-11.0-0.0","894","true","img/card_backs/set1/yellow.gif","img/card_backs/set1/red.gif","img/card_backs/set1/purple.gif","img/card_backs/set1/green.gif","img/card_backs/set2/blue.gif","img/card_backs/set2/pink.gif","img/card_backs/set2/orange.gif","img/card_backs/set2/gray.gif","""event"",""trial"",""time""
""fullscreenenter"",""1"",""8156""
","
","
","""event"",""trial"",""time""
""fullscreenenter"",""1"",""8156""
","
","","632.9849999165162","","","","practice_card_selection","2021-04-10 21:17:07.975","img/practice_cards/backs/black.gif","2","100","","",""
"casino-keyboard-response","18","105769","0.0-12.0-0.0","894","true","img/card_backs/set1/yellow.gif","img/card_backs/set1/red.gif","img/card_backs/set1/purple.gif","img/card_backs/set1/green.gif","img/card_backs/set2/blue.gif","img/card_backs/set2/pink.gif","img/card_backs/set2/orange.gif","img/card_backs/set2/gray.gif","""event"",""trial"",""time""
""fullscreenenter"",""1"",""8156""
","
","
","""event"",""trial"",""time""
""fullscreenenter"",""1"",""8156""
","
","","4822.670000023209","Now on the next screen, try pressing '4' to select the second deck.","52","","instructions","2021-04-10 21:17:12.802","","","","","",""
"card-selection-trial","19","111136","0.0-13.0-0.0","894","true","img/card_backs/set1/yellow.gif","img/card_backs/set1/red.gif","img/card_backs/set1/purple.gif","img/card_backs/set1/green.gif","img/card_backs/set2/blue.gif","img/card_backs/set2/pink.gif","img/card_backs/set2/orange.gif","img/card_backs/set2/gray.gif","""event"",""trial"",""time""
""fullscreenenter"",""1"",""8156""
","
","
","""event"",""trial"",""time""
""fullscreenenter"",""1"",""8156""
","
","","3349.5949999196455","","","","practice_card_selection","2021-04-10 21:17:18.170","img/practice_cards/backs/dark_green.gif","1","200","","",""
"casino-keyboard-response","20","115462","0.0-14.0-0.0","894","true","img/card_backs/set1/yellow.gif","img/card_backs/set1/red.gif","img/card_backs/set1/purple.gif","img/card_backs/set1/green.gif","img/card_backs/set2/blue.gif","img/card_backs/set2/pink.gif","img/card_backs/set2/orange.gif","img/card_backs/set2/gray.gif","""event"",""trial"",""time""
""fullscreenenter"",""1"",""8156""
","
","
","""event"",""trial"",""time""
""fullscreenenter"",""1"",""8156""
","
","","4321.035000029951","Finally, try pressing '8' to select the deck all the way on the right.","56","","instructions","2021-04-10 21:17:22.495","","","","","",""
"card-selection-trial","21","118787","0.0-15.0-0.0","894","true","img/card_backs/set1/yellow.gif","img/card_backs/set1/red.gif","img/card_backs/set1/purple.gif","img/card_backs/set1/green.gif","img/card_backs/set2/blue.gif","img/card_backs/set2/pink.gif","img/card_backs/set2/orange.gif","img/card_backs/set2/gray.gif","""event"",""trial"",""time""
""fullscreenenter"",""1"",""8156""
","
","
","""event"",""trial"",""time""
""fullscreenenter"",""1"",""8156""
","
","","1310.799999977462","","","","practice_card_selection","2021-04-10 21:17:25.820","img/practice_cards/backs/dark_blue.gif","3","-200","","",""
"casino-keyboard-response","22","123586","0.0-16.0-0.0","894","true","img/card_backs/set1/yellow.gif","img/card_backs/set1/red.gif","img/card_backs/set1/purple.gif","img/card_backs/set1/green.gif","img/card_backs/set2/blue.gif","img/card_backs/set2/pink.gif","img/card_backs/set2/orange.gif","img/card_backs/set2/gray.gif","""event"",""trial"",""time""
""fullscreenenter"",""1"",""8156""
","
","
","""event"",""trial"",""time""
""fullscreenenter"",""1"",""8156""
","
","","4794.774999958463","Great! It seems like you are getting the hang of this.","80","","instructions","2021-04-10 21:17:30.619","","","","","",""
"casino-keyboard-response","23","130925","0.0-16.0-0.1","894","true","img/card_backs/set1/yellow.gif","img/card_backs/set1/red.gif","img/card_backs/set1/purple.gif","img/card_backs/set1/green.gif","img/card_backs/set2/blue.gif","img/card_backs/set2/pink.gif","img/card_backs/set2/orange.gif","img/card_backs/set2/gray.gif","""event"",""trial"",""time""
""fullscreenenter"",""1"",""8156""
","
","
","""event"",""trial"",""time""
""fullscreenenter"",""1"",""8156""
","
","","7332.969999988563","You may have noticed that some cards will cause you to <b> win </b> tokens while other cards will cause you to <b> lose </b>  tokens.","70","","instructions","2021-04-10 21:17:37.958","","","","","",""
"casino-keyboard-response","24","139345","0.0-16.0-0.2","894","true","img/card_backs/set1/yellow.gif","img/card_backs/set1/red.gif","img/card_backs/set1/purple.gif","img/card_backs/set1/green.gif","img/card_backs/set2/blue.gif","img/card_backs/set2/pink.gif","img/card_backs/set2/orange.gif","img/card_backs/set2/gray.gif","""event"",""trial"",""time""
""fullscreenenter"",""1"",""8156""
","
","
","""event"",""trial"",""time""
""fullscreenenter"",""1"",""8156""
","
","","8414.340000017546","Each deck has a mix of cards that will cause you to win and lose tokens. </br> However, the cards in each colored deck are different.","73","","instructions","2021-04-10 21:17:46.378","","","","","",""
"casino-keyboard-response","25","147845","0.0-16.0-0.3","894","true","img/card_backs/set1/yellow.gif","img/card_backs/set1/red.gif","img/card_backs/set1/purple.gif","img/card_backs/set1/green.gif","img/card_backs/set2/blue.gif","img/card_backs/set2/pink.gif","img/card_backs/set2/orange.gif","img/card_backs/set2/gray.gif","""event"",""trial"",""time""
""fullscreenenter"",""1"",""8156""
","
","
","""event"",""trial"",""time""
""fullscreenenter"",""1"",""8156""
","
","","8495.020000031218","Some colored decks are luckier than others. </br> If you choose the lucky decks, you will earn more tokens than if you choose the unlucky decks.","69","","instructions","2021-04-10 21:17:54.878","","","","","",""
"casino-keyboard-response","26","155057","0.0-16.0-0.4","894","true","img/card_backs/set1/yellow.gif","img/card_backs/set1/red.gif","img/card_backs/set1/purple.gif","img/card_backs/set1/green.gif","img/card_backs/set2/blue.gif","img/card_backs/set2/pink.gif","img/card_backs/set2/orange.gif","img/card_backs/set2/gray.gif","""event"",""trial"",""time""
""fullscreenenter"",""1"",""8156""
","
","
","""event"",""trial"",""time""
""fullscreenenter"",""1"",""8156""
","
","","7205.8400000678375","You should try to figure out which decks are lucky. </br> Then, try to choose the lucky decks so you can win the most tokens.","87","","instructions","2021-04-10 21:18:02.090","","","","","",""
"casino-keyboard-response","27","168516","0.0-16.0-0.5","894","true","img/card_backs/set1/yellow.gif","img/card_backs/set1/red.gif","img/card_backs/set1/purple.gif","img/card_backs/set1/green.gif","img/card_backs/set2/blue.gif","img/card_backs/set2/pink.gif","img/card_backs/set2/orange.gif","img/card_backs/set2/gray.gif","""event"",""trial"",""time""
""fullscreenenter"",""1"",""8156""
","
","
","""event"",""trial"",""time""
""fullscreenenter"",""1"",""8156""
","
","","13452.964999945834","To make it trickier, the casino dealer will switch the locations of the decks on every turn. </br> The color of the deck determines how lucky it is. The location does not matter.","88","","instructions","2021-04-10 21:18:15.549","","","","","",""
"casino-keyboard-response","28","177922","0.0-16.0-0.6","894","true","img/card_backs/set1/yellow.gif","img/card_backs/set1/red.gif","img/card_backs/set1/purple.gif","img/card_backs/set1/green.gif","img/card_backs/set2/blue.gif","img/card_backs/set2/pink.gif","img/card_backs/set2/orange.gif","img/card_backs/set2/gray.gif","""event"",""trial"",""time""
""fullscreenenter"",""1"",""8156""
","
","
","""event"",""trial"",""time""
""fullscreenenter"",""1"",""8156""
","
","","9400.855000014417","The mix of cards in each colored deck will stay the same throughout the game. </br> That means that a deck that is lucky early on will stay lucky.","79","","instructions","2021-04-10 21:18:24.955","","","","","",""
"casino-keyboard-response","29","186720","0.0-16.0-0.7","894","true","img/card_backs/set1/yellow.gif","img/card_backs/set1/red.gif","img/card_backs/set1/purple.gif","img/card_backs/set1/green.gif","img/card_backs/set2/blue.gif","img/card_backs/set2/pink.gif","img/card_backs/set2/orange.gif","img/card_backs/set2/gray.gif","""event"",""trial"",""time""
""fullscreenenter"",""1"",""8156""
","
","
","""event"",""trial"",""time""
""fullscreenenter"",""1"",""8156""
","
","","8792.15499991551","Remember though, all the decks have a <b> mix </b> of both <b> good </b> and <b> bad </b> cards so it may take a couple of turns to figure out if a deck is lucky.","69","","instructions","2021-04-10 21:18:33.753","","","","","",""
"casino-keyboard-response","30","195469","0.0-16.0-0.8","894","true","img/card_backs/set1/yellow.gif","img/card_backs/set1/red.gif","img/card_backs/set1/purple.gif","img/card_backs/set1/green.gif","img/card_backs/set2/blue.gif","img/card_backs/set2/pink.gif","img/card_backs/set2/orange.gif","img/card_backs/set2/gray.gif","""event"",""trial"",""time""
""fullscreenenter"",""1"",""8156""
","
","
","""event"",""trial"",""time""
""fullscreenenter"",""1"",""8156""
","
","","8742.134999949485","At the end of the game, you will be paid bonus money based on how many tokens you win. </br> If you win more tokens, you will earn more money!","72","","instructions","2021-04-10 21:18:42.502","","","","","",""
"casino-keyboard-response","31","205691","0.0-16.0-0.9","894","true","img/card_backs/set1/yellow.gif","img/card_backs/set1/red.gif","img/card_backs/set1/purple.gif","img/card_backs/set1/green.gif","img/card_backs/set2/blue.gif","img/card_backs/set2/pink.gif","img/card_backs/set2/orange.gif","img/card_backs/set2/gray.gif","""event"",""trial"",""time""
""fullscreenenter"",""1"",""8156""
","
","
","""event"",""trial"",""time""
""fullscreenenter"",""1"",""8156""
","
","","10216.669999994338","You will never <b> lose </b> money. </br> If you end up with fewer than 0 tokens, you will earn $0 of bonus money, but you will still be paid for playing the game.","83","","instructions","2021-04-10 21:18:52.724","","","","","",""
"casino-keyboard-response","32","210342","0.0-16.0-0.10","894","true","img/card_backs/set1/yellow.gif","img/card_backs/set1/red.gif","img/card_backs/set1/purple.gif","img/card_backs/set1/green.gif","img/card_backs/set2/blue.gif","img/card_backs/set2/pink.gif","img/card_backs/set2/orange.gif","img/card_backs/set2/gray.gif","""event"",""trial"",""time""
""fullscreenenter"",""1"",""8156""
","
","
","""event"",""trial"",""time""
""fullscreenenter"",""1"",""8156""
","
","","4641.984999994747","You will have 10 seconds to make each choice.","82","","instructions","2021-04-10 21:18:57.375","","","","","",""
"casino-keyboard-response","33","218347","0.0-16.0-0.11","894","true","img/card_backs/set1/yellow.gif","img/card_backs/set1/red.gif","img/card_backs/set1/purple.gif","img/card_backs/set1/green.gif","img/card_backs/set2/blue.gif","img/card_backs/set2/pink.gif","img/card_backs/set2/orange.gif","img/card_backs/set2/gray.gif","""event"",""trial"",""time""
""fullscreenenter"",""1"",""8156""
","
","
","""event"",""trial"",""time""
""fullscreenenter"",""1"",""8156""
","
","","8000.950000016019","Before you play the game for real, you will play with practice decks. </br> The tokens you earn during practice won't count toward your total.","86","","instructions","2021-04-10 21:19:05.381","","","","","",""
"casino-keyboard-response","34","229743","0.0-16.0-0.12","894","true","img/card_backs/set1/yellow.gif","img/card_backs/set1/red.gif","img/card_backs/set1/purple.gif","img/card_backs/set1/green.gif","img/card_backs/set2/blue.gif","img/card_backs/set2/pink.gif","img/card_backs/set2/orange.gif","img/card_backs/set2/gray.gif","""event"",""trial"",""time""
""fullscreenenter"",""1"",""8156""
","
","
","""event"",""trial"",""time""
""fullscreenenter"",""1"",""8156""
","
","","11391.40999992378","Ready? Remember, use the '2', '4', '6', and '8' keys to select the decks. </br> Put your fingers on those keys now and then press '2' to begin.","50","","instructions","2021-04-10 21:19:16.776","","","","","",""
"casino-fixation","35","230251","0.0-17.0-0.0","894","true","img/card_backs/set1/yellow.gif","img/card_backs/set1/red.gif","img/card_backs/set1/purple.gif","img/card_backs/set1/green.gif","img/card_backs/set2/blue.gif","img/card_backs/set2/pink.gif","img/card_backs/set2/orange.gif","img/card_backs/set2/gray.gif","""event"",""trial"",""time""
""fullscreenenter"",""1"",""8156""
","
","
","""event"",""trial"",""time""
""fullscreenenter"",""1"",""8156""
","
","","null","","null","","fixation","2021-04-10 21:19:17.285","","","","","",""
"card-selection-trial","36","235141","0.0-17.0-1.0","894","true","img/card_backs/set1/yellow.gif","img/card_backs/set1/red.gif","img/card_backs/set1/purple.gif","img/card_backs/set1/green.gif","img/card_backs/set2/blue.gif","img/card_backs/set2/pink.gif","img/card_backs/set2/orange.gif","img/card_backs/set2/gray.gif","""event"",""trial"",""time""
""fullscreenenter"",""1"",""8156""
","
","
","""event"",""trial"",""time""
""fullscreenenter"",""1"",""8156""
","
","","2874.6500000124797","","","","practice","2021-04-10 21:19:22.174","img/practice_cards/backs/brown.gif","1","100","0","",""
"casino-fixation","37","235646","0.0-17.0-0.1","894","true","img/card_backs/set1/yellow.gif","img/card_backs/set1/red.gif","img/card_backs/set1/purple.gif","img/card_backs/set1/green.gif","img/card_backs/set2/blue.gif","img/card_backs/set2/pink.gif","img/card_backs/set2/orange.gif","img/card_backs/set2/gray.gif","""event"",""trial"",""time""
""fullscreenenter"",""1"",""8156""
","
","
","""event"",""trial"",""time""
""fullscreenenter"",""1"",""8156""
","
","","null","","null","","fixation","2021-04-10 21:19:22.679","","","","","",""
"card-selection-trial","38","239150","0.0-17.0-1.1","894","true","img/card_backs/set1/yellow.gif","img/card_backs/set1/red.gif","img/card_backs/set1/purple.gif","img/card_backs/set1/green.gif","img/card_backs/set2/blue.gif","img/card_backs/set2/pink.gif","img/card_backs/set2/orange.gif","img/card_backs/set2/gray.gif","""event"",""trial"",""time""
""fullscreenenter"",""1"",""8156""
","
","
","""event"",""trial"",""time""
""fullscreenenter"",""1"",""8156""
","
","","1489.9749999167398","","","","practice","2021-04-10 21:19:26.184","img/practice_cards/backs/brown.gif","2","-100","0","",""
"casino-fixation","39","239655","0.0-17.0-0.2","894","true","img/card_backs/set1/yellow.gif","img/card_backs/set1/red.gif","img/card_backs/set1/purple.gif","img/card_backs/set1/green.gif","img/card_backs/set2/blue.gif","img/card_backs/set2/pink.gif","img/card_backs/set2/orange.gif","img/card_backs/set2/gray.gif","""event"",""trial"",""time""
""fullscreenenter"",""1"",""8156""
","
","
","""event"",""trial"",""time""
""fullscreenenter"",""1"",""8156""
","
","","null","","null","","fixation","2021-04-10 21:19:26.688","","","","","",""
"card-selection-trial","40","244415","0.0-17.0-1.2","894","true","img/card_backs/set1/yellow.gif","img/card_backs/set1/red.gif","img/card_backs/set1/purple.gif","img/card_backs/set1/green.gif","img/card_backs/set2/blue.gif","img/card_backs/set2/pink.gif","img/card_backs/set2/orange.gif","img/card_backs/set2/gray.gif","""event"",""trial"",""time""
""fullscreenenter"",""1"",""8156""
","
","
","""event"",""trial"",""time""
""fullscreenenter"",""1"",""8156""
","
","","2744.840000057593","","","","practice","2021-04-10 21:19:31.448","img/practice_cards/backs/dark_blue.gif","3","-200","0","",""
"casino-fixation","41","244922","0.0-17.0-0.3","894","true","img/card_backs/set1/yellow.gif","img/card_backs/set1/red.gif","img/card_backs/set1/purple.gif","img/card_backs/set1/green.gif","img/card_backs/set2/blue.gif","img/card_backs/set2/pink.gif","img/card_backs/set2/orange.gif","img/card_backs/set2/gray.gif","""event"",""trial"",""time""
""fullscreenenter"",""1"",""8156""
","
","
","""event"",""trial"",""time""
""fullscreenenter"",""1"",""8156""
","
","","null","","null","","fixation","2021-04-10 21:19:31.955","","","","","",""
"card-selection-trial","42","247535","0.0-17.0-1.3","894","true","img/card_backs/set1/yellow.gif","img/card_backs/set1/red.gif","img/card_backs/set1/purple.gif","img/card_backs/set1/green.gif","img/card_backs/set2/blue.gif","img/card_backs/set2/pink.gif","img/card_backs/set2/orange.gif","img/card_backs/set2/gray.gif","""event"",""trial"",""time""
""fullscreenenter"",""1"",""8156""
","
","
","""event"",""trial"",""time""
""fullscreenenter"",""1"",""8156""
","
","","598.3949999790639","","","","practice","2021-04-10 21:19:34.568","img/practice_cards/backs/black.gif","2","100","0","",""
"casino-fixation","43","248038","0.0-17.0-0.4","894","true","img/card_backs/set1/yellow.gif","img/card_backs/set1/red.gif","img/card_backs/set1/purple.gif","img/card_backs/set1/green.gif","img/card_backs/set2/blue.gif","img/card_backs/set2/pink.gif","img/card_backs/set2/orange.gif","img/card_backs/set2/gray.gif","""event"",""trial"",""time""
""fullscreenenter"",""1"",""8156""
","
","
","""event"",""trial"",""time""
""fullscreenenter"",""1"",""8156""
","
","","null","","null","","fixation","2021-04-10 21:19:35.071","","","","","",""
"card-selection-trial","44","250530","0.0-17.0-1.4","894","true","img/card_backs/set1/yellow.gif","img/card_backs/set1/red.gif","img/card_backs/set1/purple.gif","img/card_backs/set1/green.gif","img/card_backs/set2/blue.gif","img/card_backs/set2/pink.gif","img/card_backs/set2/orange.gif","img/card_backs/set2/gray.gif","""event"",""trial"",""time""
""fullscreenenter"",""1"",""8156""
","
","
","""event"",""trial"",""time""
""fullscreenenter"",""1"",""8156""
","
","","475.8249999722466","","","","practice","2021-04-10 21:19:37.563","img/practice_cards/backs/brown.gif","1","100","0","",""
"casino-fixation","45","251040","0.0-17.0-0.5","894","true","img/card_backs/set1/yellow.gif","img/card_backs/set1/red.gif","img/card_backs/set1/purple.gif","img/card_backs/set1/green.gif","img/card_backs/set2/blue.gif","img/card_backs/set2/pink.gif","img/card_backs/set2/orange.gif","img/card_backs/set2/gray.gif","""event"",""trial"",""time""
""fullscreenenter"",""1"",""8156""
","
","
","""event"",""trial"",""time""
""fullscreenenter"",""1"",""8156""
","
","","null","","null","","fixation","2021-04-10 21:19:38.073","","","","","",""
"card-selection-trial","46","253864","0.0-17.0-1.5","894","true","img/card_backs/set1/yellow.gif","img/card_backs/set1/red.gif","img/card_backs/set1/purple.gif","img/card_backs/set1/green.gif","img/card_backs/set2/blue.gif","img/card_backs/set2/pink.gif","img/card_backs/set2/orange.gif","img/card_backs/set2/gray.gif","""event"",""trial"",""time""
""fullscreenenter"",""1"",""8156""
","
","
","""event"",""trial"",""time""
""fullscreenenter"",""1"",""8156""
","
","","810.010000015609","","","","practice","2021-04-10 21:19:40.897","img/practice_cards/backs/black.gif","0","-100","0","",""
"casino-fixation","47","254368","0.0-17.0-0.6","894","true","img/card_backs/set1/yellow.gif","img/card_backs/set1/red.gif","img/card_backs/set1/purple.gif","img/card_backs/set1/green.gif","img/card_backs/set2/blue.gif","img/card_backs/set2/pink.gif","img/card_backs/set2/orange.gif","img/card_backs/set2/gray.gif","""event"",""trial"",""time""
""fullscreenenter"",""1"",""8156""
","
","
","""event"",""trial"",""time""
""fullscreenenter"",""1"",""8156""
","
","","null","","null","","fixation","2021-04-10 21:19:41.401","","","","","",""
"card-selection-trial","48","256679","0.0-17.0-1.6","894","true","img/card_backs/set1/yellow.gif","img/card_backs/set1/red.gif","img/card_backs/set1/purple.gif","img/card_backs/set1/green.gif","img/card_backs/set2/blue.gif","img/card_backs/set2/pink.gif","img/card_backs/set2/orange.gif","img/card_backs/set2/gray.gif","""event"",""trial"",""time""
""fullscreenenter"",""1"",""8156""
","
","
","""event"",""trial"",""time""
""fullscreenenter"",""1"",""8156""
","
","","295.3850000631064","","","","practice","2021-04-10 21:19:43.712","img/practice_cards/backs/dark_blue.gif","1","-200","0","",""
"casino-fixation","49","257182","0.0-17.0-0.7","894","true","img/card_backs/set1/yellow.gif","img/card_backs/set1/red.gif","img/card_backs/set1/purple.gif","img/card_backs/set1/green.gif","img/card_backs/set2/blue.gif","img/card_backs/set2/pink.gif","img/card_backs/set2/orange.gif","img/card_backs/set2/gray.gif","""event"",""trial"",""time""
""fullscreenenter"",""1"",""8156""
","
","
","""event"",""trial"",""time""
""fullscreenenter"",""1"",""8156""
","
","","null","","null","","fixation","2021-04-10 21:19:44.216","","","","","",""
"card-selection-trial","50","259895","0.0-17.0-1.7","894","true","img/card_backs/set1/yellow.gif","img/card_backs/set1/red.gif","img/card_backs/set1/purple.gif","img/card_backs/set1/green.gif","img/card_backs/set2/blue.gif","img/card_backs/set2/pink.gif","img/card_backs/set2/orange.gif","img/card_backs/set2/gray.gif","""event"",""trial"",""time""
""fullscreenenter"",""1"",""8156""
","
","
","""event"",""trial"",""time""
""fullscreenenter"",""1"",""8156""
","
","","697.9100001044571","","","","practice","2021-04-10 21:19:46.928","img/practice_cards/backs/brown.gif","3","-100","0","",""
"casino-fixation","51","260399","0.0-17.0-0.8","894","true","img/card_backs/set1/yellow.gif","img/card_backs/set1/red.gif","img/card_backs/set1/purple.gif","img/card_backs/set1/green.gif","img/card_backs/set2/blue.gif","img/card_backs/set2/pink.gif","img/card_backs/set2/orange.gif","img/card_backs/set2/gray.gif","""event"",""trial"",""time""
""fullscreenenter"",""1"",""8156""
","
","
","""event"",""trial"",""time""
""fullscreenenter"",""1"",""8156""
","
","","null","","null","","fixation","2021-04-10 21:19:47.433","","","","","",""
"card-selection-trial","52","262882","0.0-17.0-1.8","894","true","img/card_backs/set1/yellow.gif","img/card_backs/set1/red.gif","img/card_backs/set1/purple.gif","img/card_backs/set1/green.gif","img/card_backs/set2/blue.gif","img/card_backs/set2/pink.gif","img/card_backs/set2/orange.gif","img/card_backs/set2/gray.gif","""event"",""trial"",""time""
""fullscreenenter"",""1"",""8156""
","
","
","""event"",""trial"",""time""
""fullscreenenter"",""1"",""8156""
","
","","468.4399999678135","","","","practice","2021-04-10 21:19:49.915","img/practice_cards/backs/black.gif","1","100","0","",""
"casino-fixation","53","263385","0.0-17.0-0.9","894","true","img/card_backs/set1/yellow.gif","img/card_backs/set1/red.gif","img/card_backs/set1/purple.gif","img/card_backs/set1/green.gif","img/card_backs/set2/blue.gif","img/card_backs/set2/pink.gif","img/card_backs/set2/orange.gif","img/card_backs/set2/gray.gif","""event"",""trial"",""time""
""fullscreenenter"",""1"",""8156""
","
","
","""event"",""trial"",""time""
""fullscreenenter"",""1"",""8156""
","
","","null","","null","","fixation","2021-04-10 21:19:50.419","","","","","",""
"card-selection-trial","54","265766","0.0-17.0-1.9","894","true","img/card_backs/set1/yellow.gif","img/card_backs/set1/red.gif","img/card_backs/set1/purple.gif","img/card_backs/set1/green.gif","img/card_backs/set2/blue.gif","img/card_backs/set2/pink.gif","img/card_backs/set2/orange.gif","img/card_backs/set2/gray.gif","""event"",""trial"",""time""
""fullscreenenter"",""1"",""8156""
","
","
","""event"",""trial"",""time""
""fullscreenenter"",""1"",""8156""
","
","","365.54999998770654","","","","practice","2021-04-10 21:19:52.799","img/practice_cards/backs/brown.gif","2","100","0","",""
"casino-keyboard-response","55","279087","0.0-18.0","894","true","img/card_backs/set1/yellow.gif","img/card_backs/set1/red.gif","img/card_backs/set1/purple.gif","img/card_backs/set1/green.gif","img/card_backs/set2/blue.gif","img/card_backs/set2/pink.gif","img/card_backs/set2/orange.gif","img/card_backs/set2/gray.gif","""event"",""trial"",""time""
""fullscreenenter"",""1"",""8156""
","
","
","""event"",""trial"",""time""
""fullscreenenter"",""1"",""8156""
","
","","13317.330000107177","You earned -200 tokens during the practice round!","82","","","2021-04-10 21:20:06.120","","","","","",""
"casino-keyboard-response","56","283340","0.0-19.0-0.0","894","true","img/card_backs/set1/yellow.gif","img/card_backs/set1/red.gif","img/card_backs/set1/purple.gif","img/card_backs/set1/green.gif","img/card_backs/set2/blue.gif","img/card_backs/set2/pink.gif","img/card_backs/set2/orange.gif","img/card_backs/set2/gray.gif","""event"",""trial"",""time""
""fullscreenenter"",""1"",""8156""
","
","
","""event"",""trial"",""time""
""fullscreenenter"",""1"",""8156""
","
","","4248.4049999620765","Nice job! You are almost ready to play the real game.","86","","instructions","2021-04-10 21:20:10.373","","","","","",""
"casino-keyboard-response","57","290180","0.0-19.0-0.1","894","true","img/card_backs/set1/yellow.gif","img/card_backs/set1/red.gif","img/card_backs/set1/purple.gif","img/card_backs/set1/green.gif","img/card_backs/set2/blue.gif","img/card_backs/set2/pink.gif","img/card_backs/set2/orange.gif","img/card_backs/set2/gray.gif","""event"",""trial"",""time""
""fullscreenenter"",""1"",""8156""
","
","
","""event"",""trial"",""time""
""fullscreenenter"",""1"",""8156""
","
","","6831.56500000041","You will play two rounds of the real game. In each round, you will pick 100 cards in total.","73","","instructions","2021-04-10 21:20:17.213","","","","","",""
"casino-keyboard-response","58","294513","0.0-19.0-0.2","894","true","img/card_backs/set1/yellow.gif","img/card_backs/set1/red.gif","img/card_backs/set1/purple.gif","img/card_backs/set1/green.gif","img/card_backs/set2/blue.gif","img/card_backs/set2/pink.gif","img/card_backs/set2/orange.gif","img/card_backs/set2/gray.gif","""event"",""trial"",""time""
""fullscreenenter"",""1"",""8156""
","
","
","""event"",""trial"",""time""
""fullscreenenter"",""1"",""8156""
","
","","4328.689999994822","We are now going to ask you some questions about how the game works.","66","","instructions","2021-04-10 21:20:21.547","","","","","",""
"casino-keyboard-response","59","300697","0.0-19.0-0.3","894","true","img/card_backs/set1/yellow.gif","img/card_backs/set1/red.gif","img/card_backs/set1/purple.gif","img/card_backs/set1/green.gif","img/card_backs/set2/blue.gif","img/card_backs/set2/pink.gif","img/card_backs/set2/orange.gif","img/card_backs/set2/gray.gif","""event"",""trial"",""time""
""fullscreenenter"",""1"",""8156""
","
","
","""event"",""trial"",""time""
""fullscreenenter"",""1"",""8156""
","
","","6178.055000025779","Answer carefully. You will not be able to begin the game until you answer them correctly.","67","","instructions","2021-04-10 21:20:27.730","","","","","",""
"casino-comp_q","60","307417","0.0-20.0-0.0","894","true","img/card_backs/set1/yellow.gif","img/card_backs/set1/red.gif","img/card_backs/set1/purple.gif","img/card_backs/set1/green.gif","img/card_backs/set2/blue.gif","img/card_backs/set2/pink.gif","img/card_backs/set2/orange.gif","img/card_backs/set2/gray.gif","""event"",""trial"",""time""
""fullscreenenter"",""1"",""8156""
","
","
","""event"",""trial"",""time""
""fullscreenenter"",""1"",""8156""
","
","","6713.970000040717","True or False: All the decks have some cards that cause you to win tokens and some cards that cause you to lose tokens.","84","","","2021-04-10 21:20:34.451","","","","","",""
"casino-keyboard-response","61","311713","0.0-20.0-1.0","894","true","img/card_backs/set1/yellow.gif","img/card_backs/set1/red.gif","img/card_backs/set1/purple.gif","img/card_backs/set1/green.gif","img/card_backs/set2/blue.gif","img/card_backs/set2/pink.gif","img/card_backs/set2/orange.gif","img/card_backs/set2/gray.gif","""event"",""trial"",""time""
""fullscreenenter"",""1"",""8156""
","
","
","""event"",""trial"",""time""
""fullscreenenter"",""1"",""8156""
","
","","4290.919999941252","True is correct! All the decks have a mix of winning and losing cards.","77","","","2021-04-10 21:20:38.747","","","","","true",""
"casino-comp_q","62","316331","0.0-21.0-0.0","894","true","img/card_backs/set1/yellow.gif","img/card_backs/set1/red.gif","img/card_backs/set1/purple.gif","img/card_backs/set1/green.gif","img/card_backs/set2/blue.gif","img/card_backs/set2/pink.gif","img/card_backs/set2/orange.gif","img/card_backs/set2/gray.gif","""event"",""trial"",""time""
""fullscreenenter"",""1"",""8156""
","
","
","""event"",""trial"",""time""
""fullscreenenter"",""1"",""8156""
","
","","4605.565000092611","True or False: You will have as much time as you want to make your response.","70","","","2021-04-10 21:20:43.365","","","","","",""
"casino-keyboard-response","63","319906","0.0-21.0-1.0","894","true","img/card_backs/set1/yellow.gif","img/card_backs/set1/red.gif","img/card_backs/set1/purple.gif","img/card_backs/set1/green.gif","img/card_backs/set2/blue.gif","img/card_backs/set2/pink.gif","img/card_backs/set2/orange.gif","img/card_backs/set2/gray.gif","""event"",""trial"",""time""
""fullscreenenter"",""1"",""8156""
","
","
","""event"",""trial"",""time""
""fullscreenenter"",""1"",""8156""
","
","","3570.005000103265","False is correct! You will only have 10 seconds to make each choice.","75","","","2021-04-10 21:20:46.939","","","","","true",""
"casino-comp_q","64","325716","0.0-22.0-0.0","894","true","img/card_backs/set1/yellow.gif","img/card_backs/set1/red.gif","img/card_backs/set1/purple.gif","img/card_backs/set1/green.gif","img/card_backs/set2/blue.gif","img/card_backs/set2/pink.gif","img/card_backs/set2/orange.gif","img/card_backs/set2/gray.gif","""event"",""trial"",""time""
""fullscreenenter"",""1"",""8156""
","
","
","""event"",""trial"",""time""
""fullscreenenter"",""1"",""8156""
","
","","5804.72999997437","True or False: The location of the deck determines how lucky it is.","70","","","2021-04-10 21:20:52.749","","","","","",""
"casino-keyboard-response","65","330420","0.0-22.0-1.0","894","true","img/card_backs/set1/yellow.gif","img/card_backs/set1/red.gif","img/card_backs/set1/purple.gif","img/card_backs/set1/green.gif","img/card_backs/set2/blue.gif","img/card_backs/set2/pink.gif","img/card_backs/set2/orange.gif","img/card_backs/set2/gray.gif","""event"",""trial"",""time""
""fullscreenenter"",""1"",""8156""
","
","
","""event"",""trial"",""time""
""fullscreenenter"",""1"",""8156""
","
","","4699.285000097007","False is correct! The <i>color</i>  of the deck determines how lucky or unlucky it is.","68","","","2021-04-10 21:20:57.454","","","","","true",""
"casino-keyboard-response","66","335461","0.0-23.0-0.0","894","true","img/card_backs/set1/yellow.gif","img/card_backs/set1/red.gif","img/card_backs/set1/purple.gif","img/card_backs/set1/green.gif","img/card_backs/set2/blue.gif","img/card_backs/set2/pink.gif","img/card_backs/set2/orange.gif","img/card_backs/set2/gray.gif","""event"",""trial"",""time""
""fullscreenenter"",""1"",""8156""
","
","
","""event"",""trial"",""time""
""fullscreenenter"",""1"",""8156""
","
","","5035.9300000127405","Great job! Now it's time to start the real game.","82","","instructions","2021-04-10 21:21:02.495","","","","","",""
"casino-keyboard-response","67","341025","0.0-23.0-0.1","894","true","img/card_backs/set1/yellow.gif","img/card_backs/set1/red.gif","img/card_backs/set1/purple.gif","img/card_backs/set1/green.gif","img/card_backs/set2/blue.gif","img/card_backs/set2/pink.gif","img/card_backs/set2/orange.gif","img/card_backs/set2/gray.gif","""event"",""trial"",""time""
""fullscreenenter"",""1"",""8156""
","
","
","""event"",""trial"",""time""
""fullscreenenter"",""1"",""8156""
","
","","5559.104999992996","Before we start, we're going to head into a new room of the casino.","86","","instructions","2021-04-10 21:21:08.058","","","","","",""
"casino-keyboard-response","68","347276","0.0-24.0-0.0","894","true","img/card_backs/set1/yellow.gif","img/card_backs/set1/red.gif","img/card_backs/set1/purple.gif","img/card_backs/set1/green.gif","img/card_backs/set2/blue.gif","img/card_backs/set2/pink.gif","img/card_backs/set2/orange.gif","img/card_backs/set2/gray.gif","""event"",""trial"",""time""
""fullscreenenter"",""1"",""8156""
","
","
","""event"",""trial"",""time""
""fullscreenenter"",""1"",""8156""
","
","","6246.325000072829","Here we are! The real game will use different cards, but the rules will be the same.","71","","instructions","2021-04-10 21:21:14.309","","","","","",""
"casino-keyboard-response","69","356234","0.0-24.0-0.1","894","true","img/card_backs/set1/yellow.gif","img/card_backs/set1/red.gif","img/card_backs/set1/purple.gif","img/card_backs/set1/green.gif","img/card_backs/set2/blue.gif","img/card_backs/set2/pink.gif","img/card_backs/set2/orange.gif","img/card_backs/set2/gray.gif","""event"",""trial"",""time""
""fullscreenenter"",""1"",""8156""
","
","
","""event"",""trial"",""time""
""fullscreenenter"",""1"",""8156""
","
","","8952.670000027865","Ready? Put your fingers over the '2', '4', 6', and '8' keys so you are ready to play the game. </br> Then press 2 to start.","50","","instructions","2021-04-10 21:21:23.267","","","","","",""
"casino-fixation","70","356743","0.0-25.0-0.0","894","true","img/card_backs/set1/yellow.gif","img/card_backs/set1/red.gif","img/card_backs/set1/purple.gif","img/card_backs/set1/green.gif","img/card_backs/set2/blue.gif","img/card_backs/set2/pink.gif","img/card_backs/set2/orange.gif","img/card_backs/set2/gray.gif","""event"",""trial"",""time""
""fullscreenenter"",""1"",""8156""
","
","
","""event"",""trial"",""time""
""fullscreenenter"",""1"",""8156""
","
","","null","","null","","fixation","2021-04-10 21:21:23.776","","","","","",""
"card-selection-trial","71","359844","0.0-25.0-1.0","894","true","img/card_backs/set1/yellow.gif","img/card_backs/set1/red.gif","img/card_backs/set1/purple.gif","img/card_backs/set1/green.gif","img/card_backs/set2/blue.gif","img/card_backs/set2/pink.gif","img/card_backs/set2/orange.gif","img/card_backs/set2/gray.gif","""event"",""trial"",""time""
""fullscreenenter"",""1"",""8156""
","
","
","""event"",""trial"",""time""
""fullscreenenter"",""1"",""8156""
","
","","1084.6199999796227","","","","real_trial","2021-04-10 21:21:26.877","img/card_backs/set1/purple.gif","0","-110","1","",""
"casino-fixation","72","360349","0.0-25.0-0.1","894","true","img/card_backs/set1/yellow.gif","img/card_backs/set1/red.gif","img/card_backs/set1/purple.gif","img/card_backs/set1/green.gif","img/card_backs/set2/blue.gif","img/card_backs/set2/pink.gif","img/card_backs/set2/orange.gif","img/card_backs/set2/gray.gif","""event"",""trial"",""time""
""fullscreenenter"",""1"",""8156""
","
","
","""event"",""trial"",""time""
""fullscreenenter"",""1"",""8156""
","
","","null","","null","","fixation","2021-04-10 21:21:27.382","","","","","",""
"card-selection-trial","73","362902","0.0-25.0-1.1","894","true","img/card_backs/set1/yellow.gif","img/card_backs/set1/red.gif","img/card_backs/set1/purple.gif","img/card_backs/set1/green.gif","img/card_backs/set2/blue.gif","img/card_backs/set2/pink.gif","img/card_backs/set2/orange.gif","img/card_backs/set2/gray.gif","""event"",""trial"",""time""
""fullscreenenter"",""1"",""8156""
","
","
","""event"",""trial"",""time""
""fullscreenenter"",""1"",""8156""
","
","","538.3800000417978","","","","real_trial","2021-04-10 21:21:29.935","img/card_backs/set1/purple.gif","2","-100","1","",""
"casino-fixation","74","363405","0.0-25.0-0.2","894","true","img/card_backs/set1/yellow.gif","img/card_backs/set1/red.gif","img/card_backs/set1/purple.gif","img/card_backs/set1/green.gif","img/card_backs/set2/blue.gif","img/card_backs/set2/pink.gif","img/card_backs/set2/orange.gif","img/card_backs/set2/gray.gif","""event"",""trial"",""time""
""fullscreenenter"",""1"",""8156""
","
","
","""event"",""trial"",""time""
""fullscreenenter"",""1"",""8156""
","
","","null","","null","","fixation","2021-04-10 21:21:30.439","","","","","",""
"card-selection-trial","75","365883","0.0-25.0-1.2","894","true","img/card_backs/set1/yellow.gif","img/card_backs/set1/red.gif","img/card_backs/set1/purple.gif","img/card_backs/set1/green.gif","img/card_backs/set2/blue.gif","img/card_backs/set2/pink.gif","img/card_backs/set2/orange.gif","img/card_backs/set2/gray.gif","""event"",""trial"",""time""
""fullscreenenter"",""1"",""8156""
","
","
","""event"",""trial"",""time""
""fullscreenenter"",""1"",""8156""
","
","","460.3249999927357","","","","real_trial","2021-04-10 21:21:32.916","img/card_backs/set1/green.gif","1","-100","1","",""
"casino-fixation","76","366387","0.0-25.0-0.3","894","true","img/card_backs/set1/yellow.gif","img/card_backs/set1/red.gif","img/card_backs/set1/purple.gif","img/card_backs/set1/green.gif","img/card_backs/set2/blue.gif","img/card_backs/set2/pink.gif","img/card_backs/set2/orange.gif","img/card_backs/set2/gray.gif","""event"",""trial"",""time""
""fullscreenenter"",""1"",""8156""
","
","
","""event"",""trial"",""time""
""fullscreenenter"",""1"",""8156""
","
","","null","","null","","fixation","2021-04-10 21:21:33.420","","","","","",""
"card-selection-trial","77","368946","0.0-25.0-1.3","894","true","img/card_backs/set1/yellow.gif","img/card_backs/set1/red.gif","img/card_backs/set1/purple.gif","img/card_backs/set1/green.gif","img/card_backs/set2/blue.gif","img/card_backs/set2/pink.gif","img/card_backs/set2/orange.gif","img/card_backs/set2/gray.gif","""event"",""trial"",""time""
""fullscreenenter"",""1"",""8156""
","
","
","""event"",""trial"",""time""
""fullscreenenter"",""1"",""8156""
","
","","542.6549999974668","","","","real_trial","2021-04-10 21:21:35.979","img/card_backs/set1/yellow.gif","3","260","1","",""
"casino-fixation","78","369451","0.0-25.0-0.4","894","true","img/card_backs/set1/yellow.gif","img/card_backs/set1/red.gif","img/card_backs/set1/purple.gif","img/card_backs/set1/green.gif","img/card_backs/set2/blue.gif","img/card_backs/set2/pink.gif","img/card_backs/set2/orange.gif","img/card_backs/set2/gray.gif","""event"",""trial"",""time""
""fullscreenenter"",""1"",""8156""
","
","
","""event"",""trial"",""time""
""fullscreenenter"",""1"",""8156""
","
","","null","","null","","fixation","2021-04-10 21:21:36.484","","","","","",""
"card-selection-trial","79","371896","0.0-25.0-1.4","894","true","img/card_backs/set1/yellow.gif","img/card_backs/set1/red.gif","img/card_backs/set1/purple.gif","img/card_backs/set1/green.gif","img/card_backs/set2/blue.gif","img/card_backs/set2/pink.gif","img/card_backs/set2/orange.gif","img/card_backs/set2/gray.gif","""event"",""trial"",""time""
""fullscreenenter"",""1"",""8156""
","
","
","""event"",""trial"",""time""
""fullscreenenter"",""1"",""8156""
","
","","430.3399999625981","","","","real_trial","2021-04-10 21:21:38.929","img/card_backs/set1/red.gif","2","-190","1","",""
"casino-fixation","80","372400","0.0-25.0-0.5","894","true","img/card_backs/set1/yellow.gif","img/card_backs/set1/red.gif","img/card_backs/set1/purple.gif","img/card_backs/set1/green.gif","img/card_backs/set2/blue.gif","img/card_backs/set2/pink.gif","img/card_backs/set2/orange.gif","img/card_backs/set2/gray.gif","""event"",""trial"",""time""
""fullscreenenter"",""1"",""8156""
","
","
","""event"",""trial"",""time""
""fullscreenenter"",""1"",""8156""
","
","","null","","null","","fixation","2021-04-10 21:21:39.433","","","","","",""
"card-selection-trial","81","374779","0.0-25.0-1.5","894","true","img/card_backs/set1/yellow.gif","img/card_backs/set1/red.gif","img/card_backs/set1/purple.gif","img/card_backs/set1/green.gif","img/card_backs/set2/blue.gif","img/card_backs/set2/pink.gif","img/card_backs/set2/orange.gif","img/card_backs/set2/gray.gif","""event"",""trial"",""time""
""fullscreenenter"",""1"",""8156""
","
","
","""event"",""trial"",""time""
""fullscreenenter"",""1"",""8156""
","
","","364.5949999336153","","","","real_trial","2021-04-10 21:21:41.812","img/card_backs/set1/green.gif","1","-100","1","",""
"casino-fixation","82","375283","0.0-25.0-0.6","894","true","img/card_backs/set1/yellow.gif","img/card_backs/set1/red.gif","img/card_backs/set1/purple.gif","img/card_backs/set1/green.gif","img/card_backs/set2/blue.gif","img/card_backs/set2/pink.gif","img/card_backs/set2/orange.gif","img/card_backs/set2/gray.gif","""event"",""trial"",""time""
""fullscreenenter"",""1"",""8156""
","
","
","""event"",""trial"",""time""
""fullscreenenter"",""1"",""8156""
","
","","null","","null","","fixation","2021-04-10 21:21:42.316","","","","","",""
"card-selection-trial","83","377505","0.0-25.0-1.6","894","true","img/card_backs/set1/yellow.gif","img/card_backs/set1/red.gif","img/card_backs/set1/purple.gif","img/card_backs/set1/green.gif","img/card_backs/set2/blue.gif","img/card_backs/set2/pink.gif","img/card_backs/set2/orange.gif","img/card_backs/set2/gray.gif","""event"",""trial"",""time""
""fullscreenenter"",""1"",""8156""
","
","
","""event"",""trial"",""time""
""fullscreenenter"",""1"",""8156""
","
","","207.5950000435114","","","","real_trial","2021-04-10 21:21:44.538","img/card_backs/set1/purple.gif","3","-90","1","",""
"casino-fixation","84","378008","0.0-25.0-0.7","894","true","img/card_backs/set1/yellow.gif","img/card_backs/set1/red.gif","img/card_backs/set1/purple.gif","img/card_backs/set1/green.gif","img/card_backs/set2/blue.gif","img/card_backs/set2/pink.gif","img/card_backs/set2/orange.gif","img/card_backs/set2/gray.gif","""event"",""trial"",""time""
""fullscreenenter"",""1"",""8156""
","
","
","""event"",""trial"",""time""
""fullscreenenter"",""1"",""8156""
","
","","null","","null","","fixation","2021-04-10 21:21:45.041","","","","","",""
"card-selection-trial","85","380571","0.0-25.0-1.7","894","true","img/card_backs/set1/yellow.gif","img/card_backs/set1/red.gif","img/card_backs/set1/purple.gif","img/card_backs/set1/green.gif","img/card_backs/set2/blue.gif","img/card_backs/set2/pink.gif","img/card_backs/set2/orange.gif","img/card_backs/set2/gray.gif","""event"",""trial"",""time""
""fullscreenenter"",""1"",""8156""
","
","
","""event"",""trial"",""time""
""fullscreenenter"",""1"",""8156""
","
","","546.2200000183657","","","","real_trial","2021-04-10 21:21:47.604","img/card_backs/set1/purple.gif","0","50","1","",""
"casino-fixation","86","381075","0.0-25.0-0.8","894","true","img/card_backs/set1/yellow.gif","img/card_backs/set1/red.gif","img/card_backs/set1/purple.gif","img/card_backs/set1/green.gif","img/card_backs/set2/blue.gif","img/card_backs/set2/pink.gif","img/card_backs/set2/orange.gif","img/card_backs/set2/gray.gif","""event"",""trial"",""time""
""fullscreenenter"",""1"",""8156""
","
","
","""event"",""trial"",""time""
""fullscreenenter"",""1"",""8156""
","
","","null","","null","","fixation","2021-04-10 21:21:48.108","","","","","",""
"card-selection-trial","87","383880","0.0-25.0-1.8","894","true","img/card_backs/set1/yellow.gif","img/card_backs/set1/red.gif","img/card_backs/set1/purple.gif","img/card_backs/set1/green.gif","img/card_backs/set2/blue.gif","img/card_backs/set2/pink.gif","img/card_backs/set2/orange.gif","img/card_backs/set2/gray.gif","""event"",""trial"",""time""
""fullscreenenter"",""1"",""8156""
","
","
","""event"",""trial"",""time""
""fullscreenenter"",""1"",""8156""
","
","","789.9299999698997","","","","real_trial","2021-04-10 21:21:50.913","img/card_backs/set1/purple.gif","0","60","1","",""
"casino-fixation","88","384385","0.0-25.0-0.9","894","true","img/card_backs/set1/yellow.gif","img/card_backs/set1/red.gif","img/card_backs/set1/purple.gif","img/card_backs/set1/green.gif","img/card_backs/set2/blue.gif","img/card_backs/set2/pink.gif","img/card_backs/set2/orange.gif","img/card_backs/set2/gray.gif","""event"",""trial"",""time""
""fullscreenenter"",""1"",""8156""
","
","
","""event"",""trial"",""time""
""fullscreenenter"",""1"",""8156""
","
","","null","","null","","fixation","2021-04-10 21:21:51.418","","","","","",""
"card-selection-trial","89","387535","0.0-25.0-1.9","894","true","img/card_backs/set1/yellow.gif","img/card_backs/set1/red.gif","img/card_backs/set1/purple.gif","img/card_backs/set1/green.gif","img/card_backs/set2/blue.gif","img/card_backs/set2/pink.gif","img/card_backs/set2/orange.gif","img/card_backs/set2/gray.gif","""event"",""trial"",""time""
""fullscreenenter"",""1"",""8156""
","
","
","""event"",""trial"",""time""
""fullscreenenter"",""1"",""8156""
","
","","1134.3649999471381","","","","real_trial","2021-04-10 21:21:54.568","img/card_backs/set1/purple.gif","1","60","1","",""
"casino-fixation","90","388042","0.0-25.0-0.10","894","true","img/card_backs/set1/yellow.gif","img/card_backs/set1/red.gif","img/card_backs/set1/purple.gif","img/card_backs/set1/green.gif","img/card_backs/set2/blue.gif","img/card_backs/set2/pink.gif","img/card_backs/set2/orange.gif","img/card_backs/set2/gray.gif","""event"",""trial"",""time""
""fullscreenenter"",""1"",""8156""
","
","
","""event"",""trial"",""time""
""fullscreenenter"",""1"",""8156""
","
","","null","","null","","fixation","2021-04-10 21:21:55.075","","","","","",""
"card-selection-trial","91","391504","0.0-25.0-1.10","894","true","img/card_backs/set1/yellow.gif","img/card_backs/set1/red.gif","img/card_backs/set1/purple.gif","img/card_backs/set1/green.gif","img/card_backs/set2/blue.gif","img/card_backs/set2/pink.gif","img/card_backs/set2/orange.gif","img/card_backs/set2/gray.gif","""event"",""trial"",""time""
""fullscreenenter"",""1"",""8156""
","
","
","""event"",""trial"",""time""
""fullscreenenter"",""1"",""8156""
","
","","1440.8399999374524","","","","real_trial","2021-04-10 21:21:58.537","img/card_backs/set1/purple.gif","0","-90","1","",""
"casino-fixation","92","392008","0.0-25.0-0.11","894","true","img/card_backs/set1/yellow.gif","img/card_backs/set1/red.gif","img/card_backs/set1/purple.gif","img/card_backs/set1/green.gif","img/card_backs/set2/blue.gif","img/card_backs/set2/pink.gif","img/card_backs/set2/orange.gif","img/card_backs/set2/gray.gif","""event"",""trial"",""time""
""fullscreenenter"",""1"",""8156""
","
","
","""event"",""trial"",""time""
""fullscreenenter"",""1"",""8156""
","
","","null","","null","","fixation","2021-04-10 21:21:59.041","","","","","",""
"card-selection-trial","93","394799","0.0-25.0-1.11","894","true","img/card_backs/set1/yellow.gif","img/card_backs/set1/red.gif","img/card_backs/set1/purple.gif","img/card_backs/set1/green.gif","img/card_backs/set2/blue.gif","img/card_backs/set2/pink.gif","img/card_backs/set2/orange.gif","img/card_backs/set2/gray.gif","""event"",""trial"",""time""
""fullscreenenter"",""1"",""8156""
","
","
","""event"",""trial"",""time""
""fullscreenenter"",""1"",""8156""
","
","","776.0100000305101","","","","real_trial","2021-04-10 21:22:01.832","img/card_backs/set1/purple.gif","1","40","1","",""
"casino-fixation","94","395302","0.0-25.0-0.12","894","true","img/card_backs/set1/yellow.gif","img/card_backs/set1/red.gif","img/card_backs/set1/purple.gif","img/card_backs/set1/green.gif","img/card_backs/set2/blue.gif","img/card_backs/set2/pink.gif","img/card_backs/set2/orange.gif","img/card_backs/set2/gray.gif","""event"",""trial"",""time""
""fullscreenenter"",""1"",""8156""
","
","
","""event"",""trial"",""time""
""fullscreenenter"",""1"",""8156""
","
","","null","","null","","fixation","2021-04-10 21:22:02.335","","","","","",""
"card-selection-trial","95","397961","0.0-25.0-1.12","894","true","img/card_backs/set1/yellow.gif","img/card_backs/set1/red.gif","img/card_backs/set1/purple.gif","img/card_backs/set1/green.gif","img/card_backs/set2/blue.gif","img/card_backs/set2/pink.gif","img/card_backs/set2/orange.gif","img/card_backs/set2/gray.gif","""event"",""trial"",""time""
""fullscreenenter"",""1"",""8156""
","
","
","""event"",""trial"",""time""
""fullscreenenter"",""1"",""8156""
","
","","643.0349999573082","","","","real_trial","2021-04-10 21:22:04.994","img/card_backs/set1/purple.gif","2","60","1","",""
"casino-fixation","96","398465","0.0-25.0-0.13","894","true","img/card_backs/set1/yellow.gif","img/card_backs/set1/red.gif","img/card_backs/set1/purple.gif","img/card_backs/set1/green.gif","img/card_backs/set2/blue.gif","img/card_backs/set2/pink.gif","img/card_backs/set2/orange.gif","img/card_backs/set2/gray.gif","""event"",""trial"",""time""
""fullscreenenter"",""1"",""8156""
","
","
","""event"",""trial"",""time""
""fullscreenenter"",""1"",""8156""
","
","","null","","null","","fixation","2021-04-10 21:22:05.498","","","","","",""
"card-selection-trial","97","400996","0.0-25.0-1.13","894","true","img/card_backs/set1/yellow.gif","img/card_backs/set1/red.gif","img/card_backs/set1/purple.gif","img/card_backs/set1/green.gif","img/card_backs/set2/blue.gif","img/card_backs/set2/pink.gif","img/card_backs/set2/orange.gif","img/card_backs/set2/gray.gif","""event"",""trial"",""time""
""fullscreenenter"",""1"",""8156""
","
","
","""event"",""trial"",""time""
""fullscreenenter"",""1"",""8156""
","
","","515.1250000344589","","","","real_trial","2021-04-10 21:22:08.029","img/card_backs/set1/yellow.gif","3","-190","1","",""
"casino-fixation","98","401500","0.0-25.0-0.14","894","true","img/card_backs/set1/yellow.gif","img/card_backs/set1/red.gif","img/card_backs/set1/purple.gif","img/card_backs/set1/green.gif","img/card_backs/set2/blue.gif","img/card_backs/set2/pink.gif","img/card_backs/set2/orange.gif","img/card_backs/set2/gray.gif","""event"",""trial"",""time""
""fullscreenenter"",""1"",""8156""
","
","
","""event"",""trial"",""time""
""fullscreenenter"",""1"",""8156""
","
","","null","","null","","fixation","2021-04-10 21:22:08.533","","","","","",""
"card-selection-trial","99","404070","0.0-25.0-1.14","894","true","img/card_backs/set1/yellow.gif","img/card_backs/set1/red.gif","img/card_backs/set1/purple.gif","img/card_backs/set1/green.gif","img/card_backs/set2/blue.gif","img/card_backs/set2/pink.gif","img/card_backs/set2/orange.gif","img/card_backs/set2/gray.gif","""event"",""trial"",""time""
""fullscreenenter"",""1"",""8156""
","
","
","""event"",""trial"",""time""
""fullscreenenter"",""1"",""8156""
","
","","555.5399999720976","","","","real_trial","2021-04-10 21:22:11.103","img/card_backs/set1/purple.gif","1","40","1","",""
"casino-fixation","100","404573","0.0-25.0-0.15","894","true","img/card_backs/set1/yellow.gif","img/card_backs/set1/red.gif","img/card_backs/set1/purple.gif","img/card_backs/set1/green.gif","img/card_backs/set2/blue.gif","img/card_backs/set2/pink.gif","img/card_backs/set2/orange.gif","img/card_backs/set2/gray.gif","""event"",""trial"",""time""
""fullscreenenter"",""1"",""8156""
","
","
","""event"",""trial"",""time""
""fullscreenenter"",""1"",""8156""
","
","","null","","null","","fixation","2021-04-10 21:22:11.606","","","","","",""
"card-selection-trial","101","407182","0.0-25.0-1.15","894","true","img/card_backs/set1/yellow.gif","img/card_backs/set1/red.gif","img/card_backs/set1/purple.gif","img/card_backs/set1/green.gif","img/card_backs/set2/blue.gif","img/card_backs/set2/pink.gif","img/card_backs/set2/orange.gif","img/card_backs/set2/gray.gif","""event"",""trial"",""time""
""fullscreenenter"",""1"",""8156""
","
","
","""event"",""trial"",""time""
""fullscreenenter"",""1"",""8156""
","
","","594.1049999091774","","","","real_trial","2021-04-10 21:22:14.215","img/card_backs/set1/purple.gif","1","40","1","",""
"casino-fixation","102","407685","0.0-25.0-0.16","894","true","img/card_backs/set1/yellow.gif","img/card_backs/set1/red.gif","img/card_backs/set1/purple.gif","img/card_backs/set1/green.gif","img/card_backs/set2/blue.gif","img/card_backs/set2/pink.gif","img/card_backs/set2/orange.gif","img/card_backs/set2/gray.gif","""event"",""trial"",""time""
""fullscreenenter"",""1"",""8156""
","
","
","""event"",""trial"",""time""
""fullscreenenter"",""1"",""8156""
","
","","null","","null","","fixation","2021-04-10 21:22:14.718","","","","","",""
"card-selection-trial","103","410256","0.0-25.0-1.16","894","true","img/card_backs/set1/yellow.gif","img/card_backs/set1/red.gif","img/card_backs/set1/purple.gif","img/card_backs/set1/green.gif","img/card_backs/set2/blue.gif","img/card_backs/set2/pink.gif","img/card_backs/set2/orange.gif","img/card_backs/set2/gray.gif","""event"",""trial"",""time""
""fullscreenenter"",""1"",""8156""
","
","
","""event"",""trial"",""time""
""fullscreenenter"",""1"",""8156""
","
","","556.2750000972301","","","","real_trial","2021-04-10 21:22:17.289","img/card_backs/set1/purple.gif","1","-110","1","",""
"casino-fixation","104","410761","0.0-25.0-0.17","894","true","img/card_backs/set1/yellow.gif","img/card_backs/set1/red.gif","img/card_backs/set1/purple.gif","img/card_backs/set1/green.gif","img/card_backs/set2/blue.gif","img/card_backs/set2/pink.gif","img/card_backs/set2/orange.gif","img/card_backs/set2/gray.gif","""event"",""trial"",""time""
""fullscreenenter"",""1"",""8156""
","
","
","""event"",""trial"",""time""
""fullscreenenter"",""1"",""8156""
","
","","null","","null","","fixation","2021-04-10 21:22:17.794","","","","","",""
"card-selection-trial","105","414182","0.0-25.0-1.17","894","true","img/card_backs/set1/yellow.gif","img/card_backs/set1/red.gif","img/card_backs/set1/purple.gif","img/card_backs/set1/green.gif","img/card_backs/set2/blue.gif","img/card_backs/set2/pink.gif","img/card_backs/set2/orange.gif","img/card_backs/set2/gray.gif","""event"",""trial"",""time""
""fullscreenenter"",""1"",""8156""
","
","
","""event"",""trial"",""time""
""fullscreenenter"",""1"",""8156""
","
","","1403.8500000024214","","","","real_trial","2021-04-10 21:22:21.215","img/card_backs/set1/red.gif","2","-200","1","",""
"casino-fixation","106","414686","0.0-25.0-0.18","894","true","img/card_backs/set1/yellow.gif","img/card_backs/set1/red.gif","img/card_backs/set1/purple.gif","img/card_backs/set1/green.gif","img/card_backs/set2/blue.gif","img/card_backs/set2/pink.gif","img/card_backs/set2/orange.gif","img/card_backs/set2/gray.gif","""event"",""trial"",""time""
""fullscreenenter"",""1"",""8156""
","
","
","""event"",""trial"",""time""
""fullscreenenter"",""1"",""8156""
","
","","null","","null","","fixation","2021-04-10 21:22:21.720","","","","","",""
"card-selection-trial","107","418477","0.0-25.0-1.18","894","true","img/card_backs/set1/yellow.gif","img/card_backs/set1/red.gif","img/card_backs/set1/purple.gif","img/card_backs/set1/green.gif","img/card_backs/set2/blue.gif","img/card_backs/set2/pink.gif","img/card_backs/set2/orange.gif","img/card_backs/set2/gray.gif","""event"",""trial"",""time""
""fullscreenenter"",""1"",""8156""
","
","
","""event"",""trial"",""time""
""fullscreenenter"",""1"",""8156""
","
","","1772.6699999766424","","","","real_trial","2021-04-10 21:22:25.511","img/card_backs/set1/purple.gif","2","50","1","",""
"casino-fixation","108","418982","0.0-25.0-0.19","894","true","img/card_backs/set1/yellow.gif","img/card_backs/set1/red.gif","img/card_backs/set1/purple.gif","img/card_backs/set1/green.gif","img/card_backs/set2/blue.gif","img/card_backs/set2/pink.gif","img/card_backs/set2/orange.gif","img/card_backs/set2/gray.gif","""event"",""trial"",""time""
""fullscreenenter"",""1"",""8156""
","
","
","""event"",""trial"",""time""
""fullscreenenter"",""1"",""8156""
","
","","null","","null","","fixation","2021-04-10 21:22:26.015","","","","","",""
"card-selection-trial","109","421402","0.0-25.0-1.19","894","true","img/card_backs/set1/yellow.gif","img/card_backs/set1/red.gif","img/card_backs/set1/purple.gif","img/card_backs/set1/green.gif","img/card_backs/set2/blue.gif","img/card_backs/set2/pink.gif","img/card_backs/set2/orange.gif","img/card_backs/set2/gray.gif","""event"",""trial"",""time""
""fullscreenenter"",""1"",""8156""
","
","
","""event"",""trial"",""time""
""fullscreenenter"",""1"",""8156""
","
","","405.2099999971688","","","","real_trial","2021-04-10 21:22:28.435","img/card_backs/set1/green.gif","3","60","1","",""
"casino-fixation","110","421906","0.0-25.0-0.20","894","true","img/card_backs/set1/yellow.gif","img/card_backs/set1/red.gif","img/card_backs/set1/purple.gif","img/card_backs/set1/green.gif","img/card_backs/set2/blue.gif","img/card_backs/set2/pink.gif","img/card_backs/set2/orange.gif","img/card_backs/set2/gray.gif","""event"",""trial"",""time""
""fullscreenenter"",""1"",""8156""
","
","
","""event"",""trial"",""time""
""fullscreenenter"",""1"",""8156""
","
","","null","","null","","fixation","2021-04-10 21:22:28.939","","","","","",""
"card-selection-trial","111","425069","0.0-25.0-1.20","894","true","img/card_backs/set1/yellow.gif","img/card_backs/set1/red.gif","img/card_backs/set1/purple.gif","img/card_backs/set1/green.gif","img/card_backs/set2/blue.gif","img/card_backs/set2/pink.gif","img/card_backs/set2/orange.gif","img/card_backs/set2/gray.gif","""event"",""trial"",""time""
""fullscreenenter"",""1"",""8156""
","
","
","""event"",""trial"",""time""
""fullscreenenter"",""1"",""8156""
","
","","1148.0300000403076","","","","real_trial","2021-04-10 21:22:32.102","img/card_backs/set1/green.gif","0","-110","1","",""
"casino-fixation","112","425572","0.0-25.0-0.21","894","true","img/card_backs/set1/yellow.gif","img/card_backs/set1/red.gif","img/card_backs/set1/purple.gif","img/card_backs/set1/green.gif","img/card_backs/set2/blue.gif","img/card_backs/set2/pink.gif","img/card_backs/set2/orange.gif","img/card_backs/set2/gray.gif","""event"",""trial"",""time""
""fullscreenenter"",""1"",""8156""
","
","
","""event"",""trial"",""time""
""fullscreenenter"",""1"",""8156""
","
","","null","","null","","fixation","2021-04-10 21:22:32.605","","","","","",""
"card-selection-trial","113","428389","0.0-25.0-1.21","894","true","img/card_backs/set1/yellow.gif","img/card_backs/set1/red.gif","img/card_backs/set1/purple.gif","img/card_backs/set1/green.gif","img/card_backs/set2/blue.gif","img/card_backs/set2/pink.gif","img/card_backs/set2/orange.gif","img/card_backs/set2/gray.gif","""event"",""trial"",""time""
""fullscreenenter"",""1"",""8156""
","
","
","""event"",""trial"",""time""
""fullscreenenter"",""1"",""8156""
","
","","801.9649999914691","","","","real_trial","2021-04-10 21:22:35.422","img/card_backs/set1/purple.gif","1","-90","1","",""
"casino-fixation","114","428896","0.0-25.0-0.22","894","true","img/card_backs/set1/yellow.gif","img/card_backs/set1/red.gif","img/card_backs/set1/purple.gif","img/card_backs/set1/green.gif","img/card_backs/set2/blue.gif","img/card_backs/set2/pink.gif","img/card_backs/set2/orange.gif","img/card_backs/set2/gray.gif","""event"",""trial"",""time""
""fullscreenenter"",""1"",""8156""
","
","
","""event"",""trial"",""time""
""fullscreenenter"",""1"",""8156""
","
","","null","","null","","fixation","2021-04-10 21:22:35.929","","","","","",""
"card-selection-trial","115","431046","0.0-25.0-1.22","894","true","img/card_backs/set1/yellow.gif","img/card_backs/set1/red.gif","img/card_backs/set1/purple.gif","img/card_backs/set1/green.gif","img/card_backs/set2/blue.gif","img/card_backs/set2/pink.gif","img/card_backs/set2/orange.gif","img/card_backs/set2/gray.gif","""event"",""trial"",""time""
""fullscreenenter"",""1"",""8156""
","
","
","""event"",""trial"",""time""
""fullscreenenter"",""1"",""8156""
","
","","92.21999999135733","","","","real_trial","2021-04-10 21:22:38.079","img/card_backs/set1/purple.gif","2","60","1","",""
"casino-fixation","116","431550","0.0-25.0-0.23","894","true","img/card_backs/set1/yellow.gif","img/card_backs/set1/red.gif","img/card_backs/set1/purple.gif","img/card_backs/set1/green.gif","img/card_backs/set2/blue.gif","img/card_backs/set2/pink.gif","img/card_backs/set2/orange.gif","img/card_backs/set2/gray.gif","""event"",""trial"",""time""
""fullscreenenter"",""1"",""8156""
","
","
","""event"",""trial"",""time""
""fullscreenenter"",""1"",""8156""
","
","","null","","null","","fixation","2021-04-10 21:22:38.584","","","","","",""
"card-selection-trial","117","433894","0.0-25.0-1.23","894","true","img/card_backs/set1/yellow.gif","img/card_backs/set1/red.gif","img/card_backs/set1/purple.gif","img/card_backs/set1/green.gif","img/card_backs/set2/blue.gif","img/card_backs/set2/pink.gif","img/card_backs/set2/orange.gif","img/card_backs/set2/gray.gif","""event"",""trial"",""time""
""fullscreenenter"",""1"",""8156""
","
","
","""event"",""trial"",""time""
""fullscreenenter"",""1"",""8156""
","
","","328.4599999897182","","","","real_trial","2021-04-10 21:22:40.927","img/card_backs/set1/red.gif","3","-190","1","",""
"casino-fixation","118","434397","0.0-25.0-0.24","894","true","img/card_backs/set1/yellow.gif","img/card_backs/set1/red.gif","img/card_backs/set1/purple.gif","img/card_backs/set1/green.gif","img/card_backs/set2/blue.gif","img/card_backs/set2/pink.gif","img/card_backs/set2/orange.gif","img/card_backs/set2/gray.gif","""event"",""trial"",""time""
""fullscreenenter"",""1"",""8156""
","
","
","""event"",""trial"",""time""
""fullscreenenter"",""1"",""8156""
","
","","null","","null","","fixation","2021-04-10 21:22:41.430","","","","","",""
"card-selection-trial","119","436853","0.0-25.0-1.24","894","true","img/card_backs/set1/yellow.gif","img/card_backs/set1/red.gif","img/card_backs/set1/purple.gif","img/card_backs/set1/green.gif","img/card_backs/set2/blue.gif","img/card_backs/set2/pink.gif","img/card_backs/set2/orange.gif","img/card_backs/set2/gray.gif","""event"",""trial"",""time""
""fullscreenenter"",""1"",""8156""
","
","
","""event"",""trial"",""time""
""fullscreenenter"",""1"",""8156""
","
","","440.5249999836087","","","","real_trial","2021-04-10 21:22:43.886","img/card_backs/set1/green.gif","0","50","1","",""
"casino-fixation","120","437356","0.0-25.0-0.25","894","true","img/card_backs/set1/yellow.gif","img/card_backs/set1/red.gif","img/card_backs/set1/purple.gif","img/card_backs/set1/green.gif","img/card_backs/set2/blue.gif","img/card_backs/set2/pink.gif","img/card_backs/set2/orange.gif","img/card_backs/set2/gray.gif","""event"",""trial"",""time""
""fullscreenenter"",""1"",""8156""
","
","
","""event"",""trial"",""time""
""fullscreenenter"",""1"",""8156""
","
","","null","","null","","fixation","2021-04-10 21:22:44.390","","","","","",""
"card-selection-trial","121","440349","0.0-25.0-1.25","894","true","img/card_backs/set1/yellow.gif","img/card_backs/set1/red.gif","img/card_backs/set1/purple.gif","img/card_backs/set1/green.gif","img/card_backs/set2/blue.gif","img/card_backs/set2/pink.gif","img/card_backs/set2/orange.gif","img/card_backs/set2/gray.gif","""event"",""trial"",""time""
""fullscreenenter"",""1"",""8156""
","
","
","""event"",""trial"",""time""
""fullscreenenter"",""1"",""8156""
","
","","977.915000054054","","","","real_trial","2021-04-10 21:22:47.382","img/card_backs/set1/purple.gif","3","-110","1","",""
"casino-fixation","122","440852","0.0-25.0-0.26","894","true","img/card_backs/set1/yellow.gif","img/card_backs/set1/red.gif","img/card_backs/set1/purple.gif","img/card_backs/set1/green.gif","img/card_backs/set2/blue.gif","img/card_backs/set2/pink.gif","img/card_backs/set2/orange.gif","img/card_backs/set2/gray.gif","""event"",""trial"",""time""
""fullscreenenter"",""1"",""8156""
","
","
","""event"",""trial"",""time""
""fullscreenenter"",""1"",""8156""
","
","","null","","null","","fixation","2021-04-10 21:22:47.885","","","","","",""
"card-selection-trial","123","443129","0.0-25.0-1.26","894","true","img/card_backs/set1/yellow.gif","img/card_backs/set1/red.gif","img/card_backs/set1/purple.gif","img/card_backs/set1/green.gif","img/card_backs/set2/blue.gif","img/card_backs/set2/pink.gif","img/card_backs/set2/orange.gif","img/card_backs/set2/gray.gif","""event"",""trial"",""time""
""fullscreenenter"",""1"",""8156""
","
","
","""event"",""trial"",""time""
""fullscreenenter"",""1"",""8156""
","
","","261.2549999030307","","","","real_trial","2021-04-10 21:22:50.162","img/card_backs/set1/purple.gif","2","50","1","",""
"casino-fixation","124","443632","0.0-25.0-0.27","894","true","img/card_backs/set1/yellow.gif","img/card_backs/set1/red.gif","img/card_backs/set1/purple.gif","img/card_backs/set1/green.gif","img/card_backs/set2/blue.gif","img/card_backs/set2/pink.gif","img/card_backs/set2/orange.gif","img/card_backs/set2/gray.gif","""event"",""trial"",""time""
""fullscreenenter"",""1"",""8156""
","
","
","""event"",""trial"",""time""
""fullscreenenter"",""1"",""8156""
","
","","null","","null","","fixation","2021-04-10 21:22:50.666","","","","","",""
"card-selection-trial","125","446075","0.0-25.0-1.27","894","true","img/card_backs/set1/yellow.gif","img/card_backs/set1/red.gif","img/card_backs/set1/purple.gif","img/card_backs/set1/green.gif","img/card_backs/set2/blue.gif","img/card_backs/set2/pink.gif","img/card_backs/set2/orange.gif","img/card_backs/set2/gray.gif","""event"",""trial"",""time""
""fullscreenenter"",""1"",""8156""
","
","
","""event"",""trial"",""time""
""fullscreenenter"",""1"",""8156""
","
","","427.7800000272691","","","","real_trial","2021-04-10 21:22:53.108","img/card_backs/set1/purple.gif","1","40","1","",""
"casino-fixation","126","446578","0.0-25.0-0.28","894","true","img/card_backs/set1/yellow.gif","img/card_backs/set1/red.gif","img/card_backs/set1/purple.gif","img/card_backs/set1/green.gif","img/card_backs/set2/blue.gif","img/card_backs/set2/pink.gif","img/card_backs/set2/orange.gif","img/card_backs/set2/gray.gif","""event"",""trial"",""time""
""fullscreenenter"",""1"",""8156""
","
","
","""event"",""trial"",""time""
""fullscreenenter"",""1"",""8156""
","
","","null","","null","","fixation","2021-04-10 21:22:53.612","","","","","",""
"card-selection-trial","127","448919","0.0-25.0-1.28","894","true","img/card_backs/set1/yellow.gif","img/card_backs/set1/red.gif","img/card_backs/set1/purple.gif","img/card_backs/set1/green.gif","img/card_backs/set2/blue.gif","img/card_backs/set2/pink.gif","img/card_backs/set2/orange.gif","img/card_backs/set2/gray.gif","""event"",""trial"",""time""
""fullscreenenter"",""1"",""8156""
","
","
","""event"",""trial"",""time""
""fullscreenenter"",""1"",""8156""
","
","","325.82500006537884","","","","real_trial","2021-04-10 21:22:55.952","img/card_backs/set1/red.gif","0","-210","1","",""
"casino-fixation","128","449423","0.0-25.0-0.29","894","true","img/card_backs/set1/yellow.gif","img/card_backs/set1/red.gif","img/card_backs/set1/purple.gif","img/card_backs/set1/green.gif","img/card_backs/set2/blue.gif","img/card_backs/set2/pink.gif","img/card_backs/set2/orange.gif","img/card_backs/set2/gray.gif","""event"",""trial"",""time""
""fullscreenenter"",""1"",""8156""
","
","
","""event"",""trial"",""time""
""fullscreenenter"",""1"",""8156""
","
","","null","","null","","fixation","2021-04-10 21:22:56.456","","","","","",""
"card-selection-trial","129","451540","0.0-25.0-1.29","894","true","img/card_backs/set1/yellow.gif","img/card_backs/set1/red.gif","img/card_backs/set1/purple.gif","img/card_backs/set1/green.gif","img/card_backs/set2/blue.gif","img/card_backs/set2/pink.gif","img/card_backs/set2/orange.gif","img/card_backs/set2/gray.gif","""event"",""trial"",""time""
""fullscreenenter"",""1"",""8156""
","
","
","""event"",""trial"",""time""
""fullscreenenter"",""1"",""8156""
","
","","101.21500003151596","","","","real_trial","2021-04-10 21:22:58.573","img/card_backs/set1/yellow.gif","1","240","1","",""
"casino-fixation","130","452043","0.0-25.0-0.30","894","true","img/card_backs/set1/yellow.gif","img/card_backs/set1/red.gif","img/card_backs/set1/purple.gif","img/card_backs/set1/green.gif","img/card_backs/set2/blue.gif","img/card_backs/set2/pink.gif","img/card_backs/set2/orange.gif","img/card_backs/set2/gray.gif","""event"",""trial"",""time""
""fullscreenenter"",""1"",""8156""
","
","
","""event"",""trial"",""time""
""fullscreenenter"",""1"",""8156""
","
","","null","","null","","fixation","2021-04-10 21:22:59.076","","","","","",""
"card-selection-trial","131","454210","0.0-25.0-1.30","894","true","img/card_backs/set1/yellow.gif","img/card_backs/set1/red.gif","img/card_backs/set1/purple.gif","img/card_backs/set1/green.gif","img/card_backs/set2/blue.gif","img/card_backs/set2/pink.gif","img/card_backs/set2/orange.gif","img/card_backs/set2/gray.gif","""event"",""trial"",""time""
""fullscreenenter"",""1"",""8156""
","
","
","""event"",""trial"",""time""
""fullscreenenter"",""1"",""8156""
","
","","152.40999998059124","","","","real_trial","2021-04-10 21:23:01.243","img/card_backs/set1/purple.gif","2","-90","1","",""
"casino-fixation","132","454713","0.0-25.0-0.31","894","true","img/card_backs/set1/yellow.gif","img/card_backs/set1/red.gif","img/card_backs/set1/purple.gif","img/card_backs/set1/green.gif","img/card_backs/set2/blue.gif","img/card_backs/set2/pink.gif","img/card_backs/set2/orange.gif","img/card_backs/set2/gray.gif","""event"",""trial"",""time""
""fullscreenenter"",""1"",""8156""
","
","
","""event"",""trial"",""time""
""fullscreenenter"",""1"",""8156""
","
","","null","","null","","fixation","2021-04-10 21:23:01.747","","","","","",""
"card-selection-trial","133","456792","0.0-25.0-1.31","894","true","img/card_backs/set1/yellow.gif","img/card_backs/set1/red.gif","img/card_backs/set1/purple.gif","img/card_backs/set1/green.gif","img/card_backs/set2/blue.gif","img/card_backs/set2/pink.gif","img/card_backs/set2/orange.gif","img/card_backs/set2/gray.gif","""event"",""trial"",""time""
""fullscreenenter"",""1"",""8156""
","
","
","""event"",""trial"",""time""
""fullscreenenter"",""1"",""8156""
","
","","64.6100000012666","","","","real_trial","2021-04-10 21:23:03.825","img/card_backs/set1/yellow.gif","3","260","1","",""
"casino-fixation","134","457296","0.0-25.0-0.32","894","true","img/card_backs/set1/yellow.gif","img/card_backs/set1/red.gif","img/card_backs/set1/purple.gif","img/card_backs/set1/green.gif","img/card_backs/set2/blue.gif","img/card_backs/set2/pink.gif","img/card_backs/set2/orange.gif","img/card_backs/set2/gray.gif","""event"",""trial"",""time""
""fullscreenenter"",""1"",""8156""
","
","
","""event"",""trial"",""time""
""fullscreenenter"",""1"",""8156""
","
","","null","","null","","fixation","2021-04-10 21:23:04.329","","","","","",""
"card-selection-trial","135","459416","0.0-25.0-1.32","894","true","img/card_backs/set1/yellow.gif","img/card_backs/set1/red.gif","img/card_backs/set1/purple.gif","img/card_backs/set1/green.gif","img/card_backs/set2/blue.gif","img/card_backs/set2/pink.gif","img/card_backs/set2/orange.gif","img/card_backs/set2/gray.gif","""event"",""trial"",""time""
""fullscreenenter"",""1"",""8156""
","
","
","""event"",""trial"",""time""
""fullscreenenter"",""1"",""8156""
","
","","104.63499999605119","","","","real_trial","2021-04-10 21:23:06.449","img/card_backs/set1/red.gif","0","-190","1","",""
"casino-fixation","136","459921","0.0-25.0-0.33","894","true","img/card_backs/set1/yellow.gif","img/card_backs/set1/red.gif","img/card_backs/set1/purple.gif","img/card_backs/set1/green.gif","img/card_backs/set2/blue.gif","img/card_backs/set2/pink.gif","img/card_backs/set2/orange.gif","img/card_backs/set2/gray.gif","""event"",""trial"",""time""
""fullscreenenter"",""1"",""8156""
","
","
","""event"",""trial"",""time""
""fullscreenenter"",""1"",""8156""
","
","","null","","null","","fixation","2021-04-10 21:23:06.954","","","","","",""
"card-selection-trial","137","462124","0.0-25.0-1.33","894","true","img/card_backs/set1/yellow.gif","img/card_backs/set1/red.gif","img/card_backs/set1/purple.gif","img/card_backs/set1/green.gif","img/card_backs/set2/blue.gif","img/card_backs/set2/pink.gif","img/card_backs/set2/orange.gif","img/card_backs/set2/gray.gif","""event"",""trial"",""time""
""fullscreenenter"",""1"",""8156""
","
","
","""event"",""trial"",""time""
""fullscreenenter"",""1"",""8156""
","
","","189.53499989584088","","","","real_trial","2021-04-10 21:23:09.157","img/card_backs/set1/red.gif","1","260","1","",""
"casino-fixation","138","462627","0.0-25.0-0.34","894","true","img/card_backs/set1/yellow.gif","img/card_backs/set1/red.gif","img/card_backs/set1/purple.gif","img/card_backs/set1/green.gif","img/card_backs/set2/blue.gif","img/card_backs/set2/pink.gif","img/card_backs/set2/orange.gif","img/card_backs/set2/gray.gif","""event"",""trial"",""time""
""fullscreenenter"",""1"",""8156""
","
","
","""event"",""trial"",""time""
""fullscreenenter"",""1"",""8156""
","
","","null","","null","","fixation","2021-04-10 21:23:09.660","","","","","",""
"card-selection-trial","139","464696","0.0-25.0-1.34","894","true","img/card_backs/set1/yellow.gif","img/card_backs/set1/red.gif","img/card_backs/set1/purple.gif","img/card_backs/set1/green.gif","img/card_backs/set2/blue.gif","img/card_backs/set2/pink.gif","img/card_backs/set2/orange.gif","img/card_backs/set2/gray.gif","""event"",""trial"",""time""
""fullscreenenter"",""1"",""8156""
","
","
","""event"",""trial"",""time""
""fullscreenenter"",""1"",""8156""
","
","","56.594999972730875","","","","real_trial","2021-04-10 21:23:11.730","img/card_backs/set1/yellow.gif","2","250","1","",""
"casino-fixation","140","465200","0.0-25.0-0.35","894","true","img/card_backs/set1/yellow.gif","img/card_backs/set1/red.gif","img/card_backs/set1/purple.gif","img/card_backs/set1/green.gif","img/card_backs/set2/blue.gif","img/card_backs/set2/pink.gif","img/card_backs/set2/orange.gif","img/card_backs/set2/gray.gif","""event"",""trial"",""time""
""fullscreenenter"",""1"",""8156""
","
","
","""event"",""trial"",""time""
""fullscreenenter"",""1"",""8156""
","
","","null","","null","","fixation","2021-04-10 21:23:12.233","","","","","",""
"card-selection-trial","141","467631","0.0-25.0-1.35","894","true","img/card_backs/set1/yellow.gif","img/card_backs/set1/red.gif","img/card_backs/set1/purple.gif","img/card_backs/set1/green.gif","img/card_backs/set2/blue.gif","img/card_backs/set2/pink.gif","img/card_backs/set2/orange.gif","img/card_backs/set2/gray.gif","""event"",""trial"",""time""
""fullscreenenter"",""1"",""8156""
","
","
","""event"",""trial"",""time""
""fullscreenenter"",""1"",""8156""
","
","","417.24999994039536","","","","real_trial","2021-04-10 21:23:14.664","img/card_backs/set1/red.gif","2","250","1","",""
"casino-fixation","142","468136","0.0-25.0-0.36","894","true","img/card_backs/set1/yellow.gif","img/card_backs/set1/red.gif","img/card_backs/set1/purple.gif","img/card_backs/set1/green.gif","img/card_backs/set2/blue.gif","img/card_backs/set2/pink.gif","img/card_backs/set2/orange.gif","img/card_backs/set2/gray.gif","""event"",""trial"",""time""
""fullscreenenter"",""1"",""8156""
","
","
","""event"",""trial"",""time""
""fullscreenenter"",""1"",""8156""
","
","","null","","null","","fixation","2021-04-10 21:23:15.169","","","","","",""
"card-selection-trial","143","471372","0.0-25.0-1.36","894","true","img/card_backs/set1/yellow.gif","img/card_backs/set1/red.gif","img/card_backs/set1/purple.gif","img/card_backs/set1/green.gif","img/card_backs/set2/blue.gif","img/card_backs/set2/pink.gif","img/card_backs/set2/orange.gif","img/card_backs/set2/gray.gif","""event"",""trial"",""time""
""fullscreenenter"",""1"",""8156""
","
","
","""event"",""trial"",""time""
""fullscreenenter"",""1"",""8156""
","
","","1221.7950000194833","","","","real_trial","2021-04-10 21:23:18.406","img/card_backs/set1/green.gif","1","-100","1","",""
"casino-fixation","144","471877","0.0-25.0-0.37","894","true","img/card_backs/set1/yellow.gif","img/card_backs/set1/red.gif","img/card_backs/set1/purple.gif","img/card_backs/set1/green.gif","img/card_backs/set2/blue.gif","img/card_backs/set2/pink.gif","img/card_backs/set2/orange.gif","img/card_backs/set2/gray.gif","""event"",""trial"",""time""
""fullscreenenter"",""1"",""8156""
","
","
","""event"",""trial"",""time""
""fullscreenenter"",""1"",""8156""
","
","","null","","null","","fixation","2021-04-10 21:23:18.910","","","","","",""
"card-selection-trial","145","474050","0.0-25.0-1.37","894","true","img/card_backs/set1/yellow.gif","img/card_backs/set1/red.gif","img/card_backs/set1/purple.gif","img/card_backs/set1/green.gif","img/card_backs/set2/blue.gif","img/card_backs/set2/pink.gif","img/card_backs/set2/orange.gif","img/card_backs/set2/gray.gif","""event"",""trial"",""time""
""fullscreenenter"",""1"",""8156""
","
","
","""event"",""trial"",""time""
""fullscreenenter"",""1"",""8156""
","
","","157.51999989151955","","","","real_trial","2021-04-10 21:23:21.083","img/card_backs/set1/purple.gif","2","-90","1","",""
"casino-fixation","146","474555","0.0-25.0-0.38","894","true","img/card_backs/set1/yellow.gif","img/card_backs/set1/red.gif","img/card_backs/set1/purple.gif","img/card_backs/set1/green.gif","img/card_backs/set2/blue.gif","img/card_backs/set2/pink.gif","img/card_backs/set2/orange.gif","img/card_backs/set2/gray.gif","""event"",""trial"",""time""
""fullscreenenter"",""1"",""8156""
","
","
","""event"",""trial"",""time""
""fullscreenenter"",""1"",""8156""
","
","","null","","null","","fixation","2021-04-10 21:23:21.588","","","","","",""
"card-selection-trial","147","476973","0.0-25.0-1.38","894","true","img/card_backs/set1/yellow.gif","img/card_backs/set1/red.gif","img/card_backs/set1/purple.gif","img/card_backs/set1/green.gif","img/card_backs/set2/blue.gif","img/card_backs/set2/pink.gif","img/card_backs/set2/orange.gif","img/card_backs/set2/gray.gif","""event"",""trial"",""time""
""fullscreenenter"",""1"",""8156""
","
","
","""event"",""trial"",""time""
""fullscreenenter"",""1"",""8156""
","
","","398.5450000036508","","","","real_trial","2021-04-10 21:23:24.006","img/card_backs/set1/yellow.gif","0","250","1","",""
"casino-fixation","148","477476","0.0-25.0-0.39","894","true","img/card_backs/set1/yellow.gif","img/card_backs/set1/red.gif","img/card_backs/set1/purple.gif","img/card_backs/set1/green.gif","img/card_backs/set2/blue.gif","img/card_backs/set2/pink.gif","img/card_backs/set2/orange.gif","img/card_backs/set2/gray.gif","""event"",""trial"",""time""
""fullscreenenter"",""1"",""8156""
","
","
","""event"",""trial"",""time""
""fullscreenenter"",""1"",""8156""
","
","","null","","null","","fixation","2021-04-10 21:23:24.509","","","","","",""
"card-selection-trial","149","479804","0.0-25.0-1.39","894","true","img/card_backs/set1/yellow.gif","img/card_backs/set1/red.gif","img/card_backs/set1/purple.gif","img/card_backs/set1/green.gif","img/card_backs/set2/blue.gif","img/card_backs/set2/pink.gif","img/card_backs/set2/orange.gif","img/card_backs/set2/gray.gif","""event"",""trial"",""time""
""fullscreenenter"",""1"",""8156""
","
","
","""event"",""trial"",""time""
""fullscreenenter"",""1"",""8156""
","
","","311.40500004403293","","","","real_trial","2021-04-10 21:23:26.837","img/card_backs/set1/yellow.gif","3","-200","1","",""
"casino-fixation","150","480307","0.0-25.0-0.40","894","true","img/card_backs/set1/yellow.gif","img/card_backs/set1/red.gif","img/card_backs/set1/purple.gif","img/card_backs/set1/green.gif","img/card_backs/set2/blue.gif","img/card_backs/set2/pink.gif","img/card_backs/set2/orange.gif","img/card_backs/set2/gray.gif","""event"",""trial"",""time""
""fullscreenenter"",""1"",""8156""
","
","
","""event"",""trial"",""time""
""fullscreenenter"",""1"",""8156""
","
","","null","","null","","fixation","2021-04-10 21:23:27.341","","","","","",""
"card-selection-trial","151","482694","0.0-25.0-1.40","894","true","img/card_backs/set1/yellow.gif","img/card_backs/set1/red.gif","img/card_backs/set1/purple.gif","img/card_backs/set1/green.gif","img/card_backs/set2/blue.gif","img/card_backs/set2/pink.gif","img/card_backs/set2/orange.gif","img/card_backs/set2/gray.gif","""event"",""trial"",""time""
""fullscreenenter"",""1"",""8156""
","
","
","""event"",""trial"",""time""
""fullscreenenter"",""1"",""8156""
","
","","371.9849999761209","","","","real_trial","2021-04-10 21:23:29.727","img/card_backs/set1/purple.gif","1","-110","1","",""
"casino-fixation","152","483197","0.0-25.0-0.41","894","true","img/card_backs/set1/yellow.gif","img/card_backs/set1/red.gif","img/card_backs/set1/purple.gif","img/card_backs/set1/green.gif","img/card_backs/set2/blue.gif","img/card_backs/set2/pink.gif","img/card_backs/set2/orange.gif","img/card_backs/set2/gray.gif","""event"",""trial"",""time""
""fullscreenenter"",""1"",""8156""
","
","
","""event"",""trial"",""time""
""fullscreenenter"",""1"",""8156""
","
","","null","","null","","fixation","2021-04-10 21:23:30.230","","","","","",""
"card-selection-trial","153","485607","0.0-25.0-1.41","894","true","img/card_backs/set1/yellow.gif","img/card_backs/set1/red.gif","img/card_backs/set1/purple.gif","img/card_backs/set1/green.gif","img/card_backs/set2/blue.gif","img/card_backs/set2/pink.gif","img/card_backs/set2/orange.gif","img/card_backs/set2/gray.gif","""event"",""trial"",""time""
""fullscreenenter"",""1"",""8156""
","
","
","""event"",""trial"",""time""
""fullscreenenter"",""1"",""8156""
","
","","395.5450000939891","","","","real_trial","2021-04-10 21:23:32.640","img/card_backs/set1/purple.gif","2","50","1","",""
"casino-fixation","154","486111","0.0-25.0-0.42","894","true","img/card_backs/set1/yellow.gif","img/card_backs/set1/red.gif","img/card_backs/set1/purple.gif","img/card_backs/set1/green.gif","img/card_backs/set2/blue.gif","img/card_backs/set2/pink.gif","img/card_backs/set2/orange.gif","img/card_backs/set2/gray.gif","""event"",""trial"",""time""
""fullscreenenter"",""1"",""8156""
","
","
","""event"",""trial"",""time""
""fullscreenenter"",""1"",""8156""
","
","","null","","null","","fixation","2021-04-10 21:23:33.145","","","","","",""
"card-selection-trial","155","488497","0.0-25.0-1.42","894","true","img/card_backs/set1/yellow.gif","img/card_backs/set1/red.gif","img/card_backs/set1/purple.gif","img/card_backs/set1/green.gif","img/card_backs/set2/blue.gif","img/card_backs/set2/pink.gif","img/card_backs/set2/orange.gif","img/card_backs/set2/gray.gif","""event"",""trial"",""time""
""fullscreenenter"",""1"",""8156""
","
","
","""event"",""trial"",""time""
""fullscreenenter"",""1"",""8156""
","
","","371.21000001206994","","","","real_trial","2021-04-10 21:23:35.530","img/card_backs/set1/purple.gif","0","60","1","",""
"casino-fixation","156","489001","0.0-25.0-0.43","894","true","img/card_backs/set1/yellow.gif","img/card_backs/set1/red.gif","img/card_backs/set1/purple.gif","img/card_backs/set1/green.gif","img/card_backs/set2/blue.gif","img/card_backs/set2/pink.gif","img/card_backs/set2/orange.gif","img/card_backs/set2/gray.gif","""event"",""trial"",""time""
""fullscreenenter"",""1"",""8156""
","
","
","""event"",""trial"",""time""
""fullscreenenter"",""1"",""8156""
","
","","null","","null","","fixation","2021-04-10 21:23:36.034","","","","","",""
"card-selection-trial","157","491408","0.0-25.0-1.43","894","true","img/card_backs/set1/yellow.gif","img/card_backs/set1/red.gif","img/card_backs/set1/purple.gif","img/card_backs/set1/green.gif","img/card_backs/set2/blue.gif","img/card_backs/set2/pink.gif","img/card_backs/set2/orange.gif","img/card_backs/set2/gray.gif","""event"",""trial"",""time""
""fullscreenenter"",""1"",""8156""
","
","
","""event"",""trial"",""time""
""fullscreenenter"",""1"",""8156""
","
","","389.3349999561906","","","","real_trial","2021-04-10 21:23:38.441","img/card_backs/set1/red.gif","2","-210","1","",""
"casino-fixation","158","491913","0.0-25.0-0.44","894","true","img/card_backs/set1/yellow.gif","img/card_backs/set1/red.gif","img/card_backs/set1/purple.gif","img/card_backs/set1/green.gif","img/card_backs/set2/blue.gif","img/card_backs/set2/pink.gif","img/card_backs/set2/orange.gif","img/card_backs/set2/gray.gif","""event"",""trial"",""time""
""fullscreenenter"",""1"",""8156""
","
","
","""event"",""trial"",""time""
""fullscreenenter"",""1"",""8156""
","
","","null","","null","","fixation","2021-04-10 21:23:38.946","","","","","",""
"card-selection-trial","159","495955","0.0-25.0-1.44","894","true","img/card_backs/set1/yellow.gif","img/card_backs/set1/red.gif","img/card_backs/set1/purple.gif","img/card_backs/set1/green.gif","img/card_backs/set2/blue.gif","img/card_backs/set2/pink.gif","img/card_backs/set2/orange.gif","img/card_backs/set2/gray.gif","""event"",""trial"",""time""
""fullscreenenter"",""1"",""8156""
","
","
","""event"",""trial"",""time""
""fullscreenenter"",""1"",""8156""
","
","","2025.2650000620633","","","","real_trial","2021-04-10 21:23:42.988","img/card_backs/set1/purple.gif","0","40","1","",""
"casino-fixation","160","496459","0.0-25.0-0.45","894","true","img/card_backs/set1/yellow.gif","img/card_backs/set1/red.gif","img/card_backs/set1/purple.gif","img/card_backs/set1/green.gif","img/card_backs/set2/blue.gif","img/card_backs/set2/pink.gif","img/card_backs/set2/orange.gif","img/card_backs/set2/gray.gif","""event"",""trial"",""time""
""fullscreenenter"",""1"",""8156""
","
","
","""event"",""trial"",""time""
""fullscreenenter"",""1"",""8156""
","
","","null","","null","","fixation","2021-04-10 21:23:43.492","","","","","",""
"card-selection-trial","161","499560","0.0-25.0-1.45","894","true","img/card_backs/set1/yellow.gif","img/card_backs/set1/red.gif","img/card_backs/set1/purple.gif","img/card_backs/set1/green.gif","img/card_backs/set2/blue.gif","img/card_backs/set2/pink.gif","img/card_backs/set2/orange.gif","img/card_backs/set2/gray.gif","""event"",""trial"",""time""
""fullscreenenter"",""1"",""8156""
","
","
","""event"",""trial"",""time""
""fullscreenenter"",""1"",""8156""
","
","","1081.9349999073893","","","","real_trial","2021-04-10 21:23:46.593","img/card_backs/set1/purple.gif","1","-110","1","",""
"casino-fixation","162","500065","0.0-25.0-0.46","894","true","img/card_backs/set1/yellow.gif","img/card_backs/set1/red.gif","img/card_backs/set1/purple.gif","img/card_backs/set1/green.gif","img/card_backs/set2/blue.gif","img/card_backs/set2/pink.gif","img/card_backs/set2/orange.gif","img/card_backs/set2/gray.gif","""event"",""trial"",""time""
""fullscreenenter"",""1"",""8156""
","
","
","""event"",""trial"",""time""
""fullscreenenter"",""1"",""8156""
","
","","null","","null","","fixation","2021-04-10 21:23:47.098","","","","","",""
"card-selection-trial","163","503165","0.0-25.0-1.46","894","true","img/card_backs/set1/yellow.gif","img/card_backs/set1/red.gif","img/card_backs/set1/purple.gif","img/card_backs/set1/green.gif","img/card_backs/set2/blue.gif","img/card_backs/set2/pink.gif","img/card_backs/set2/orange.gif","img/card_backs/set2/gray.gif","""event"",""trial"",""time""
""fullscreenenter"",""1"",""8156""
","
","
","""event"",""trial"",""time""
""fullscreenenter"",""1"",""8156""
","
","","1083.4449999965727","","","","real_trial","2021-04-10 21:23:50.198","img/card_backs/set1/green.gif","2","50","1","",""
"casino-fixation","164","503669","0.0-25.0-0.47","894","true","img/card_backs/set1/yellow.gif","img/card_backs/set1/red.gif","img/card_backs/set1/purple.gif","img/card_backs/set1/green.gif","img/card_backs/set2/blue.gif","img/card_backs/set2/pink.gif","img/card_backs/set2/orange.gif","img/card_backs/set2/gray.gif","""event"",""trial"",""time""
""fullscreenenter"",""1"",""8156""
","
","
","""event"",""trial"",""time""
""fullscreenenter"",""1"",""8156""
","
","","null","","null","","fixation","2021-04-10 21:23:50.702","","","","","",""
"card-selection-trial","165","506912","0.0-25.0-1.47","894","true","img/card_backs/set1/yellow.gif","img/card_backs/set1/red.gif","img/card_backs/set1/purple.gif","img/card_backs/set1/green.gif","img/card_backs/set2/blue.gif","img/card_backs/set2/pink.gif","img/card_backs/set2/orange.gif","img/card_backs/set2/gray.gif","""event"",""trial"",""time""
""fullscreenenter"",""1"",""8156""
","
","
","""event"",""trial"",""time""
""fullscreenenter"",""1"",""8156""
","
","","1225.7799999788404","","","","real_trial","2021-04-10 21:23:53.945","img/card_backs/set1/green.gif","0","-100","1","",""
"casino-fixation","166","507416","0.0-25.0-0.48","894","true","img/card_backs/set1/yellow.gif","img/card_backs/set1/red.gif","img/card_backs/set1/purple.gif","img/card_backs/set1/green.gif","img/card_backs/set2/blue.gif","img/card_backs/set2/pink.gif","img/card_backs/set2/orange.gif","img/card_backs/set2/gray.gif","""event"",""trial"",""time""
""fullscreenenter"",""1"",""8156""
","
","
","""event"",""trial"",""time""
""fullscreenenter"",""1"",""8156""
","
","","null","","null","","fixation","2021-04-10 21:23:54.449","","","","","",""
"card-selection-trial","167","510586","0.0-25.0-1.48","894","true","img/card_backs/set1/yellow.gif","img/card_backs/set1/red.gif","img/card_backs/set1/purple.gif","img/card_backs/set1/green.gif","img/card_backs/set2/blue.gif","img/card_backs/set2/pink.gif","img/card_backs/set2/orange.gif","img/card_backs/set2/gray.gif","""event"",""trial"",""time""
""fullscreenenter"",""1"",""8156""
","
","
","""event"",""trial"",""time""
""fullscreenenter"",""1"",""8156""
","
