"trial_type","trial_index","time_elapsed","internal_node_id","sub_id","risk_good_first","block1_A","block1_B","block1_C","block1_D","block2_A","block2_B","block2_C","block2_D","interactions","blur_events","focus_events","fullscreenenter_events","fullscreenexit_events","success","rt","stimulus","key_press","button_pressed","task_part","timestamp","card_choice","choice_position","points_earned","block","correct","response"
"pavlovia","0","3","0.0-0.0","935","true","img/card_backs/set1/green.gif","img/card_backs/set1/purple.gif","img/card_backs/set1/yellow.gif","img/card_backs/set1/red.gif","img/card_backs/set2/gray.gif","img/card_backs/set2/pink.gif","img/card_backs/set2/blue.gif","img/card_backs/set2/orange.gif","""event"",""trial"",""time""
""fullscreenenter"",""1"",""2668""
","
","
","""event"",""trial"",""time""
""fullscreenenter"",""1"",""2668""
","
","","","","","","","","","","","","",""
"fullscreen","1","3657","0.0-1.0","935","true","img/card_backs/set1/green.gif","img/card_backs/set1/purple.gif","img/card_backs/set1/yellow.gif","img/card_backs/set1/red.gif","img/card_backs/set2/gray.gif","img/card_backs/set2/pink.gif","img/card_backs/set2/blue.gif","img/card_backs/set2/orange.gif","""event"",""trial"",""time""
""fullscreenenter"",""1"",""2668""
","
","
","""event"",""trial"",""time""
""fullscreenenter"",""1"",""2668""
","
","true","","","","","","","","","","","",""
"audio-keyboard-response","2","5918","0.0-2.0","935","true","img/card_backs/set1/green.gif","img/card_backs/set1/purple.gif","img/card_backs/set1/yellow.gif","img/card_backs/set1/red.gif","img/card_backs/set2/gray.gif","img/card_backs/set2/pink.gif","img/card_backs/set2/blue.gif","img/card_backs/set2/orange.gif","""event"",""trial"",""time""
""fullscreenenter"",""1"",""2668""
","
","
","""event"",""trial"",""time""
""fullscreenenter"",""1"",""2668""
","
","","1956","audio/beep_loop.wav","32","","","","","","","","",""
"audio-button-response","3","7715","0.0-3.0","935","true","img/card_backs/set1/green.gif","img/card_backs/set1/purple.gif","img/card_backs/set1/yellow.gif","img/card_backs/set1/red.gif","img/card_backs/set2/gray.gif","img/card_backs/set2/pink.gif","img/card_backs/set2/blue.gif","img/card_backs/set2/orange.gif","""event"",""trial"",""time""
""fullscreenenter"",""1"",""2668""
","
","
","""event"",""trial"",""time""
""fullscreenenter"",""1"",""2668""
","
","","NaN","audio/turtle.mp3","","3","","","","","","","",""
"audio-button-response","4","9831","0.0-4.0","935","true","img/card_backs/set1/green.gif","img/card_backs/set1/purple.gif","img/card_backs/set1/yellow.gif","img/card_backs/set1/red.gif","img/card_backs/set2/gray.gif","img/card_backs/set2/pink.gif","img/card_backs/set2/blue.gif","img/card_backs/set2/orange.gif","""event"",""trial"",""time""
""fullscreenenter"",""1"",""2668""
","
","
","""event"",""trial"",""time""
""fullscreenenter"",""1"",""2668""
","
","","NaN","audio/shark.mp3","","2","","","","","","","",""
"fullscreen","5","12807","0.0-5.0","935","true","img/card_backs/set1/green.gif","img/card_backs/set1/purple.gif","img/card_backs/set1/yellow.gif","img/card_backs/set1/red.gif","img/card_backs/set2/gray.gif","img/card_backs/set2/pink.gif","img/card_backs/set2/blue.gif","img/card_backs/set2/orange.gif","""event"",""trial"",""time""
""fullscreenenter"",""1"",""2668""
","
","
","""event"",""trial"",""time""
""fullscreenenter"",""1"",""2668""
","
","true","","","","","","","","","","","",""
"casino-keyboard-response","6","16371","0.0-6.0-0.0","935","true","img/card_backs/set1/green.gif","img/card_backs/set1/purple.gif","img/card_backs/set1/yellow.gif","img/card_backs/set1/red.gif","img/card_backs/set2/gray.gif","img/card_backs/set2/pink.gif","img/card_backs/set2/blue.gif","img/card_backs/set2/orange.gif","""event"",""trial"",""time""
""fullscreenenter"",""1"",""2668""
","
","
","""event"",""trial"",""time""
""fullscreenenter"",""1"",""2668""
","
","","3559.300000011921","Welcome to the casino!","71","","instructions","2021-06-27 02:04:12.566","","","","","",""
"casino-keyboard-response","7","26204","0.0-6.0-0.1","935","true","img/card_backs/set1/green.gif","img/card_backs/set1/purple.gif","img/card_backs/set1/yellow.gif","img/card_backs/set1/red.gif","img/card_backs/set2/gray.gif","img/card_backs/set2/pink.gif","img/card_backs/set2/blue.gif","img/card_backs/set2/orange.gif","""event"",""trial"",""time""
""fullscreenenter"",""1"",""2668""
","
","
","""event"",""trial"",""time""
""fullscreenenter"",""1"",""2668""
","
","","9831","Today you will be playing a game to earn tokens. </br> At the end of the experiment, you will be paid a bonus based on how many tokens you win. ","69","","instructions","2021-06-27 02:04:22.399","","","","","",""
"casino-keyboard-response","8","33515","0.0-6.0-0.2","935","true","img/card_backs/set1/green.gif","img/card_backs/set1/purple.gif","img/card_backs/set1/yellow.gif","img/card_backs/set1/red.gif","img/card_backs/set2/gray.gif","img/card_backs/set2/pink.gif","img/card_backs/set2/blue.gif","img/card_backs/set2/orange.gif","""event"",""trial"",""time""
""fullscreenenter"",""1"",""2668""
","
","
","""event"",""trial"",""time""
""fullscreenenter"",""1"",""2668""
","
","","7309.5","On every turn, you will be shown four different decks of cards. </br> You need to select a card from one of the four decks.  ","75","","instructions","2021-06-27 02:04:29.710","","","","","",""
"casino-keyboard-response","9","38065","0.0-6.0-0.3","935","true","img/card_backs/set1/green.gif","img/card_backs/set1/purple.gif","img/card_backs/set1/yellow.gif","img/card_backs/set1/red.gif","img/card_backs/set2/gray.gif","img/card_backs/set2/pink.gif","img/card_backs/set2/blue.gif","img/card_backs/set2/orange.gif","""event"",""trial"",""time""
""fullscreenenter"",""1"",""2668""
","
","
","""event"",""trial"",""time""
""fullscreenenter"",""1"",""2668""
","
","","4548.4000000059605","On the next screen, you will see what the decks will look like. ","66","","instructions","2021-06-27 02:04:34.260","","","","","",""
"card-selection-trial","10","42071","0.0-7.0-0.0","935","true","img/card_backs/set1/green.gif","img/card_backs/set1/purple.gif","img/card_backs/set1/yellow.gif","img/card_backs/set1/red.gif","img/card_backs/set2/gray.gif","img/card_backs/set2/pink.gif","img/card_backs/set2/blue.gif","img/card_backs/set2/orange.gif","""event"",""trial"",""time""
""fullscreenenter"",""1"",""2668""
","
","
","""event"",""trial"",""time""
""fullscreenenter"",""1"",""2668""
","
","","null","","","","practice","2021-06-27 02:04:38.266","null","null","null","0","",""
"casino-keyboard-response","11","49541","0.0-8.0-0.0","935","true","img/card_backs/set1/green.gif","img/card_backs/set1/purple.gif","img/card_backs/set1/yellow.gif","img/card_backs/set1/red.gif","img/card_backs/set2/gray.gif","img/card_backs/set2/pink.gif","img/card_backs/set2/blue.gif","img/card_backs/set2/orange.gif","""event"",""trial"",""time""
""fullscreenenter"",""1"",""2668""
","
","
","""event"",""trial"",""time""
""fullscreenenter"",""1"",""2668""
","
","","7465.5999999940395","You should pick a card from a deck using the '2', '4', '6', and '8' keys at the top of the keyboard.","85","","instructions","2021-06-27 02:04:45.736","","","","","",""
"casino-keyboard-response","12","54721","0.0-8.0-0.1","935","true","img/card_backs/set1/green.gif","img/card_backs/set1/purple.gif","img/card_backs/set1/yellow.gif","img/card_backs/set1/red.gif","img/card_backs/set2/gray.gif","img/card_backs/set2/pink.gif","img/card_backs/set2/blue.gif","img/card_backs/set2/orange.gif","""event"",""trial"",""time""
""fullscreenenter"",""1"",""2668""
","
","
","""event"",""trial"",""time""
""fullscreenenter"",""1"",""2668""
","
","","5178.9000000059605","Once you select a card, it will turn over and you will see how many tokens you earned.","83","","instructions","2021-06-27 02:04:50.916","","","","","",""
"casino-keyboard-response","13","68659","0.0-8.0-0.2","935","true","img/card_backs/set1/green.gif","img/card_backs/set1/purple.gif","img/card_backs/set1/yellow.gif","img/card_backs/set1/red.gif","img/card_backs/set2/gray.gif","img/card_backs/set2/pink.gif","img/card_backs/set2/blue.gif","img/card_backs/set2/orange.gif","""event"",""trial"",""time""
""fullscreenenter"",""1"",""2668""
","
","
","""event"",""trial"",""time""
""fullscreenenter"",""1"",""2668""
","
","","13935.799999982119","Let's try practicing that! </br> First, try to put your fingers over the '2', '4', '6', and '8' keys. </br>  You can use whatever fingers are most comfortable for you. Try to find a comfortable position now. ","50","","instructions","2021-06-27 02:05:04.854","","","","","",""
"casino-keyboard-response","14","74598","0.0-8.0-0.3","935","true","img/card_backs/set1/green.gif","img/card_backs/set1/purple.gif","img/card_backs/set1/yellow.gif","img/card_backs/set1/red.gif","img/card_backs/set2/gray.gif","img/card_backs/set2/pink.gif","img/card_backs/set2/blue.gif","img/card_backs/set2/orange.gif","""event"",""trial"",""time""
""fullscreenenter"",""1"",""2668""
","
","
","""event"",""trial"",""time""
""fullscreenenter"",""1"",""2668""
","
","","5936.5","Okay ready? </br> On the next screen, press '2' to select the left deck. ","50","","instructions","2021-06-27 02:05:10.793","","","","","",""
"card-selection-trial","15","77275","0.0-9.0-0.0","935","true","img/card_backs/set1/green.gif","img/card_backs/set1/purple.gif","img/card_backs/set1/yellow.gif","img/card_backs/set1/red.gif","img/card_backs/set2/gray.gif","img/card_backs/set2/pink.gif","img/card_backs/set2/blue.gif","img/card_backs/set2/orange.gif","""event"",""trial"",""time""
""fullscreenenter"",""1"",""2668""
","
","
","""event"",""trial"",""time""
""fullscreenenter"",""1"",""2668""
","
","","668.8000000119209","","","","practice_card_selection","2021-06-27 02:05:13.471","img/practice_cards/backs/black.gif","0","100","","",""
"casino-keyboard-response","16","84131","0.0-10.0-0.0","935","true","img/card_backs/set1/green.gif","img/card_backs/set1/purple.gif","img/card_backs/set1/yellow.gif","img/card_backs/set1/red.gif","img/card_backs/set2/gray.gif","img/card_backs/set2/pink.gif","img/card_backs/set2/blue.gif","img/card_backs/set2/orange.gif","""event"",""trial"",""time""
""fullscreenenter"",""1"",""2668""
","
","
","""event"",""trial"",""time""
""fullscreenenter"",""1"",""2668""
","
","","6853.5999999940395","Great! Now on the next screen, try pressing '6' to select the third deck.","54","","instructions","2021-06-27 02:05:20.326","","","","","",""
"card-selection-trial","17","86902","0.0-11.0-0.0","935","true","img/card_backs/set1/green.gif","img/card_backs/set1/purple.gif","img/card_backs/set1/yellow.gif","img/card_backs/set1/red.gif","img/card_backs/set2/gray.gif","img/card_backs/set2/pink.gif","img/card_backs/set2/blue.gif","img/card_backs/set2/orange.gif","""event"",""trial"",""time""
""fullscreenenter"",""1"",""2668""
","
","
","""event"",""trial"",""time""
""fullscreenenter"",""1"",""2668""
","
","","761.5","","","","practice_card_selection","2021-06-27 02:05:23.097","img/practice_cards/backs/black.gif","2","-100","","",""
"casino-keyboard-response","18","91998","0.0-12.0-0.0","935","true","img/card_backs/set1/green.gif","img/card_backs/set1/purple.gif","img/card_backs/set1/yellow.gif","img/card_backs/set1/red.gif","img/card_backs/set2/gray.gif","img/card_backs/set2/pink.gif","img/card_backs/set2/blue.gif","img/card_backs/set2/orange.gif","""event"",""trial"",""time""
""fullscreenenter"",""1"",""2668""
","
","
","""event"",""trial"",""time""
""fullscreenenter"",""1"",""2668""
","
","","5093.5999999940395","Now on the next screen, try pressing '4' to select the second deck.","52","","instructions","2021-06-27 02:05:28.193","","","","","",""
"card-selection-trial","19","94559","0.0-13.0-0.0","935","true","img/card_backs/set1/green.gif","img/card_backs/set1/purple.gif","img/card_backs/set1/yellow.gif","img/card_backs/set1/red.gif","img/card_backs/set2/gray.gif","img/card_backs/set2/pink.gif","img/card_backs/set2/blue.gif","img/card_backs/set2/orange.gif","""event"",""trial"",""time""
""fullscreenenter"",""1"",""2668""
","
","
","""event"",""trial"",""time""
""fullscreenenter"",""1"",""2668""
","
","","552.5999999940395","","","","practice_card_selection","2021-06-27 02:05:30.754","img/practice_cards/backs/dark_blue.gif","1","200","","",""
"casino-keyboard-response","20","99711","0.0-14.0-0.0","935","true","img/card_backs/set1/green.gif","img/card_backs/set1/purple.gif","img/card_backs/set1/yellow.gif","img/card_backs/set1/red.gif","img/card_backs/set2/gray.gif","img/card_backs/set2/pink.gif","img/card_backs/set2/blue.gif","img/card_backs/set2/orange.gif","""event"",""trial"",""time""
""fullscreenenter"",""1"",""2668""
","
","
","""event"",""trial"",""time""
""fullscreenenter"",""1"",""2668""
","
","","5151.0999999940395","Finally, try pressing '8' to select the deck all the way on the right.","56","","instructions","2021-06-27 02:05:35.907","","","","","",""
"card-selection-trial","21","102233","0.0-15.0-0.0","935","true","img/card_backs/set1/green.gif","img/card_backs/set1/purple.gif","img/card_backs/set1/yellow.gif","img/card_backs/set1/red.gif","img/card_backs/set2/gray.gif","img/card_backs/set2/pink.gif","img/card_backs/set2/blue.gif","img/card_backs/set2/orange.gif","""event"",""trial"",""time""
""fullscreenenter"",""1"",""2668""
","
","
","""event"",""trial"",""time""
""fullscreenenter"",""1"",""2668""
","
","","512.6999999880791","","","","practice_card_selection","2021-06-27 02:05:38.428","img/practice_cards/backs/dark_green.gif","3","200","","",""
"casino-keyboard-response","22","105977","0.0-16.0-0.0","935","true","img/card_backs/set1/green.gif","img/card_backs/set1/purple.gif","img/card_backs/set1/yellow.gif","img/card_backs/set1/red.gif","img/card_backs/set2/gray.gif","img/card_backs/set2/pink.gif","img/card_backs/set2/blue.gif","img/card_backs/set2/orange.gif","""event"",""trial"",""time""
""fullscreenenter"",""1"",""2668""
","
","
","""event"",""trial"",""time""
""fullscreenenter"",""1"",""2668""
","
","","3743.100000023842","Great! It seems like you are getting the hang of this.","80","","instructions","2021-06-27 02:05:42.172","","","","","",""
"casino-keyboard-response","23","113540","0.0-16.0-0.1","935","true","img/card_backs/set1/green.gif","img/card_backs/set1/purple.gif","img/card_backs/set1/yellow.gif","img/card_backs/set1/red.gif","img/card_backs/set2/gray.gif","img/card_backs/set2/pink.gif","img/card_backs/set2/blue.gif","img/card_backs/set2/orange.gif","""event"",""trial"",""time""
""fullscreenenter"",""1"",""2668""
","
","
","""event"",""trial"",""time""
""fullscreenenter"",""1"",""2668""
","
","","7560.5999999940395","You may have noticed that some cards will cause you to <b> win </b> tokens while other cards will cause you to <b> lose </b>  tokens.","70","","instructions","2021-06-27 02:05:49.735","","","","","",""
"casino-keyboard-response","24","122406","0.0-16.0-0.2","935","true","img/card_backs/set1/green.gif","img/card_backs/set1/purple.gif","img/card_backs/set1/yellow.gif","img/card_backs/set1/red.gif","img/card_backs/set2/gray.gif","img/card_backs/set2/pink.gif","img/card_backs/set2/blue.gif","img/card_backs/set2/orange.gif","""event"",""trial"",""time""
""fullscreenenter"",""1"",""2668""
","
","
","""event"",""trial"",""time""
""fullscreenenter"",""1"",""2668""
","
","","8864.699999988079","Each deck has a mix of cards that will cause you to win and lose tokens. </br> However, the cards in each colored deck are different.","73","","instructions","2021-06-27 02:05:58.601","","","","","",""
"casino-keyboard-response","25","134152","0.0-16.0-0.3","935","true","img/card_backs/set1/green.gif","img/card_backs/set1/purple.gif","img/card_backs/set1/yellow.gif","img/card_backs/set1/red.gif","img/card_backs/set2/gray.gif","img/card_backs/set2/pink.gif","img/card_backs/set2/blue.gif","img/card_backs/set2/orange.gif","""event"",""trial"",""time""
""fullscreenenter"",""1"",""2668""
","
","
","""event"",""trial"",""time""
""fullscreenenter"",""1"",""2668""
","
","","11744.09999999404","Some colored decks are luckier than others. </br> If you choose the lucky decks, you will earn more tokens than if you choose the unlucky decks.","69","","instructions","2021-06-27 02:06:10.347","","","","","",""
"casino-keyboard-response","26","141582","0.0-16.0-0.4","935","true","img/card_backs/set1/green.gif","img/card_backs/set1/purple.gif","img/card_backs/set1/yellow.gif","img/card_backs/set1/red.gif","img/card_backs/set2/gray.gif","img/card_backs/set2/pink.gif","img/card_backs/set2/blue.gif","img/card_backs/set2/orange.gif","""event"",""trial"",""time""
""fullscreenenter"",""1"",""2668""
","
","
","""event"",""trial"",""time""
""fullscreenenter"",""1"",""2668""
","
","","7427.300000011921","You should try to figure out which decks are lucky. </br> Then, try to choose the lucky decks so you can win the most tokens.","87","","instructions","2021-06-27 02:06:17.778","","","","","",""
"casino-keyboard-response","27","152691","0.0-16.0-0.5","935","true","img/card_backs/set1/green.gif","img/card_backs/set1/purple.gif","img/card_backs/set1/yellow.gif","img/card_backs/set1/red.gif","img/card_backs/set2/gray.gif","img/card_backs/set2/pink.gif","img/card_backs/set2/blue.gif","img/card_backs/set2/orange.gif","""event"",""trial"",""time""
""fullscreenenter"",""1"",""2668""
","
","
","""event"",""trial"",""time""
""fullscreenenter"",""1"",""2668""
","
","","11106.899999976158","To make it trickier, the casino dealer will switch the locations of the decks on every turn. </br> The color of the deck determines how lucky it is. The location does not matter.","88","","instructions","2021-06-27 02:06:28.886","","","","","",""
"casino-keyboard-response","28","162077","0.0-16.0-0.6","935","true","img/card_backs/set1/green.gif","img/card_backs/set1/purple.gif","img/card_backs/set1/yellow.gif","img/card_backs/set1/red.gif","img/card_backs/set2/gray.gif","img/card_backs/set2/pink.gif","img/card_backs/set2/blue.gif","img/card_backs/set2/orange.gif","""event"",""trial"",""time""
""fullscreenenter"",""1"",""2668""
","
","
","""event"",""trial"",""time""
""fullscreenenter"",""1"",""2668""
","
","","9383.5","The mix of cards in each colored deck will stay the same throughout the game. </br> That means that a deck that is lucky early on will stay lucky.","79","","instructions","2021-06-27 02:06:38.272","","","","","",""
"casino-keyboard-response","29","170152","0.0-16.0-0.7","935","true","img/card_backs/set1/green.gif","img/card_backs/set1/purple.gif","img/card_backs/set1/yellow.gif","img/card_backs/set1/red.gif","img/card_backs/set2/gray.gif","img/card_backs/set2/pink.gif","img/card_backs/set2/blue.gif","img/card_backs/set2/orange.gif","""event"",""trial"",""time""
""fullscreenenter"",""1"",""2668""
","
","
","""event"",""trial"",""time""
""fullscreenenter"",""1"",""2668""
","
","","8072.799999982119","Remember though, all the decks have a <b> mix </b> of both <b> good </b> and <b> bad </b> cards so it may take a couple of turns to figure out if a deck is lucky.","69","","instructions","2021-06-27 02:06:46.347","","","","","",""
"casino-keyboard-response","30","178119","0.0-16.0-0.8","935","true","img/card_backs/set1/green.gif","img/card_backs/set1/purple.gif","img/card_backs/set1/yellow.gif","img/card_backs/set1/red.gif","img/card_backs/set2/gray.gif","img/card_backs/set2/pink.gif","img/card_backs/set2/blue.gif","img/card_backs/set2/orange.gif","""event"",""trial"",""time""
""fullscreenenter"",""1"",""2668""
","
","
","""event"",""trial"",""time""
""fullscreenenter"",""1"",""2668""
","
","","7964.5","At the end of the game, you will be paid bonus money based on how many tokens you win. </br> If you win more tokens, you will earn more money!","72","","instructions","2021-06-27 02:06:54.314","","","","","",""
"casino-keyboard-response","31","188180","0.0-16.0-0.9","935","true","img/card_backs/set1/green.gif","img/card_backs/set1/purple.gif","img/card_backs/set1/yellow.gif","img/card_backs/set1/red.gif","img/card_backs/set2/gray.gif","img/card_backs/set2/pink.gif","img/card_backs/set2/blue.gif","img/card_backs/set2/orange.gif","""event"",""trial"",""time""
""fullscreenenter"",""1"",""2668""
","
","
","""event"",""trial"",""time""
""fullscreenenter"",""1"",""2668""
","
","","10059.100000023842","You will never <b> lose </b> money. </br> If you end up with fewer than 0 tokens, you will earn $0 of bonus money, but you will still be paid for playing the game.","83","","instructions","2021-06-27 02:07:04.375","","","","","",""
"casino-keyboard-response","32","192328","0.0-16.0-0.10","935","true","img/card_backs/set1/green.gif","img/card_backs/set1/purple.gif","img/card_backs/set1/yellow.gif","img/card_backs/set1/red.gif","img/card_backs/set2/gray.gif","img/card_backs/set2/pink.gif","img/card_backs/set2/blue.gif","img/card_backs/set2/orange.gif","""event"",""trial"",""time""
""fullscreenenter"",""1"",""2668""
","
","
","""event"",""trial"",""time""
""fullscreenenter"",""1"",""2668""
","
","","4146.799999982119","You will have 10 seconds to make each choice.","82","","instructions","2021-06-27 02:07:08.523","","","","","",""
"casino-keyboard-response","33","200753","0.0-16.0-0.11","935","true","img/card_backs/set1/green.gif","img/card_backs/set1/purple.gif","img/card_backs/set1/yellow.gif","img/card_backs/set1/red.gif","img/card_backs/set2/gray.gif","img/card_backs/set2/pink.gif","img/card_backs/set2/blue.gif","img/card_backs/set2/orange.gif","""event"",""trial"",""time""
""fullscreenenter"",""1"",""2668""
","
","
","""event"",""trial"",""time""
""fullscreenenter"",""1"",""2668""
","
","","8421.799999982119","Before you play the game for real, you will play with practice decks. </br> The tokens you earn during practice won't count toward your total.","86","","instructions","2021-06-27 02:07:16.948","","","","","",""
"casino-keyboard-response","34","205543","0.0-16.0-0.12","935","true","img/card_backs/set1/green.gif","img/card_backs/set1/purple.gif","img/card_backs/set1/yellow.gif","img/card_backs/set1/red.gif","img/card_backs/set2/gray.gif","img/card_backs/set2/pink.gif","img/card_backs/set2/blue.gif","img/card_backs/set2/orange.gif","""event"",""trial"",""time""
""fullscreenenter"",""1"",""2668""
","
","
","""event"",""trial"",""time""
""fullscreenenter"",""1"",""2668""
","
","","4788.300000011921","Ready? Remember, use the '2', '4', '6', and '8' keys to select the decks. </br> Put your fingers on those keys now and then press '2' to begin.","50","","instructions","2021-06-27 02:07:21.738","","","","","",""
"casino-fixation","35","206047","0.0-17.0-0.0","935","true","img/card_backs/set1/green.gif","img/card_backs/set1/purple.gif","img/card_backs/set1/yellow.gif","img/card_backs/set1/red.gif","img/card_backs/set2/gray.gif","img/card_backs/set2/pink.gif","img/card_backs/set2/blue.gif","img/card_backs/set2/orange.gif","""event"",""trial"",""time""
""fullscreenenter"",""1"",""2668""
","
","
","""event"",""trial"",""time""
""fullscreenenter"",""1"",""2668""
","
","","null","","null","","fixation","2021-06-27 02:07:22.242","","","","","",""
"card-selection-trial","36","210094","0.0-17.0-1.0","935","true","img/card_backs/set1/green.gif","img/card_backs/set1/purple.gif","img/card_backs/set1/yellow.gif","img/card_backs/set1/red.gif","img/card_backs/set2/gray.gif","img/card_backs/set2/pink.gif","img/card_backs/set2/blue.gif","img/card_backs/set2/orange.gif","""event"",""trial"",""time""
""fullscreenenter"",""1"",""2668""
","
","
","""event"",""trial"",""time""
""fullscreenenter"",""1"",""2668""
","
","","2039.5","","","","practice","2021-06-27 02:07:26.289","img/practice_cards/backs/black.gif","0","100","0","",""
"casino-fixation","37","210597","0.0-17.0-0.1","935","true","img/card_backs/set1/green.gif","img/card_backs/set1/purple.gif","img/card_backs/set1/yellow.gif","img/card_backs/set1/red.gif","img/card_backs/set2/gray.gif","img/card_backs/set2/pink.gif","img/card_backs/set2/blue.gif","img/card_backs/set2/orange.gif","""event"",""trial"",""time""
""fullscreenenter"",""1"",""2668""
","
","
","""event"",""trial"",""time""
""fullscreenenter"",""1"",""2668""
","
","","null","","null","","fixation","2021-06-27 02:07:26.792","","","","","",""
"card-selection-trial","38","213361","0.0-17.0-1.1","935","true","img/card_backs/set1/green.gif","img/card_backs/set1/purple.gif","img/card_backs/set1/yellow.gif","img/card_backs/set1/red.gif","img/card_backs/set2/gray.gif","img/card_backs/set2/pink.gif","img/card_backs/set2/blue.gif","img/card_backs/set2/orange.gif","""event"",""trial"",""time""
""fullscreenenter"",""1"",""2668""
","
","
","""event"",""trial"",""time""
""fullscreenenter"",""1"",""2668""
","
","","756.8000000119209","","","","practice","2021-06-27 02:07:29.556","img/practice_cards/backs/brown.gif","1","-100","0","",""
"casino-fixation","39","213864","0.0-17.0-0.2","935","true","img/card_backs/set1/green.gif","img/card_backs/set1/purple.gif","img/card_backs/set1/yellow.gif","img/card_backs/set1/red.gif","img/card_backs/set2/gray.gif","img/card_backs/set2/pink.gif","img/card_backs/set2/blue.gif","img/card_backs/set2/orange.gif","""event"",""trial"",""time""
""fullscreenenter"",""1"",""2668""
","
","
","""event"",""trial"",""time""
""fullscreenenter"",""1"",""2668""
","
","","null","","null","","fixation","2021-06-27 02:07:30.060","","","","","",""
"card-selection-trial","40","218348","0.0-17.0-1.2","935","true","img/card_backs/set1/green.gif","img/card_backs/set1/purple.gif","img/card_backs/set1/yellow.gif","img/card_backs/set1/red.gif","img/card_backs/set2/gray.gif","img/card_backs/set2/pink.gif","img/card_backs/set2/blue.gif","img/card_backs/set2/orange.gif","""event"",""trial"",""time""
""fullscreenenter"",""1"",""2668""
","
","
","""event"",""trial"",""time""
""fullscreenenter"",""1"",""2668""
","
","","2474.9000000059605","","","","practice","2021-06-27 02:07:34.544","img/practice_cards/backs/dark_green.gif","2","200","0","",""
"casino-fixation","41","218851","0.0-17.0-0.3","935","true","img/card_backs/set1/green.gif","img/card_backs/set1/purple.gif","img/card_backs/set1/yellow.gif","img/card_backs/set1/red.gif","img/card_backs/set2/gray.gif","img/card_backs/set2/pink.gif","img/card_backs/set2/blue.gif","img/card_backs/set2/orange.gif","""event"",""trial"",""time""
""fullscreenenter"",""1"",""2668""
","
","
","""event"",""trial"",""time""
""fullscreenenter"",""1"",""2668""
","
","","null","","null","","fixation","2021-06-27 02:07:35.046","","","","","",""
"card-selection-trial","42","222394","0.0-17.0-1.3","935","true","img/card_backs/set1/green.gif","img/card_backs/set1/purple.gif","img/card_backs/set1/yellow.gif","img/card_backs/set1/red.gif","img/card_backs/set2/gray.gif","img/card_backs/set2/pink.gif","img/card_backs/set2/blue.gif","img/card_backs/set2/orange.gif","""event"",""trial"",""time""
""fullscreenenter"",""1"",""2668""
","
","
","""event"",""trial"",""time""
""fullscreenenter"",""1"",""2668""
","
","","1532.5","","","","practice","2021-06-27 02:07:38.589","img/practice_cards/backs/dark_green.gif","0","-200","0","",""
"casino-fixation","43","222897","0.0-17.0-0.4","935","true","img/card_backs/set1/green.gif","img/card_backs/set1/purple.gif","img/card_backs/set1/yellow.gif","img/card_backs/set1/red.gif","img/card_backs/set2/gray.gif","img/card_backs/set2/pink.gif","img/card_backs/set2/blue.gif","img/card_backs/set2/orange.gif","""event"",""trial"",""time""
""fullscreenenter"",""1"",""2668""
","
","
","""event"",""trial"",""time""
""fullscreenenter"",""1"",""2668""
","
","","null","","null","","fixation","2021-06-27 02:07:39.092","","","","","",""
"card-selection-trial","44","227600","0.0-17.0-1.4","935","true","img/card_backs/set1/green.gif","img/card_backs/set1/purple.gif","img/card_backs/set1/yellow.gif","img/card_backs/set1/red.gif","img/card_backs/set2/gray.gif","img/card_backs/set2/pink.gif","img/card_backs/set2/blue.gif","img/card_backs/set2/orange.gif","""event"",""trial"",""time""
""fullscreenenter"",""1"",""2668""
","
","
","""event"",""trial"",""time""
""fullscreenenter"",""1"",""2668""
","
","","2692","","","","practice","2021-06-27 02:07:43.795","img/practice_cards/backs/dark_green.gif","2","-200","0","",""
"casino-fixation","45","228104","0.0-17.0-0.5","935","true","img/card_backs/set1/green.gif","img/card_backs/set1/purple.gif","img/card_backs/set1/yellow.gif","img/card_backs/set1/red.gif","img/card_backs/set2/gray.gif","img/card_backs/set2/pink.gif","img/card_backs/set2/blue.gif","img/card_backs/set2/orange.gif","""event"",""trial"",""time""
""fullscreenenter"",""1"",""2668""
","
","
","""event"",""trial"",""time""
""fullscreenenter"",""1"",""2668""
","
","","null","","null","","fixation","2021-06-27 02:07:44.299","","","","","",""
"card-selection-trial","46","231756","0.0-17.0-1.5","935","true","img/card_backs/set1/green.gif","img/card_backs/set1/purple.gif","img/card_backs/set1/yellow.gif","img/card_backs/set1/red.gif","img/card_backs/set2/gray.gif","img/card_backs/set2/pink.gif","img/card_backs/set2/blue.gif","img/card_backs/set2/orange.gif","""event"",""trial"",""time""
""fullscreenenter"",""1"",""2668""
","
","
","""event"",""trial"",""time""
""fullscreenenter"",""1"",""2668""
","
","","1640.4000000059605","","","","practice","2021-06-27 02:07:47.951","img/practice_cards/backs/black.gif","1","-100","0","",""
"casino-fixation","47","232261","0.0-17.0-0.6","935","true","img/card_backs/set1/green.gif","img/card_backs/set1/purple.gif","img/card_backs/set1/yellow.gif","img/card_backs/set1/red.gif","img/card_backs/set2/gray.gif","img/card_backs/set2/pink.gif","img/card_backs/set2/blue.gif","img/card_backs/set2/orange.gif","""event"",""trial"",""time""
""fullscreenenter"",""1"",""2668""
","
","
","""event"",""trial"",""time""
""fullscreenenter"",""1"",""2668""
","
","","null","","null","","fixation","2021-06-27 02:07:48.456","","","","","",""
"card-selection-trial","48","234915","0.0-17.0-1.6","935","true","img/card_backs/set1/green.gif","img/card_backs/set1/purple.gif","img/card_backs/set1/yellow.gif","img/card_backs/set1/red.gif","img/card_backs/set2/gray.gif","img/card_backs/set2/pink.gif","img/card_backs/set2/blue.gif","img/card_backs/set2/orange.gif","""event"",""trial"",""time""
""fullscreenenter"",""1"",""2668""
","
","
","""event"",""trial"",""time""
""fullscreenenter"",""1"",""2668""
","
","","647.5999999940395","","","","practice","2021-06-27 02:07:51.110","img/practice_cards/backs/black.gif","1","100","0","",""
"casino-fixation","49","235419","0.0-17.0-0.7","935","true","img/card_backs/set1/green.gif","img/card_backs/set1/purple.gif","img/card_backs/set1/yellow.gif","img/card_backs/set1/red.gif","img/card_backs/set2/gray.gif","img/card_backs/set2/pink.gif","img/card_backs/set2/blue.gif","img/card_backs/set2/orange.gif","""event"",""trial"",""time""
""fullscreenenter"",""1"",""2668""
","
","
","""event"",""trial"",""time""
""fullscreenenter"",""1"",""2668""
","
","","null","","null","","fixation","2021-06-27 02:07:51.614","","","","","",""
"card-selection-trial","50","239239","0.0-17.0-1.7","935","true","img/card_backs/set1/green.gif","img/card_backs/set1/purple.gif","img/card_backs/set1/yellow.gif","img/card_backs/set1/red.gif","img/card_backs/set2/gray.gif","img/card_backs/set2/pink.gif","img/card_backs/set2/blue.gif","img/card_backs/set2/orange.gif","""event"",""trial"",""time""
""fullscreenenter"",""1"",""2668""
","
","
","""event"",""trial"",""time""
""fullscreenenter"",""1"",""2668""
","
","","1811.9000000059605","","","","practice","2021-06-27 02:07:55.435","img/practice_cards/backs/black.gif","3","-100","0","",""
"casino-fixation","51","239745","0.0-17.0-0.8","935","true","img/card_backs/set1/green.gif","img/card_backs/set1/purple.gif","img/card_backs/set1/yellow.gif","img/card_backs/set1/red.gif","img/card_backs/set2/gray.gif","img/card_backs/set2/pink.gif","img/card_backs/set2/blue.gif","img/card_backs/set2/orange.gif","""event"",""trial"",""time""
""fullscreenenter"",""1"",""2668""
","
","
","""event"",""trial"",""time""
""fullscreenenter"",""1"",""2668""
","
","","null","","null","","fixation","2021-06-27 02:07:55.940","","","","","",""
"card-selection-trial","52","243147","0.0-17.0-1.8","935","true","img/card_backs/set1/green.gif","img/card_backs/set1/purple.gif","img/card_backs/set1/yellow.gif","img/card_backs/set1/red.gif","img/card_backs/set2/gray.gif","img/card_backs/set2/pink.gif","img/card_backs/set2/blue.gif","img/card_backs/set2/orange.gif","""event"",""trial"",""time""
""fullscreenenter"",""1"",""2668""
","
","
","""event"",""trial"",""time""
""fullscreenenter"",""1"",""2668""
","
","","1393.7000000178814","","","","practice","2021-06-27 02:07:59.342","img/practice_cards/backs/dark_blue.gif","2","200","0","",""
"casino-fixation","53","243651","0.0-17.0-0.9","935","true","img/card_backs/set1/green.gif","img/card_backs/set1/purple.gif","img/card_backs/set1/yellow.gif","img/card_backs/set1/red.gif","img/card_backs/set2/gray.gif","img/card_backs/set2/pink.gif","img/card_backs/set2/blue.gif","img/card_backs/set2/orange.gif","""event"",""trial"",""time""
""fullscreenenter"",""1"",""2668""
","
","
","""event"",""trial"",""time""
""fullscreenenter"",""1"",""2668""
","
","","null","","null","","fixation","2021-06-27 02:07:59.846","","","","","",""
"card-selection-trial","54","246556","0.0-17.0-1.9","935","true","img/card_backs/set1/green.gif","img/card_backs/set1/purple.gif","img/card_backs/set1/yellow.gif","img/card_backs/set1/red.gif","img/card_backs/set2/gray.gif","img/card_backs/set2/pink.gif","img/card_backs/set2/blue.gif","img/card_backs/set2/orange.gif","""event"",""trial"",""time""
""fullscreenenter"",""1"",""2668""
","
","
","""event"",""trial"",""time""
""fullscreenenter"",""1"",""2668""
","
","","897.5","","","","practice","2021-06-27 02:08:02.751","img/practice_cards/backs/dark_blue.gif","2","-200","0","",""
"casino-keyboard-response","55","249903","0.0-18.0","935","true","img/card_backs/set1/green.gif","img/card_backs/set1/purple.gif","img/card_backs/set1/yellow.gif","img/card_backs/set1/red.gif","img/card_backs/set2/gray.gif","img/card_backs/set2/pink.gif","img/card_backs/set2/blue.gif","img/card_backs/set2/orange.gif","""event"",""trial"",""time""
""fullscreenenter"",""1"",""2668""
","
","
","""event"",""trial"",""time""
""fullscreenenter"",""1"",""2668""
","
","","3343.800000011921","You earned -300 tokens during the practice round!","82","","","2021-06-27 02:08:06.098","","","","","",""
"casino-keyboard-response","56","254198","0.0-19.0-0.0","935","true","img/card_backs/set1/green.gif","img/card_backs/set1/purple.gif","img/card_backs/set1/yellow.gif","img/card_backs/set1/red.gif","img/card_backs/set2/gray.gif","img/card_backs/set2/pink.gif","img/card_backs/set2/blue.gif","img/card_backs/set2/orange.gif","""event"",""trial"",""time""
""fullscreenenter"",""1"",""2668""
","
","
","""event"",""trial"",""time""
""fullscreenenter"",""1"",""2668""
","
","","4293.699999988079","Nice job! You are almost ready to play the real game.","86","","instructions","2021-06-27 02:08:10.393","","","","","",""
"casino-keyboard-response","57","260913","0.0-19.0-0.1","935","true","img/card_backs/set1/green.gif","img/card_backs/set1/purple.gif","img/card_backs/set1/yellow.gif","img/card_backs/set1/red.gif","img/card_backs/set2/gray.gif","img/card_backs/set2/pink.gif","img/card_backs/set2/blue.gif","img/card_backs/set2/orange.gif","""event"",""trial"",""time""
""fullscreenenter"",""1"",""2668""
","
","
","""event"",""trial"",""time""
""fullscreenenter"",""1"",""2668""
","
","","6713.100000023842","You will play two rounds of the real game. In each round, you will pick 100 cards in total.","73","","instructions","2021-06-27 02:08:17.108","","","","","",""
"casino-keyboard-response","58","264825","0.0-19.0-0.2","935","true","img/card_backs/set1/green.gif","img/card_backs/set1/purple.gif","img/card_backs/set1/yellow.gif","img/card_backs/set1/red.gif","img/card_backs/set2/gray.gif","img/card_backs/set2/pink.gif","img/card_backs/set2/blue.gif","img/card_backs/set2/orange.gif","""event"",""trial"",""time""
""fullscreenenter"",""1"",""2668""
","
","
","""event"",""trial"",""time""
""fullscreenenter"",""1"",""2668""
","
","","3909.699999988079","We are now going to ask you some questions about how the game works.","66","","instructions","2021-06-27 02:08:21.020","","","","","",""
"casino-keyboard-response","59","270820","0.0-19.0-0.3","935","true","img/card_backs/set1/green.gif","img/card_backs/set1/purple.gif","img/card_backs/set1/yellow.gif","img/card_backs/set1/red.gif","img/card_backs/set2/gray.gif","img/card_backs/set2/pink.gif","img/card_backs/set2/blue.gif","img/card_backs/set2/orange.gif","""event"",""trial"",""time""
""fullscreenenter"",""1"",""2668""
","
","
","""event"",""trial"",""time""
""fullscreenenter"",""1"",""2668""
","
","","5993.799999982119","Answer carefully. You will not be able to begin the game until you answer them correctly.","67","","instructions","2021-06-27 02:08:27.015","","","","","",""
"casino-comp_q","60","277498","0.0-20.0-0.0","935","true","img/card_backs/set1/green.gif","img/card_backs/set1/purple.gif","img/card_backs/set1/yellow.gif","img/card_backs/set1/red.gif","img/card_backs/set2/gray.gif","img/card_backs/set2/pink.gif","img/card_backs/set2/blue.gif","img/card_backs/set2/orange.gif","""event"",""trial"",""time""
""fullscreenenter"",""1"",""2668""
","
","
","""event"",""trial"",""time""
""fullscreenenter"",""1"",""2668""
","
","","6675","True or False: All the decks have some cards that cause you to win tokens and some cards that cause you to lose tokens.","84","","","2021-06-27 02:08:33.693","","","","","",""
"casino-keyboard-response","61","281889","0.0-20.0-1.0","935","true","img/card_backs/set1/green.gif","img/card_backs/set1/purple.gif","img/card_backs/set1/yellow.gif","img/card_backs/set1/red.gif","img/card_backs/set2/gray.gif","img/card_backs/set2/pink.gif","img/card_backs/set2/blue.gif","img/card_backs/set2/orange.gif","""event"",""trial"",""time""
""fullscreenenter"",""1"",""2668""
","
","
","""event"",""trial"",""time""
""fullscreenenter"",""1"",""2668""
","
","","4388.799999982119","True is correct! All the decks have a mix of winning and losing cards.","77","","","2021-06-27 02:08:38.084","","","","","true",""
"casino-comp_q","62","284842","0.0-21.0-0.0","935","true","img/card_backs/set1/green.gif","img/card_backs/set1/purple.gif","img/card_backs/set1/yellow.gif","img/card_backs/set1/red.gif","img/card_backs/set2/gray.gif","img/card_backs/set2/pink.gif","img/card_backs/set2/blue.gif","img/card_backs/set2/orange.gif","""event"",""trial"",""time""
""fullscreenenter"",""1"",""2668""
","
","
","""event"",""trial"",""time""
""fullscreenenter"",""1"",""2668""
","
","","2951.4000000059605","True or False: You will have as much time as you want to make your response.","70","","","2021-06-27 02:08:41.038","","","","","",""
"casino-keyboard-response","63","287649","0.0-21.0-1.0","935","true","img/card_backs/set1/green.gif","img/card_backs/set1/purple.gif","img/card_backs/set1/yellow.gif","img/card_backs/set1/red.gif","img/card_backs/set2/gray.gif","img/card_backs/set2/pink.gif","img/card_backs/set2/blue.gif","img/card_backs/set2/orange.gif","""event"",""trial"",""time""
""fullscreenenter"",""1"",""2668""
","
","
","""event"",""trial"",""time""
""fullscreenenter"",""1"",""2668""
","
","","2804","False is correct! You will only have 10 seconds to make each choice.","75","","","2021-06-27 02:08:43.844","","","","","true",""
"casino-comp_q","64","290368","0.0-22.0-0.0","935","true","img/card_backs/set1/green.gif","img/card_backs/set1/purple.gif","img/card_backs/set1/yellow.gif","img/card_backs/set1/red.gif","img/card_backs/set2/gray.gif","img/card_backs/set2/pink.gif","img/card_backs/set2/blue.gif","img/card_backs/set2/orange.gif","""event"",""trial"",""time""
""fullscreenenter"",""1"",""2668""
","
","
","""event"",""trial"",""time""
""fullscreenenter"",""1"",""2668""
","
","","2716.5","True or False: The location of the deck determines how lucky it is.","70","","","2021-06-27 02:08:46.563","","","","","",""
"casino-keyboard-response","65","294214","0.0-22.0-1.0","935","true","img/card_backs/set1/green.gif","img/card_backs/set1/purple.gif","img/card_backs/set1/yellow.gif","img/card_backs/set1/red.gif","img/card_backs/set2/gray.gif","img/card_backs/set2/pink.gif","img/card_backs/set2/blue.gif","img/card_backs/set2/orange.gif","""event"",""trial"",""time""
""fullscreenenter"",""1"",""2668""
","
","
","""event"",""trial"",""time""
""fullscreenenter"",""1"",""2668""
","
","","3844.899999976158","False is correct! The <i>color</i>  of the deck determines how lucky or unlucky it is.","68","","","2021-06-27 02:08:50.409","","","","","true",""
"casino-keyboard-response","66","298176","0.0-23.0-0.0","935","true","img/card_backs/set1/green.gif","img/card_backs/set1/purple.gif","img/card_backs/set1/yellow.gif","img/card_backs/set1/red.gif","img/card_backs/set2/gray.gif","img/card_backs/set2/pink.gif","img/card_backs/set2/blue.gif","img/card_backs/set2/orange.gif","""event"",""trial"",""time""
""fullscreenenter"",""1"",""2668""
","
","
","""event"",""trial"",""time""
""fullscreenenter"",""1"",""2668""
","
","","3959.800000011921","Great job! Now it's time to start the real game.","82","","instructions","2021-06-27 02:08:54.372","","","","","",""
"casino-keyboard-response","67","303177","0.0-23.0-0.1","935","true","img/card_backs/set1/green.gif","img/card_backs/set1/purple.gif","img/card_backs/set1/yellow.gif","img/card_backs/set1/red.gif","img/card_backs/set2/gray.gif","img/card_backs/set2/pink.gif","img/card_backs/set2/blue.gif","img/card_backs/set2/orange.gif","""event"",""trial"",""time""
""fullscreenenter"",""1"",""2668""
","
","
","""event"",""trial"",""time""
""fullscreenenter"",""1"",""2668""
","
","","4999.199999988079","Before we start, we're going to head into a new room of the casino.","86","","instructions","2021-06-27 02:08:59.372","","","","","",""
"casino-keyboard-response","68","309269","0.0-24.0-0.0","935","true","img/card_backs/set1/green.gif","img/card_backs/set1/purple.gif","img/card_backs/set1/yellow.gif","img/card_backs/set1/red.gif","img/card_backs/set2/gray.gif","img/card_backs/set2/pink.gif","img/card_backs/set2/blue.gif","img/card_backs/set2/orange.gif","""event"",""trial"",""time""
""fullscreenenter"",""1"",""2668""
","
","
","""event"",""trial"",""time""
""fullscreenenter"",""1"",""2668""
","
","","6090.9000000059605","Here we are! The real game will use different cards, but the rules will be the same.","71","","instructions","2021-06-27 02:09:05.464","","","","","",""
"casino-keyboard-response","69","314659","0.0-24.0-0.1","935","true","img/card_backs/set1/green.gif","img/card_backs/set1/purple.gif","img/card_backs/set1/yellow.gif","img/card_backs/set1/red.gif","img/card_backs/set2/gray.gif","img/card_backs/set2/pink.gif","img/card_backs/set2/blue.gif","img/card_backs/set2/orange.gif","""event"",""trial"",""time""
""fullscreenenter"",""1"",""2668""
","
","
","""event"",""trial"",""time""
""fullscreenenter"",""1"",""2668""
","
","","5388.4000000059605","Ready? Put your fingers over the '2', '4', 6', and '8' keys so you are ready to play the game. </br> Then press 2 to start.","50","","instructions","2021-06-27 02:09:10.855","","","","","",""
"casino-fixation","70","315163","0.0-25.0-0.0","935","true","img/card_backs/set1/green.gif","img/card_backs/set1/purple.gif","img/card_backs/set1/yellow.gif","img/card_backs/set1/red.gif","img/card_backs/set2/gray.gif","img/card_backs/set2/pink.gif","img/card_backs/set2/blue.gif","img/card_backs/set2/orange.gif","""event"",""trial"",""time""
""fullscreenenter"",""1"",""2668""
","
","
","""event"",""trial"",""time""
""fullscreenenter"",""1"",""2668""
","
","","null","","null","","fixation","2021-06-27 02:09:11.358","","","","","",""
"card-selection-trial","71","318496","0.0-25.0-1.0","935","true","img/card_backs/set1/green.gif","img/card_backs/set1/purple.gif","img/card_backs/set1/yellow.gif","img/card_backs/set1/red.gif","img/card_backs/set2/gray.gif","img/card_backs/set2/pink.gif","img/card_backs/set2/blue.gif","img/card_backs/set2/orange.gif","""event"",""trial"",""time""
""fullscreenenter"",""1"",""2668""
","
","
","""event"",""trial"",""time""
""fullscreenenter"",""1"",""2668""
","
","","1323.7000000178814","","","","real_trial","2021-06-27 02:09:14.692","img/card_backs/set1/purple.gif","0","-210","1","",""
"casino-fixation","72","319004","0.0-25.0-0.1","935","true","img/card_backs/set1/green.gif","img/card_backs/set1/purple.gif","img/card_backs/set1/yellow.gif","img/card_backs/set1/red.gif","img/card_backs/set2/gray.gif","img/card_backs/set2/pink.gif","img/card_backs/set2/blue.gif","img/card_backs/set2/orange.gif","""event"",""trial"",""time""
""fullscreenenter"",""1"",""2668""
","
","
","""event"",""trial"",""time""
""fullscreenenter"",""1"",""2668""
","
","","null","","null","","fixation","2021-06-27 02:09:15.199","","","","","",""
"card-selection-trial","73","322001","0.0-25.0-1.1","935","true","img/card_backs/set1/green.gif","img/card_backs/set1/purple.gif","img/card_backs/set1/yellow.gif","img/card_backs/set1/red.gif","img/card_backs/set2/gray.gif","img/card_backs/set2/pink.gif","img/card_backs/set2/blue.gif","img/card_backs/set2/orange.gif","""event"",""trial"",""time""
""fullscreenenter"",""1"",""2668""
","
","
","""event"",""trial"",""time""
""fullscreenenter"",""1"",""2668""
","
","","987.5","","","","real_trial","2021-06-27 02:09:18.196","img/card_backs/set1/purple.gif","1","250","1","",""
"casino-fixation","74","322504","0.0-25.0-0.2","935","true","img/card_backs/set1/green.gif","img/card_backs/set1/purple.gif","img/card_backs/set1/yellow.gif","img/card_backs/set1/red.gif","img/card_backs/set2/gray.gif","img/card_backs/set2/pink.gif","img/card_backs/set2/blue.gif","img/card_backs/set2/orange.gif","""event"",""trial"",""time""
""fullscreenenter"",""1"",""2668""
","
","
","""event"",""trial"",""time""
""fullscreenenter"",""1"",""2668""
","
","","null","","null","","fixation","2021-06-27 02:09:18.699","","","","","",""
"card-selection-trial","75","325297","0.0-25.0-1.2","935","true","img/card_backs/set1/green.gif","img/card_backs/set1/purple.gif","img/card_backs/set1/yellow.gif","img/card_backs/set1/red.gif","img/card_backs/set2/gray.gif","img/card_backs/set2/pink.gif","img/card_backs/set2/blue.gif","img/card_backs/set2/orange.gif","""event"",""trial"",""time""
""fullscreenenter"",""1"",""2668""
","
","
","""event"",""trial"",""time""
""fullscreenenter"",""1"",""2668""
","
","","785.7000000178814","","","","real_trial","2021-06-27 02:09:21.492","img/card_backs/set1/green.gif","2","-210","1","",""
"casino-fixation","76","325802","0.0-25.0-0.3","935","true","img/card_backs/set1/green.gif","img/card_backs/set1/purple.gif","img/card_backs/set1/yellow.gif","img/card_backs/set1/red.gif","img/card_backs/set2/gray.gif","img/card_backs/set2/pink.gif","img/card_backs/set2/blue.gif","img/card_backs/set2/orange.gif","""event"",""trial"",""time""
""fullscreenenter"",""1"",""2668""
","
","
","""event"",""trial"",""time""
""fullscreenenter"",""1"",""2668""
","
","","null","","null","","fixation","2021-06-27 02:09:21.997","","","","","",""
"card-selection-trial","77","329013","0.0-25.0-1.3","935","true","img/card_backs/set1/green.gif","img/card_backs/set1/purple.gif","img/card_backs/set1/yellow.gif","img/card_backs/set1/red.gif","img/card_backs/set2/gray.gif","img/card_backs/set2/pink.gif","img/card_backs/set2/blue.gif","img/card_backs/set2/orange.gif","""event"",""trial"",""time""
""fullscreenenter"",""1"",""2668""
","
","
","""event"",""trial"",""time""
""fullscreenenter"",""1"",""2668""
","
","","1202.9000000059605","","","","real_trial","2021-06-27 02:09:25.208","img/card_backs/set1/yellow.gif","3","60","1","",""
"casino-fixation","78","329517","0.0-25.0-0.4","935","true","img/card_backs/set1/green.gif","img/card_backs/set1/purple.gif","img/card_backs/set1/yellow.gif","img/card_backs/set1/red.gif","img/card_backs/set2/gray.gif","img/card_backs/set2/pink.gif","img/card_backs/set2/blue.gif","img/card_backs/set2/orange.gif","""event"",""trial"",""time""
""fullscreenenter"",""1"",""2668""
","
","
","""event"",""trial"",""time""
""fullscreenenter"",""1"",""2668""
","
","","null","","null","","fixation","2021-06-27 02:09:25.712","","","","","",""
"card-selection-trial","79","332863","0.0-25.0-1.4","935","true","img/card_backs/set1/green.gif","img/card_backs/set1/purple.gif","img/card_backs/set1/yellow.gif","img/card_backs/set1/red.gif","img/card_backs/set2/gray.gif","img/card_backs/set2/pink.gif","img/card_backs/set2/blue.gif","img/card_backs/set2/orange.gif","""event"",""trial"",""time""
""fullscreenenter"",""1"",""2668""
","
","
","""event"",""trial"",""time""
""fullscreenenter"",""1"",""2668""
","
","","1340","","","","real_trial","2021-06-27 02:09:29.058","img/card_backs/set1/yellow.gif","1","-110","1","",""
"casino-fixation","80","333366","0.0-25.0-0.5","935","true","img/card_backs/set1/green.gif","img/card_backs/set1/purple.gif","img/card_backs/set1/yellow.gif","img/card_backs/set1/red.gif","img/card_backs/set2/gray.gif","img/card_backs/set2/pink.gif","img/card_backs/set2/blue.gif","img/card_backs/set2/orange.gif","""event"",""trial"",""time""
""fullscreenenter"",""1"",""2668""
","
","
","""event"",""trial"",""time""
""fullscreenenter"",""1"",""2668""
","
","","null","","null","","fixation","2021-06-27 02:09:29.561","","","","","",""
"card-selection-trial","81","336217","0.0-25.0-1.5","935","true","img/card_backs/set1/green.gif","img/card_backs/set1/purple.gif","img/card_backs/set1/yellow.gif","img/card_backs/set1/red.gif","img/card_backs/set2/gray.gif","img/card_backs/set2/pink.gif","img/card_backs/set2/blue.gif","img/card_backs/set2/orange.gif","""event"",""trial"",""time""
""fullscreenenter"",""1"",""2668""
","
","
","""event"",""trial"",""time""
""fullscreenenter"",""1"",""2668""
","
","","843.3000000119209","","","","real_trial","2021-06-27 02:09:32.412","img/card_backs/set1/purple.gif","0","-210","1","",""
"casino-fixation","82","336721","0.0-25.0-0.6","935","true","img/card_backs/set1/green.gif","img/card_backs/set1/purple.gif","img/card_backs/set1/yellow.gif","img/card_backs/set1/red.gif","img/card_backs/set2/gray.gif","img/card_backs/set2/pink.gif","img/card_backs/set2/blue.gif","img/card_backs/set2/orange.gif","""event"",""trial"",""time""
""fullscreenenter"",""1"",""2668""
","
","
","""event"",""trial"",""time""
""fullscreenenter"",""1"",""2668""
","
","","null","","null","","fixation","2021-06-27 02:09:32.916","","","","","",""
"card-selection-trial","83","339889","0.0-25.0-1.6","935","true","img/card_backs/set1/green.gif","img/card_backs/set1/purple.gif","img/card_backs/set1/yellow.gif","img/card_backs/set1/red.gif","img/card_backs/set2/gray.gif","img/card_backs/set2/pink.gif","img/card_backs/set2/blue.gif","img/card_backs/set2/orange.gif","""event"",""trial"",""time""
""fullscreenenter"",""1"",""2668""
","
","
","""event"",""trial"",""time""
""fullscreenenter"",""1"",""2668""
","
","","1163","","","","real_trial","2021-06-27 02:09:36.084","img/card_backs/set1/purple.gif","3","-210","1","",""
"casino-fixation","84","340395","0.0-25.0-0.7","935","true","img/card_backs/set1/green.gif","img/card_backs/set1/purple.gif","img/card_backs/set1/yellow.gif","img/card_backs/set1/red.gif","img/card_backs/set2/gray.gif","img/card_backs/set2/pink.gif","img/card_backs/set2/blue.gif","img/card_backs/set2/orange.gif","""event"",""trial"",""time""
""fullscreenenter"",""1"",""2668""
","
","
","""event"",""trial"",""time""
""fullscreenenter"",""1"",""2668""
","
","","null","","null","","fixation","2021-06-27 02:09:36.591","","","","","",""
"card-selection-trial","85","344030","0.0-25.0-1.7","935","true","img/card_backs/set1/green.gif","img/card_backs/set1/purple.gif","img/card_backs/set1/yellow.gif","img/card_backs/set1/red.gif","img/card_backs/set2/gray.gif","img/card_backs/set2/pink.gif","img/card_backs/set2/blue.gif","img/card_backs/set2/orange.gif","""event"",""trial"",""time""
""fullscreenenter"",""1"",""2668""
","
","
","""event"",""trial"",""time""
""fullscreenenter"",""1"",""2668""
","
","","1624.800000011921","","","","real_trial","2021-06-27 02:09:40.225","img/card_backs/set1/green.gif","0","250","1","",""
"casino-fixation","86","344534","0.0-25.0-0.8","935","true","img/card_backs/set1/green.gif","img/card_backs/set1/purple.gif","img/card_backs/set1/yellow.gif","img/card_backs/set1/red.gif","img/card_backs/set2/gray.gif","img/card_backs/set2/pink.gif","img/card_backs/set2/blue.gif","img/card_backs/set2/orange.gif","""event"",""trial"",""time""
""fullscreenenter"",""1"",""2668""
","
","
","""event"",""trial"",""time""
""fullscreenenter"",""1"",""2668""
","
","","null","","null","","fixation","2021-06-27 02:09:40.730","","","","","",""
"card-selection-trial","87","348443","0.0-25.0-1.8","935","true","img/card_backs/set1/green.gif","img/card_backs/set1/purple.gif","img/card_backs/set1/yellow.gif","img/card_backs/set1/red.gif","img/card_backs/set2/gray.gif","img/card_backs/set2/pink.gif","img/card_backs/set2/blue.gif","img/card_backs/set2/orange.gif","""event"",""trial"",""time""
""fullscreenenter"",""1"",""2668""
","
","
","""event"",""trial"",""time""
""fullscreenenter"",""1"",""2668""
","
","","1897.5999999940395","","","","real_trial","2021-06-27 02:09:44.638","img/card_backs/set1/green.gif","3","250","1","",""
"casino-fixation","88","348947","0.0-25.0-0.9","935","true","img/card_backs/set1/green.gif","img/card_backs/set1/purple.gif","img/card_backs/set1/yellow.gif","img/card_backs/set1/red.gif","img/card_backs/set2/gray.gif","img/card_backs/set2/pink.gif","img/card_backs/set2/blue.gif","img/card_backs/set2/orange.gif","""event"",""trial"",""time""
""fullscreenenter"",""1"",""2668""
","
","
","""event"",""trial"",""time""
""fullscreenenter"",""1"",""2668""
","
","","null","","null","","fixation","2021-06-27 02:09:45.142","","","","","",""
"card-selection-trial","89","351839","0.0-25.0-1.9","935","true","img/card_backs/set1/green.gif","img/card_backs/set1/purple.gif","img/card_backs/set1/yellow.gif","img/card_backs/set1/red.gif","img/card_backs/set2/gray.gif","img/card_backs/set2/pink.gif","img/card_backs/set2/blue.gif","img/card_backs/set2/orange.gif","""event"",""trial"",""time""
""fullscreenenter"",""1"",""2668""
","
","
","""event"",""trial"",""time""
""fullscreenenter"",""1"",""2668""
","
","","884.5","","","","real_trial","2021-06-27 02:09:48.034","img/card_backs/set1/green.gif","0","260","1","",""
"casino-fixation","90","352343","0.0-25.0-0.10","935","true","img/card_backs/set1/green.gif","img/card_backs/set1/purple.gif","img/card_backs/set1/yellow.gif","img/card_backs/set1/red.gif","img/card_backs/set2/gray.gif","img/card_backs/set2/pink.gif","img/card_backs/set2/blue.gif","img/card_backs/set2/orange.gif","""event"",""trial"",""time""
""fullscreenenter"",""1"",""2668""
","
","
","""event"",""trial"",""time""
""fullscreenenter"",""1"",""2668""
","
","","null","","null","","fixation","2021-06-27 02:09:48.539","","","","","",""
"card-selection-trial","91","355037","0.0-25.0-1.10","935","true","img/card_backs/set1/green.gif","img/card_backs/set1/purple.gif","img/card_backs/set1/yellow.gif","img/card_backs/set1/red.gif","img/card_backs/set2/gray.gif","img/card_backs/set2/pink.gif","img/card_backs/set2/blue.gif","img/card_backs/set2/orange.gif","""event"",""trial"",""time""
""fullscreenenter"",""1"",""2668""
","
","
","""event"",""trial"",""time""
""fullscreenenter"",""1"",""2668""
","
","","681.5999999940395","","","","real_trial","2021-06-27 02:09:51.232","img/card_backs/set1/green.gif","0","-210","1","",""
"casino-fixation","92","355542","0.0-25.0-0.11","935","true","img/card_backs/set1/green.gif","img/card_backs/set1/purple.gif","img/card_backs/set1/yellow.gif","img/card_backs/set1/red.gif","img/card_backs/set2/gray.gif","img/card_backs/set2/pink.gif","img/card_backs/set2/blue.gif","img/card_backs/set2/orange.gif","""event"",""trial"",""time""
""fullscreenenter"",""1"",""2668""
","
","
","""event"",""trial"",""time""
""fullscreenenter"",""1"",""2668""
","
","","null","","null","","fixation","2021-06-27 02:09:51.737","","","","","",""
"card-selection-trial","93","358509","0.0-25.0-1.11","935","true","img/card_backs/set1/green.gif","img/card_backs/set1/purple.gif","img/card_backs/set1/yellow.gif","img/card_backs/set1/red.gif","img/card_backs/set2/gray.gif","img/card_backs/set2/pink.gif","img/card_backs/set2/blue.gif","img/card_backs/set2/orange.gif","""event"",""trial"",""time""
""fullscreenenter"",""1"",""2668""
","
","
","""event"",""trial"",""time""
""fullscreenenter"",""1"",""2668""
","
","","957.6999999880791","","","","real_trial","2021-06-27 02:09:54.704","img/card_backs/set1/purple.gif","2","-210","1","",""
"casino-fixation","94","359014","0.0-25.0-0.12","935","true","img/card_backs/set1/green.gif","img/card_backs/set1/purple.gif","img/card_backs/set1/yellow.gif","img/card_backs/set1/red.gif","img/card_backs/set2/gray.gif","img/card_backs/set2/pink.gif","img/card_backs/set2/blue.gif","img/card_backs/set2/orange.gif","""event"",""trial"",""time""
""fullscreenenter"",""1"",""2668""
","
","
","""event"",""trial"",""time""
""fullscreenenter"",""1"",""2668""
","
","","null","","null","","fixation","2021-06-27 02:09:55.209","","","","","",""
"card-selection-trial","95","361643","0.0-25.0-1.12","935","true","img/card_backs/set1/green.gif","img/card_backs/set1/purple.gif","img/card_backs/set1/yellow.gif","img/card_backs/set1/red.gif","img/card_backs/set2/gray.gif","img/card_backs/set2/pink.gif","img/card_backs/set2/blue.gif","img/card_backs/set2/orange.gif","""event"",""trial"",""time""
""fullscreenenter"",""1"",""2668""
","
","
","""event"",""trial"",""time""
""fullscreenenter"",""1"",""2668""
","
","","620.0999999940395","","","","real_trial","2021-06-27 02:09:57.839","img/card_backs/set1/yellow.gif","1","50","1","",""
"casino-fixation","96","362148","0.0-25.0-0.13","935","true","img/card_backs/set1/green.gif","img/card_backs/set1/purple.gif","img/card_backs/set1/yellow.gif","img/card_backs/set1/red.gif","img/card_backs/set2/gray.gif","img/card_backs/set2/pink.gif","img/card_backs/set2/blue.gif","img/card_backs/set2/orange.gif","""event"",""trial"",""time""
""fullscreenenter"",""1"",""2668""
","
","
","""event"",""trial"",""time""
""fullscreenenter"",""1"",""2668""
","
","","null","","null","","fixation","2021-06-27 02:09:58.343","","","","","",""
"card-selection-trial","97","365167","0.0-25.0-1.13","935","true","img/card_backs/set1/green.gif","img/card_backs/set1/purple.gif","img/card_backs/set1/yellow.gif","img/card_backs/set1/red.gif","img/card_backs/set2/gray.gif","img/card_backs/set2/pink.gif","img/card_backs/set2/blue.gif","img/card_backs/set2/orange.gif","""event"",""trial"",""time""
""fullscreenenter"",""1"",""2668""
","
","
","""event"",""trial"",""time""
""fullscreenenter"",""1"",""2668""
","
","","1012.5","","","","real_trial","2021-06-27 02:10:01.362","img/card_backs/set1/yellow.gif","0","50","1","",""
"casino-fixation","98","365672","0.0-25.0-0.14","935","true","img/card_backs/set1/green.gif","img/card_backs/set1/purple.gif","img/card_backs/set1/yellow.gif","img/card_backs/set1/red.gif","img/card_backs/set2/gray.gif","img/card_backs/set2/pink.gif","img/card_backs/set2/blue.gif","img/card_backs/set2/orange.gif","""event"",""trial"",""time""
""fullscreenenter"",""1"",""2668""
","
","
","""event"",""trial"",""time""
""fullscreenenter"",""1"",""2668""
","
","","null","","null","","fixation","2021-06-27 02:10:01.867","","","","","",""
"card-selection-trial","99","369237","0.0-25.0-1.14","935","true","img/card_backs/set1/green.gif","img/card_backs/set1/purple.gif","img/card_backs/set1/yellow.gif","img/card_backs/set1/red.gif","img/card_backs/set2/gray.gif","img/card_backs/set2/pink.gif","img/card_backs/set2/blue.gif","img/card_backs/set2/orange.gif","""event"",""trial"",""time""
""fullscreenenter"",""1"",""2668""
","
","
","""event"",""trial"",""time""
""fullscreenenter"",""1"",""2668""
","
","","1554.2999999821186","","","","real_trial","2021-06-27 02:10:05.432","img/card_backs/set1/yellow.gif","2","-100","1","",""
"casino-fixation","100","369741","0.0-25.0-0.15","935","true","img/card_backs/set1/green.gif","img/card_backs/set1/purple.gif","img/card_backs/set1/yellow.gif","img/card_backs/set1/red.gif","img/card_backs/set2/gray.gif","img/card_backs/set2/pink.gif","img/card_backs/set2/blue.gif","img/card_backs/set2/orange.gif","""event"",""trial"",""time""
""fullscreenenter"",""1"",""2668""
","
","
","""event"",""trial"",""time""
""fullscreenenter"",""1"",""2668""
","
","","null","","null","","fixation","2021-06-27 02:10:05.936","","","","","",""
"card-selection-trial","101","373081","0.0-25.0-1.15","935","true","img/card_backs/set1/green.gif","img/card_backs/set1/purple.gif","img/card_backs/set1/yellow.gif","img/card_backs/set1/red.gif","img/card_backs/set2/gray.gif","img/card_backs/set2/pink.gif","img/card_backs/set2/blue.gif","img/card_backs/set2/orange.gif","""event"",""trial"",""time""
""fullscreenenter"",""1"",""2668""
","
","
","""event"",""trial"",""time""
""fullscreenenter"",""1"",""2668""
","
","","1330.800000011921","","","","real_trial","2021-06-27 02:10:09.276","img/card_backs/set1/green.gif","2","-210","1","",""
"casino-fixation","102","373584","0.0-25.0-0.16","935","true","img/card_backs/set1/green.gif","img/card_backs/set1/purple.gif","img/card_backs/set1/yellow.gif","img/card_backs/set1/red.gif","img/card_backs/set2/gray.gif","img/card_backs/set2/pink.gif","img/card_backs/set2/blue.gif","img/card_backs/set2/orange.gif","""event"",""trial"",""time""
""fullscreenenter"",""1"",""2668""
","
","
","""event"",""trial"",""time""
""fullscreenenter"",""1"",""2668""
","
","","null","","null","","fixation","2021-06-27 02:10:09.779","","","","","",""
"card-selection-trial","103","376899","0.0-25.0-1.16","935","true","img/card_backs/set1/green.gif","img/card_backs/set1/purple.gif","img/card_backs/set1/yellow.gif","img/card_backs/set1/red.gif","img/card_backs/set2/gray.gif","img/card_backs/set2/pink.gif","img/card_backs/set2/blue.gif","img/card_backs/set2/orange.gif","""event"",""trial"",""time""
""fullscreenenter"",""1"",""2668""
","
","
","""event"",""trial"",""time""
""fullscreenenter"",""1"",""2668""
","
","","1305.7000000178814","","","","real_trial","2021-06-27 02:10:13.095","img/card_backs/set1/green.gif","1","250","1","",""
"casino-fixation","104","377404","0.0-25.0-0.17","935","true","img/card_backs/set1/green.gif","img/card_backs/set1/purple.gif","img/card_backs/set1/yellow.gif","img/card_backs/set1/red.gif","img/card_backs/set2/gray.gif","img/card_backs/set2/pink.gif","img/card_backs/set2/blue.gif","img/card_backs/set2/orange.gif","""event"",""trial"",""time""
""fullscreenenter"",""1"",""2668""
","
","
","""event"",""trial"",""time""
""fullscreenenter"",""1"",""2668""
","
","","null","","null","","fixation","2021-06-27 02:10:13.599","","","","","",""
"card-selection-trial","105","379914","0.0-25.0-1.17","935","true","img/card_backs/set1/green.gif","img/card_backs/set1/purple.gif","img/card_backs/set1/yellow.gif","img/card_backs/set1/red.gif","img/card_backs/set2/gray.gif","img/card_backs/set2/pink.gif","img/card_backs/set2/blue.gif","img/card_backs/set2/orange.gif","""event"",""trial"",""time""
""fullscreenenter"",""1"",""2668""
","
","
","""event"",""trial"",""time""
""fullscreenenter"",""1"",""2668""
","
","","500.5","","","","real_trial","2021-06-27 02:10:16.109","img/card_backs/set1/green.gif","1","260","1","",""
"casino-fixation","106","380417","0.0-25.0-0.18","935","true","img/card_backs/set1/green.gif","img/card_backs/set1/purple.gif","img/card_backs/set1/yellow.gif","img/card_backs/set1/red.gif","img/card_backs/set2/gray.gif","img/card_backs/set2/pink.gif","img/card_backs/set2/blue.gif","img/card_backs/set2/orange.gif","""event"",""trial"",""time""
""fullscreenenter"",""1"",""2668""
","
","
","""event"",""trial"",""time""
""fullscreenenter"",""1"",""2668""
","
","","null","","null","","fixation","2021-06-27 02:10:16.612","","","","","",""
"card-selection-trial","107","383924","0.0-25.0-1.18","935","true","img/card_backs/set1/green.gif","img/card_backs/set1/purple.gif","img/card_backs/set1/yellow.gif","img/card_backs/set1/red.gif","img/card_backs/set2/gray.gif","img/card_backs/set2/pink.gif","img/card_backs/set2/blue.gif","img/card_backs/set2/orange.gif","""event"",""trial"",""time""
""fullscreenenter"",""1"",""2668""
","
","
","""event"",""trial"",""time""
""fullscreenenter"",""1"",""2668""
","
","","1496.300000011921","","","","real_trial","2021-06-27 02:10:20.119","img/card_backs/set1/yellow.gif","3","60","1","",""
"casino-fixation","108","384431","0.0-25.0-0.19","935","true","img/card_backs/set1/green.gif","img/card_backs/set1/purple.gif","img/card_backs/set1/yellow.gif","img/card_backs/set1/red.gif","img/card_backs/set2/gray.gif","img/card_backs/set2/pink.gif","img/card_backs/set2/blue.gif","img/card_backs/set2/orange.gif","""event"",""trial"",""time""
""fullscreenenter"",""1"",""2668""
","
","
","""event"",""trial"",""time""
""fullscreenenter"",""1"",""2668""
","
","","null","","null","","fixation","2021-06-27 02:10:20.626","","","","","",""
"card-selection-trial","109","387586","0.0-25.0-1.19","935","true","img/card_backs/set1/green.gif","img/card_backs/set1/purple.gif","img/card_backs/set1/yellow.gif","img/card_backs/set1/red.gif","img/card_backs/set2/gray.gif","img/card_backs/set2/pink.gif","img/card_backs/set2/blue.gif","img/card_backs/set2/orange.gif","""event"",""trial"",""time""
""fullscreenenter"",""1"",""2668""
","
","
","""event"",""trial"",""time""
""fullscreenenter"",""1"",""2668""
","
","","1144","","","","real_trial","2021-06-27 02:10:23.782","img/card_backs/set1/purple.gif","0","-210","1","",""
"casino-fixation","110","388091","0.0-25.0-0.20","935","true","img/card_backs/set1/green.gif","img/card_backs/set1/purple.gif","img/card_backs/set1/yellow.gif","img/card_backs/set1/red.gif","img/card_backs/set2/gray.gif","img/card_backs/set2/pink.gif","img/card_backs/set2/blue.gif","img/card_backs/set2/orange.gif","""event"",""trial"",""time""
""fullscreenenter"",""1"",""2668""
","
","
","""event"",""trial"",""time""
""fullscreenenter"",""1"",""2668""
","
","","null","","null","","fixation","2021-06-27 02:10:24.286","","","","","",""
"card-selection-trial","111","391505","0.0-25.0-1.20","935","true","img/card_backs/set1/green.gif","img/card_backs/set1/purple.gif","img/card_backs/set1/yellow.gif","img/card_backs/set1/red.gif","img/card_backs/set2/gray.gif","img/card_backs/set2/pink.gif","img/card_backs/set2/blue.gif","img/card_backs/set2/orange.gif","""event"",""trial"",""time""
""fullscreenenter"",""1"",""2668""
","
","
","""event"",""trial"",""time""
""fullscreenenter"",""1"",""2668""
","
","","1403.4000000059605","","","","real_trial","2021-06-27 02:10:27.700","img/card_backs/set1/green.gif","2","-190","1","",""
"casino-fixation","112","392010","0.0-25.0-0.21","935","true","img/card_backs/set1/green.gif","img/card_backs/set1/purple.gif","img/card_backs/set1/yellow.gif","img/card_backs/set1/red.gif","img/card_backs/set2/gray.gif","img/card_backs/set2/pink.gif","img/card_backs/set2/blue.gif","img/card_backs/set2/orange.gif","""event"",""trial"",""time""
""fullscreenenter"",""1"",""2668""
","
","
","""event"",""trial"",""time""
""fullscreenenter"",""1"",""2668""
","
","","null","","null","","fixation","2021-06-27 02:10:28.205","","","","","",""
"card-selection-trial","113","394998","0.0-25.0-1.21","935","true","img/card_backs/set1/green.gif","img/card_backs/set1/purple.gif","img/card_backs/set1/yellow.gif","img/card_backs/set1/red.gif","img/card_backs/set2/gray.gif","img/card_backs/set2/pink.gif","img/card_backs/set2/blue.gif","img/card_backs/set2/orange.gif","""event"",""trial"",""time""
""fullscreenenter"",""1"",""2668""
","
","
","""event"",""trial"",""time""
""fullscreenenter"",""1"",""2668""
","
","","977.1999999880791","","","","real_trial","2021-06-27 02:10:31.193","img/card_backs/set1/yellow.gif","0","-110","1","",""
"casino-fixation","114","395504","0.0-25.0-0.22","935","true","img/card_backs/set1/green.gif","img/card_backs/set1/purple.gif","img/card_backs/set1/yellow.gif","img/card_backs/set1/red.gif","img/card_backs/set2/gray.gif","img/card_backs/set2/pink.gif","img/card_backs/set2/blue.gif","img/card_backs/set2/orange.gif","""event"",""trial"",""time""
""fullscreenenter"",""1"",""2668""
","
","
","""event"",""trial"",""time""
""fullscreenenter"",""1"",""2668""
","
","","null","","null","","fixation","2021-06-27 02:10:31.699","","","","","",""
"card-selection-trial","115","398748","0.0-25.0-1.22","935","true","img/card_backs/set1/green.gif","img/card_backs/set1/purple.gif","img/card_backs/set1/yellow.gif","img/card_backs/set1/red.gif","img/card_backs/set2/gray.gif","img/card_backs/set2/pink.gif","img/card_backs/set2/blue.gif","img/card_backs/set2/orange.gif","""event"",""trial"",""time""
""fullscreenenter"",""1"",""2668""
","
","
","""event"",""trial"",""time""
""fullscreenenter"",""1"",""2668""
","
","","1233.4000000059605","","","","real_trial","2021-06-27 02:10:34.943","img/card_backs/set1/red.gif","0","40","1","",""
"casino-fixation","116","399254","0.0-25.0-0.23","935","true","img/card_backs/set1/green.gif","img/card_backs/set1/purple.gif","img/card_backs/set1/yellow.gif","img/card_backs/set1/red.gif","img/card_backs/set2/gray.gif","img/card_backs/set2/pink.gif","img/card_backs/set2/blue.gif","img/card_backs/set2/orange.gif","""event"",""trial"",""time""
""fullscreenenter"",""1"",""2668""
","
","
","""event"",""trial"",""time""
""fullscreenenter"",""1"",""2668""
","
","","null","","null","","fixation","2021-06-27 02:10:35.449","","","","","",""
"card-selection-trial","117","402029","0.0-25.0-1.23","935","true","img/card_backs/set1/green.gif","img/card_backs/set1/purple.gif","img/card_backs/set1/yellow.gif","img/card_backs/set1/red.gif","img/card_backs/set2/gray.gif","img/card_backs/set2/pink.gif","img/card_backs/set2/blue.gif","img/card_backs/set2/orange.gif","""event"",""trial"",""time""
""fullscreenenter"",""1"",""2668""
","
","
","""event"",""trial"",""time""
""fullscreenenter"",""1"",""2668""
","
","","764.0999999940395","","","","real_trial","2021-06-27 02:10:38.224","img/card_backs/set1/red.gif","0","-90","1","",""
"casino-fixation","118","402534","0.0-25.0-0.24","935","true","img/card_backs/set1/green.gif","img/card_backs/set1/purple.gif","img/card_backs/set1/yellow.gif","img/card_backs/set1/red.gif","img/card_backs/set2/gray.gif","img/card_backs/set2/pink.gif","img/card_backs/set2/blue.gif","img/card_backs/set2/orange.gif","""event"",""trial"",""time""
""fullscreenenter"",""1"",""2668""
","
","
","""event"",""trial"",""time""
""fullscreenenter"",""1"",""2668""
","
","","null","","null","","fixation","2021-06-27 02:10:38.729","","","","","",""
"card-selection-trial","119","405536","0.0-25.0-1.24","935","true","img/card_backs/set1/green.gif","img/card_backs/set1/purple.gif","img/card_backs/set1/yellow.gif","img/card_backs/set1/red.gif","img/card_backs/set2/gray.gif","img/card_backs/set2/pink.gif","img/card_backs/set2/blue.gif","img/card_backs/set2/orange.gif","""event"",""trial"",""time""
""fullscreenenter"",""1"",""2668""
","
","
","""event"",""trial"",""time""
""fullscreenenter"",""1"",""2668""
","
","","990.6999999880791","","","","real_trial","2021-06-27 02:10:41.731","img/card_backs/set1/red.gif","0","50","1","",""
"casino-fixation","120","406041","0.0-25.0-0.25","935","true","img/card_backs/set1/green.gif","img/card_backs/set1/purple.gif","img/card_backs/set1/yellow.gif","img/card_backs/set1/red.gif","img/card_backs/set2/gray.gif","img/card_backs/set2/pink.gif","img/card_backs/set2/blue.gif","img/card_backs/set2/orange.gif","""event"",""trial"",""time""
""fullscreenenter"",""1"",""2668""
","
","
","""event"",""trial"",""time""
""fullscreenenter"",""1"",""2668""
","
","","null","","null","","fixation","2021-06-27 02:10:42.236","","","","","",""
"card-selection-trial","121","408717","0.0-25.0-1.25","935","true","img/card_backs/set1/green.gif","img/card_backs/set1/purple.gif","img/card_backs/set1/yellow.gif","img/card_backs/set1/red.gif","img/card_backs/set2/gray.gif","img/card_backs/set2/pink.gif","img/card_backs/set2/blue.gif","img/card_backs/set2/orange.gif","""event"",""trial"",""time""
""fullscreenenter"",""1"",""2668""
","
","
","""event"",""trial"",""time""
""fullscreenenter"",""1"",""2668""
","
","","667.6000000238419","","","","real_trial","2021-06-27 02:10:44.912","img/card_backs/set1/red.gif","0","-100","1","",""
"casino-fixation","122","409222","0.0-25.0-0.26","935","true","img/card_backs/set1/green.gif","img/card_backs/set1/purple.gif","img/card_backs/set1/yellow.gif","img/card_backs/set1/red.gif","img/card_backs/set2/gray.gif","img/card_backs/set2/pink.gif","img/card_backs/set2/blue.gif","img/card_backs/set2/orange.gif","""event"",""trial"",""time""
""fullscreenenter"",""1"",""2668""
","
","
","""event"",""trial"",""time""
""fullscreenenter"",""1"",""2668""
","
","","null","","null","","fixation","2021-06-27 02:10:45.417","","","","","",""
"card-selection-trial","123","412548","0.0-25.0-1.26","935","true","img/card_backs/set1/green.gif","img/card_backs/set1/purple.gif","img/card_backs/set1/yellow.gif","img/card_backs/set1/red.gif","img/card_backs/set2/gray.gif","img/card_backs/set2/pink.gif","img/card_backs/set2/blue.gif","img/card_backs/set2/orange.gif","""event"",""trial"",""time""
""fullscreenenter"",""1"",""2668""
","
","
","""event"",""trial"",""time""
""fullscreenenter"",""1"",""2668""
","
","","1316.5999999940395","","","","real_trial","2021-06-27 02:10:48.743","img/card_backs/set1/green.gif","1","240","1","",""
"casino-fixation","124","413053","0.0-25.0-0.27","935","true","img/card_backs/set1/green.gif","img/card_backs/set1/purple.gif","img/card_backs/set1/yellow.gif","img/card_backs/set1/red.gif","img/card_backs/set2/gray.gif","img/card_backs/set2/pink.gif","img/card_backs/set2/blue.gif","img/card_backs/set2/orange.gif","""event"",""trial"",""time""
""fullscreenenter"",""1"",""2668""
","
","
","""event"",""trial"",""time""
""fullscreenenter"",""1"",""2668""
","
","","null","","null","","fixation","2021-06-27 02:10:49.248","","","","","",""
"card-selection-trial","125","416066","0.0-25.0-1.27","935","true","img/card_backs/set1/green.gif","img/card_backs/set1/purple.gif","img/card_backs/set1/yellow.gif","img/card_backs/set1/red.gif","img/card_backs/set2/gray.gif","img/card_backs/set2/pink.gif","img/card_backs/set2/blue.gif","img/card_backs/set2/orange.gif","""event"",""trial"",""time""
""fullscreenenter"",""1"",""2668""
","
","
","""event"",""trial"",""time""
""fullscreenenter"",""1"",""2668""
","
","","1004.2000000178814","","","","real_trial","2021-06-27 02:10:52.261","img/card_backs/set1/yellow.gif","1","50","1","",""
"casino-fixation","126","416571","0.0-25.0-0.28","935","true","img/card_backs/set1/green.gif","img/card_backs/set1/purple.gif","img/card_backs/set1/yellow.gif","img/card_backs/set1/red.gif","img/card_backs/set2/gray.gif","img/card_backs/set2/pink.gif","img/card_backs/set2/blue.gif","img/card_backs/set2/orange.gif","""event"",""trial"",""time""
""fullscreenenter"",""1"",""2668""
","
","
","""event"",""trial"",""time""
""fullscreenenter"",""1"",""2668""
","
","","null","","null","","fixation","2021-06-27 02:10:52.766","","","","","",""
"card-selection-trial","127","420373","0.0-25.0-1.28","935","true","img/card_backs/set1/green.gif","img/card_backs/set1/purple.gif","img/card_backs/set1/yellow.gif","img/card_backs/set1/red.gif","img/card_backs/set2/gray.gif","img/card_backs/set2/pink.gif","img/card_backs/set2/blue.gif","img/card_backs/set2/orange.gif","""event"",""trial"",""time""
""fullscreenenter"",""1"",""2668""
","
","
","""event"",""trial"",""time""
""fullscreenenter"",""1"",""2668""
","
","","1793.2999999821186","","","","real_trial","2021-06-27 02:10:56.568","img/card_backs/set1/red.gif","1","-90","1","",""
"casino-fixation","128","420878","0.0-25.0-0.29","935","true","img/card_backs/set1/green.gif","img/card_backs/set1/purple.gif","img/card_backs/set1/yellow.gif","img/card_backs/set1/red.gif","img/card_backs/set2/gray.gif","img/card_backs/set2/pink.gif","img/card_backs/set2/blue.gif","img/card_backs/set2/orange.gif","""event"",""trial"",""time""
""fullscreenenter"",""1"",""2668""
","
","
","""event"",""trial"",""time""
""fullscreenenter"",""1"",""2668""
","
","","null","","null","","fixation","2021-06-27 02:10:57.073","","","","","",""
"card-selection-trial","129","424382","0.0-25.0-1.29","935","true","img/card_backs/set1/green.gif","img/card_backs/set1/purple.gif","img/card_backs/set1/yellow.gif","img/card_backs/set1/red.gif","img/card_backs/set2/gray.gif","img/card_backs/set2/pink.gif","img/card_backs/set2/blue.gif","img/card_backs/set2/orange.gif","""event"",""trial"",""time""
""fullscreenenter"",""1"",""2668""
","
","
","""event"",""trial"",""time""
""fullscreenenter"",""1"",""2668""
","
","","1494.2000000178814","","","","real_trial","2021-06-27 02:11:00.577","img/card_backs/set1/yellow.gif","3","-110","1","",""
"casino-fixation","130","424889","0.0-25.0-0.30","935","true","img/card_backs/set1/green.gif","img/card_backs/set1/purple.gif","img/card_backs/set1/yellow.gif","img/card_backs/set1/red.gif","img/card_backs/set2/gray.gif","img/card_backs/set2/pink.gif","img/card_backs/set2/blue.gif","img/card_backs/set2/orange.gif","""event"",""trial"",""time""
""fullscreenenter"",""1"",""2668""
","
","
","""event"",""trial"",""time""
""fullscreenenter"",""1"",""2668""
","
","","null","","null","","fixation","2021-06-27 02:11:01.084","","","","","",""
"card-selection-trial","131","431636","0.0-25.0-1.30","935","true","img/card_backs/set1/green.gif","img/card_backs/set1/purple.gif","img/card_backs/set1/yellow.gif","img/card_backs/set1/red.gif","img/card_backs/set2/gray.gif","img/card_backs/set2/pink.gif","img/card_backs/set2/blue.gif","img/card_backs/set2/orange.gif","""event"",""trial"",""time""
""fullscreenenter"",""1"",""2668""
","
","
","""event"",""trial"",""time""
""fullscreenenter"",""1"",""2668""
","
","","4733.5999999940395","","","","real_trial","2021-06-27 02:11:07.831","img/card_backs/set1/green.gif","3","-210","1","",""
"casino-fixation","132","432140","0.0-25.0-0.31","935","true","img/card_backs/set1/green.gif","img/card_backs/set1/purple.gif","img/card_backs/set1/yellow.gif","img/card_backs/set1/red.gif","img/card_backs/set2/gray.gif","img/card_backs/set2/pink.gif","img/card_backs/set2/blue.gif","img/card_backs/set2/orange.gif","""event"",""trial"",""time""
""fullscreenenter"",""1"",""2668""
","
","
","""event"",""trial"",""time""
""fullscreenenter"",""1"",""2668""
","
","","null","","null","","fixation","2021-06-27 02:11:08.335","","","","","",""
"card-selection-trial","133","434764","0.0-25.0-1.31","935","true","img/card_backs/set1/green.gif","img/card_backs/set1/purple.gif","img/card_backs/set1/yellow.gif","img/card_backs/set1/red.gif","img/card_backs/set2/gray.gif","img/card_backs/set2/pink.gif","img/card_backs/set2/blue.gif","img/card_backs/set2/orange.gif","""event"",""trial"",""time""
""fullscreenenter"",""1"",""2668""
","
","
","""event"",""trial"",""time""
""fullscreenenter"",""1"",""2668""
","
","","615.4000000059605","","","","real_trial","2021-06-27 02:11:10.959","img/card_backs/set1/yellow.gif","0","-110","1","",""
"casino-fixation","134","435269","0.0-25.0-0.32","935","true","img/card_backs/set1/green.gif","img/card_backs/set1/purple.gif","img/card_backs/set1/yellow.gif","img/card_backs/set1/red.gif","img/card_backs/set2/gray.gif","img/card_backs/set2/pink.gif","img/card_backs/set2/blue.gif","img/card_backs/set2/orange.gif","""event"",""trial"",""time""
""fullscreenenter"",""1"",""2668""
","
","
","""event"",""trial"",""time""
""fullscreenenter"",""1"",""2668""
","
","","null","","null","","fixation","2021-06-27 02:11:11.464","","","","","",""
"card-selection-trial","135","438491","0.0-25.0-1.32","935","true","img/card_backs/set1/green.gif","img/card_backs/set1/purple.gif","img/card_backs/set1/yellow.gif","img/card_backs/set1/red.gif","img/card_backs/set2/gray.gif","img/card_backs/set2/pink.gif","img/card_backs/set2/blue.gif","img/card_backs/set2/orange.gif","""event"",""trial"",""time""
""fullscreenenter"",""1"",""2668""
","
","
","""event"",""trial"",""time""
""fullscreenenter"",""1"",""2668""
","
","","1212.199999988079","","","","real_trial","2021-06-27 02:11:14.686","img/card_backs/set1/yellow.gif","1","40","1","",""
"casino-fixation","136","438998","0.0-25.0-0.33","935","true","img/card_backs/set1/green.gif","img/card_backs/set1/purple.gif","img/card_backs/set1/yellow.gif","img/card_backs/set1/red.gif","img/card_backs/set2/gray.gif","img/card_backs/set2/pink.gif","img/card_backs/set2/blue.gif","img/card_backs/set2/orange.gif","""event"",""trial"",""time""
""fullscreenenter"",""1"",""2668""
","
","
","""event"",""trial"",""time""
""fullscreenenter"",""1"",""2668""
","
","","null","","null","","fixation","2021-06-27 02:11:15.193","","","","","",""
"card-selection-trial","137","442642","0.0-25.0-1.33","935","true","img/card_backs/set1/green.gif","img/card_backs/set1/purple.gif","img/card_backs/set1/yellow.gif","img/card_backs/set1/red.gif","img/card_backs/set2/gray.gif","img/card_backs/set2/pink.gif","img/card_backs/set2/blue.gif","img/card_backs/set2/orange.gif","""event"",""trial"",""time""
""fullscreenenter"",""1"",""2668""
","
","
","""event"",""trial"",""time""
""fullscreenenter"",""1"",""2668""
","
","","1635","","","","real_trial","2021-06-27 02:11:18.837","img/card_backs/set1/green.gif","3","260","1","",""
"casino-fixation","138","443150","0.0-25.0-0.34","935","true","img/card_backs/set1/green.gif","img/card_backs/set1/purple.gif","img/card_backs/set1/yellow.gif","img/card_backs/set1/red.gif","img/card_backs/set2/gray.gif","img/card_backs/set2/pink.gif","img/card_backs/set2/blue.gif","img/card_backs/set2/orange.gif","""event"",""trial"",""time""
""fullscreenenter"",""1"",""2668""
","
","
","""event"",""trial"",""time""
""fullscreenenter"",""1"",""2668""
","
","","null","","null","","fixation","2021-06-27 02:11:19.345","","","","","",""
"card-selection-trial","139","446311","0.0-25.0-1.34","935","true","img/card_backs/set1/green.gif","img/card_backs/set1/purple.gif","img/card_backs/set1/yellow.gif","img/card_backs/set1/red.gif","img/card_backs/set2/gray.gif","img/card_backs/set2/pink.gif","img/card_backs/set2/blue.gif","img/card_backs/set2/orange.gif","""event"",""trial"",""time""
""fullscreenenter"",""1"",""2668""
","
","
","""event"",""trial"",""time""
""fullscreenenter"",""1"",""2668""
","
","","1152.0999999940395","","","","real_trial","2021-06-27 02:11:22.506","img/card_backs/set1/green.gif","0","-210","1","",""
"casino-fixation","140","446815","0.0-25.0-0.35","935","true","img/card_backs/set1/green.gif","img/card_backs/set1/purple.gif","img/card_backs/set1/yellow.gif","img/card_backs/set1/red.gif","img/card_backs/set2/gray.gif","img/card_backs/set2/pink.gif","img/card_backs/set2/blue.gif","img/card_backs/set2/orange.gif","""event"",""trial"",""time""
""fullscreenenter"",""1"",""2668""
","
","
","""event"",""trial"",""time""
""fullscreenenter"",""1"",""2668""
","
","","null","","null","","fixation","2021-06-27 02:11:23.010","","","","","",""
"card-selection-trial","141","451106","0.0-25.0-1.35","935","true","img/card_backs/set1/green.gif","img/card_backs/set1/purple.gif","img/card_backs/set1/yellow.gif","img/card_backs/set1/red.gif","img/card_backs/set2/gray.gif","img/card_backs/set2/pink.gif","img/card_backs/set2/blue.gif","img/card_backs/set2/orange.gif","""event"",""trial"",""time""
""fullscreenenter"",""1"",""2668""
","
","
","""event"",""trial"",""time""
""fullscreenenter"",""1"",""2668""
","
","","2282.5","","","","real_trial","2021-06-27 02:11:27.301","img/card_backs/set1/green.gif","2","-210","1","",""
"casino-fixation","142","451610","0.0-25.0-0.36","935","true","img/card_backs/set1/green.gif","img/card_backs/set1/purple.gif","img/card_backs/set1/yellow.gif","img/card_backs/set1/red.gif","img/card_backs/set2/gray.gif","img/card_backs/set2/pink.gif","img/card_backs/set2/blue.gif","img/card_backs/set2/orange.gif","""event"",""trial"",""time""
""fullscreenenter"",""1"",""2668""
","
","
","""event"",""trial"",""time""
""fullscreenenter"",""1"",""2668""
","
","","null","","null","","fixation","2021-06-27 02:11:27.805","","","","","",""
"card-selection-trial","143","454325","0.0-25.0-1.36","935","true","img/card_backs/set1/green.gif","img/card_backs/set1/purple.gif","img/card_backs/set1/yellow.gif","img/card_backs/set1/red.gif","img/card_backs/set2/gray.gif","img/card_backs/set2/pink.gif","img/card_backs/set2/blue.gif","img/card_backs/set2/orange.gif","""event"",""trial"",""time""
""fullscreenenter"",""1"",""2668""
","
","
","""event"",""trial"",""time""
""fullscreenenter"",""1"",""2668""
","
","","707.1000000238419","","","","real_trial","2021-06-27 02:11:30.520","img/card_backs/set1/yellow.gif","3","-90","1","",""
"casino-fixation","144","454832","0.0-25.0-0.37","935","true","img/card_backs/set1/green.gif","img/card_backs/set1/purple.gif","img/card_backs/set1/yellow.gif","img/card_backs/set1/red.gif","img/card_backs/set2/gray.gif","img/card_backs/set2/pink.gif","img/card_backs/set2/blue.gif","img/card_backs/set2/orange.gif","""event"",""trial"",""time""
""fullscreenenter"",""1"",""2668""
","
","
","""event"",""trial"",""time""
""fullscreenenter"",""1"",""2668""
","
","","null","","null","","fixation","2021-06-27 02:11:31.027","","","","","",""
"card-selection-trial","145","458687","0.0-25.0-1.37","935","true","img/card_backs/set1/green.gif","img/card_backs/set1/purple.gif","img/card_backs/set1/yellow.gif","img/card_backs/set1/red.gif","img/card_backs/set2/gray.gif","img/card_backs/set2/pink.gif","img/card_backs/set2/blue.gif","img/card_backs/set2/orange.gif","""event"",""trial"",""time""
""fullscreenenter"",""1"",""2668""
","
","
","""event"",""trial"",""time""
""fullscreenenter"",""1"",""2668""
","
","","1845.300000011921","","","","real_trial","2021-06-27 02:11:34.882","img/card_backs/set1/red.gif","1","60","1","",""
"casino-fixation","146","459192","0.0-25.0-0.38","935","true","img/card_backs/set1/green.gif","img/card_backs/set1/purple.gif","img/card_backs/set1/yellow.gif","img/card_backs/set1/red.gif","img/card_backs/set2/gray.gif","img/card_backs/set2/pink.gif","img/card_backs/set2/blue.gif","img/card_backs/set2/orange.gif","""event"",""trial"",""time""
""fullscreenenter"",""1"",""2668""
","
","
","""event"",""trial"",""time""
""fullscreenenter"",""1"",""2668""
","
","","null","","null","","fixation","2021-06-27 02:11:35.387","","","","","",""
"card-selection-trial","147","461956","0.0-25.0-1.38","935","true","img/card_backs/set1/green.gif","img/card_backs/set1/purple.gif","img/card_backs/set1/yellow.gif","img/card_backs/set1/red.gif","img/card_backs/set2/gray.gif","img/card_backs/set2/pink.gif","img/card_backs/set2/blue.gif","img/card_backs/set2/orange.gif","""event"",""trial"",""time""
""fullscreenenter"",""1"",""2668""
","
","
","""event"",""trial"",""time""
""fullscreenenter"",""1"",""2668""
","
","","754.9000000059605","","","","real_trial","2021-06-27 02:11:38.151","img/card_backs/set1/yellow.gif","3","-90","1","",""
"casino-fixation","148","462460","0.0-25.0-0.39","935","true","img/card_backs/set1/green.gif","img/card_backs/set1/purple.gif","img/card_backs/set1/yellow.gif","img/card_backs/set1/red.gif","img/card_backs/set2/gray.gif","img/card_backs/set2/pink.gif","img/card_backs/set2/blue.gif","img/card_backs/set2/orange.gif","""event"",""trial"",""time""
""fullscreenenter"",""1"",""2668""
","
","
","""event"",""trial"",""time""
""fullscreenenter"",""1"",""2668""
","
","","null","","null","","fixation","2021-06-27 02:11:38.655","","","","","",""
"card-selection-trial","149","466813","0.0-25.0-1.39","935","true","img/card_backs/set1/green.gif","img/card_backs/set1/purple.gif","img/card_backs/set1/yellow.gif","img/card_backs/set1/red.gif","img/card_backs/set2/gray.gif","img/card_backs/set2/pink.gif","img/card_backs/set2/blue.gif","img/card_backs/set2/orange.gif","""event"",""trial"",""time""
""fullscreenenter"",""1"",""2668""
","
","
","""event"",""trial"",""time""
""fullscreenenter"",""1"",""2668""
","
","","2342.5","","","","real_trial","2021-06-27 02:11:43.008","img/card_backs/set1/red.gif","2","50","1","",""
"casino-fixation","150","467319","0.0-25.0-0.40","935","true","img/card_backs/set1/green.gif","img/card_backs/set1/purple.gif","img/card_backs/set1/yellow.gif","img/card_backs/set1/red.gif","img/card_backs/set2/gray.gif","img/card_backs/set2/pink.gif","img/card_backs/set2/blue.gif","img/card_backs/set2/orange.gif","""event"",""trial"",""time""
""fullscreenenter"",""1"",""2668""
","
","
","""event"",""trial"",""time""
""fullscreenenter"",""1"",""2668""
","
","","null","","null","","fixation","2021-06-27 02:11:43.514","","","","","",""
"card-selection-trial","151","471616","0.0-25.0-1.40","935","true","img/card_backs/set1/green.gif","img/card_backs/set1/purple.gif","img/card_backs/set1/yellow.gif","img/card_backs/set1/red.gif","img/card_backs/set2/gray.gif","img/card_backs/set2/pink.gif","img/card_backs/set2/blue.gif","img/card_backs/set2/orange.gif","""event"",""trial"",""time""
""fullscreenenter"",""1"",""2668""
","
","
","""event"",""trial"",""time""
""fullscreenenter"",""1"",""2668""
","
","","2289.5999999940395","","","","real_trial","2021-06-27 02:11:47.811","img/card_backs/set1/yellow.gif","3","-100","1","",""
"casino-fixation","152","472120","0.0-25.0-0.41","935","true","img/card_backs/set1/green.gif","img/card_backs/set1/purple.gif","img/card_backs/set1/yellow.gif","img/card_backs/set1/red.gif","img/card_backs/set2/gray.gif","img/card_backs/set2/pink.gif","img/card_backs/set2/blue.gif","img/card_backs/set2/orange.gif","""event"",""trial"",""time""
""fullscreenenter"",""1"",""2668""
","
","
","""event"",""trial"",""time""
""fullscreenenter"",""1"",""2668""
","
","","null","","null","","fixation","2021-06-27 02:11:48.315","","","","","",""
"card-selection-trial","153","474999","0.0-25.0-1.41","935","true","img/card_backs/set1/green.gif","img/card_backs/set1/purple.gif","img/card_backs/set1/yellow.gif","img/card_backs/set1/red.gif","img/card_backs/set2/gray.gif","img/card_backs/set2/pink.gif","img/card_backs/set2/blue.gif","img/card_backs/set2/orange.gif","""event"",""trial"",""time""
""fullscreenenter"",""1"",""2668""
","
","
","""event"",""trial"",""time""
""fullscreenenter"",""1"",""2668""
","
","","871.5999999940395","","","","real_trial","2021-06-27 02:11:51.194","img/card_backs/set1/red.gif","0","50","1","",""
"casino-fixation","154","475504","0.0-25.0-0.42","935","true","img/card_backs/set1/green.gif","img/card_backs/set1/purple.gif","img/card_backs/set1/yellow.gif","img/card_backs/set1/red.gif","img/card_backs/set2/gray.gif","img/card_backs/set2/pink.gif","img/card_backs/set2/blue.gif","img/card_backs/set2/orange.gif","""event"",""trial"",""time""
""fullscreenenter"",""1"",""2668""
","
","
","""event"",""trial"",""time""
""fullscreenenter"",""1"",""2668""
","
","","null","","null","","fixation","2021-06-27 02:11:51.699","","","","","",""
"card-selection-trial","155","478566","0.0-25.0-1.42","935","true","img/card_backs/set1/green.gif","img/card_backs/set1/purple.gif","img/card_backs/set1/yellow.gif","img/card_backs/set1/red.gif","img/card_backs/set2/gray.gif","img/card_backs/set2/pink.gif","img/card_backs/set2/blue.gif","img/card_backs/set2/orange.gif","""event"",""trial"",""time""
""fullscreenenter"",""1"",""2668""
","
","
","""event"",""trial"",""time""
""fullscreenenter"",""1"",""2668""
","
","","1051.5999999940395","","","","real_trial","2021-06-27 02:11:54.761","img/card_backs/set1/green.gif","3","-190","1","",""
"casino-fixation","156","479069","0.0-25.0-0.43","935","true","img/card_backs/set1/green.gif","img/card_backs/set1/purple.gif","img/card_backs/set1/yellow.gif","img/card_backs/set1/red.gif","img/card_backs/set2/gray.gif","img/card_backs/set2/pink.gif","img/card_backs/set2/blue.gif","img/card_backs/set2/orange.gif","""event"",""trial"",""time""
""fullscreenenter"",""1"",""2668""
","
","
","""event"",""trial"",""time""
""fullscreenenter"",""1"",""2668""
","
","","null","","null","","fixation","2021-06-27 02:11:55.264","","","","","",""
"card-selection-trial","157","481656","0.0-25.0-1.43","935","true","img/card_backs/set1/green.gif","img/card_backs/set1/purple.gif","img/card_backs/set1/yellow.gif","img/card_backs/set1/red.gif","img/card_backs/set2/gray.gif","img/card_backs/set2/pink.gif","img/card_backs/set2/blue.gif","img/card_backs/set2/orange.gif","""event"",""trial"",""time""
""fullscreenenter"",""1"",""2668""
","
","
","""event"",""trial"",""time""
""fullscreenenter"",""1"",""2668""
","
","","579.5","","","","real_trial","2021-06-27 02:11:57.851","img/card_backs/set1/red.gif","0","-90","1","",""
"casino-fixation","158","482163","0.0-25.0-0.44","935","true","img/card_backs/set1/green.gif","img/card_backs/set1/purple.gif","img/card_backs/set1/yellow.gif","img/card_backs/set1/red.gif","img/card_backs/set2/gray.gif","img/card_backs/set2/pink.gif","img/card_backs/set2/blue.gif","img/card_backs/set2/orange.gif","""event"",""trial"",""time""
""fullscreenenter"",""1"",""2668""
","
","
","""event"",""trial"",""time""
""fullscreenenter"",""1"",""2668""
","
","","null","","null","","fixation","2021-06-27 02:11:58.358","","","","","",""
"card-selection-trial","159","485768","0.0-25.0-1.44","935","true","img/card_backs/set1/green.gif","img/card_backs/set1/purple.gif","img/card_backs/set1/yellow.gif","img/card_backs/set1/red.gif","img/card_backs/set2/gray.gif","img/card_backs/set2/pink.gif","img/card_backs/set2/blue.gif","img/card_backs/set2/orange.gif","""event"",""trial"",""time""
""fullscreenenter"",""1"",""2668""
","
","
","""event"",""trial"",""time""
""fullscreenenter"",""1"",""2668""
","
","","1594.699999988079","","","","real_trial","2021-06-27 02:12:01.963","img/card_backs/set1/green.gif","1","-190","1","",""
"casino-fixation","160","486273","0.0-25.0-0.45","935","true","img/card_backs/set1/green.gif","img/card_backs/set1/purple.gif","img/card_backs/set1/yellow.gif","img/card_backs/set1/red.gif","img/card_backs/set2/gray.gif","img/card_backs/set2/pink.gif","img/card_backs/set2/blue.gif","img/card_backs/set2/orange.gif","""event"",""trial"",""time""
""fullscreenenter"",""1"",""2668""
","
","
","""event"",""trial"",""time""
""fullscreenenter"",""1"",""2668""
","
","","null","","null","","fixation","2021-06-27 02:12:02.468","","","","","",""
"card-selection-trial","161","490615","0.0-25.0-1.45","935","true","img/card_backs/set1/green.gif","img/card_backs/set1/purple.gif","img/card_backs/set1/yellow.gif","img/card_backs/set1/red.gif","img/card_backs/set2/gray.gif","img/card_backs/set2/pink.gif","img/card_backs/set2/blue.gif","img/card_backs/set2/orange.gif","""event"",""trial"",""time""
""fullscreenenter"",""1"",""2668""
","
","
","""event"",""trial"",""time""
""fullscreenenter"",""1"",""2668""
","
","","2331.0999999940395","","","","real_trial","2021-06-27 02:12:06.810","img/card_backs/set1/red.gif","2","60","1","",""
"casino-fixation","162","491120","0.0-25.0-0.46","935","true","img/card_backs/set1/green.gif","img/card_backs/set1/purple.gif","img/card_backs/set1/yellow.gif","img/card_backs/set1/red.gif","img/card_backs/set2/gray.gif","img/card_backs/set2/pink.gif","img/card_backs/set2/blue.gif","img/card_backs/set2/orange.gif","""event"",""trial"",""time""
""fullscreenenter"",""1"",""2668""
","
","
","""event"",""trial"",""time""
""fullscreenenter"",""1"",""2668""
","
","","null","","null","","fixation","2021-06-27 02:12:07.315","","","","","",""
"card-selection-trial","163","494743","0.0-25.0-1.46","935","true","img/card_backs/set1/green.gif","img/card_backs/set1/purple.gif","img/card_backs/set1/yellow.gif","img/card_backs/set1/red.gif","img/card_backs/set2/gray.gif","img/card_backs/set2/pink.gif","img/card_backs/set2/blue.gif","img/card_backs/set2/orange.gif","""event"",""trial"",""time""
""fullscreenenter"",""1"",""2668""
","
","
","""event"",""trial"",""time""
""fullscreenenter"",""1"",""2668""
","
","","1614.300000011921","","","","real_trial","2021-06-27 02:12:10.938","img/card_backs/set1/yellow.gif","0","-90","1","",""
"casino-fixation","164","495249","0.0-25.0-0.47","935","true","img/card_backs/set1/green.gif","img/card_backs/set1/purple.gif","img/card_backs/set1/yellow.gif","img/card_backs/set1/red.gif","img/card_backs/set2/gray.gif","img/card_backs/set2/pink.gif","img/card_backs/set2/blue.gif","img/card_backs/set2/orange.gif","""event"",""trial"",""time""
""fullscreenenter"",""1"",""2668""
","
","
","""event"",""trial"",""time""
""fullscreenenter"",""1"",""2668""
","
","","null","","null","","fixation","2021-06-27 02:12:11.444","","","","","",""
"card-selection-trial","165","498446","0.0-25.0-1.47","935","true","img/card_backs/set1/green.gif","img/card_backs/set1/purple.gif","img/card_backs/set1/yellow.gif","img/card_backs/set1/red.gif","img/card_backs/set2/gray.gif","img/card_backs/set2/pink.gif","img/card_backs/set2/blue.gif","img/card_backs/set2/orange.gif","""event"",""trial"",""time""
""fullscreenenter"",""1"",""2668""
","
","
","""event"",""trial"",""time""
""fullscreenenter"",""1"",""2668""
","
","","1189.0999999940395","","","","real_trial","2021-06-27 02:12:14.641","img/card_backs/set1/red.gif","0","40","1","",""
"casino-fixation","166","498951","0.0-25.0-0.48","935","true","img/card_backs/set1/green.gif","img/card_backs/set1/purple.gif","img/card_backs/set1/yellow.gif","img/card_backs/set1/red.gif","img/card_backs/set2/gray.gif","img/card_backs/set2/pink.gif","img/card_backs/set2/blue.gif","img/card_backs/set2/orange.gif","""event"",""trial"",""time""
""fullscreenenter"",""1"",""2668""
","
","
","""event"",""trial"",""time""
""fullscreenenter"",""1"",""2668""
","
","","null","","null","","fixation","2021-06-27 02:12:15.146","","","","","",""
"card-selection-trial","167","502015","0.0-25.0-1.48","935","true","img/card_backs/set1/green.gif","img/card_backs/set1/purple.gif","img/card_backs/set1/yellow.gif","img/card_backs/set1/red.gif","img/card_backs/set2/gray.gif","img/card_backs/set2/pink.gif","img/card_backs/set2/blue.gif","img/card_backs/set2/orange.gif","""event"",""trial"",""time""
""fullscreenenter"",""1"",""2668""
","
","
","""event"",""trial"",""time""
""fullscreenenter"",""1"",""2668""
","
","","1053.7000000178814","","","","real_trial","2021-06-27 02:12:18.210","img/card_backs/set1/red.gif","1","-90","1","",""
