"trial_type","trial_index","time_elapsed","internal_node_id","sub_id","risk_good_first","block1_A","block1_B","block1_C","block1_D","block2_A","block2_B","block2_C","block2_D","interactions","blur_events","focus_events","fullscreenenter_events","fullscreenexit_events","success","rt","stimulus","key_press","button_pressed","task_part","timestamp","card_choice","choice_position","points_earned","block","correct","response"
"pavlovia","0","8","0.0-0.0","A333","false","img/card_backs/set1/red.gif","img/card_backs/set1/purple.gif","img/card_backs/set1/green.gif","img/card_backs/set1/yellow.gif","img/card_backs/set2/pink.gif","img/card_backs/set2/orange.gif","img/card_backs/set2/blue.gif","img/card_backs/set2/gray.gif","""event"",""trial"",""time""
""blur"",""0"",""0""
""focus"",""0"",""0""
""focus"",""0"",""0""
""blur"",""0"",""0""
""focus"",""0"",""0""
""blur"",""0"",""0""
""focus"",""1"",""35640""
""focus"",""1"",""35644""
""fullscreenenter"",""1"",""39556""
","""event"",""trial"",""time""
""blur"",""0"",""0""
""blur"",""0"",""0""
""blur"",""0"",""0""
","""event"",""trial"",""time""
""focus"",""0"",""0""
""focus"",""0"",""0""
""focus"",""0"",""0""
""focus"",""1"",""35640""
""focus"",""1"",""35644""
","""event"",""trial"",""time""
""fullscreenenter"",""1"",""39556""
","
","","","","","","","","","","","","",""
"fullscreen","1","40489","0.0-1.0","A333","false","img/card_backs/set1/red.gif","img/card_backs/set1/purple.gif","img/card_backs/set1/green.gif","img/card_backs/set1/yellow.gif","img/card_backs/set2/pink.gif","img/card_backs/set2/orange.gif","img/card_backs/set2/blue.gif","img/card_backs/set2/gray.gif","""event"",""trial"",""time""
""blur"",""0"",""0""
""focus"",""0"",""0""
""focus"",""0"",""0""
""blur"",""0"",""0""
""focus"",""0"",""0""
""blur"",""0"",""0""
""focus"",""1"",""35640""
""focus"",""1"",""35644""
""fullscreenenter"",""1"",""39556""
","""event"",""trial"",""time""
""blur"",""0"",""0""
""blur"",""0"",""0""
""blur"",""0"",""0""
","""event"",""trial"",""time""
""focus"",""0"",""0""
""focus"",""0"",""0""
""focus"",""0"",""0""
""focus"",""1"",""35640""
""focus"",""1"",""35644""
","""event"",""trial"",""time""
""fullscreenenter"",""1"",""39556""
","
","true","","","","","","","","","","","",""
"audio-keyboard-response","2","42235","0.0-2.0","A333","false","img/card_backs/set1/red.gif","img/card_backs/set1/purple.gif","img/card_backs/set1/green.gif","img/card_backs/set1/yellow.gif","img/card_backs/set2/pink.gif","img/card_backs/set2/orange.gif","img/card_backs/set2/blue.gif","img/card_backs/set2/gray.gif","""event"",""trial"",""time""
""blur"",""0"",""0""
""focus"",""0"",""0""
""focus"",""0"",""0""
""blur"",""0"",""0""
""focus"",""0"",""0""
""blur"",""0"",""0""
""focus"",""1"",""35640""
""focus"",""1"",""35644""
""fullscreenenter"",""1"",""39556""
","""event"",""trial"",""time""
""blur"",""0"",""0""
""blur"",""0"",""0""
""blur"",""0"",""0""
","""event"",""trial"",""time""
""focus"",""0"",""0""
""focus"",""0"",""0""
""focus"",""0"",""0""
""focus"",""1"",""35640""
""focus"",""1"",""35644""
","""event"",""trial"",""time""
""fullscreenenter"",""1"",""39556""
","
","","0","audio/beep_loop.wav","32","","","","","","","","",""
"audio-button-response","3","44586","0.0-3.0","A333","false","img/card_backs/set1/red.gif","img/card_backs/set1/purple.gif","img/card_backs/set1/green.gif","img/card_backs/set1/yellow.gif","img/card_backs/set2/pink.gif","img/card_backs/set2/orange.gif","img/card_backs/set2/blue.gif","img/card_backs/set2/gray.gif","""event"",""trial"",""time""
""blur"",""0"",""0""
""focus"",""0"",""0""
""focus"",""0"",""0""
""blur"",""0"",""0""
""focus"",""0"",""0""
""blur"",""0"",""0""
""focus"",""1"",""35640""
""focus"",""1"",""35644""
""fullscreenenter"",""1"",""39556""
""blur"",""4"",""47159""
""focus"",""4"",""51903""
","""event"",""trial"",""time""
""blur"",""0"",""0""
""blur"",""0"",""0""
""blur"",""0"",""0""
""blur"",""4"",""47159""
","""event"",""trial"",""time""
""focus"",""0"",""0""
""focus"",""0"",""0""
""focus"",""0"",""0""
""focus"",""1"",""35640""
""focus"",""1"",""35644""
""focus"",""4"",""51903""
","""event"",""trial"",""time""
""fullscreenenter"",""1"",""39556""
","
","","NaN","audio/turtle.mp3","","3","","","","","","","",""
"audio-button-response","4","52296","0.0-4.0","A333","false","img/card_backs/set1/red.gif","img/card_backs/set1/purple.gif","img/card_backs/set1/green.gif","img/card_backs/set1/yellow.gif","img/card_backs/set2/pink.gif","img/card_backs/set2/orange.gif","img/card_backs/set2/blue.gif","img/card_backs/set2/gray.gif","""event"",""trial"",""time""
""blur"",""0"",""0""
""focus"",""0"",""0""
""focus"",""0"",""0""
""blur"",""0"",""0""
""focus"",""0"",""0""
""blur"",""0"",""0""
""focus"",""1"",""35640""
""focus"",""1"",""35644""
""fullscreenenter"",""1"",""39556""
""blur"",""4"",""47159""
""focus"",""4"",""51903""
","""event"",""trial"",""time""
""blur"",""0"",""0""
""blur"",""0"",""0""
""blur"",""0"",""0""
""blur"",""4"",""47159""
","""event"",""trial"",""time""
""focus"",""0"",""0""
""focus"",""0"",""0""
""focus"",""0"",""0""
""focus"",""1"",""35640""
""focus"",""1"",""35644""
""focus"",""4"",""51903""
","""event"",""trial"",""time""
""fullscreenenter"",""1"",""39556""
","
","","NaN","audio/shark.mp3","","2","","","","","","","",""
"fullscreen","5","56757","0.0-5.0","A333","false","img/card_backs/set1/red.gif","img/card_backs/set1/purple.gif","img/card_backs/set1/green.gif","img/card_backs/set1/yellow.gif","img/card_backs/set2/pink.gif","img/card_backs/set2/orange.gif","img/card_backs/set2/blue.gif","img/card_backs/set2/gray.gif","""event"",""trial"",""time""
""blur"",""0"",""0""
""focus"",""0"",""0""
""focus"",""0"",""0""
""blur"",""0"",""0""
""focus"",""0"",""0""
""blur"",""0"",""0""
""focus"",""1"",""35640""
""focus"",""1"",""35644""
""fullscreenenter"",""1"",""39556""
""blur"",""4"",""47159""
""focus"",""4"",""51903""
","""event"",""trial"",""time""
""blur"",""0"",""0""
""blur"",""0"",""0""
""blur"",""0"",""0""
""blur"",""4"",""47159""
","""event"",""trial"",""time""
""focus"",""0"",""0""
""focus"",""0"",""0""
""focus"",""0"",""0""
""focus"",""1"",""35640""
""focus"",""1"",""35644""
""focus"",""4"",""51903""
","""event"",""trial"",""time""
""fullscreenenter"",""1"",""39556""
","
","true","","","","","","","","","","","",""
"casino-keyboard-response","6","61367","0.0-6.0-0.0","A333","false","img/card_backs/set1/red.gif","img/card_backs/set1/purple.gif","img/card_backs/set1/green.gif","img/card_backs/set1/yellow.gif","img/card_backs/set2/pink.gif","img/card_backs/set2/orange.gif","img/card_backs/set2/blue.gif","img/card_backs/set2/gray.gif","""event"",""trial"",""time""
""blur"",""0"",""0""
""focus"",""0"",""0""
""focus"",""0"",""0""
""blur"",""0"",""0""
""focus"",""0"",""0""
""blur"",""0"",""0""
""focus"",""1"",""35640""
""focus"",""1"",""35644""
""fullscreenenter"",""1"",""39556""
""blur"",""4"",""47159""
""focus"",""4"",""51903""
","""event"",""trial"",""time""
""blur"",""0"",""0""
""blur"",""0"",""0""
""blur"",""0"",""0""
""blur"",""4"",""47159""
","""event"",""trial"",""time""
""focus"",""0"",""0""
""focus"",""0"",""0""
""focus"",""0"",""0""
""focus"",""1"",""35640""
""focus"",""1"",""35644""
""focus"",""4"",""51903""
","""event"",""trial"",""time""
""fullscreenenter"",""1"",""39556""
","
","","4606","Welcome to the casino!","71","","instructions","2021-06-25 07:23:33.672","","","","","",""
"casino-keyboard-response","7","70777","0.0-6.0-0.1","A333","false","img/card_backs/set1/red.gif","img/card_backs/set1/purple.gif","img/card_backs/set1/green.gif","img/card_backs/set1/yellow.gif","img/card_backs/set2/pink.gif","img/card_backs/set2/orange.gif","img/card_backs/set2/blue.gif","img/card_backs/set2/gray.gif","""event"",""trial"",""time""
""blur"",""0"",""0""
""focus"",""0"",""0""
""focus"",""0"",""0""
""blur"",""0"",""0""
""focus"",""0"",""0""
""blur"",""0"",""0""
""focus"",""1"",""35640""
""focus"",""1"",""35644""
""fullscreenenter"",""1"",""39556""
""blur"",""4"",""47159""
""focus"",""4"",""51903""
","""event"",""trial"",""time""
""blur"",""0"",""0""
""blur"",""0"",""0""
""blur"",""0"",""0""
""blur"",""4"",""47159""
","""event"",""trial"",""time""
""focus"",""0"",""0""
""focus"",""0"",""0""
""focus"",""0"",""0""
""focus"",""1"",""35640""
""focus"",""1"",""35644""
""focus"",""4"",""51903""
","""event"",""trial"",""time""
""fullscreenenter"",""1"",""39556""
","
","","9408.000000000015","Today you will be playing a game to earn tokens. </br> At the end of the experiment, you will be paid a bonus based on how many tokens you win. ","69","","instructions","2021-06-25 07:23:43.082","","","","","",""
"casino-keyboard-response","8","78191","0.0-6.0-0.2","A333","false","img/card_backs/set1/red.gif","img/card_backs/set1/purple.gif","img/card_backs/set1/green.gif","img/card_backs/set1/yellow.gif","img/card_backs/set2/pink.gif","img/card_backs/set2/orange.gif","img/card_backs/set2/blue.gif","img/card_backs/set2/gray.gif","""event"",""trial"",""time""
""blur"",""0"",""0""
""focus"",""0"",""0""
""focus"",""0"",""0""
""blur"",""0"",""0""
""focus"",""0"",""0""
""blur"",""0"",""0""
""focus"",""1"",""35640""
""focus"",""1"",""35644""
""fullscreenenter"",""1"",""39556""
""blur"",""4"",""47159""
""focus"",""4"",""51903""
","""event"",""trial"",""time""
""blur"",""0"",""0""
""blur"",""0"",""0""
""blur"",""0"",""0""
""blur"",""4"",""47159""
","""event"",""trial"",""time""
""focus"",""0"",""0""
""focus"",""0"",""0""
""focus"",""0"",""0""
""focus"",""1"",""35640""
""focus"",""1"",""35644""
""focus"",""4"",""51903""
","""event"",""trial"",""time""
""fullscreenenter"",""1"",""39556""
","
","","7412","On every turn, you will be shown four different decks of cards. </br> You need to select a card from one of the four decks.  ","75","","instructions","2021-06-25 07:23:50.496","","","","","",""
"casino-keyboard-response","9","82798","0.0-6.0-0.3","A333","false","img/card_backs/set1/red.gif","img/card_backs/set1/purple.gif","img/card_backs/set1/green.gif","img/card_backs/set1/yellow.gif","img/card_backs/set2/pink.gif","img/card_backs/set2/orange.gif","img/card_backs/set2/blue.gif","img/card_backs/set2/gray.gif","""event"",""trial"",""time""
""blur"",""0"",""0""
""focus"",""0"",""0""
""focus"",""0"",""0""
""blur"",""0"",""0""
""focus"",""0"",""0""
""blur"",""0"",""0""
""focus"",""1"",""35640""
""focus"",""1"",""35644""
""fullscreenenter"",""1"",""39556""
""blur"",""4"",""47159""
""focus"",""4"",""51903""
","""event"",""trial"",""time""
""blur"",""0"",""0""
""blur"",""0"",""0""
""blur"",""0"",""0""
""blur"",""4"",""47159""
","""event"",""trial"",""time""
""focus"",""0"",""0""
""focus"",""0"",""0""
""focus"",""0"",""0""
""focus"",""1"",""35640""
""focus"",""1"",""35644""
""focus"",""4"",""51903""
","""event"",""trial"",""time""
""fullscreenenter"",""1"",""39556""
","
","","4606","On the next screen, you will see what the decks will look like. ","66","","instructions","2021-06-25 07:23:55.103","","","","","",""
"card-selection-trial","10","86802","0.0-7.0-0.0","A333","false","img/card_backs/set1/red.gif","img/card_backs/set1/purple.gif","img/card_backs/set1/green.gif","img/card_backs/set1/yellow.gif","img/card_backs/set2/pink.gif","img/card_backs/set2/orange.gif","img/card_backs/set2/blue.gif","img/card_backs/set2/gray.gif","""event"",""trial"",""time""
""blur"",""0"",""0""
""focus"",""0"",""0""
""focus"",""0"",""0""
""blur"",""0"",""0""
""focus"",""0"",""0""
""blur"",""0"",""0""
""focus"",""1"",""35640""
""focus"",""1"",""35644""
""fullscreenenter"",""1"",""39556""
""blur"",""4"",""47159""
""focus"",""4"",""51903""
","""event"",""trial"",""time""
""blur"",""0"",""0""
""blur"",""0"",""0""
""blur"",""0"",""0""
""blur"",""4"",""47159""
","""event"",""trial"",""time""
""focus"",""0"",""0""
""focus"",""0"",""0""
""focus"",""0"",""0""
""focus"",""1"",""35640""
""focus"",""1"",""35644""
""focus"",""4"",""51903""
","""event"",""trial"",""time""
""fullscreenenter"",""1"",""39556""
","
","","null","","","","practice","2021-06-25 07:23:59.107","null","null","null","0","",""
"casino-keyboard-response","11","94445","0.0-8.0-0.0","A333","false","img/card_backs/set1/red.gif","img/card_backs/set1/purple.gif","img/card_backs/set1/green.gif","img/card_backs/set1/yellow.gif","img/card_backs/set2/pink.gif","img/card_backs/set2/orange.gif","img/card_backs/set2/blue.gif","img/card_backs/set2/gray.gif","""event"",""trial"",""time""
""blur"",""0"",""0""
""focus"",""0"",""0""
""focus"",""0"",""0""
""blur"",""0"",""0""
""focus"",""0"",""0""
""blur"",""0"",""0""
""focus"",""1"",""35640""
""focus"",""1"",""35644""
""fullscreenenter"",""1"",""39556""
""blur"",""4"",""47159""
""focus"",""4"",""51903""
","""event"",""trial"",""time""
""blur"",""0"",""0""
""blur"",""0"",""0""
""blur"",""0"",""0""
""blur"",""4"",""47159""
","""event"",""trial"",""time""
""focus"",""0"",""0""
""focus"",""0"",""0""
""focus"",""0"",""0""
""focus"",""1"",""35640""
""focus"",""1"",""35644""
""focus"",""4"",""51903""
","""event"",""trial"",""time""
""fullscreenenter"",""1"",""39556""
","
","","7641","You should pick a card from a deck using the '2', '4', '6', and '8' keys at the top of the keyboard.","85","","instructions","2021-06-25 07:24:06.750","","","","","",""
"casino-keyboard-response","12","99601","0.0-8.0-0.1","A333","false","img/card_backs/set1/red.gif","img/card_backs/set1/purple.gif","img/card_backs/set1/green.gif","img/card_backs/set1/yellow.gif","img/card_backs/set2/pink.gif","img/card_backs/set2/orange.gif","img/card_backs/set2/blue.gif","img/card_backs/set2/gray.gif","""event"",""trial"",""time""
""blur"",""0"",""0""
""focus"",""0"",""0""
""focus"",""0"",""0""
""blur"",""0"",""0""
""focus"",""0"",""0""
""blur"",""0"",""0""
""focus"",""1"",""35640""
""focus"",""1"",""35644""
""fullscreenenter"",""1"",""39556""
""blur"",""4"",""47159""
""focus"",""4"",""51903""
","""event"",""trial"",""time""
""blur"",""0"",""0""
""blur"",""0"",""0""
""blur"",""0"",""0""
""blur"",""4"",""47159""
","""event"",""trial"",""time""
""focus"",""0"",""0""
""focus"",""0"",""0""
""focus"",""0"",""0""
""focus"",""1"",""35640""
""focus"",""1"",""35644""
""focus"",""4"",""51903""
","""event"",""trial"",""time""
""fullscreenenter"",""1"",""39556""
","
","","5154.000000000015","Once you select a card, it will turn over and you will see how many tokens you earned.","83","","instructions","2021-06-25 07:24:11.906","","","","","",""
"casino-keyboard-response","13","113543","0.0-8.0-0.2","A333","false","img/card_backs/set1/red.gif","img/card_backs/set1/purple.gif","img/card_backs/set1/green.gif","img/card_backs/set1/yellow.gif","img/card_backs/set2/pink.gif","img/card_backs/set2/orange.gif","img/card_backs/set2/blue.gif","img/card_backs/set2/gray.gif","""event"",""trial"",""time""
""blur"",""0"",""0""
""focus"",""0"",""0""
""focus"",""0"",""0""
""blur"",""0"",""0""
""focus"",""0"",""0""
""blur"",""0"",""0""
""focus"",""1"",""35640""
""focus"",""1"",""35644""
""fullscreenenter"",""1"",""39556""
""blur"",""4"",""47159""
""focus"",""4"",""51903""
","""event"",""trial"",""time""
""blur"",""0"",""0""
""blur"",""0"",""0""
""blur"",""0"",""0""
""blur"",""4"",""47159""
","""event"",""trial"",""time""
""focus"",""0"",""0""
""focus"",""0"",""0""
""focus"",""0"",""0""
""focus"",""1"",""35640""
""focus"",""1"",""35644""
""focus"",""4"",""51903""
","""event"",""trial"",""time""
""fullscreenenter"",""1"",""39556""
","
","","13941.000000000015","Let's try practicing that! </br> First, try to put your fingers over the '2', '4', '6', and '8' keys. </br>  You can use whatever fingers are most comfortable for you. Try to find a comfortable position now. ","50","","instructions","2021-06-25 07:24:25.848","","","","","",""
"casino-keyboard-response","14","119066","0.0-8.0-0.3","A333","false","img/card_backs/set1/red.gif","img/card_backs/set1/purple.gif","img/card_backs/set1/green.gif","img/card_backs/set1/yellow.gif","img/card_backs/set2/pink.gif","img/card_backs/set2/orange.gif","img/card_backs/set2/blue.gif","img/card_backs/set2/gray.gif","""event"",""trial"",""time""
""blur"",""0"",""0""
""focus"",""0"",""0""
""focus"",""0"",""0""
""blur"",""0"",""0""
""focus"",""0"",""0""
""blur"",""0"",""0""
""focus"",""1"",""35640""
""focus"",""1"",""35644""
""fullscreenenter"",""1"",""39556""
""blur"",""4"",""47159""
""focus"",""4"",""51903""
","""event"",""trial"",""time""
""blur"",""0"",""0""
""blur"",""0"",""0""
""blur"",""0"",""0""
""blur"",""4"",""47159""
","""event"",""trial"",""time""
""focus"",""0"",""0""
""focus"",""0"",""0""
""focus"",""0"",""0""
""focus"",""1"",""35640""
""focus"",""1"",""35644""
""focus"",""4"",""51903""
","""event"",""trial"",""time""
""fullscreenenter"",""1"",""39556""
","
","","5522","Okay ready? </br> On the next screen, press '2' to select the left deck. ","50","","instructions","2021-06-25 07:24:31.372","","","","","",""
"card-selection-trial","15","121839","0.0-9.0-0.0","A333","false","img/card_backs/set1/red.gif","img/card_backs/set1/purple.gif","img/card_backs/set1/green.gif","img/card_backs/set1/yellow.gif","img/card_backs/set2/pink.gif","img/card_backs/set2/orange.gif","img/card_backs/set2/blue.gif","img/card_backs/set2/gray.gif","""event"",""trial"",""time""
""blur"",""0"",""0""
""focus"",""0"",""0""
""focus"",""0"",""0""
""blur"",""0"",""0""
""focus"",""0"",""0""
""blur"",""0"",""0""
""focus"",""1"",""35640""
""focus"",""1"",""35644""
""fullscreenenter"",""1"",""39556""
""blur"",""4"",""47159""
""focus"",""4"",""51903""
","""event"",""trial"",""time""
""blur"",""0"",""0""
""blur"",""0"",""0""
""blur"",""0"",""0""
""blur"",""4"",""47159""
","""event"",""trial"",""time""
""focus"",""0"",""0""
""focus"",""0"",""0""
""focus"",""0"",""0""
""focus"",""1"",""35640""
""focus"",""1"",""35644""
""focus"",""4"",""51903""
","""event"",""trial"",""time""
""fullscreenenter"",""1"",""39556""
","
","","671","","","","practice_card_selection","2021-06-25 07:24:34.145","img/practice_cards/backs/dark_green.gif","0","200","","",""
"casino-keyboard-response","16","127583","0.0-10.0-0.0","A333","false","img/card_backs/set1/red.gif","img/card_backs/set1/purple.gif","img/card_backs/set1/green.gif","img/card_backs/set1/yellow.gif","img/card_backs/set2/pink.gif","img/card_backs/set2/orange.gif","img/card_backs/set2/blue.gif","img/card_backs/set2/gray.gif","""event"",""trial"",""time""
""blur"",""0"",""0""
""focus"",""0"",""0""
""focus"",""0"",""0""
""blur"",""0"",""0""
""focus"",""0"",""0""
""blur"",""0"",""0""
""focus"",""1"",""35640""
""focus"",""1"",""35644""
""fullscreenenter"",""1"",""39556""
""blur"",""4"",""47159""
""focus"",""4"",""51903""
","""event"",""trial"",""time""
""blur"",""0"",""0""
""blur"",""0"",""0""
""blur"",""0"",""0""
""blur"",""4"",""47159""
","""event"",""trial"",""time""
""focus"",""0"",""0""
""focus"",""0"",""0""
""focus"",""0"",""0""
""focus"",""1"",""35640""
""focus"",""1"",""35644""
""focus"",""4"",""51903""
","""event"",""trial"",""time""
""fullscreenenter"",""1"",""39556""
","
","","5742.000000000029","Great! Now on the next screen, try pressing '6' to select the third deck.","54","","instructions","2021-06-25 07:24:39.888","","","","","",""
"card-selection-trial","17","130250","0.0-11.0-0.0","A333","false","img/card_backs/set1/red.gif","img/card_backs/set1/purple.gif","img/card_backs/set1/green.gif","img/card_backs/set1/yellow.gif","img/card_backs/set2/pink.gif","img/card_backs/set2/orange.gif","img/card_backs/set2/blue.gif","img/card_backs/set2/gray.gif","""event"",""trial"",""time""
""blur"",""0"",""0""
""focus"",""0"",""0""
""focus"",""0"",""0""
""blur"",""0"",""0""
""focus"",""0"",""0""
""blur"",""0"",""0""
""focus"",""1"",""35640""
""focus"",""1"",""35644""
""fullscreenenter"",""1"",""39556""
""blur"",""4"",""47159""
""focus"",""4"",""51903""
","""event"",""trial"",""time""
""blur"",""0"",""0""
""blur"",""0"",""0""
""blur"",""0"",""0""
""blur"",""4"",""47159""
","""event"",""trial"",""time""
""focus"",""0"",""0""
""focus"",""0"",""0""
""focus"",""0"",""0""
""focus"",""1"",""35640""
""focus"",""1"",""35644""
""focus"",""4"",""51903""
","""event"",""trial"",""time""
""fullscreenenter"",""1"",""39556""
","
","","578.0000000000291","","","","practice_card_selection","2021-06-25 07:24:42.556","img/practice_cards/backs/brown.gif","2","100","","",""
"casino-keyboard-response","18","134910","0.0-12.0-0.0","A333","false","img/card_backs/set1/red.gif","img/card_backs/set1/purple.gif","img/card_backs/set1/green.gif","img/card_backs/set1/yellow.gif","img/card_backs/set2/pink.gif","img/card_backs/set2/orange.gif","img/card_backs/set2/blue.gif","img/card_backs/set2/gray.gif","""event"",""trial"",""time""
""blur"",""0"",""0""
""focus"",""0"",""0""
""focus"",""0"",""0""
""blur"",""0"",""0""
""focus"",""0"",""0""
""blur"",""0"",""0""
""focus"",""1"",""35640""
""focus"",""1"",""35644""
""fullscreenenter"",""1"",""39556""
""blur"",""4"",""47159""
""focus"",""4"",""51903""
","""event"",""trial"",""time""
""blur"",""0"",""0""
""blur"",""0"",""0""
""blur"",""0"",""0""
""blur"",""4"",""47159""
","""event"",""trial"",""time""
""focus"",""0"",""0""
""focus"",""0"",""0""
""focus"",""0"",""0""
""focus"",""1"",""35640""
""focus"",""1"",""35644""
""focus"",""4"",""51903""
","""event"",""trial"",""time""
""fullscreenenter"",""1"",""39556""
","
","","4659","Now on the next screen, try pressing '4' to select the second deck.","52","","instructions","2021-06-25 07:24:47.215","","","","","",""
"card-selection-trial","19","137411","0.0-13.0-0.0","A333","false","img/card_backs/set1/red.gif","img/card_backs/set1/purple.gif","img/card_backs/set1/green.gif","img/card_backs/set1/yellow.gif","img/card_backs/set2/pink.gif","img/card_backs/set2/orange.gif","img/card_backs/set2/blue.gif","img/card_backs/set2/gray.gif","""event"",""trial"",""time""
""blur"",""0"",""0""
""focus"",""0"",""0""
""focus"",""0"",""0""
""blur"",""0"",""0""
""focus"",""0"",""0""
""blur"",""0"",""0""
""focus"",""1"",""35640""
""focus"",""1"",""35644""
""fullscreenenter"",""1"",""39556""
""blur"",""4"",""47159""
""focus"",""4"",""51903""
","""event"",""trial"",""time""
""blur"",""0"",""0""
""blur"",""0"",""0""
""blur"",""0"",""0""
""blur"",""4"",""47159""
","""event"",""trial"",""time""
""focus"",""0"",""0""
""focus"",""0"",""0""
""focus"",""0"",""0""
""focus"",""1"",""35640""
""focus"",""1"",""35644""
""focus"",""4"",""51903""
","""event"",""trial"",""time""
""fullscreenenter"",""1"",""39556""
","
","","413","","","","practice_card_selection","2021-06-25 07:24:49.716","img/practice_cards/backs/brown.gif","1","100","","",""
"casino-keyboard-response","20","141894","0.0-14.0-0.0","A333","false","img/card_backs/set1/red.gif","img/card_backs/set1/purple.gif","img/card_backs/set1/green.gif","img/card_backs/set1/yellow.gif","img/card_backs/set2/pink.gif","img/card_backs/set2/orange.gif","img/card_backs/set2/blue.gif","img/card_backs/set2/gray.gif","""event"",""trial"",""time""
""blur"",""0"",""0""
""focus"",""0"",""0""
""focus"",""0"",""0""
""blur"",""0"",""0""
""focus"",""0"",""0""
""blur"",""0"",""0""
""focus"",""1"",""35640""
""focus"",""1"",""35644""
""fullscreenenter"",""1"",""39556""
""blur"",""4"",""47159""
""focus"",""4"",""51903""
","""event"",""trial"",""time""
""blur"",""0"",""0""
""blur"",""0"",""0""
""blur"",""0"",""0""
""blur"",""4"",""47159""
","""event"",""trial"",""time""
""focus"",""0"",""0""
""focus"",""0"",""0""
""focus"",""0"",""0""
""focus"",""1"",""35640""
""focus"",""1"",""35644""
""focus"",""4"",""51903""
","""event"",""trial"",""time""
""fullscreenenter"",""1"",""39556""
","
","","4482","Finally, try pressing '8' to select the deck all the way on the right.","56","","instructions","2021-06-25 07:24:54.199","","","","","",""
"card-selection-trial","21","144417","0.0-15.0-0.0","A333","false","img/card_backs/set1/red.gif","img/card_backs/set1/purple.gif","img/card_backs/set1/green.gif","img/card_backs/set1/yellow.gif","img/card_backs/set2/pink.gif","img/card_backs/set2/orange.gif","img/card_backs/set2/blue.gif","img/card_backs/set2/gray.gif","""event"",""trial"",""time""
""blur"",""0"",""0""
""focus"",""0"",""0""
""focus"",""0"",""0""
""blur"",""0"",""0""
""focus"",""0"",""0""
""blur"",""0"",""0""
""focus"",""1"",""35640""
""focus"",""1"",""35644""
""fullscreenenter"",""1"",""39556""
""blur"",""4"",""47159""
""focus"",""4"",""51903""
","""event"",""trial"",""time""
""blur"",""0"",""0""
""blur"",""0"",""0""
""blur"",""0"",""0""
""blur"",""4"",""47159""
","""event"",""trial"",""time""
""focus"",""0"",""0""
""focus"",""0"",""0""
""focus"",""0"",""0""
""focus"",""1"",""35640""
""focus"",""1"",""35644""
""focus"",""4"",""51903""
","""event"",""trial"",""time""
""fullscreenenter"",""1"",""39556""
","
","","428.9999999999709","","","","practice_card_selection","2021-06-25 07:24:56.722","img/practice_cards/backs/brown.gif","3","100","","",""
"casino-keyboard-response","22","148166","0.0-16.0-0.0","A333","false","img/card_backs/set1/red.gif","img/card_backs/set1/purple.gif","img/card_backs/set1/green.gif","img/card_backs/set1/yellow.gif","img/card_backs/set2/pink.gif","img/card_backs/set2/orange.gif","img/card_backs/set2/blue.gif","img/card_backs/set2/gray.gif","""event"",""trial"",""time""
""blur"",""0"",""0""
""focus"",""0"",""0""
""focus"",""0"",""0""
""blur"",""0"",""0""
""focus"",""0"",""0""
""blur"",""0"",""0""
""focus"",""1"",""35640""
""focus"",""1"",""35644""
""fullscreenenter"",""1"",""39556""
""blur"",""4"",""47159""
""focus"",""4"",""51903""
","""event"",""trial"",""time""
""blur"",""0"",""0""
""blur"",""0"",""0""
""blur"",""0"",""0""
""blur"",""4"",""47159""
","""event"",""trial"",""time""
""focus"",""0"",""0""
""focus"",""0"",""0""
""focus"",""0"",""0""
""focus"",""1"",""35640""
""focus"",""1"",""35644""
""focus"",""4"",""51903""
","""event"",""trial"",""time""
""fullscreenenter"",""1"",""39556""
","
","","3747","Great! It seems like you are getting the hang of this.","80","","instructions","2021-06-25 07:25:00.471","","","","","",""
"casino-keyboard-response","23","155310","0.0-16.0-0.1","A333","false","img/card_backs/set1/red.gif","img/card_backs/set1/purple.gif","img/card_backs/set1/green.gif","img/card_backs/set1/yellow.gif","img/card_backs/set2/pink.gif","img/card_backs/set2/orange.gif","img/card_backs/set2/blue.gif","img/card_backs/set2/gray.gif","""event"",""trial"",""time""
""blur"",""0"",""0""
""focus"",""0"",""0""
""focus"",""0"",""0""
""blur"",""0"",""0""
""focus"",""0"",""0""
""blur"",""0"",""0""
""focus"",""1"",""35640""
""focus"",""1"",""35644""
""fullscreenenter"",""1"",""39556""
""blur"",""4"",""47159""
""focus"",""4"",""51903""
","""event"",""trial"",""time""
""blur"",""0"",""0""
""blur"",""0"",""0""
""blur"",""0"",""0""
""blur"",""4"",""47159""
","""event"",""trial"",""time""
""focus"",""0"",""0""
""focus"",""0"",""0""
""focus"",""0"",""0""
""focus"",""1"",""35640""
""focus"",""1"",""35644""
""focus"",""4"",""51903""
","""event"",""trial"",""time""
""fullscreenenter"",""1"",""39556""
","
","","7144","You may have noticed that some cards will cause you to <b> win </b> tokens while other cards will cause you to <b> lose </b>  tokens.","70","","instructions","2021-06-25 07:25:07.616","","","","","",""
"casino-keyboard-response","24","163801","0.0-16.0-0.2","A333","false","img/card_backs/set1/red.gif","img/card_backs/set1/purple.gif","img/card_backs/set1/green.gif","img/card_backs/set1/yellow.gif","img/card_backs/set2/pink.gif","img/card_backs/set2/orange.gif","img/card_backs/set2/blue.gif","img/card_backs/set2/gray.gif","""event"",""trial"",""time""
""blur"",""0"",""0""
""focus"",""0"",""0""
""focus"",""0"",""0""
""blur"",""0"",""0""
""focus"",""0"",""0""
""blur"",""0"",""0""
""focus"",""1"",""35640""
""focus"",""1"",""35644""
""fullscreenenter"",""1"",""39556""
""blur"",""4"",""47159""
""focus"",""4"",""51903""
","""event"",""trial"",""time""
""blur"",""0"",""0""
""blur"",""0"",""0""
""blur"",""0"",""0""
""blur"",""4"",""47159""
","""event"",""trial"",""time""
""focus"",""0"",""0""
""focus"",""0"",""0""
""focus"",""0"",""0""
""focus"",""1"",""35640""
""focus"",""1"",""35644""
""focus"",""4"",""51903""
","""event"",""trial"",""time""
""fullscreenenter"",""1"",""39556""
","
","","8489","Each deck has a mix of cards that will cause you to win and lose tokens. </br> However, the cards in each colored deck are different.","73","","instructions","2021-06-25 07:25:16.106","","","","","",""
"casino-keyboard-response","25","171962","0.0-16.0-0.3","A333","false","img/card_backs/set1/red.gif","img/card_backs/set1/purple.gif","img/card_backs/set1/green.gif","img/card_backs/set1/yellow.gif","img/card_backs/set2/pink.gif","img/card_backs/set2/orange.gif","img/card_backs/set2/blue.gif","img/card_backs/set2/gray.gif","""event"",""trial"",""time""
""blur"",""0"",""0""
""focus"",""0"",""0""
""focus"",""0"",""0""
""blur"",""0"",""0""
""focus"",""0"",""0""
""blur"",""0"",""0""
""focus"",""1"",""35640""
""focus"",""1"",""35644""
""fullscreenenter"",""1"",""39556""
""blur"",""4"",""47159""
""focus"",""4"",""51903""
","""event"",""trial"",""time""
""blur"",""0"",""0""
""blur"",""0"",""0""
""blur"",""0"",""0""
""blur"",""4"",""47159""
","""event"",""trial"",""time""
""focus"",""0"",""0""
""focus"",""0"",""0""
""focus"",""0"",""0""
""focus"",""1"",""35640""
""focus"",""1"",""35644""
""focus"",""4"",""51903""
","""event"",""trial"",""time""
""fullscreenenter"",""1"",""39556""
","
","","8161","Some colored decks are luckier than others. </br> If you choose the lucky decks, you will earn more tokens than if you choose the unlucky decks.","69","","instructions","2021-06-25 07:25:24.268","","","","","",""
"casino-keyboard-response","26","179118","0.0-16.0-0.4","A333","false","img/card_backs/set1/red.gif","img/card_backs/set1/purple.gif","img/card_backs/set1/green.gif","img/card_backs/set1/yellow.gif","img/card_backs/set2/pink.gif","img/card_backs/set2/orange.gif","img/card_backs/set2/blue.gif","img/card_backs/set2/gray.gif","""event"",""trial"",""time""
""blur"",""0"",""0""
""focus"",""0"",""0""
""focus"",""0"",""0""
""blur"",""0"",""0""
""focus"",""0"",""0""
""blur"",""0"",""0""
""focus"",""1"",""35640""
""focus"",""1"",""35644""
""fullscreenenter"",""1"",""39556""
""blur"",""4"",""47159""
""focus"",""4"",""51903""
","""event"",""trial"",""time""
""blur"",""0"",""0""
""blur"",""0"",""0""
""blur"",""0"",""0""
""blur"",""4"",""47159""
","""event"",""trial"",""time""
""focus"",""0"",""0""
""focus"",""0"",""0""
""focus"",""0"",""0""
""focus"",""1"",""35640""
""focus"",""1"",""35644""
""focus"",""4"",""51903""
","""event"",""trial"",""time""
""fullscreenenter"",""1"",""39556""
","
","","7154","You should try to figure out which decks are lucky. </br> Then, try to choose the lucky decks so you can win the most tokens.","87","","instructions","2021-06-25 07:25:31.423","","","","","",""
"casino-keyboard-response","27","191403","0.0-16.0-0.5","A333","false","img/card_backs/set1/red.gif","img/card_backs/set1/purple.gif","img/card_backs/set1/green.gif","img/card_backs/set1/yellow.gif","img/card_backs/set2/pink.gif","img/card_backs/set2/orange.gif","img/card_backs/set2/blue.gif","img/card_backs/set2/gray.gif","""event"",""trial"",""time""
""blur"",""0"",""0""
""focus"",""0"",""0""
""focus"",""0"",""0""
""blur"",""0"",""0""
""focus"",""0"",""0""
""blur"",""0"",""0""
""focus"",""1"",""35640""
""focus"",""1"",""35644""
""fullscreenenter"",""1"",""39556""
""blur"",""4"",""47159""
""focus"",""4"",""51903""
","""event"",""trial"",""time""
""blur"",""0"",""0""
""blur"",""0"",""0""
""blur"",""0"",""0""
""blur"",""4"",""47159""
","""event"",""trial"",""time""
""focus"",""0"",""0""
""focus"",""0"",""0""
""focus"",""0"",""0""
""focus"",""1"",""35640""
""focus"",""1"",""35644""
""focus"",""4"",""51903""
","""event"",""trial"",""time""
""fullscreenenter"",""1"",""39556""
","
","","12285","To make it trickier, the casino dealer will switch the locations of the decks on every turn. </br> The color of the deck determines how lucky it is. The location does not matter.","88","","instructions","2021-06-25 07:25:43.708","","","","","",""
"casino-keyboard-response","28","200535","0.0-16.0-0.6","A333","false","img/card_backs/set1/red.gif","img/card_backs/set1/purple.gif","img/card_backs/set1/green.gif","img/card_backs/set1/yellow.gif","img/card_backs/set2/pink.gif","img/card_backs/set2/orange.gif","img/card_backs/set2/blue.gif","img/card_backs/set2/gray.gif","""event"",""trial"",""time""
""blur"",""0"",""0""
""focus"",""0"",""0""
""focus"",""0"",""0""
""blur"",""0"",""0""
""focus"",""0"",""0""
""blur"",""0"",""0""
""focus"",""1"",""35640""
""focus"",""1"",""35644""
""fullscreenenter"",""1"",""39556""
""blur"",""4"",""47159""
""focus"",""4"",""51903""
","""event"",""trial"",""time""
""blur"",""0"",""0""
""blur"",""0"",""0""
""blur"",""0"",""0""
""blur"",""4"",""47159""
","""event"",""trial"",""time""
""focus"",""0"",""0""
""focus"",""0"",""0""
""focus"",""0"",""0""
""focus"",""1"",""35640""
""focus"",""1"",""35644""
""focus"",""4"",""51903""
","""event"",""trial"",""time""
""fullscreenenter"",""1"",""39556""
","
","","9130","The mix of cards in each colored deck will stay the same throughout the game. </br> That means that a deck that is lucky early on will stay lucky.","79","","instructions","2021-06-25 07:25:52.840","","","","","",""
"casino-keyboard-response","29","208502","0.0-16.0-0.7","A333","false","img/card_backs/set1/red.gif","img/card_backs/set1/purple.gif","img/card_backs/set1/green.gif","img/card_backs/set1/yellow.gif","img/card_backs/set2/pink.gif","img/card_backs/set2/orange.gif","img/card_backs/set2/blue.gif","img/card_backs/set2/gray.gif","""event"",""trial"",""time""
""blur"",""0"",""0""
""focus"",""0"",""0""
""focus"",""0"",""0""
""blur"",""0"",""0""
""focus"",""0"",""0""
""blur"",""0"",""0""
""focus"",""1"",""35640""
""focus"",""1"",""35644""
""fullscreenenter"",""1"",""39556""
""blur"",""4"",""47159""
""focus"",""4"",""51903""
","""event"",""trial"",""time""
""blur"",""0"",""0""
""blur"",""0"",""0""
""blur"",""0"",""0""
""blur"",""4"",""47159""
","""event"",""trial"",""time""
""focus"",""0"",""0""
""focus"",""0"",""0""
""focus"",""0"",""0""
""focus"",""1"",""35640""
""focus"",""1"",""35644""
""focus"",""4"",""51903""
","""event"",""trial"",""time""
""fullscreenenter"",""1"",""39556""
","
","","7967.000000000029","Remember though, all the decks have a <b> mix </b> of both <b> good </b> and <b> bad </b> cards so it may take a couple of turns to figure out if a deck is lucky.","69","","instructions","2021-06-25 07:26:00.807","","","","","",""
"casino-keyboard-response","30","216738","0.0-16.0-0.8","A333","false","img/card_backs/set1/red.gif","img/card_backs/set1/purple.gif","img/card_backs/set1/green.gif","img/card_backs/set1/yellow.gif","img/card_backs/set2/pink.gif","img/card_backs/set2/orange.gif","img/card_backs/set2/blue.gif","img/card_backs/set2/gray.gif","""event"",""trial"",""time""
""blur"",""0"",""0""
""focus"",""0"",""0""
""focus"",""0"",""0""
""blur"",""0"",""0""
""focus"",""0"",""0""
""blur"",""0"",""0""
""focus"",""1"",""35640""
""focus"",""1"",""35644""
""fullscreenenter"",""1"",""39556""
""blur"",""4"",""47159""
""focus"",""4"",""51903""
","""event"",""trial"",""time""
""blur"",""0"",""0""
""blur"",""0"",""0""
""blur"",""0"",""0""
""blur"",""4"",""47159""
","""event"",""trial"",""time""
""focus"",""0"",""0""
""focus"",""0"",""0""
""focus"",""0"",""0""
""focus"",""1"",""35640""
""focus"",""1"",""35644""
""focus"",""4"",""51903""
","""event"",""trial"",""time""
""fullscreenenter"",""1"",""39556""
","
","","8235","At the end of the game, you will be paid bonus money based on how many tokens you win. </br> If you win more tokens, you will earn more money!","72","","instructions","2021-06-25 07:26:09.043","","","","","",""
"casino-keyboard-response","31","226708","0.0-16.0-0.9","A333","false","img/card_backs/set1/red.gif","img/card_backs/set1/purple.gif","img/card_backs/set1/green.gif","img/card_backs/set1/yellow.gif","img/card_backs/set2/pink.gif","img/card_backs/set2/orange.gif","img/card_backs/set2/blue.gif","img/card_backs/set2/gray.gif","""event"",""trial"",""time""
""blur"",""0"",""0""
""focus"",""0"",""0""
""focus"",""0"",""0""
""blur"",""0"",""0""
""focus"",""0"",""0""
""blur"",""0"",""0""
""focus"",""1"",""35640""
""focus"",""1"",""35644""
""fullscreenenter"",""1"",""39556""
""blur"",""4"",""47159""
""focus"",""4"",""51903""
","""event"",""trial"",""time""
""blur"",""0"",""0""
""blur"",""0"",""0""
""blur"",""0"",""0""
""blur"",""4"",""47159""
","""event"",""trial"",""time""
""focus"",""0"",""0""
""focus"",""0"",""0""
""focus"",""0"",""0""
""focus"",""1"",""35640""
""focus"",""1"",""35644""
""focus"",""4"",""51903""
","""event"",""trial"",""time""
""fullscreenenter"",""1"",""39556""
","
","","9969","You will never <b> lose </b> money. </br> If you end up with fewer than 0 tokens, you will earn $0 of bonus money, but you will still be paid for playing the game.","83","","instructions","2021-06-25 07:26:19.013","","","","","",""
"casino-keyboard-response","32","230975","0.0-16.0-0.10","A333","false","img/card_backs/set1/red.gif","img/card_backs/set1/purple.gif","img/card_backs/set1/green.gif","img/card_backs/set1/yellow.gif","img/card_backs/set2/pink.gif","img/card_backs/set2/orange.gif","img/card_backs/set2/blue.gif","img/card_backs/set2/gray.gif","""event"",""trial"",""time""
""blur"",""0"",""0""
""focus"",""0"",""0""
""focus"",""0"",""0""
""blur"",""0"",""0""
""focus"",""0"",""0""
""blur"",""0"",""0""
""focus"",""1"",""35640""
""focus"",""1"",""35644""
""fullscreenenter"",""1"",""39556""
""blur"",""4"",""47159""
""focus"",""4"",""51903""
","""event"",""trial"",""time""
""blur"",""0"",""0""
""blur"",""0"",""0""
""blur"",""0"",""0""
""blur"",""4"",""47159""
","""event"",""trial"",""time""
""focus"",""0"",""0""
""focus"",""0"",""0""
""focus"",""0"",""0""
""focus"",""1"",""35640""
""focus"",""1"",""35644""
""focus"",""4"",""51903""
","""event"",""trial"",""time""
""fullscreenenter"",""1"",""39556""
","
","","4264.999999999971","You will have 10 seconds to make each choice.","82","","instructions","2021-06-25 07:26:23.280","","","","","",""
"casino-keyboard-response","33","238879","0.0-16.0-0.11","A333","false","img/card_backs/set1/red.gif","img/card_backs/set1/purple.gif","img/card_backs/set1/green.gif","img/card_backs/set1/yellow.gif","img/card_backs/set2/pink.gif","img/card_backs/set2/orange.gif","img/card_backs/set2/blue.gif","img/card_backs/set2/gray.gif","""event"",""trial"",""time""
""blur"",""0"",""0""
""focus"",""0"",""0""
""focus"",""0"",""0""
""blur"",""0"",""0""
""focus"",""0"",""0""
""blur"",""0"",""0""
""focus"",""1"",""35640""
""focus"",""1"",""35644""
""fullscreenenter"",""1"",""39556""
""blur"",""4"",""47159""
""focus"",""4"",""51903""
","""event"",""trial"",""time""
""blur"",""0"",""0""
""blur"",""0"",""0""
""blur"",""0"",""0""
""blur"",""4"",""47159""
","""event"",""trial"",""time""
""focus"",""0"",""0""
""focus"",""0"",""0""
""focus"",""0"",""0""
""focus"",""1"",""35640""
""focus"",""1"",""35644""
""focus"",""4"",""51903""
","""event"",""trial"",""time""
""fullscreenenter"",""1"",""39556""
","
","","7902","Before you play the game for real, you will play with practice decks. </br> The tokens you earn during practice won't count toward your total.","86","","instructions","2021-06-25 07:26:31.184","","","","","",""
"casino-keyboard-response","34","244399","0.0-16.0-0.12","A333","false","img/card_backs/set1/red.gif","img/card_backs/set1/purple.gif","img/card_backs/set1/green.gif","img/card_backs/set1/yellow.gif","img/card_backs/set2/pink.gif","img/card_backs/set2/orange.gif","img/card_backs/set2/blue.gif","img/card_backs/set2/gray.gif","""event"",""trial"",""time""
""blur"",""0"",""0""
""focus"",""0"",""0""
""focus"",""0"",""0""
""blur"",""0"",""0""
""focus"",""0"",""0""
""blur"",""0"",""0""
""focus"",""1"",""35640""
""focus"",""1"",""35644""
""fullscreenenter"",""1"",""39556""
""blur"",""4"",""47159""
""focus"",""4"",""51903""
","""event"",""trial"",""time""
""blur"",""0"",""0""
""blur"",""0"",""0""
""blur"",""0"",""0""
""blur"",""4"",""47159""
","""event"",""trial"",""time""
""focus"",""0"",""0""
""focus"",""0"",""0""
""focus"",""0"",""0""
""focus"",""1"",""35640""
""focus"",""1"",""35644""
""focus"",""4"",""51903""
","""event"",""trial"",""time""
""fullscreenenter"",""1"",""39556""
","
","","5519","Ready? Remember, use the '2', '4', '6', and '8' keys to select the decks. </br> Put your fingers on those keys now and then press '2' to begin.","50","","instructions","2021-06-25 07:26:36.704","","","","","",""
"casino-fixation","35","244902","0.0-17.0-0.0","A333","false","img/card_backs/set1/red.gif","img/card_backs/set1/purple.gif","img/card_backs/set1/green.gif","img/card_backs/set1/yellow.gif","img/card_backs/set2/pink.gif","img/card_backs/set2/orange.gif","img/card_backs/set2/blue.gif","img/card_backs/set2/gray.gif","""event"",""trial"",""time""
""blur"",""0"",""0""
""focus"",""0"",""0""
""focus"",""0"",""0""
""blur"",""0"",""0""
""focus"",""0"",""0""
""blur"",""0"",""0""
""focus"",""1"",""35640""
""focus"",""1"",""35644""
""fullscreenenter"",""1"",""39556""
""blur"",""4"",""47159""
""focus"",""4"",""51903""
","""event"",""trial"",""time""
""blur"",""0"",""0""
""blur"",""0"",""0""
""blur"",""0"",""0""
""blur"",""4"",""47159""
","""event"",""trial"",""time""
""focus"",""0"",""0""
""focus"",""0"",""0""
""focus"",""0"",""0""
""focus"",""1"",""35640""
""focus"",""1"",""35644""
""focus"",""4"",""51903""
","""event"",""trial"",""time""
""fullscreenenter"",""1"",""39556""
","
","","null","","null","","fixation","2021-06-25 07:26:37.207","","","","","",""
"card-selection-trial","36","248467","0.0-17.0-1.0","A333","false","img/card_backs/set1/red.gif","img/card_backs/set1/purple.gif","img/card_backs/set1/green.gif","img/card_backs/set1/yellow.gif","img/card_backs/set2/pink.gif","img/card_backs/set2/orange.gif","img/card_backs/set2/blue.gif","img/card_backs/set2/gray.gif","""event"",""trial"",""time""
""blur"",""0"",""0""
""focus"",""0"",""0""
""focus"",""0"",""0""
""blur"",""0"",""0""
""focus"",""0"",""0""
""blur"",""0"",""0""
""focus"",""1"",""35640""
""focus"",""1"",""35644""
""fullscreenenter"",""1"",""39556""
""blur"",""4"",""47159""
""focus"",""4"",""51903""
","""event"",""trial"",""time""
""blur"",""0"",""0""
""blur"",""0"",""0""
""blur"",""0"",""0""
""blur"",""4"",""47159""
","""event"",""trial"",""time""
""focus"",""0"",""0""
""focus"",""0"",""0""
""focus"",""0"",""0""
""focus"",""1"",""35640""
""focus"",""1"",""35644""
""focus"",""4"",""51903""
","""event"",""trial"",""time""
""fullscreenenter"",""1"",""39556""
","
","","1560","","","","practice","2021-06-25 07:26:40.772","img/practice_cards/backs/dark_blue.gif","0","-200","0","",""
"casino-fixation","37","248969","0.0-17.0-0.1","A333","false","img/card_backs/set1/red.gif","img/card_backs/set1/purple.gif","img/card_backs/set1/green.gif","img/card_backs/set1/yellow.gif","img/card_backs/set2/pink.gif","img/card_backs/set2/orange.gif","img/card_backs/set2/blue.gif","img/card_backs/set2/gray.gif","""event"",""trial"",""time""
""blur"",""0"",""0""
""focus"",""0"",""0""
""focus"",""0"",""0""
""blur"",""0"",""0""
""focus"",""0"",""0""
""blur"",""0"",""0""
""focus"",""1"",""35640""
""focus"",""1"",""35644""
""fullscreenenter"",""1"",""39556""
""blur"",""4"",""47159""
""focus"",""4"",""51903""
","""event"",""trial"",""time""
""blur"",""0"",""0""
""blur"",""0"",""0""
""blur"",""0"",""0""
""blur"",""4"",""47159""
","""event"",""trial"",""time""
""focus"",""0"",""0""
""focus"",""0"",""0""
""focus"",""0"",""0""
""focus"",""1"",""35640""
""focus"",""1"",""35644""
""focus"",""4"",""51903""
","""event"",""trial"",""time""
""fullscreenenter"",""1"",""39556""
","
","","null","","null","","fixation","2021-06-25 07:26:41.274","","","","","",""
"card-selection-trial","38","252519","0.0-17.0-1.1","A333","false","img/card_backs/set1/red.gif","img/card_backs/set1/purple.gif","img/card_backs/set1/green.gif","img/card_backs/set1/yellow.gif","img/card_backs/set2/pink.gif","img/card_backs/set2/orange.gif","img/card_backs/set2/blue.gif","img/card_backs/set2/gray.gif","""event"",""trial"",""time""
""blur"",""0"",""0""
""focus"",""0"",""0""
""focus"",""0"",""0""
""blur"",""0"",""0""
""focus"",""0"",""0""
""blur"",""0"",""0""
""focus"",""1"",""35640""
""focus"",""1"",""35644""
""fullscreenenter"",""1"",""39556""
""blur"",""4"",""47159""
""focus"",""4"",""51903""
","""event"",""trial"",""time""
""blur"",""0"",""0""
""blur"",""0"",""0""
""blur"",""0"",""0""
""blur"",""4"",""47159""
","""event"",""trial"",""time""
""focus"",""0"",""0""
""focus"",""0"",""0""
""focus"",""0"",""0""
""focus"",""1"",""35640""
""focus"",""1"",""35644""
""focus"",""4"",""51903""
","""event"",""trial"",""time""
""fullscreenenter"",""1"",""39556""
","
","","1547","","","","practice","2021-06-25 07:26:44.824","img/practice_cards/backs/black.gif","1","-100","0","",""
"casino-fixation","39","253021","0.0-17.0-0.2","A333","false","img/card_backs/set1/red.gif","img/card_backs/set1/purple.gif","img/card_backs/set1/green.gif","img/card_backs/set1/yellow.gif","img/card_backs/set2/pink.gif","img/card_backs/set2/orange.gif","img/card_backs/set2/blue.gif","img/card_backs/set2/gray.gif","""event"",""trial"",""time""
""blur"",""0"",""0""
""focus"",""0"",""0""
""focus"",""0"",""0""
""blur"",""0"",""0""
""focus"",""0"",""0""
""blur"",""0"",""0""
""focus"",""1"",""35640""
""focus"",""1"",""35644""
""fullscreenenter"",""1"",""39556""
""blur"",""4"",""47159""
""focus"",""4"",""51903""
","""event"",""trial"",""time""
""blur"",""0"",""0""
""blur"",""0"",""0""
""blur"",""0"",""0""
""blur"",""4"",""47159""
","""event"",""trial"",""time""
""focus"",""0"",""0""
""focus"",""0"",""0""
""focus"",""0"",""0""
""focus"",""1"",""35640""
""focus"",""1"",""35644""
""focus"",""4"",""51903""
","""event"",""trial"",""time""
""fullscreenenter"",""1"",""39556""
","
","","null","","null","","fixation","2021-06-25 07:26:45.326","","","","","",""
"card-selection-trial","40","255872","0.0-17.0-1.2","A333","false","img/card_backs/set1/red.gif","img/card_backs/set1/purple.gif","img/card_backs/set1/green.gif","img/card_backs/set1/yellow.gif","img/card_backs/set2/pink.gif","img/card_backs/set2/orange.gif","img/card_backs/set2/blue.gif","img/card_backs/set2/gray.gif","""event"",""trial"",""time""
""blur"",""0"",""0""
""focus"",""0"",""0""
""focus"",""0"",""0""
""blur"",""0"",""0""
""focus"",""0"",""0""
""blur"",""0"",""0""
""focus"",""1"",""35640""
""focus"",""1"",""35644""
""fullscreenenter"",""1"",""39556""
""blur"",""4"",""47159""
""focus"",""4"",""51903""
","""event"",""trial"",""time""
""blur"",""0"",""0""
""blur"",""0"",""0""
""blur"",""0"",""0""
""blur"",""4"",""47159""
","""event"",""trial"",""time""
""focus"",""0"",""0""
""focus"",""0"",""0""
""focus"",""0"",""0""
""focus"",""1"",""35640""
""focus"",""1"",""35644""
""focus"",""4"",""51903""
","""event"",""trial"",""time""
""fullscreenenter"",""1"",""39556""
","
","","846","","","","practice","2021-06-25 07:26:48.177","img/practice_cards/backs/brown.gif","2","100","0","",""
"casino-fixation","41","256373","0.0-17.0-0.3","A333","false","img/card_backs/set1/red.gif","img/card_backs/set1/purple.gif","img/card_backs/set1/green.gif","img/card_backs/set1/yellow.gif","img/card_backs/set2/pink.gif","img/card_backs/set2/orange.gif","img/card_backs/set2/blue.gif","img/card_backs/set2/gray.gif","""event"",""trial"",""time""
""blur"",""0"",""0""
""focus"",""0"",""0""
""focus"",""0"",""0""
""blur"",""0"",""0""
""focus"",""0"",""0""
""blur"",""0"",""0""
""focus"",""1"",""35640""
""focus"",""1"",""35644""
""fullscreenenter"",""1"",""39556""
""blur"",""4"",""47159""
""focus"",""4"",""51903""
","""event"",""trial"",""time""
""blur"",""0"",""0""
""blur"",""0"",""0""
""blur"",""0"",""0""
""blur"",""4"",""47159""
","""event"",""trial"",""time""
""focus"",""0"",""0""
""focus"",""0"",""0""
""focus"",""0"",""0""
""focus"",""1"",""35640""
""focus"",""1"",""35644""
""focus"",""4"",""51903""
","""event"",""trial"",""time""
""fullscreenenter"",""1"",""39556""
","
","","null","","null","","fixation","2021-06-25 07:26:48.679","","","","","",""
"card-selection-trial","42","258832","0.0-17.0-1.3","A333","false","img/card_backs/set1/red.gif","img/card_backs/set1/purple.gif","img/card_backs/set1/green.gif","img/card_backs/set1/yellow.gif","img/card_backs/set2/pink.gif","img/card_backs/set2/orange.gif","img/card_backs/set2/blue.gif","img/card_backs/set2/gray.gif","""event"",""trial"",""time""
""blur"",""0"",""0""
""focus"",""0"",""0""
""focus"",""0"",""0""
""blur"",""0"",""0""
""focus"",""0"",""0""
""blur"",""0"",""0""
""focus"",""1"",""35640""
""focus"",""1"",""35644""
""fullscreenenter"",""1"",""39556""
""blur"",""4"",""47159""
""focus"",""4"",""51903""
","""event"",""trial"",""time""
""blur"",""0"",""0""
""blur"",""0"",""0""
""blur"",""0"",""0""
""blur"",""4"",""47159""
","""event"",""trial"",""time""
""focus"",""0"",""0""
""focus"",""0"",""0""
""focus"",""0"",""0""
""focus"",""1"",""35640""
""focus"",""1"",""35644""
""focus"",""4"",""51903""
","""event"",""trial"",""time""
""fullscreenenter"",""1"",""39556""
","
","","454.0000000000582","","","","practice","2021-06-25 07:26:51.137","img/practice_cards/backs/black.gif","3","100","0","",""
"casino-fixation","43","259334","0.0-17.0-0.4","A333","false","img/card_backs/set1/red.gif","img/card_backs/set1/purple.gif","img/card_backs/set1/green.gif","img/card_backs/set1/yellow.gif","img/card_backs/set2/pink.gif","img/card_backs/set2/orange.gif","img/card_backs/set2/blue.gif","img/card_backs/set2/gray.gif","""event"",""trial"",""time""
""blur"",""0"",""0""
""focus"",""0"",""0""
""focus"",""0"",""0""
""blur"",""0"",""0""
""focus"",""0"",""0""
""blur"",""0"",""0""
""focus"",""1"",""35640""
""focus"",""1"",""35644""
""fullscreenenter"",""1"",""39556""
""blur"",""4"",""47159""
""focus"",""4"",""51903""
","""event"",""trial"",""time""
""blur"",""0"",""0""
""blur"",""0"",""0""
""blur"",""0"",""0""
""blur"",""4"",""47159""
","""event"",""trial"",""time""
""focus"",""0"",""0""
""focus"",""0"",""0""
""focus"",""0"",""0""
""focus"",""1"",""35640""
""focus"",""1"",""35644""
""focus"",""4"",""51903""
","""event"",""trial"",""time""
""fullscreenenter"",""1"",""39556""
","
","","null","","null","","fixation","2021-06-25 07:26:51.639","","","","","",""
"card-selection-trial","44","262495","0.0-17.0-1.4","A333","false","img/card_backs/set1/red.gif","img/card_backs/set1/purple.gif","img/card_backs/set1/green.gif","img/card_backs/set1/yellow.gif","img/card_backs/set2/pink.gif","img/card_backs/set2/orange.gif","img/card_backs/set2/blue.gif","img/card_backs/set2/gray.gif","""event"",""trial"",""time""
""blur"",""0"",""0""
""focus"",""0"",""0""
""focus"",""0"",""0""
""blur"",""0"",""0""
""focus"",""0"",""0""
""blur"",""0"",""0""
""focus"",""1"",""35640""
""focus"",""1"",""35644""
""fullscreenenter"",""1"",""39556""
""blur"",""4"",""47159""
""focus"",""4"",""51903""
","""event"",""trial"",""time""
""blur"",""0"",""0""
""blur"",""0"",""0""
""blur"",""0"",""0""
""blur"",""4"",""47159""
","""event"",""trial"",""time""
""focus"",""0"",""0""
""focus"",""0"",""0""
""focus"",""0"",""0""
""focus"",""1"",""35640""
""focus"",""1"",""35644""
""focus"",""4"",""51903""
","""event"",""trial"",""time""
""fullscreenenter"",""1"",""39556""
","
","","1157","","","","practice","2021-06-25 07:26:54.800","img/practice_cards/backs/black.gif","2","-100","0","",""
"casino-fixation","45","262997","0.0-17.0-0.5","A333","false","img/card_backs/set1/red.gif","img/card_backs/set1/purple.gif","img/card_backs/set1/green.gif","img/card_backs/set1/yellow.gif","img/card_backs/set2/pink.gif","img/card_backs/set2/orange.gif","img/card_backs/set2/blue.gif","img/card_backs/set2/gray.gif","""event"",""trial"",""time""
""blur"",""0"",""0""
""focus"",""0"",""0""
""focus"",""0"",""0""
""blur"",""0"",""0""
""focus"",""0"",""0""
""blur"",""0"",""0""
""focus"",""1"",""35640""
""focus"",""1"",""35644""
""fullscreenenter"",""1"",""39556""
""blur"",""4"",""47159""
""focus"",""4"",""51903""
","""event"",""trial"",""time""
""blur"",""0"",""0""
""blur"",""0"",""0""
""blur"",""0"",""0""
""blur"",""4"",""47159""
","""event"",""trial"",""time""
""focus"",""0"",""0""
""focus"",""0"",""0""
""focus"",""0"",""0""
""focus"",""1"",""35640""
""focus"",""1"",""35644""
""focus"",""4"",""51903""
","""event"",""trial"",""time""
""fullscreenenter"",""1"",""39556""
","
","","null","","null","","fixation","2021-06-25 07:26:55.302","","","","","",""
"card-selection-trial","46","265359","0.0-17.0-1.5","A333","false","img/card_backs/set1/red.gif","img/card_backs/set1/purple.gif","img/card_backs/set1/green.gif","img/card_backs/set1/yellow.gif","img/card_backs/set2/pink.gif","img/card_backs/set2/orange.gif","img/card_backs/set2/blue.gif","img/card_backs/set2/gray.gif","""event"",""trial"",""time""
""blur"",""0"",""0""
""focus"",""0"",""0""
""focus"",""0"",""0""
""blur"",""0"",""0""
""focus"",""0"",""0""
""blur"",""0"",""0""
""focus"",""1"",""35640""
""focus"",""1"",""35644""
""fullscreenenter"",""1"",""39556""
""blur"",""4"",""47159""
""focus"",""4"",""51903""
","""event"",""trial"",""time""
""blur"",""0"",""0""
""blur"",""0"",""0""
""blur"",""0"",""0""
""blur"",""4"",""47159""
","""event"",""trial"",""time""
""focus"",""0"",""0""
""focus"",""0"",""0""
""focus"",""0"",""0""
""focus"",""1"",""35640""
""focus"",""1"",""35644""
""focus"",""4"",""51903""
","""event"",""trial"",""time""
""fullscreenenter"",""1"",""39556""
","
","","357","","","","practice","2021-06-25 07:26:57.664","img/practice_cards/backs/brown.gif","3","100","0","",""
"casino-fixation","47","265861","0.0-17.0-0.6","A333","false","img/card_backs/set1/red.gif","img/card_backs/set1/purple.gif","img/card_backs/set1/green.gif","img/card_backs/set1/yellow.gif","img/card_backs/set2/pink.gif","img/card_backs/set2/orange.gif","img/card_backs/set2/blue.gif","img/card_backs/set2/gray.gif","""event"",""trial"",""time""
""blur"",""0"",""0""
""focus"",""0"",""0""
""focus"",""0"",""0""
""blur"",""0"",""0""
""focus"",""0"",""0""
""blur"",""0"",""0""
""focus"",""1"",""35640""
""focus"",""1"",""35644""
""fullscreenenter"",""1"",""39556""
""blur"",""4"",""47159""
""focus"",""4"",""51903""
","""event"",""trial"",""time""
""blur"",""0"",""0""
""blur"",""0"",""0""
""blur"",""0"",""0""
""blur"",""4"",""47159""
","""event"",""trial"",""time""
""focus"",""0"",""0""
""focus"",""0"",""0""
""focus"",""0"",""0""
""focus"",""1"",""35640""
""focus"",""1"",""35644""
""focus"",""4"",""51903""
","""event"",""trial"",""time""
""fullscreenenter"",""1"",""39556""
","
","","null","","null","","fixation","2021-06-25 07:26:58.166","","","","","",""
"card-selection-trial","48","268257","0.0-17.0-1.6","A333","false","img/card_backs/set1/red.gif","img/card_backs/set1/purple.gif","img/card_backs/set1/green.gif","img/card_backs/set1/yellow.gif","img/card_backs/set2/pink.gif","img/card_backs/set2/orange.gif","img/card_backs/set2/blue.gif","img/card_backs/set2/gray.gif","""event"",""trial"",""time""
""blur"",""0"",""0""
""focus"",""0"",""0""
""focus"",""0"",""0""
""blur"",""0"",""0""
""focus"",""0"",""0""
""blur"",""0"",""0""
""focus"",""1"",""35640""
""focus"",""1"",""35644""
""fullscreenenter"",""1"",""39556""
""blur"",""4"",""47159""
""focus"",""4"",""51903""
","""event"",""trial"",""time""
""blur"",""0"",""0""
""blur"",""0"",""0""
""blur"",""0"",""0""
""blur"",""4"",""47159""
","""event"",""trial"",""time""
""focus"",""0"",""0""
""focus"",""0"",""0""
""focus"",""0"",""0""
""focus"",""1"",""35640""
""focus"",""1"",""35644""
""focus"",""4"",""51903""
","""event"",""trial"",""time""
""fullscreenenter"",""1"",""39556""
","
","","392","","","","practice","2021-06-25 07:27:00.562","img/practice_cards/backs/brown.gif","3","-100","0","",""
"casino-fixation","49","268759","0.0-17.0-0.7","A333","false","img/card_backs/set1/red.gif","img/card_backs/set1/purple.gif","img/card_backs/set1/green.gif","img/card_backs/set1/yellow.gif","img/card_backs/set2/pink.gif","img/card_backs/set2/orange.gif","img/card_backs/set2/blue.gif","img/card_backs/set2/gray.gif","""event"",""trial"",""time""
""blur"",""0"",""0""
""focus"",""0"",""0""
""focus"",""0"",""0""
""blur"",""0"",""0""
""focus"",""0"",""0""
""blur"",""0"",""0""
""focus"",""1"",""35640""
""focus"",""1"",""35644""
""fullscreenenter"",""1"",""39556""
""blur"",""4"",""47159""
""focus"",""4"",""51903""
","""event"",""trial"",""time""
""blur"",""0"",""0""
""blur"",""0"",""0""
""blur"",""0"",""0""
""blur"",""4"",""47159""
","""event"",""trial"",""time""
""focus"",""0"",""0""
""focus"",""0"",""0""
""focus"",""0"",""0""
""focus"",""1"",""35640""
""focus"",""1"",""35644""
""focus"",""4"",""51903""
","""event"",""trial"",""time""
""fullscreenenter"",""1"",""39556""
","
","","null","","null","","fixation","2021-06-25 07:27:01.065","","","","","",""
"card-selection-trial","50","271095","0.0-17.0-1.7","A333","false","img/card_backs/set1/red.gif","img/card_backs/set1/purple.gif","img/card_backs/set1/green.gif","img/card_backs/set1/yellow.gif","img/card_backs/set2/pink.gif","img/card_backs/set2/orange.gif","img/card_backs/set2/blue.gif","img/card_backs/set2/gray.gif","""event"",""trial"",""time""
""blur"",""0"",""0""
""focus"",""0"",""0""
""focus"",""0"",""0""
""blur"",""0"",""0""
""focus"",""0"",""0""
""blur"",""0"",""0""
""focus"",""1"",""35640""
""focus"",""1"",""35644""
""fullscreenenter"",""1"",""39556""
""blur"",""4"",""47159""
""focus"",""4"",""51903""
","""event"",""trial"",""time""
""blur"",""0"",""0""
""blur"",""0"",""0""
""blur"",""0"",""0""
""blur"",""4"",""47159""
","""event"",""trial"",""time""
""focus"",""0"",""0""
""focus"",""0"",""0""
""focus"",""0"",""0""
""focus"",""1"",""35640""
""focus"",""1"",""35644""
""focus"",""4"",""51903""
","""event"",""trial"",""time""
""fullscreenenter"",""1"",""39556""
","
","","332","","","","practice","2021-06-25 07:27:03.400","img/practice_cards/backs/dark_blue.gif","3","200","0","",""
"casino-fixation","51","271596","0.0-17.0-0.8","A333","false","img/card_backs/set1/red.gif","img/card_backs/set1/purple.gif","img/card_backs/set1/green.gif","img/card_backs/set1/yellow.gif","img/card_backs/set2/pink.gif","img/card_backs/set2/orange.gif","img/card_backs/set2/blue.gif","img/card_backs/set2/gray.gif","""event"",""trial"",""time""
""blur"",""0"",""0""
""focus"",""0"",""0""
""focus"",""0"",""0""
""blur"",""0"",""0""
""focus"",""0"",""0""
""blur"",""0"",""0""
""focus"",""1"",""35640""
""focus"",""1"",""35644""
""fullscreenenter"",""1"",""39556""
""blur"",""4"",""47159""
""focus"",""4"",""51903""
","""event"",""trial"",""time""
""blur"",""0"",""0""
""blur"",""0"",""0""
""blur"",""0"",""0""
""blur"",""4"",""47159""
","""event"",""trial"",""time""
""focus"",""0"",""0""
""focus"",""0"",""0""
""focus"",""0"",""0""
""focus"",""1"",""35640""
""focus"",""1"",""35644""
""focus"",""4"",""51903""
","""event"",""trial"",""time""
""fullscreenenter"",""1"",""39556""
","
","","null","","null","","fixation","2021-06-25 07:27:03.902","","","","","",""
"card-selection-trial","52","274098","0.0-17.0-1.8","A333","false","img/card_backs/set1/red.gif","img/card_backs/set1/purple.gif","img/card_backs/set1/green.gif","img/card_backs/set1/yellow.gif","img/card_backs/set2/pink.gif","img/card_backs/set2/orange.gif","img/card_backs/set2/blue.gif","img/card_backs/set2/gray.gif","""event"",""trial"",""time""
""blur"",""0"",""0""
""focus"",""0"",""0""
""focus"",""0"",""0""
""blur"",""0"",""0""
""focus"",""0"",""0""
""blur"",""0"",""0""
""focus"",""1"",""35640""
""focus"",""1"",""35644""
""fullscreenenter"",""1"",""39556""
""blur"",""4"",""47159""
""focus"",""4"",""51903""
","""event"",""trial"",""time""
""blur"",""0"",""0""
""blur"",""0"",""0""
""blur"",""0"",""0""
""blur"",""4"",""47159""
","""event"",""trial"",""time""
""focus"",""0"",""0""
""focus"",""0"",""0""
""focus"",""0"",""0""
""focus"",""1"",""35640""
""focus"",""1"",""35644""
""focus"",""4"",""51903""
","""event"",""trial"",""time""
""fullscreenenter"",""1"",""39556""
","
","","497","","","","practice","2021-06-25 07:27:06.403","img/practice_cards/backs/dark_blue.gif","3","200","0","",""
"casino-fixation","53","274601","0.0-17.0-0.9","A333","false","img/card_backs/set1/red.gif","img/card_backs/set1/purple.gif","img/card_backs/set1/green.gif","img/card_backs/set1/yellow.gif","img/card_backs/set2/pink.gif","img/card_backs/set2/orange.gif","img/card_backs/set2/blue.gif","img/card_backs/set2/gray.gif","""event"",""trial"",""time""
""blur"",""0"",""0""
""focus"",""0"",""0""
""focus"",""0"",""0""
""blur"",""0"",""0""
""focus"",""0"",""0""
""blur"",""0"",""0""
""focus"",""1"",""35640""
""focus"",""1"",""35644""
""fullscreenenter"",""1"",""39556""
""blur"",""4"",""47159""
""focus"",""4"",""51903""
","""event"",""trial"",""time""
""blur"",""0"",""0""
""blur"",""0"",""0""
""blur"",""0"",""0""
""blur"",""4"",""47159""
","""event"",""trial"",""time""
""focus"",""0"",""0""
""focus"",""0"",""0""
""focus"",""0"",""0""
""focus"",""1"",""35640""
""focus"",""1"",""35644""
""focus"",""4"",""51903""
","""event"",""trial"",""time""
""fullscreenenter"",""1"",""39556""
","
","","null","","null","","fixation","2021-06-25 07:27:06.906","","","","","",""
"card-selection-trial","54","277015","0.0-17.0-1.9","A333","false","img/card_backs/set1/red.gif","img/card_backs/set1/purple.gif","img/card_backs/set1/green.gif","img/card_backs/set1/yellow.gif","img/card_backs/set2/pink.gif","img/card_backs/set2/orange.gif","img/card_backs/set2/blue.gif","img/card_backs/set2/gray.gif","""event"",""trial"",""time""
""blur"",""0"",""0""
""focus"",""0"",""0""
""focus"",""0"",""0""
""blur"",""0"",""0""
""focus"",""0"",""0""
""blur"",""0"",""0""
""focus"",""1"",""35640""
""focus"",""1"",""35644""
""fullscreenenter"",""1"",""39556""
""blur"",""4"",""47159""
""focus"",""4"",""51903""
","""event"",""trial"",""time""
""blur"",""0"",""0""
""blur"",""0"",""0""
""blur"",""0"",""0""
""blur"",""4"",""47159""
","""event"",""trial"",""time""
""focus"",""0"",""0""
""focus"",""0"",""0""
""focus"",""0"",""0""
""focus"",""1"",""35640""
""focus"",""1"",""35644""
""focus"",""4"",""51903""
","""event"",""trial"",""time""
""fullscreenenter"",""1"",""39556""
","
","","411","","","","practice","2021-06-25 07:27:09.320","img/practice_cards/backs/brown.gif","3","-100","0","",""
"casino-keyboard-response","55","279610","0.0-18.0","A333","false","img/card_backs/set1/red.gif","img/card_backs/set1/purple.gif","img/card_backs/set1/green.gif","img/card_backs/set1/yellow.gif","img/card_backs/set2/pink.gif","img/card_backs/set2/orange.gif","img/card_backs/set2/blue.gif","img/card_backs/set2/gray.gif","""event"",""trial"",""time""
""blur"",""0"",""0""
""focus"",""0"",""0""
""focus"",""0"",""0""
""blur"",""0"",""0""
""focus"",""0"",""0""
""blur"",""0"",""0""
""focus"",""1"",""35640""
""focus"",""1"",""35644""
""fullscreenenter"",""1"",""39556""
""blur"",""4"",""47159""
""focus"",""4"",""51903""
","""event"",""trial"",""time""
""blur"",""0"",""0""
""blur"",""0"",""0""
""blur"",""0"",""0""
""blur"",""4"",""47159""
","""event"",""trial"",""time""
""focus"",""0"",""0""
""focus"",""0"",""0""
""focus"",""0"",""0""
""focus"",""1"",""35640""
""focus"",""1"",""35644""
""focus"",""4"",""51903""
","""event"",""trial"",""time""
""fullscreenenter"",""1"",""39556""
","
","","2593","You earned 100 tokens during the practice round!","82","","","2021-06-25 07:27:11.915","","","","","",""
"casino-keyboard-response","56","283793","0.0-19.0-0.0","A333","false","img/card_backs/set1/red.gif","img/card_backs/set1/purple.gif","img/card_backs/set1/green.gif","img/card_backs/set1/yellow.gif","img/card_backs/set2/pink.gif","img/card_backs/set2/orange.gif","img/card_backs/set2/blue.gif","img/card_backs/set2/gray.gif","""event"",""trial"",""time""
""blur"",""0"",""0""
""focus"",""0"",""0""
""focus"",""0"",""0""
""blur"",""0"",""0""
""focus"",""0"",""0""
""blur"",""0"",""0""
""focus"",""1"",""35640""
""focus"",""1"",""35644""
""fullscreenenter"",""1"",""39556""
""blur"",""4"",""47159""
""focus"",""4"",""51903""
","""event"",""trial"",""time""
""blur"",""0"",""0""
""blur"",""0"",""0""
""blur"",""0"",""0""
""blur"",""4"",""47159""
","""event"",""trial"",""time""
""focus"",""0"",""0""
""focus"",""0"",""0""
""focus"",""0"",""0""
""focus"",""1"",""35640""
""focus"",""1"",""35644""
""focus"",""4"",""51903""
","""event"",""trial"",""time""
""fullscreenenter"",""1"",""39556""
","
","","4182","Nice job! You are almost ready to play the real game.","86","","instructions","2021-06-25 07:27:16.098","","","","","",""
"casino-keyboard-response","57","290236","0.0-19.0-0.1","A333","false","img/card_backs/set1/red.gif","img/card_backs/set1/purple.gif","img/card_backs/set1/green.gif","img/card_backs/set1/yellow.gif","img/card_backs/set2/pink.gif","img/card_backs/set2/orange.gif","img/card_backs/set2/blue.gif","img/card_backs/set2/gray.gif","""event"",""trial"",""time""
""blur"",""0"",""0""
""focus"",""0"",""0""
""focus"",""0"",""0""
""blur"",""0"",""0""
""focus"",""0"",""0""
""blur"",""0"",""0""
""focus"",""1"",""35640""
""focus"",""1"",""35644""
""fullscreenenter"",""1"",""39556""
""blur"",""4"",""47159""
""focus"",""4"",""51903""
","""event"",""trial"",""time""
""blur"",""0"",""0""
""blur"",""0"",""0""
""blur"",""0"",""0""
""blur"",""4"",""47159""
","""event"",""trial"",""time""
""focus"",""0"",""0""
""focus"",""0"",""0""
""focus"",""0"",""0""
""focus"",""1"",""35640""
""focus"",""1"",""35644""
""focus"",""4"",""51903""
","""event"",""trial"",""time""
""fullscreenenter"",""1"",""39556""
","
","","6441","You will play two rounds of the real game. In each round, you will pick 100 cards in total.","73","","instructions","2021-06-25 07:27:22.541","","","","","",""
"casino-keyboard-response","58","294349","0.0-19.0-0.2","A333","false","img/card_backs/set1/red.gif","img/card_backs/set1/purple.gif","img/card_backs/set1/green.gif","img/card_backs/set1/yellow.gif","img/card_backs/set2/pink.gif","img/card_backs/set2/orange.gif","img/card_backs/set2/blue.gif","img/card_backs/set2/gray.gif","""event"",""trial"",""time""
""blur"",""0"",""0""
""focus"",""0"",""0""
""focus"",""0"",""0""
""blur"",""0"",""0""
""focus"",""0"",""0""
""blur"",""0"",""0""
""focus"",""1"",""35640""
""focus"",""1"",""35644""
""fullscreenenter"",""1"",""39556""
""blur"",""4"",""47159""
""focus"",""4"",""51903""
","""event"",""trial"",""time""
""blur"",""0"",""0""
""blur"",""0"",""0""
""blur"",""0"",""0""
""blur"",""4"",""47159""
","""event"",""trial"",""time""
""focus"",""0"",""0""
""focus"",""0"",""0""
""focus"",""0"",""0""
""focus"",""1"",""35640""
""focus"",""1"",""35644""
""focus"",""4"",""51903""
","""event"",""trial"",""time""
""fullscreenenter"",""1"",""39556""
","
","","4112","We are now going to ask you some questions about how the game works.","66","","instructions","2021-06-25 07:27:26.654","","","","","",""
"casino-keyboard-response","59","300395","0.0-19.0-0.3","A333","false","img/card_backs/set1/red.gif","img/card_backs/set1/purple.gif","img/card_backs/set1/green.gif","img/card_backs/set1/yellow.gif","img/card_backs/set2/pink.gif","img/card_backs/set2/orange.gif","img/card_backs/set2/blue.gif","img/card_backs/set2/gray.gif","""event"",""trial"",""time""
""blur"",""0"",""0""
""focus"",""0"",""0""
""focus"",""0"",""0""
""blur"",""0"",""0""
""focus"",""0"",""0""
""blur"",""0"",""0""
""focus"",""1"",""35640""
""focus"",""1"",""35644""
""fullscreenenter"",""1"",""39556""
""blur"",""4"",""47159""
""focus"",""4"",""51903""
","""event"",""trial"",""time""
""blur"",""0"",""0""
""blur"",""0"",""0""
""blur"",""0"",""0""
""blur"",""4"",""47159""
","""event"",""trial"",""time""
""focus"",""0"",""0""
""focus"",""0"",""0""
""focus"",""0"",""0""
""focus"",""1"",""35640""
""focus"",""1"",""35644""
""focus"",""4"",""51903""
","""event"",""trial"",""time""
""fullscreenenter"",""1"",""39556""
","
","","6045","Answer carefully. You will not be able to begin the game until you answer them correctly.","67","","instructions","2021-06-25 07:27:32.700","","","","","",""
"casino-comp_q","60","306382","0.0-20.0-0.0","A333","false","img/card_backs/set1/red.gif","img/card_backs/set1/purple.gif","img/card_backs/set1/green.gif","img/card_backs/set1/yellow.gif","img/card_backs/set2/pink.gif","img/card_backs/set2/orange.gif","img/card_backs/set2/blue.gif","img/card_backs/set2/gray.gif","""event"",""trial"",""time""
""blur"",""0"",""0""
""focus"",""0"",""0""
""focus"",""0"",""0""
""blur"",""0"",""0""
""focus"",""0"",""0""
""blur"",""0"",""0""
""focus"",""1"",""35640""
""focus"",""1"",""35644""
""fullscreenenter"",""1"",""39556""
""blur"",""4"",""47159""
""focus"",""4"",""51903""
","""event"",""trial"",""time""
""blur"",""0"",""0""
""blur"",""0"",""0""
""blur"",""0"",""0""
""blur"",""4"",""47159""
","""event"",""trial"",""time""
""focus"",""0"",""0""
""focus"",""0"",""0""
""focus"",""0"",""0""
""focus"",""1"",""35640""
""focus"",""1"",""35644""
""focus"",""4"",""51903""
","""event"",""trial"",""time""
""fullscreenenter"",""1"",""39556""
","
","","5986","True or False: All the decks have some cards that cause you to win tokens and some cards that cause you to lose tokens.","84","","","2021-06-25 07:27:38.688","","","","","",""
"casino-keyboard-response","61","309257","0.0-20.0-1.0","A333","false","img/card_backs/set1/red.gif","img/card_backs/set1/purple.gif","img/card_backs/set1/green.gif","img/card_backs/set1/yellow.gif","img/card_backs/set2/pink.gif","img/card_backs/set2/orange.gif","img/card_backs/set2/blue.gif","img/card_backs/set2/gray.gif","""event"",""trial"",""time""
""blur"",""0"",""0""
""focus"",""0"",""0""
""focus"",""0"",""0""
""blur"",""0"",""0""
""focus"",""0"",""0""
""blur"",""0"",""0""
""focus"",""1"",""35640""
""focus"",""1"",""35644""
""fullscreenenter"",""1"",""39556""
""blur"",""4"",""47159""
""focus"",""4"",""51903""
","""event"",""trial"",""time""
""blur"",""0"",""0""
""blur"",""0"",""0""
""blur"",""0"",""0""
""blur"",""4"",""47159""
","""event"",""trial"",""time""
""focus"",""0"",""0""
""focus"",""0"",""0""
""focus"",""0"",""0""
""focus"",""1"",""35640""
""focus"",""1"",""35644""
""focus"",""4"",""51903""
","""event"",""trial"",""time""
""fullscreenenter"",""1"",""39556""
","
","","2873","True is correct! All the decks have a mix of winning and losing cards.","77","","","2021-06-25 07:27:41.562","","","","","true",""
"casino-comp_q","62","312999","0.0-21.0-0.0","A333","false","img/card_backs/set1/red.gif","img/card_backs/set1/purple.gif","img/card_backs/set1/green.gif","img/card_backs/set1/yellow.gif","img/card_backs/set2/pink.gif","img/card_backs/set2/orange.gif","img/card_backs/set2/blue.gif","img/card_backs/set2/gray.gif","""event"",""trial"",""time""
""blur"",""0"",""0""
""focus"",""0"",""0""
""focus"",""0"",""0""
""blur"",""0"",""0""
""focus"",""0"",""0""
""blur"",""0"",""0""
""focus"",""1"",""35640""
""focus"",""1"",""35644""
""fullscreenenter"",""1"",""39556""
""blur"",""4"",""47159""
""focus"",""4"",""51903""
","""event"",""trial"",""time""
""blur"",""0"",""0""
""blur"",""0"",""0""
""blur"",""0"",""0""
""blur"",""4"",""47159""
","""event"",""trial"",""time""
""focus"",""0"",""0""
""focus"",""0"",""0""
""focus"",""0"",""0""
""focus"",""1"",""35640""
""focus"",""1"",""35644""
""focus"",""4"",""51903""
","""event"",""trial"",""time""
""fullscreenenter"",""1"",""39556""
","
","","3740","True or False: You will have as much time as you want to make your response.","70","","","2021-06-25 07:27:45.304","","","","","",""
"casino-keyboard-response","63","315823","0.0-21.0-1.0","A333","false","img/card_backs/set1/red.gif","img/card_backs/set1/purple.gif","img/card_backs/set1/green.gif","img/card_backs/set1/yellow.gif","img/card_backs/set2/pink.gif","img/card_backs/set2/orange.gif","img/card_backs/set2/blue.gif","img/card_backs/set2/gray.gif","""event"",""trial"",""time""
""blur"",""0"",""0""
""focus"",""0"",""0""
""focus"",""0"",""0""
""blur"",""0"",""0""
""focus"",""0"",""0""
""blur"",""0"",""0""
""focus"",""1"",""35640""
""focus"",""1"",""35644""
""fullscreenenter"",""1"",""39556""
""blur"",""4"",""47159""
""focus"",""4"",""51903""
","""event"",""trial"",""time""
""blur"",""0"",""0""
""blur"",""0"",""0""
""blur"",""0"",""0""
""blur"",""4"",""47159""
","""event"",""trial"",""time""
""focus"",""0"",""0""
""focus"",""0"",""0""
""focus"",""0"",""0""
""focus"",""1"",""35640""
""focus"",""1"",""35644""
""focus"",""4"",""51903""
","""event"",""trial"",""time""
""fullscreenenter"",""1"",""39556""
","
","","2823.000000000058","False is correct! You will only have 10 seconds to make each choice.","75","","","2021-06-25 07:27:48.128","","","","","true",""
"casino-comp_q","64","318767","0.0-22.0-0.0","A333","false","img/card_backs/set1/red.gif","img/card_backs/set1/purple.gif","img/card_backs/set1/green.gif","img/card_backs/set1/yellow.gif","img/card_backs/set2/pink.gif","img/card_backs/set2/orange.gif","img/card_backs/set2/blue.gif","img/card_backs/set2/gray.gif","""event"",""trial"",""time""
""blur"",""0"",""0""
""focus"",""0"",""0""
""focus"",""0"",""0""
""blur"",""0"",""0""
""focus"",""0"",""0""
""blur"",""0"",""0""
""focus"",""1"",""35640""
""focus"",""1"",""35644""
""fullscreenenter"",""1"",""39556""
""blur"",""4"",""47159""
""focus"",""4"",""51903""
","""event"",""trial"",""time""
""blur"",""0"",""0""
""blur"",""0"",""0""
""blur"",""0"",""0""
""blur"",""4"",""47159""
","""event"",""trial"",""time""
""focus"",""0"",""0""
""focus"",""0"",""0""
""focus"",""0"",""0""
""focus"",""1"",""35640""
""focus"",""1"",""35644""
""focus"",""4"",""51903""
","""event"",""trial"",""time""
""fullscreenenter"",""1"",""39556""
","
","","2942","True or False: The location of the deck determines how lucky it is.","70","","","2021-06-25 07:27:51.072","","","","","",""
"casino-keyboard-response","65","321495","0.0-22.0-1.0","A333","false","img/card_backs/set1/red.gif","img/card_backs/set1/purple.gif","img/card_backs/set1/green.gif","img/card_backs/set1/yellow.gif","img/card_backs/set2/pink.gif","img/card_backs/set2/orange.gif","img/card_backs/set2/blue.gif","img/card_backs/set2/gray.gif","""event"",""trial"",""time""
""blur"",""0"",""0""
""focus"",""0"",""0""
""focus"",""0"",""0""
""blur"",""0"",""0""
""focus"",""0"",""0""
""blur"",""0"",""0""
""focus"",""1"",""35640""
""focus"",""1"",""35644""
""fullscreenenter"",""1"",""39556""
""blur"",""4"",""47159""
""focus"",""4"",""51903""
","""event"",""trial"",""time""
""blur"",""0"",""0""
""blur"",""0"",""0""
""blur"",""0"",""0""
""blur"",""4"",""47159""
","""event"",""trial"",""time""
""focus"",""0"",""0""
""focus"",""0"",""0""
""focus"",""0"",""0""
""focus"",""1"",""35640""
""focus"",""1"",""35644""
""focus"",""4"",""51903""
","""event"",""trial"",""time""
""fullscreenenter"",""1"",""39556""
","
","","2726","False is correct! The <i>color</i>  of the deck determines how lucky or unlucky it is.","68","","","2021-06-25 07:27:53.800","","","","","true",""
"casino-keyboard-response","66","325374","0.0-23.0-0.0","A333","false","img/card_backs/set1/red.gif","img/card_backs/set1/purple.gif","img/card_backs/set1/green.gif","img/card_backs/set1/yellow.gif","img/card_backs/set2/pink.gif","img/card_backs/set2/orange.gif","img/card_backs/set2/blue.gif","img/card_backs/set2/gray.gif","""event"",""trial"",""time""
""blur"",""0"",""0""
""focus"",""0"",""0""
""focus"",""0"",""0""
""blur"",""0"",""0""
""focus"",""0"",""0""
""blur"",""0"",""0""
""focus"",""1"",""35640""
""focus"",""1"",""35644""
""fullscreenenter"",""1"",""39556""
""blur"",""4"",""47159""
""focus"",""4"",""51903""
","""event"",""trial"",""time""
""blur"",""0"",""0""
""blur"",""0"",""0""
""blur"",""0"",""0""
""blur"",""4"",""47159""
","""event"",""trial"",""time""
""focus"",""0"",""0""
""focus"",""0"",""0""
""focus"",""0"",""0""
""focus"",""1"",""35640""
""focus"",""1"",""35644""
""focus"",""4"",""51903""
","""event"",""trial"",""time""
""fullscreenenter"",""1"",""39556""
","
","","3878","Great job! Now it's time to start the real game.","82","","instructions","2021-06-25 07:27:57.679","","","","","",""
"casino-keyboard-response","67","330358","0.0-23.0-0.1","A333","false","img/card_backs/set1/red.gif","img/card_backs/set1/purple.gif","img/card_backs/set1/green.gif","img/card_backs/set1/yellow.gif","img/card_backs/set2/pink.gif","img/card_backs/set2/orange.gif","img/card_backs/set2/blue.gif","img/card_backs/set2/gray.gif","""event"",""trial"",""time""
""blur"",""0"",""0""
""focus"",""0"",""0""
""focus"",""0"",""0""
""blur"",""0"",""0""
""focus"",""0"",""0""
""blur"",""0"",""0""
""focus"",""1"",""35640""
""focus"",""1"",""35644""
""fullscreenenter"",""1"",""39556""
""blur"",""4"",""47159""
""focus"",""4"",""51903""
","""event"",""trial"",""time""
""blur"",""0"",""0""
""blur"",""0"",""0""
""blur"",""0"",""0""
""blur"",""4"",""47159""
","""event"",""trial"",""time""
""focus"",""0"",""0""
""focus"",""0"",""0""
""focus"",""0"",""0""
""focus"",""1"",""35640""
""focus"",""1"",""35644""
""focus"",""4"",""51903""
","""event"",""trial"",""time""
""fullscreenenter"",""1"",""39556""
","
","","4983","Before we start, we're going to head into a new room of the casino.","86","","instructions","2021-06-25 07:28:02.663","","","","","",""
"casino-keyboard-response","68","336412","0.0-24.0-0.0","A333","false","img/card_backs/set1/red.gif","img/card_backs/set1/purple.gif","img/card_backs/set1/green.gif","img/card_backs/set1/yellow.gif","img/card_backs/set2/pink.gif","img/card_backs/set2/orange.gif","img/card_backs/set2/blue.gif","img/card_backs/set2/gray.gif","""event"",""trial"",""time""
""blur"",""0"",""0""
""focus"",""0"",""0""
""focus"",""0"",""0""
""blur"",""0"",""0""
""focus"",""0"",""0""
""blur"",""0"",""0""
""focus"",""1"",""35640""
""focus"",""1"",""35644""
""fullscreenenter"",""1"",""39556""
""blur"",""4"",""47159""
""focus"",""4"",""51903""
","""event"",""trial"",""time""
""blur"",""0"",""0""
""blur"",""0"",""0""
""blur"",""0"",""0""
""blur"",""4"",""47159""
","""event"",""trial"",""time""
""focus"",""0"",""0""
""focus"",""0"",""0""
""focus"",""0"",""0""
""focus"",""1"",""35640""
""focus"",""1"",""35644""
""focus"",""4"",""51903""
","""event"",""trial"",""time""
""fullscreenenter"",""1"",""39556""
","
","","6052.000000000058","Here we are! The real game will use different cards, but the rules will be the same.","71","","instructions","2021-06-25 07:28:08.717","","","","","",""
"casino-keyboard-response","69","338404","0.0-24.0-0.1","A333","false","img/card_backs/set1/red.gif","img/card_backs/set1/purple.gif","img/card_backs/set1/green.gif","img/card_backs/set1/yellow.gif","img/card_backs/set2/pink.gif","img/card_backs/set2/orange.gif","img/card_backs/set2/blue.gif","img/card_backs/set2/gray.gif","""event"",""trial"",""time""
""blur"",""0"",""0""
""focus"",""0"",""0""
""focus"",""0"",""0""
""blur"",""0"",""0""
""focus"",""0"",""0""
""blur"",""0"",""0""
""focus"",""1"",""35640""
""focus"",""1"",""35644""
""fullscreenenter"",""1"",""39556""
""blur"",""4"",""47159""
""focus"",""4"",""51903""
","""event"",""trial"",""time""
""blur"",""0"",""0""
""blur"",""0"",""0""
""blur"",""0"",""0""
""blur"",""4"",""47159""
","""event"",""trial"",""time""
""focus"",""0"",""0""
""focus"",""0"",""0""
""focus"",""0"",""0""
""focus"",""1"",""35640""
""focus"",""1"",""35644""
""focus"",""4"",""51903""
","""event"",""trial"",""time""
""fullscreenenter"",""1"",""39556""
","
","","1991","Ready? Put your fingers over the '2', '4', 6', and '8' keys so you are ready to play the game. </br> Then press 2 to start.","50","","instructions","2021-06-25 07:28:10.709","","","","","",""
"casino-fixation","70","338906","0.0-25.0-0.0","A333","false","img/card_backs/set1/red.gif","img/card_backs/set1/purple.gif","img/card_backs/set1/green.gif","img/card_backs/set1/yellow.gif","img/card_backs/set2/pink.gif","img/card_backs/set2/orange.gif","img/card_backs/set2/blue.gif","img/card_backs/set2/gray.gif","""event"",""trial"",""time""
""blur"",""0"",""0""
""focus"",""0"",""0""
""focus"",""0"",""0""
""blur"",""0"",""0""
""focus"",""0"",""0""
""blur"",""0"",""0""
""focus"",""1"",""35640""
""focus"",""1"",""35644""
""fullscreenenter"",""1"",""39556""
""blur"",""4"",""47159""
""focus"",""4"",""51903""
","""event"",""trial"",""time""
""blur"",""0"",""0""
""blur"",""0"",""0""
""blur"",""0"",""0""
""blur"",""4"",""47159""
","""event"",""trial"",""time""
""focus"",""0"",""0""
""focus"",""0"",""0""
""focus"",""0"",""0""
""focus"",""1"",""35640""
""focus"",""1"",""35644""
""focus"",""4"",""51903""
","""event"",""trial"",""time""
""fullscreenenter"",""1"",""39556""
","
","","null","","null","","fixation","2021-06-25 07:28:11.211","","","","","",""
"card-selection-trial","71","343892","0.0-25.0-1.0","A333","false","img/card_backs/set1/red.gif","img/card_backs/set1/purple.gif","img/card_backs/set1/green.gif","img/card_backs/set1/yellow.gif","img/card_backs/set2/pink.gif","img/card_backs/set2/orange.gif","img/card_backs/set2/blue.gif","img/card_backs/set2/gray.gif","""event"",""trial"",""time""
""blur"",""0"",""0""
""focus"",""0"",""0""
""focus"",""0"",""0""
""blur"",""0"",""0""
""focus"",""0"",""0""
""blur"",""0"",""0""
""focus"",""1"",""35640""
""focus"",""1"",""35644""
""fullscreenenter"",""1"",""39556""
""blur"",""4"",""47159""
""focus"",""4"",""51903""
","""event"",""trial"",""time""
""blur"",""0"",""0""
""blur"",""0"",""0""
""blur"",""0"",""0""
""blur"",""4"",""47159""
","""event"",""trial"",""time""
""focus"",""0"",""0""
""focus"",""0"",""0""
""focus"",""0"",""0""
""focus"",""1"",""35640""
""focus"",""1"",""35644""
""focus"",""4"",""51903""
","""event"",""trial"",""time""
""fullscreenenter"",""1"",""39556""
","
","","2984","","","","real_trial","2021-06-25 07:28:16.197","img/card_backs/set1/purple.gif","1","200","1","",""
"casino-fixation","72","344394","0.0-25.0-0.1","A333","false","img/card_backs/set1/red.gif","img/card_backs/set1/purple.gif","img/card_backs/set1/green.gif","img/card_backs/set1/yellow.gif","img/card_backs/set2/pink.gif","img/card_backs/set2/orange.gif","img/card_backs/set2/blue.gif","img/card_backs/set2/gray.gif","""event"",""trial"",""time""
""blur"",""0"",""0""
""focus"",""0"",""0""
""focus"",""0"",""0""
""blur"",""0"",""0""
""focus"",""0"",""0""
""blur"",""0"",""0""
""focus"",""1"",""35640""
""focus"",""1"",""35644""
""fullscreenenter"",""1"",""39556""
""blur"",""4"",""47159""
""focus"",""4"",""51903""
","""event"",""trial"",""time""
""blur"",""0"",""0""
""blur"",""0"",""0""
""blur"",""0"",""0""
""blur"",""4"",""47159""
","""event"",""trial"",""time""
""focus"",""0"",""0""
""focus"",""0"",""0""
""focus"",""0"",""0""
""focus"",""1"",""35640""
""focus"",""1"",""35644""
""focus"",""4"",""51903""
","""event"",""trial"",""time""
""fullscreenenter"",""1"",""39556""
","
","","null","","null","","fixation","2021-06-25 07:28:16.699","","","","","",""
"card-selection-trial","73","347064","0.0-25.0-1.1","A333","false","img/card_backs/set1/red.gif","img/card_backs/set1/purple.gif","img/card_backs/set1/green.gif","img/card_backs/set1/yellow.gif","img/card_backs/set2/pink.gif","img/card_backs/set2/orange.gif","img/card_backs/set2/blue.gif","img/card_backs/set2/gray.gif","""event"",""trial"",""time""
""blur"",""0"",""0""
""focus"",""0"",""0""
""focus"",""0"",""0""
""blur"",""0"",""0""
""focus"",""0"",""0""
""blur"",""0"",""0""
""focus"",""1"",""35640""
""focus"",""1"",""35644""
""fullscreenenter"",""1"",""39556""
""blur"",""4"",""47159""
""focus"",""4"",""51903""
","""event"",""trial"",""time""
""blur"",""0"",""0""
""blur"",""0"",""0""
""blur"",""0"",""0""
""blur"",""4"",""47159""
","""event"",""trial"",""time""
""focus"",""0"",""0""
""focus"",""0"",""0""
""focus"",""0"",""0""
""focus"",""1"",""35640""
""focus"",""1"",""35644""
""focus"",""4"",""51903""
","""event"",""trial"",""time""
""fullscreenenter"",""1"",""39556""
","
","","665","","","","real_trial","2021-06-25 07:28:19.369","img/card_backs/set1/red.gif","1","-250","1","",""
"casino-fixation","74","347566","0.0-25.0-0.2","A333","false","img/card_backs/set1/red.gif","img/card_backs/set1/purple.gif","img/card_backs/set1/green.gif","img/card_backs/set1/yellow.gif","img/card_backs/set2/pink.gif","img/card_backs/set2/orange.gif","img/card_backs/set2/blue.gif","img/card_backs/set2/gray.gif","""event"",""trial"",""time""
""blur"",""0"",""0""
""focus"",""0"",""0""
""focus"",""0"",""0""
""blur"",""0"",""0""
""focus"",""0"",""0""
""blur"",""0"",""0""
""focus"",""1"",""35640""
""focus"",""1"",""35644""
""fullscreenenter"",""1"",""39556""
""blur"",""4"",""47159""
""focus"",""4"",""51903""
","""event"",""trial"",""time""
""blur"",""0"",""0""
""blur"",""0"",""0""
""blur"",""0"",""0""
""blur"",""4"",""47159""
","""event"",""trial"",""time""
""focus"",""0"",""0""
""focus"",""0"",""0""
""focus"",""0"",""0""
""focus"",""1"",""35640""
""focus"",""1"",""35644""
""focus"",""4"",""51903""
","""event"",""trial"",""time""
""fullscreenenter"",""1"",""39556""
","
","","null","","null","","fixation","2021-06-25 07:28:19.872","","","","","",""
"card-selection-trial","75","351466","0.0-25.0-1.2","A333","false","img/card_backs/set1/red.gif","img/card_backs/set1/purple.gif","img/card_backs/set1/green.gif","img/card_backs/set1/yellow.gif","img/card_backs/set2/pink.gif","img/card_backs/set2/orange.gif","img/card_backs/set2/blue.gif","img/card_backs/set2/gray.gif","""event"",""trial"",""time""
""blur"",""0"",""0""
""focus"",""0"",""0""
""focus"",""0"",""0""
""blur"",""0"",""0""
""focus"",""0"",""0""
""blur"",""0"",""0""
""focus"",""1"",""35640""
""focus"",""1"",""35644""
""fullscreenenter"",""1"",""39556""
""blur"",""4"",""47159""
""focus"",""4"",""51903""
","""event"",""trial"",""time""
""blur"",""0"",""0""
""blur"",""0"",""0""
""blur"",""0"",""0""
""blur"",""4"",""47159""
","""event"",""trial"",""time""
""focus"",""0"",""0""
""focus"",""0"",""0""
""focus"",""0"",""0""
""focus"",""1"",""35640""
""focus"",""1"",""35644""
""focus"",""4"",""51903""
","""event"",""trial"",""time""
""fullscreenenter"",""1"",""39556""
","
","","1895","","","","real_trial","2021-06-25 07:28:23.771","img/card_backs/set1/purple.gif","1","-230","1","",""
"casino-fixation","76","351969","0.0-25.0-0.3","A333","false","img/card_backs/set1/red.gif","img/card_backs/set1/purple.gif","img/card_backs/set1/green.gif","img/card_backs/set1/yellow.gif","img/card_backs/set2/pink.gif","img/card_backs/set2/orange.gif","img/card_backs/set2/blue.gif","img/card_backs/set2/gray.gif","""event"",""trial"",""time""
""blur"",""0"",""0""
""focus"",""0"",""0""
""focus"",""0"",""0""
""blur"",""0"",""0""
""focus"",""0"",""0""
""blur"",""0"",""0""
""focus"",""1"",""35640""
""focus"",""1"",""35644""
""fullscreenenter"",""1"",""39556""
""blur"",""4"",""47159""
""focus"",""4"",""51903""
","""event"",""trial"",""time""
""blur"",""0"",""0""
""blur"",""0"",""0""
""blur"",""0"",""0""
""blur"",""4"",""47159""
","""event"",""trial"",""time""
""focus"",""0"",""0""
""focus"",""0"",""0""
""focus"",""0"",""0""
""focus"",""1"",""35640""
""focus"",""1"",""35644""
""focus"",""4"",""51903""
","""event"",""trial"",""time""
""fullscreenenter"",""1"",""39556""
","
","","null","","null","","fixation","2021-06-25 07:28:24.274","","","","","",""
"card-selection-trial","77","356047","0.0-25.0-1.3","A333","false","img/card_backs/set1/red.gif","img/card_backs/set1/purple.gif","img/card_backs/set1/green.gif","img/card_backs/set1/yellow.gif","img/card_backs/set2/pink.gif","img/card_backs/set2/orange.gif","img/card_backs/set2/blue.gif","img/card_backs/set2/gray.gif","""event"",""trial"",""time""
""blur"",""0"",""0""
""focus"",""0"",""0""
""focus"",""0"",""0""
""blur"",""0"",""0""
""focus"",""0"",""0""
""blur"",""0"",""0""
""focus"",""1"",""35640""
""focus"",""1"",""35644""
""fullscreenenter"",""1"",""39556""
""blur"",""4"",""47159""
""focus"",""4"",""51903""
","""event"",""trial"",""time""
""blur"",""0"",""0""
""blur"",""0"",""0""
""blur"",""0"",""0""
""blur"",""4"",""47159""
","""event"",""trial"",""time""
""focus"",""0"",""0""
""focus"",""0"",""0""
""focus"",""0"",""0""
""focus"",""1"",""35640""
""focus"",""1"",""35644""
""focus"",""4"",""51903""
","""event"",""trial"",""time""
""fullscreenenter"",""1"",""39556""
","
","","2075","","","","real_trial","2021-06-25 07:28:28.352","img/card_backs/set1/purple.gif","3","-250","1","",""
"casino-fixation","78","356549","0.0-25.0-0.4","A333","false","img/card_backs/set1/red.gif","img/card_backs/set1/purple.gif","img/card_backs/set1/green.gif","img/card_backs/set1/yellow.gif","img/card_backs/set2/pink.gif","img/card_backs/set2/orange.gif","img/card_backs/set2/blue.gif","img/card_backs/set2/gray.gif","""event"",""trial"",""time""
""blur"",""0"",""0""
""focus"",""0"",""0""
""focus"",""0"",""0""
""blur"",""0"",""0""
""focus"",""0"",""0""
""blur"",""0"",""0""
""focus"",""1"",""35640""
""focus"",""1"",""35644""
""fullscreenenter"",""1"",""39556""
""blur"",""4"",""47159""
""focus"",""4"",""51903""
","""event"",""trial"",""time""
""blur"",""0"",""0""
""blur"",""0"",""0""
""blur"",""0"",""0""
""blur"",""4"",""47159""
","""event"",""trial"",""time""
""focus"",""0"",""0""
""focus"",""0"",""0""
""focus"",""0"",""0""
""focus"",""1"",""35640""
""focus"",""1"",""35644""
""focus"",""4"",""51903""
","""event"",""trial"",""time""
""fullscreenenter"",""1"",""39556""
","
","","null","","null","","fixation","2021-06-25 07:28:28.854","","","","","",""
"card-selection-trial","79","360015","0.0-25.0-1.4","A333","false","img/card_backs/set1/red.gif","img/card_backs/set1/purple.gif","img/card_backs/set1/green.gif","img/card_backs/set1/yellow.gif","img/card_backs/set2/pink.gif","img/card_backs/set2/orange.gif","img/card_backs/set2/blue.gif","img/card_backs/set2/gray.gif","""event"",""trial"",""time""
""blur"",""0"",""0""
""focus"",""0"",""0""
""focus"",""0"",""0""
""blur"",""0"",""0""
""focus"",""0"",""0""
""blur"",""0"",""0""
""focus"",""1"",""35640""
""focus"",""1"",""35644""
""fullscreenenter"",""1"",""39556""
""blur"",""4"",""47159""
""focus"",""4"",""51903""
","""event"",""trial"",""time""
""blur"",""0"",""0""
""blur"",""0"",""0""
""blur"",""0"",""0""
""blur"",""4"",""47159""
","""event"",""trial"",""time""
""focus"",""0"",""0""
""focus"",""0"",""0""
""focus"",""0"",""0""
""focus"",""1"",""35640""
""focus"",""1"",""35644""
""focus"",""4"",""51903""
","""event"",""trial"",""time""
""fullscreenenter"",""1"",""39556""
","
","","1463","","","","real_trial","2021-06-25 07:28:32.320","img/card_backs/set1/red.gif","3","200","1","",""
"casino-fixation","80","360517","0.0-25.0-0.5","A333","false","img/card_backs/set1/red.gif","img/card_backs/set1/purple.gif","img/card_backs/set1/green.gif","img/card_backs/set1/yellow.gif","img/card_backs/set2/pink.gif","img/card_backs/set2/orange.gif","img/card_backs/set2/blue.gif","img/card_backs/set2/gray.gif","""event"",""trial"",""time""
""blur"",""0"",""0""
""focus"",""0"",""0""
""focus"",""0"",""0""
""blur"",""0"",""0""
""focus"",""0"",""0""
""blur"",""0"",""0""
""focus"",""1"",""35640""
""focus"",""1"",""35644""
""fullscreenenter"",""1"",""39556""
""blur"",""4"",""47159""
""focus"",""4"",""51903""
","""event"",""trial"",""time""
""blur"",""0"",""0""
""blur"",""0"",""0""
""blur"",""0"",""0""
""blur"",""4"",""47159""
","""event"",""trial"",""time""
""focus"",""0"",""0""
""focus"",""0"",""0""
""focus"",""0"",""0""
""focus"",""1"",""35640""
""focus"",""1"",""35644""
""focus"",""4"",""51903""
","""event"",""trial"",""time""
""fullscreenenter"",""1"",""39556""
","
","","null","","null","","fixation","2021-06-25 07:28:32.822","","","","","",""
"card-selection-trial","81","363640","0.0-25.0-1.5","A333","false","img/card_backs/set1/red.gif","img/card_backs/set1/purple.gif","img/card_backs/set1/green.gif","img/card_backs/set1/yellow.gif","img/card_backs/set2/pink.gif","img/card_backs/set2/orange.gif","img/card_backs/set2/blue.gif","img/card_backs/set2/gray.gif","""event"",""trial"",""time""
""blur"",""0"",""0""
""focus"",""0"",""0""
""focus"",""0"",""0""
""blur"",""0"",""0""
""focus"",""0"",""0""
""blur"",""0"",""0""
""focus"",""1"",""35640""
""focus"",""1"",""35644""
""fullscreenenter"",""1"",""39556""
""blur"",""4"",""47159""
""focus"",""4"",""51903""
","""event"",""trial"",""time""
""blur"",""0"",""0""
""blur"",""0"",""0""
""blur"",""0"",""0""
""blur"",""4"",""47159""
","""event"",""trial"",""time""
""focus"",""0"",""0""
""focus"",""0"",""0""
""focus"",""0"",""0""
""focus"",""1"",""35640""
""focus"",""1"",""35644""
""focus"",""4"",""51903""
","""event"",""trial"",""time""
""fullscreenenter"",""1"",""39556""
","
","","1119","","","","real_trial","2021-06-25 07:28:35.945","img/card_backs/set1/red.gif","0","190","1","",""
"casino-fixation","82","364142","0.0-25.0-0.6","A333","false","img/card_backs/set1/red.gif","img/card_backs/set1/purple.gif","img/card_backs/set1/green.gif","img/card_backs/set1/yellow.gif","img/card_backs/set2/pink.gif","img/card_backs/set2/orange.gif","img/card_backs/set2/blue.gif","img/card_backs/set2/gray.gif","""event"",""trial"",""time""
""blur"",""0"",""0""
""focus"",""0"",""0""
""focus"",""0"",""0""
""blur"",""0"",""0""
""focus"",""0"",""0""
""blur"",""0"",""0""
""focus"",""1"",""35640""
""focus"",""1"",""35644""
""fullscreenenter"",""1"",""39556""
""blur"",""4"",""47159""
""focus"",""4"",""51903""
","""event"",""trial"",""time""
""blur"",""0"",""0""
""blur"",""0"",""0""
""blur"",""0"",""0""
""blur"",""4"",""47159""
","""event"",""trial"",""time""
""focus"",""0"",""0""
""focus"",""0"",""0""
""focus"",""0"",""0""
""focus"",""1"",""35640""
""focus"",""1"",""35644""
""focus"",""4"",""51903""
","""event"",""trial"",""time""
""fullscreenenter"",""1"",""39556""
","
","","null","","null","","fixation","2021-06-25 07:28:36.447","","","","","",""
"card-selection-trial","83","367029","0.0-25.0-1.6","A333","false","img/card_backs/set1/red.gif","img/card_backs/set1/purple.gif","img/card_backs/set1/green.gif","img/card_backs/set1/yellow.gif","img/card_backs/set2/pink.gif","img/card_backs/set2/orange.gif","img/card_backs/set2/blue.gif","img/card_backs/set2/gray.gif","""event"",""trial"",""time""
""blur"",""0"",""0""
""focus"",""0"",""0""
""focus"",""0"",""0""
""blur"",""0"",""0""
""focus"",""0"",""0""
""blur"",""0"",""0""
""focus"",""1"",""35640""
""focus"",""1"",""35644""
""fullscreenenter"",""1"",""39556""
""blur"",""4"",""47159""
""focus"",""4"",""51903""
","""event"",""trial"",""time""
""blur"",""0"",""0""
""blur"",""0"",""0""
""blur"",""0"",""0""
""blur"",""4"",""47159""
","""event"",""trial"",""time""
""focus"",""0"",""0""
""focus"",""0"",""0""
""focus"",""0"",""0""
""focus"",""1"",""35640""
""focus"",""1"",""35644""
""focus"",""4"",""51903""
","""event"",""trial"",""time""
""fullscreenenter"",""1"",""39556""
","
","","883","","","","real_trial","2021-06-25 07:28:39.334","img/card_backs/set1/red.gif","3","200","1","",""
"casino-fixation","84","367532","0.0-25.0-0.7","A333","false","img/card_backs/set1/red.gif","img/card_backs/set1/purple.gif","img/card_backs/set1/green.gif","img/card_backs/set1/yellow.gif","img/card_backs/set2/pink.gif","img/card_backs/set2/orange.gif","img/card_backs/set2/blue.gif","img/card_backs/set2/gray.gif","""event"",""trial"",""time""
""blur"",""0"",""0""
""focus"",""0"",""0""
""focus"",""0"",""0""
""blur"",""0"",""0""
""focus"",""0"",""0""
""blur"",""0"",""0""
""focus"",""1"",""35640""
""focus"",""1"",""35644""
""fullscreenenter"",""1"",""39556""
""blur"",""4"",""47159""
""focus"",""4"",""51903""
","""event"",""trial"",""time""
""blur"",""0"",""0""
""blur"",""0"",""0""
""blur"",""0"",""0""
""blur"",""4"",""47159""
","""event"",""trial"",""time""
""focus"",""0"",""0""
""focus"",""0"",""0""
""focus"",""0"",""0""
""focus"",""1"",""35640""
""focus"",""1"",""35644""
""focus"",""4"",""51903""
","""event"",""trial"",""time""
""fullscreenenter"",""1"",""39556""
","
","","null","","null","","fixation","2021-06-25 07:28:39.837","","","","","",""
"card-selection-trial","85","370765","0.0-25.0-1.7","A333","false","img/card_backs/set1/red.gif","img/card_backs/set1/purple.gif","img/card_backs/set1/green.gif","img/card_backs/set1/yellow.gif","img/card_backs/set2/pink.gif","img/card_backs/set2/orange.gif","img/card_backs/set2/blue.gif","img/card_backs/set2/gray.gif","""event"",""trial"",""time""
""blur"",""0"",""0""
""focus"",""0"",""0""
""focus"",""0"",""0""
""blur"",""0"",""0""
""focus"",""0"",""0""
""blur"",""0"",""0""
""focus"",""1"",""35640""
""focus"",""1"",""35644""
""fullscreenenter"",""1"",""39556""
""blur"",""4"",""47159""
""focus"",""4"",""51903""
","""event"",""trial"",""time""
""blur"",""0"",""0""
""blur"",""0"",""0""
""blur"",""0"",""0""
""blur"",""4"",""47159""
","""event"",""trial"",""time""
""focus"",""0"",""0""
""focus"",""0"",""0""
""focus"",""0"",""0""
""focus"",""1"",""35640""
""focus"",""1"",""35644""
""focus"",""4"",""51903""
","""event"",""trial"",""time""
""fullscreenenter"",""1"",""39556""
","
","","1229","","","","real_trial","2021-06-25 07:28:43.070","img/card_backs/set1/red.gif","1","190","1","",""
"casino-fixation","86","371267","0.0-25.0-0.8","A333","false","img/card_backs/set1/red.gif","img/card_backs/set1/purple.gif","img/card_backs/set1/green.gif","img/card_backs/set1/yellow.gif","img/card_backs/set2/pink.gif","img/card_backs/set2/orange.gif","img/card_backs/set2/blue.gif","img/card_backs/set2/gray.gif","""event"",""trial"",""time""
""blur"",""0"",""0""
""focus"",""0"",""0""
""focus"",""0"",""0""
""blur"",""0"",""0""
""focus"",""0"",""0""
""blur"",""0"",""0""
""focus"",""1"",""35640""
""focus"",""1"",""35644""
""fullscreenenter"",""1"",""39556""
""blur"",""4"",""47159""
""focus"",""4"",""51903""
","""event"",""trial"",""time""
""blur"",""0"",""0""
""blur"",""0"",""0""
""blur"",""0"",""0""
""blur"",""4"",""47159""
","""event"",""trial"",""time""
""focus"",""0"",""0""
""focus"",""0"",""0""
""focus"",""0"",""0""
""focus"",""1"",""35640""
""focus"",""1"",""35644""
""focus"",""4"",""51903""
","""event"",""trial"",""time""
""fullscreenenter"",""1"",""39556""
","
