"trial_type","trial_index","time_elapsed","internal_node_id","sub_id","risk_good_first","block1_A","block1_B","block1_C","block1_D","block2_A","block2_B","block2_C","block2_D","interactions","blur_events","focus_events","fullscreenenter_events","fullscreenexit_events","success","rt","stimulus","key_press","button_pressed","task_part","timestamp","card_choice","choice_position","points_earned","block","correct","response"
"pavlovia","0","5","0.0-0.0","198","true","img/card_backs/set1/green.gif","img/card_backs/set1/yellow.gif","img/card_backs/set1/purple.gif","img/card_backs/set1/red.gif","img/card_backs/set2/orange.gif","img/card_backs/set2/blue.gif","img/card_backs/set2/gray.gif","img/card_backs/set2/pink.gif","""event"",""trial"",""time""
""fullscreenenter"",""1"",""8326""
","
","
","""event"",""trial"",""time""
""fullscreenenter"",""1"",""8326""
","
","","","","","","","","","","","","",""
"fullscreen","1","9319","0.0-1.0","198","true","img/card_backs/set1/green.gif","img/card_backs/set1/yellow.gif","img/card_backs/set1/purple.gif","img/card_backs/set1/red.gif","img/card_backs/set2/orange.gif","img/card_backs/set2/blue.gif","img/card_backs/set2/gray.gif","img/card_backs/set2/pink.gif","""event"",""trial"",""time""
""fullscreenenter"",""1"",""8326""
","
","
","""event"",""trial"",""time""
""fullscreenenter"",""1"",""8326""
","
","true","","","","","","","","","","","",""
"audio-keyboard-response","2","14537","0.0-2.0","198","true","img/card_backs/set1/green.gif","img/card_backs/set1/yellow.gif","img/card_backs/set1/purple.gif","img/card_backs/set1/red.gif","img/card_backs/set2/orange.gif","img/card_backs/set2/blue.gif","img/card_backs/set2/gray.gif","img/card_backs/set2/pink.gif","""event"",""trial"",""time""
""fullscreenenter"",""1"",""8326""
","
","
","""event"",""trial"",""time""
""fullscreenenter"",""1"",""8326""
","
","","5173","audio/beep_loop.wav","32","","","","","","","","",""
"audio-button-response","3","17545","0.0-3.0","198","true","img/card_backs/set1/green.gif","img/card_backs/set1/yellow.gif","img/card_backs/set1/purple.gif","img/card_backs/set1/red.gif","img/card_backs/set2/orange.gif","img/card_backs/set2/blue.gif","img/card_backs/set2/gray.gif","img/card_backs/set2/pink.gif","""event"",""trial"",""time""
""fullscreenenter"",""1"",""8326""
","
","
","""event"",""trial"",""time""
""fullscreenenter"",""1"",""8326""
","
","","NaN","audio/turtle.mp3","","3","","","","","","","",""
"audio-button-response","4","30920","0.0-4.0","198","true","img/card_backs/set1/green.gif","img/card_backs/set1/yellow.gif","img/card_backs/set1/purple.gif","img/card_backs/set1/red.gif","img/card_backs/set2/orange.gif","img/card_backs/set2/blue.gif","img/card_backs/set2/gray.gif","img/card_backs/set2/pink.gif","""event"",""trial"",""time""
""fullscreenenter"",""1"",""8326""
","
","
","""event"",""trial"",""time""
""fullscreenenter"",""1"",""8326""
","
","","NaN","audio/shark.mp3","","2","","","","","","","",""
"fullscreen","5","35099","0.0-5.0","198","true","img/card_backs/set1/green.gif","img/card_backs/set1/yellow.gif","img/card_backs/set1/purple.gif","img/card_backs/set1/red.gif","img/card_backs/set2/orange.gif","img/card_backs/set2/blue.gif","img/card_backs/set2/gray.gif","img/card_backs/set2/pink.gif","""event"",""trial"",""time""
""fullscreenenter"",""1"",""8326""
","
","
","""event"",""trial"",""time""
""fullscreenenter"",""1"",""8326""
","
","true","","","","","","","","","","","",""
"casino-keyboard-response","6","43891","0.0-6.0-0.0","198","true","img/card_backs/set1/green.gif","img/card_backs/set1/yellow.gif","img/card_backs/set1/purple.gif","img/card_backs/set1/red.gif","img/card_backs/set2/orange.gif","img/card_backs/set2/blue.gif","img/card_backs/set2/gray.gif","img/card_backs/set2/pink.gif","""event"",""trial"",""time""
""fullscreenenter"",""1"",""8326""
","
","
","""event"",""trial"",""time""
""fullscreenenter"",""1"",""8326""
","
","","8781.690000090748","Welcome to the casino!","71","","instructions","2021-04-17 17:27:16.536","","","","","",""
"casino-keyboard-response","7","59993","0.0-6.0-0.1","198","true","img/card_backs/set1/green.gif","img/card_backs/set1/yellow.gif","img/card_backs/set1/purple.gif","img/card_backs/set1/red.gif","img/card_backs/set2/orange.gif","img/card_backs/set2/blue.gif","img/card_backs/set2/gray.gif","img/card_backs/set2/pink.gif","""event"",""trial"",""time""
""fullscreenenter"",""1"",""8326""
","
","
","""event"",""trial"",""time""
""fullscreenenter"",""1"",""8326""
","
","","16099.080000072718","Today you will be playing a game to earn tokens. </br> At the end of the experiment, you will be paid a bonus based on how many tokens you win. ","69","","instructions","2021-04-17 17:27:32.638","","","","","",""
"casino-keyboard-response","8","79278","0.0-6.0-0.2","198","true","img/card_backs/set1/green.gif","img/card_backs/set1/yellow.gif","img/card_backs/set1/purple.gif","img/card_backs/set1/red.gif","img/card_backs/set2/orange.gif","img/card_backs/set2/blue.gif","img/card_backs/set2/gray.gif","img/card_backs/set2/pink.gif","""event"",""trial"",""time""
""fullscreenenter"",""1"",""8326""
","
","
","""event"",""trial"",""time""
""fullscreenenter"",""1"",""8326""
","
","","19284.04500009492","On every turn, you will be shown four different decks of cards. </br> You need to select a card from one of the four decks.  ","75","","instructions","2021-04-17 17:27:51.923","","","","","",""
"casino-keyboard-response","9","86106","0.0-6.0-0.3","198","true","img/card_backs/set1/green.gif","img/card_backs/set1/yellow.gif","img/card_backs/set1/purple.gif","img/card_backs/set1/red.gif","img/card_backs/set2/orange.gif","img/card_backs/set2/blue.gif","img/card_backs/set2/gray.gif","img/card_backs/set2/pink.gif","""event"",""trial"",""time""
""fullscreenenter"",""1"",""8326""
","
","
","""event"",""trial"",""time""
""fullscreenenter"",""1"",""8326""
","
","","6824.435000075027","On the next screen, you will see what the decks will look like. ","66","","instructions","2021-04-17 17:27:58.751","","","","","",""
"card-selection-trial","10","90129","0.0-7.0-0.0","198","true","img/card_backs/set1/green.gif","img/card_backs/set1/yellow.gif","img/card_backs/set1/purple.gif","img/card_backs/set1/red.gif","img/card_backs/set2/orange.gif","img/card_backs/set2/blue.gif","img/card_backs/set2/gray.gif","img/card_backs/set2/pink.gif","""event"",""trial"",""time""
""fullscreenenter"",""1"",""8326""
","
","
","""event"",""trial"",""time""
""fullscreenenter"",""1"",""8326""
","
","","null","","","","practice","2021-04-17 17:28:02.774","null","null","null","0","",""
"casino-keyboard-response","11","99539","0.0-8.0-0.0","198","true","img/card_backs/set1/green.gif","img/card_backs/set1/yellow.gif","img/card_backs/set1/purple.gif","img/card_backs/set1/red.gif","img/card_backs/set2/orange.gif","img/card_backs/set2/blue.gif","img/card_backs/set2/gray.gif","img/card_backs/set2/pink.gif","""event"",""trial"",""time""
""fullscreenenter"",""1"",""8326""
","
","
","""event"",""trial"",""time""
""fullscreenenter"",""1"",""8326""
","
","","9407.404999947175","You should pick a card from a deck using the '2', '4', '6', and '8' keys at the top of the keyboard.","85","","instructions","2021-04-17 17:28:12.184","","","","","",""
"casino-keyboard-response","12","107385","0.0-8.0-0.1","198","true","img/card_backs/set1/green.gif","img/card_backs/set1/yellow.gif","img/card_backs/set1/purple.gif","img/card_backs/set1/red.gif","img/card_backs/set2/orange.gif","img/card_backs/set2/blue.gif","img/card_backs/set2/gray.gif","img/card_backs/set2/pink.gif","""event"",""trial"",""time""
""fullscreenenter"",""1"",""8326""
","
","
","""event"",""trial"",""time""
""fullscreenenter"",""1"",""8326""
","
","","7843.375000171363","Once you select a card, it will turn over and you will see how many tokens you earned.","83","","instructions","2021-04-17 17:28:20.031","","","","","",""
"casino-keyboard-response","13","131651","0.0-8.0-0.2","198","true","img/card_backs/set1/green.gif","img/card_backs/set1/yellow.gif","img/card_backs/set1/purple.gif","img/card_backs/set1/red.gif","img/card_backs/set2/orange.gif","img/card_backs/set2/blue.gif","img/card_backs/set2/gray.gif","img/card_backs/set2/pink.gif","""event"",""trial"",""time""
""fullscreenenter"",""1"",""8326""
","
","
","""event"",""trial"",""time""
""fullscreenenter"",""1"",""8326""
","
","","24263.50500015542","Let's try practicing that! </br> First, try to put your fingers over the '2', '4', '6', and '8' keys. </br>  You can use whatever fingers are most comfortable for you. Try to find a comfortable position now. ","50","","instructions","2021-04-17 17:28:44.296","","","","","",""
"casino-keyboard-response","14","137947","0.0-8.0-0.3","198","true","img/card_backs/set1/green.gif","img/card_backs/set1/yellow.gif","img/card_backs/set1/purple.gif","img/card_backs/set1/red.gif","img/card_backs/set2/orange.gif","img/card_backs/set2/blue.gif","img/card_backs/set2/gray.gif","img/card_backs/set2/pink.gif","""event"",""trial"",""time""
""fullscreenenter"",""1"",""8326""
","
","
","""event"",""trial"",""time""
""fullscreenenter"",""1"",""8326""
","
","","6292.660000035539","Okay ready? </br> On the next screen, press '2' to select the left deck. ","50","","instructions","2021-04-17 17:28:50.593","","","","","",""
"card-selection-trial","15","142330","0.0-9.0-0.0","198","true","img/card_backs/set1/green.gif","img/card_backs/set1/yellow.gif","img/card_backs/set1/purple.gif","img/card_backs/set1/red.gif","img/card_backs/set2/orange.gif","img/card_backs/set2/blue.gif","img/card_backs/set2/gray.gif","img/card_backs/set2/pink.gif","""event"",""trial"",""time""
""fullscreenenter"",""1"",""8326""
","
","
","""event"",""trial"",""time""
""fullscreenenter"",""1"",""8326""
","
","","2354.8850000370294","","","","practice_card_selection","2021-04-17 17:28:54.975","img/practice_cards/backs/dark_blue.gif","0","-200","","",""
"casino-keyboard-response","16","148788","0.0-10.0-0.0","198","true","img/card_backs/set1/green.gif","img/card_backs/set1/yellow.gif","img/card_backs/set1/purple.gif","img/card_backs/set1/red.gif","img/card_backs/set2/orange.gif","img/card_backs/set2/blue.gif","img/card_backs/set2/gray.gif","img/card_backs/set2/pink.gif","""event"",""trial"",""time""
""fullscreenenter"",""1"",""8326""
","
","
","""event"",""trial"",""time""
""fullscreenenter"",""1"",""8326""
","
","","6455.839999951422","Great! Now on the next screen, try pressing '6' to select the third deck.","54","","instructions","2021-04-17 17:29:01.433","","","","","",""
"card-selection-trial","17","152059","0.0-11.0-0.0","198","true","img/card_backs/set1/green.gif","img/card_backs/set1/yellow.gif","img/card_backs/set1/purple.gif","img/card_backs/set1/red.gif","img/card_backs/set2/orange.gif","img/card_backs/set2/blue.gif","img/card_backs/set2/gray.gif","img/card_backs/set2/pink.gif","""event"",""trial"",""time""
""fullscreenenter"",""1"",""8326""
","
","
","""event"",""trial"",""time""
""fullscreenenter"",""1"",""8326""
","
","","1250.3349999897182","","","","practice_card_selection","2021-04-17 17:29:04.704","img/practice_cards/backs/dark_blue.gif","2","-200","","",""
"casino-keyboard-response","18","157624","0.0-12.0-0.0","198","true","img/card_backs/set1/green.gif","img/card_backs/set1/yellow.gif","img/card_backs/set1/purple.gif","img/card_backs/set1/red.gif","img/card_backs/set2/orange.gif","img/card_backs/set2/blue.gif","img/card_backs/set2/gray.gif","img/card_backs/set2/pink.gif","""event"",""trial"",""time""
""fullscreenenter"",""1"",""8326""
","
","
","""event"",""trial"",""time""
""fullscreenenter"",""1"",""8326""
","
","","5562.324999831617","Now on the next screen, try pressing '4' to select the second deck.","52","","instructions","2021-04-17 17:29:10.269","","","","","",""
"card-selection-trial","19","160017","0.0-13.0-0.0","198","true","img/card_backs/set1/green.gif","img/card_backs/set1/yellow.gif","img/card_backs/set1/purple.gif","img/card_backs/set1/red.gif","img/card_backs/set2/orange.gif","img/card_backs/set2/blue.gif","img/card_backs/set2/gray.gif","img/card_backs/set2/pink.gif","""event"",""trial"",""time""
""fullscreenenter"",""1"",""8326""
","
","
","""event"",""trial"",""time""
""fullscreenenter"",""1"",""8326""
","
","","369.3649999331683","","","","practice_card_selection","2021-04-17 17:29:12.662","img/practice_cards/backs/brown.gif","1","-100","","",""
"casino-keyboard-response","20","164886","0.0-14.0-0.0","198","true","img/card_backs/set1/green.gif","img/card_backs/set1/yellow.gif","img/card_backs/set1/purple.gif","img/card_backs/set1/red.gif","img/card_backs/set2/orange.gif","img/card_backs/set2/blue.gif","img/card_backs/set2/gray.gif","img/card_backs/set2/pink.gif","""event"",""trial"",""time""
""fullscreenenter"",""1"",""8326""
","
","
","""event"",""trial"",""time""
""fullscreenenter"",""1"",""8326""
","
","","4865.905000129715","Finally, try pressing '8' to select the deck all the way on the right.","56","","instructions","2021-04-17 17:29:17.531","","","","","",""
"card-selection-trial","21","167643","0.0-15.0-0.0","198","true","img/card_backs/set1/green.gif","img/card_backs/set1/yellow.gif","img/card_backs/set1/purple.gif","img/card_backs/set1/red.gif","img/card_backs/set2/orange.gif","img/card_backs/set2/blue.gif","img/card_backs/set2/gray.gif","img/card_backs/set2/pink.gif","""event"",""trial"",""time""
""fullscreenenter"",""1"",""8326""
","
","
","""event"",""trial"",""time""
""fullscreenenter"",""1"",""8326""
","
","","750.3649999853224","","","","practice_card_selection","2021-04-17 17:29:20.288","img/practice_cards/backs/black.gif","3","-100","","",""
"casino-keyboard-response","22","175873","0.0-16.0-0.0","198","true","img/card_backs/set1/green.gif","img/card_backs/set1/yellow.gif","img/card_backs/set1/purple.gif","img/card_backs/set1/red.gif","img/card_backs/set2/orange.gif","img/card_backs/set2/blue.gif","img/card_backs/set2/gray.gif","img/card_backs/set2/pink.gif","""event"",""trial"",""time""
""fullscreenenter"",""1"",""8326""
","
","
","""event"",""trial"",""time""
""fullscreenenter"",""1"",""8326""
","
","","8227.925000013784","Great! It seems like you are getting the hang of this.","80","","instructions","2021-04-17 17:29:28.518","","","","","",""
"casino-keyboard-response","23","184770","0.0-16.0-0.1","198","true","img/card_backs/set1/green.gif","img/card_backs/set1/yellow.gif","img/card_backs/set1/purple.gif","img/card_backs/set1/red.gif","img/card_backs/set2/orange.gif","img/card_backs/set2/blue.gif","img/card_backs/set2/gray.gif","img/card_backs/set2/pink.gif","""event"",""trial"",""time""
""fullscreenenter"",""1"",""8326""
","
","
","""event"",""trial"",""time""
""fullscreenenter"",""1"",""8326""
","
","","8894.229999976233","You may have noticed that some cards will cause you to <b> win </b> tokens while other cards will cause you to <b> lose </b>  tokens.","70","","instructions","2021-04-17 17:29:37.415","","","","","",""
"casino-keyboard-response","24","194596","0.0-16.0-0.2","198","true","img/card_backs/set1/green.gif","img/card_backs/set1/yellow.gif","img/card_backs/set1/purple.gif","img/card_backs/set1/red.gif","img/card_backs/set2/orange.gif","img/card_backs/set2/blue.gif","img/card_backs/set2/gray.gif","img/card_backs/set2/pink.gif","""event"",""trial"",""time""
""fullscreenenter"",""1"",""8326""
","
","
","""event"",""trial"",""time""
""fullscreenenter"",""1"",""8326""
","
","","9824.105000123382","Each deck has a mix of cards that will cause you to win and lose tokens. </br> However, the cards in each colored deck are different.","73","","instructions","2021-04-17 17:29:47.241","","","","","",""
"casino-keyboard-response","25","204564","0.0-16.0-0.3","198","true","img/card_backs/set1/green.gif","img/card_backs/set1/yellow.gif","img/card_backs/set1/purple.gif","img/card_backs/set1/red.gif","img/card_backs/set2/orange.gif","img/card_backs/set2/blue.gif","img/card_backs/set2/gray.gif","img/card_backs/set2/pink.gif","""event"",""trial"",""time""
""fullscreenenter"",""1"",""8326""
","
","
","""event"",""trial"",""time""
""fullscreenenter"",""1"",""8326""
","
","","9965.069999918342","Some colored decks are luckier than others. </br> If you choose the lucky decks, you will earn more tokens than if you choose the unlucky decks.","69","","instructions","2021-04-17 17:29:57.209","","","","","",""
"casino-keyboard-response","26","215783","0.0-16.0-0.4","198","true","img/card_backs/set1/green.gif","img/card_backs/set1/yellow.gif","img/card_backs/set1/purple.gif","img/card_backs/set1/red.gif","img/card_backs/set2/orange.gif","img/card_backs/set2/blue.gif","img/card_backs/set2/gray.gif","img/card_backs/set2/pink.gif","""event"",""trial"",""time""
""fullscreenenter"",""1"",""8326""
","
","
","""event"",""trial"",""time""
""fullscreenenter"",""1"",""8326""
","
","","11216.8000000529","You should try to figure out which decks are lucky. </br> Then, try to choose the lucky decks so you can win the most tokens.","87","","instructions","2021-04-17 17:30:08.428","","","","","",""
"casino-keyboard-response","27","231350","0.0-16.0-0.5","198","true","img/card_backs/set1/green.gif","img/card_backs/set1/yellow.gif","img/card_backs/set1/purple.gif","img/card_backs/set1/red.gif","img/card_backs/set2/orange.gif","img/card_backs/set2/blue.gif","img/card_backs/set2/gray.gif","img/card_backs/set2/pink.gif","""event"",""trial"",""time""
""fullscreenenter"",""1"",""8326""
","
","
","""event"",""trial"",""time""
""fullscreenenter"",""1"",""8326""
","
","","15564.750000135973","To make it trickier, the casino dealer will switch the locations of the decks on every turn. </br> The color of the deck determines how lucky it is. The location does not matter.","88","","instructions","2021-04-17 17:30:23.995","","","","","",""
"casino-keyboard-response","28","244668","0.0-16.0-0.6","198","true","img/card_backs/set1/green.gif","img/card_backs/set1/yellow.gif","img/card_backs/set1/purple.gif","img/card_backs/set1/red.gif","img/card_backs/set2/orange.gif","img/card_backs/set2/blue.gif","img/card_backs/set2/gray.gif","img/card_backs/set2/pink.gif","""event"",""trial"",""time""
""fullscreenenter"",""1"",""8326""
","
","
","""event"",""trial"",""time""
""fullscreenenter"",""1"",""8326""
","
","","13313.719999976456","The mix of cards in each colored deck will stay the same throughout the game. </br> That means that a deck that is lucky early on will stay lucky.","79","","instructions","2021-04-17 17:30:37.313","","","","","",""
"casino-keyboard-response","29","254127","0.0-16.0-0.7","198","true","img/card_backs/set1/green.gif","img/card_backs/set1/yellow.gif","img/card_backs/set1/purple.gif","img/card_backs/set1/red.gif","img/card_backs/set2/orange.gif","img/card_backs/set2/blue.gif","img/card_backs/set2/gray.gif","img/card_backs/set2/pink.gif","""event"",""trial"",""time""
""fullscreenenter"",""1"",""8326""
","
","
","""event"",""trial"",""time""
""fullscreenenter"",""1"",""8326""
","
","","9456.940000178292","Remember though, all the decks have a <b> mix </b> of both <b> good </b> and <b> bad </b> cards so it may take a couple of turns to figure out if a deck is lucky.","69","","instructions","2021-04-17 17:30:46.773","","","","","",""
"casino-keyboard-response","30","265222","0.0-16.0-0.8","198","true","img/card_backs/set1/green.gif","img/card_backs/set1/yellow.gif","img/card_backs/set1/purple.gif","img/card_backs/set1/red.gif","img/card_backs/set2/orange.gif","img/card_backs/set2/blue.gif","img/card_backs/set2/gray.gif","img/card_backs/set2/pink.gif","""event"",""trial"",""time""
""fullscreenenter"",""1"",""8326""
","
","
","""event"",""trial"",""time""
""fullscreenenter"",""1"",""8326""
","
","","11091.18999983184","At the end of the game, you will be paid bonus money based on how many tokens you win. </br> If you win more tokens, you will earn more money!","72","","instructions","2021-04-17 17:30:57.867","","","","","",""
"casino-keyboard-response","31","276961","0.0-16.0-0.9","198","true","img/card_backs/set1/green.gif","img/card_backs/set1/yellow.gif","img/card_backs/set1/purple.gif","img/card_backs/set1/red.gif","img/card_backs/set2/orange.gif","img/card_backs/set2/blue.gif","img/card_backs/set2/gray.gif","img/card_backs/set2/pink.gif","""event"",""trial"",""time""
""fullscreenenter"",""1"",""8326""
","
","
","""event"",""trial"",""time""
""fullscreenenter"",""1"",""8326""
","
","","11735.72999984026","You will never <b> lose </b> money. </br> If you end up with fewer than 0 tokens, you will earn $0 of bonus money, but you will still be paid for playing the game.","83","","instructions","2021-04-17 17:31:09.606","","","","","",""
"casino-keyboard-response","32","282770","0.0-16.0-0.10","198","true","img/card_backs/set1/green.gif","img/card_backs/set1/yellow.gif","img/card_backs/set1/purple.gif","img/card_backs/set1/red.gif","img/card_backs/set2/orange.gif","img/card_backs/set2/blue.gif","img/card_backs/set2/gray.gif","img/card_backs/set2/pink.gif","""event"",""trial"",""time""
""fullscreenenter"",""1"",""8326""
","
","
","""event"",""trial"",""time""
""fullscreenenter"",""1"",""8326""
","
","","5802.750000031665","You will have 10 seconds to make each choice.","82","","instructions","2021-04-17 17:31:15.415","","","","","",""
"casino-keyboard-response","33","291481","0.0-16.0-0.11","198","true","img/card_backs/set1/green.gif","img/card_backs/set1/yellow.gif","img/card_backs/set1/purple.gif","img/card_backs/set1/red.gif","img/card_backs/set2/orange.gif","img/card_backs/set2/blue.gif","img/card_backs/set2/gray.gif","img/card_backs/set2/pink.gif","""event"",""trial"",""time""
""fullscreenenter"",""1"",""8326""
","
","
","""event"",""trial"",""time""
""fullscreenenter"",""1"",""8326""
","
","","8708.60999985598","Before you play the game for real, you will play with practice decks. </br> The tokens you earn during practice won't count toward your total.","86","","instructions","2021-04-17 17:31:24.127","","","","","",""
"casino-keyboard-response","34","303319","0.0-16.0-0.12","198","true","img/card_backs/set1/green.gif","img/card_backs/set1/yellow.gif","img/card_backs/set1/purple.gif","img/card_backs/set1/red.gif","img/card_backs/set2/orange.gif","img/card_backs/set2/blue.gif","img/card_backs/set2/gray.gif","img/card_backs/set2/pink.gif","""event"",""trial"",""time""
""fullscreenenter"",""1"",""8326""
","
","
","""event"",""trial"",""time""
""fullscreenenter"",""1"",""8326""
","
","","11834.215000038967","Ready? Remember, use the '2', '4', '6', and '8' keys to select the decks. </br> Put your fingers on those keys now and then press '2' to begin.","50","","instructions","2021-04-17 17:31:35.964","","","","","",""
"casino-fixation","35","303826","0.0-17.0-0.0","198","true","img/card_backs/set1/green.gif","img/card_backs/set1/yellow.gif","img/card_backs/set1/purple.gif","img/card_backs/set1/red.gif","img/card_backs/set2/orange.gif","img/card_backs/set2/blue.gif","img/card_backs/set2/gray.gif","img/card_backs/set2/pink.gif","""event"",""trial"",""time""
""fullscreenenter"",""1"",""8326""
","
","
","""event"",""trial"",""time""
""fullscreenenter"",""1"",""8326""
","
","","null","","null","","fixation","2021-04-17 17:31:36.471","","","","","",""
"card-selection-trial","36","309361","0.0-17.0-1.0","198","true","img/card_backs/set1/green.gif","img/card_backs/set1/yellow.gif","img/card_backs/set1/purple.gif","img/card_backs/set1/red.gif","img/card_backs/set2/orange.gif","img/card_backs/set2/blue.gif","img/card_backs/set2/gray.gif","img/card_backs/set2/pink.gif","""event"",""trial"",""time""
""fullscreenenter"",""1"",""8326""
","
","
","""event"",""trial"",""time""
""fullscreenenter"",""1"",""8326""
","
","","3525.5450000986457","","","","practice","2021-04-17 17:31:42.006","img/practice_cards/backs/brown.gif","3","-100","0","",""
"casino-fixation","37","309884","0.0-17.0-0.1","198","true","img/card_backs/set1/green.gif","img/card_backs/set1/yellow.gif","img/card_backs/set1/purple.gif","img/card_backs/set1/red.gif","img/card_backs/set2/orange.gif","img/card_backs/set2/blue.gif","img/card_backs/set2/gray.gif","img/card_backs/set2/pink.gif","""event"",""trial"",""time""
""fullscreenenter"",""1"",""8326""
","
","
","""event"",""trial"",""time""
""fullscreenenter"",""1"",""8326""
","
","","null","","null","","fixation","2021-04-17 17:31:42.529","","","","","",""
"card-selection-trial","38","318140","0.0-17.0-1.1","198","true","img/card_backs/set1/green.gif","img/card_backs/set1/yellow.gif","img/card_backs/set1/purple.gif","img/card_backs/set1/red.gif","img/card_backs/set2/orange.gif","img/card_backs/set2/blue.gif","img/card_backs/set2/gray.gif","img/card_backs/set2/pink.gif","""event"",""trial"",""time""
""fullscreenenter"",""1"",""8326""
","
","
","""event"",""trial"",""time""
""fullscreenenter"",""1"",""8326""
","
","","6244.719999842346","","","","practice","2021-04-17 17:31:50.785","img/practice_cards/backs/dark_blue.gif","1","-200","0","",""
"casino-fixation","39","318663","0.0-17.0-0.2","198","true","img/card_backs/set1/green.gif","img/card_backs/set1/yellow.gif","img/card_backs/set1/purple.gif","img/card_backs/set1/red.gif","img/card_backs/set2/orange.gif","img/card_backs/set2/blue.gif","img/card_backs/set2/gray.gif","img/card_backs/set2/pink.gif","""event"",""trial"",""time""
""fullscreenenter"",""1"",""8326""
","
","
","""event"",""trial"",""time""
""fullscreenenter"",""1"",""8326""
","
","","null","","null","","fixation","2021-04-17 17:31:51.308","","","","","",""
"card-selection-trial","40","322151","0.0-17.0-1.2","198","true","img/card_backs/set1/green.gif","img/card_backs/set1/yellow.gif","img/card_backs/set1/purple.gif","img/card_backs/set1/red.gif","img/card_backs/set2/orange.gif","img/card_backs/set2/blue.gif","img/card_backs/set2/gray.gif","img/card_backs/set2/pink.gif","""event"",""trial"",""time""
""fullscreenenter"",""1"",""8326""
","
","
","""event"",""trial"",""time""
""fullscreenenter"",""1"",""8326""
","
","","1478.67999994196","","","","practice","2021-04-17 17:31:54.796","img/practice_cards/backs/dark_blue.gif","0","-200","0","",""
"casino-fixation","41","322673","0.0-17.0-0.3","198","true","img/card_backs/set1/green.gif","img/card_backs/set1/yellow.gif","img/card_backs/set1/purple.gif","img/card_backs/set1/red.gif","img/card_backs/set2/orange.gif","img/card_backs/set2/blue.gif","img/card_backs/set2/gray.gif","img/card_backs/set2/pink.gif","""event"",""trial"",""time""
""fullscreenenter"",""1"",""8326""
","
","
","""event"",""trial"",""time""
""fullscreenenter"",""1"",""8326""
","
","","null","","null","","fixation","2021-04-17 17:31:55.318","","","","","",""
"card-selection-trial","42","326642","0.0-17.0-1.3","198","true","img/card_backs/set1/green.gif","img/card_backs/set1/yellow.gif","img/card_backs/set1/purple.gif","img/card_backs/set1/red.gif","img/card_backs/set2/orange.gif","img/card_backs/set2/blue.gif","img/card_backs/set2/gray.gif","img/card_backs/set2/pink.gif","""event"",""trial"",""time""
""fullscreenenter"",""1"",""8326""
","
","
","""event"",""trial"",""time""
""fullscreenenter"",""1"",""8326""
","
","","1951.2449998874217","","","","practice","2021-04-17 17:31:59.287","img/practice_cards/backs/dark_blue.gif","2","-200","0","",""
"casino-fixation","43","327153","0.0-17.0-0.4","198","true","img/card_backs/set1/green.gif","img/card_backs/set1/yellow.gif","img/card_backs/set1/purple.gif","img/card_backs/set1/red.gif","img/card_backs/set2/orange.gif","img/card_backs/set2/blue.gif","img/card_backs/set2/gray.gif","img/card_backs/set2/pink.gif","""event"",""trial"",""time""
""fullscreenenter"",""1"",""8326""
","
","
","""event"",""trial"",""time""
""fullscreenenter"",""1"",""8326""
","
","","null","","null","","fixation","2021-04-17 17:31:59.798","","","","","",""
"card-selection-trial","44","334322","0.0-17.0-1.4","198","true","img/card_backs/set1/green.gif","img/card_backs/set1/yellow.gif","img/card_backs/set1/purple.gif","img/card_backs/set1/red.gif","img/card_backs/set2/orange.gif","img/card_backs/set2/blue.gif","img/card_backs/set2/gray.gif","img/card_backs/set2/pink.gif","""event"",""trial"",""time""
""fullscreenenter"",""1"",""8326""
","
","
","""event"",""trial"",""time""
""fullscreenenter"",""1"",""8326""
","
","","5161.0650001093745","","","","practice","2021-04-17 17:32:06.967","img/practice_cards/backs/dark_blue.gif","0","-200","0","",""
"casino-fixation","45","334826","0.0-17.0-0.5","198","true","img/card_backs/set1/green.gif","img/card_backs/set1/yellow.gif","img/card_backs/set1/purple.gif","img/card_backs/set1/red.gif","img/card_backs/set2/orange.gif","img/card_backs/set2/blue.gif","img/card_backs/set2/gray.gif","img/card_backs/set2/pink.gif","""event"",""trial"",""time""
""fullscreenenter"",""1"",""8326""
","
","
","""event"",""trial"",""time""
""fullscreenenter"",""1"",""8326""
","
","","null","","null","","fixation","2021-04-17 17:32:07.471","","","","","",""
"card-selection-trial","46","337112","0.0-17.0-1.5","198","true","img/card_backs/set1/green.gif","img/card_backs/set1/yellow.gif","img/card_backs/set1/purple.gif","img/card_backs/set1/red.gif","img/card_backs/set2/orange.gif","img/card_backs/set2/blue.gif","img/card_backs/set2/gray.gif","img/card_backs/set2/pink.gif","""event"",""trial"",""time""
""fullscreenenter"",""1"",""8326""
","
","
","""event"",""trial"",""time""
""fullscreenenter"",""1"",""8326""
","
","","277.8900000266731","","","","practice","2021-04-17 17:32:09.757","img/practice_cards/backs/dark_green.gif","3","200","0","",""
"casino-fixation","47","337615","0.0-17.0-0.6","198","true","img/card_backs/set1/green.gif","img/card_backs/set1/yellow.gif","img/card_backs/set1/purple.gif","img/card_backs/set1/red.gif","img/card_backs/set2/orange.gif","img/card_backs/set2/blue.gif","img/card_backs/set2/gray.gif","img/card_backs/set2/pink.gif","""event"",""trial"",""time""
""fullscreenenter"",""1"",""8326""
","
","
","""event"",""trial"",""time""
""fullscreenenter"",""1"",""8326""
","
","","null","","null","","fixation","2021-04-17 17:32:10.260","","","","","",""
"card-selection-trial","48","342031","0.0-17.0-1.6","198","true","img/card_backs/set1/green.gif","img/card_backs/set1/yellow.gif","img/card_backs/set1/purple.gif","img/card_backs/set1/red.gif","img/card_backs/set2/orange.gif","img/card_backs/set2/blue.gif","img/card_backs/set2/gray.gif","img/card_backs/set2/pink.gif","""event"",""trial"",""time""
""fullscreenenter"",""1"",""8326""
","
","
","""event"",""trial"",""time""
""fullscreenenter"",""1"",""8326""
","
","","2409.480000147596","","","","practice","2021-04-17 17:32:14.676","img/practice_cards/backs/dark_blue.gif","1","200","0","",""
"casino-fixation","49","342542","0.0-17.0-0.7","198","true","img/card_backs/set1/green.gif","img/card_backs/set1/yellow.gif","img/card_backs/set1/purple.gif","img/card_backs/set1/red.gif","img/card_backs/set2/orange.gif","img/card_backs/set2/blue.gif","img/card_backs/set2/gray.gif","img/card_backs/set2/pink.gif","""event"",""trial"",""time""
""fullscreenenter"",""1"",""8326""
","
","
","""event"",""trial"",""time""
""fullscreenenter"",""1"",""8326""
","
","","null","","null","","fixation","2021-04-17 17:32:15.187","","","","","",""
"card-selection-trial","50","346954","0.0-17.0-1.7","198","true","img/card_backs/set1/green.gif","img/card_backs/set1/yellow.gif","img/card_backs/set1/purple.gif","img/card_backs/set1/red.gif","img/card_backs/set2/orange.gif","img/card_backs/set2/blue.gif","img/card_backs/set2/gray.gif","img/card_backs/set2/pink.gif","""event"",""trial"",""time""
""fullscreenenter"",""1"",""8326""
","
","
","""event"",""trial"",""time""
""fullscreenenter"",""1"",""8326""
","
","","2403.9399998728186","","","","practice","2021-04-17 17:32:19.599","img/practice_cards/backs/brown.gif","1","100","0","",""
"casino-fixation","51","347457","0.0-17.0-0.8","198","true","img/card_backs/set1/green.gif","img/card_backs/set1/yellow.gif","img/card_backs/set1/purple.gif","img/card_backs/set1/red.gif","img/card_backs/set2/orange.gif","img/card_backs/set2/blue.gif","img/card_backs/set2/gray.gif","img/card_backs/set2/pink.gif","""event"",""trial"",""time""
""fullscreenenter"",""1"",""8326""
","
","
","""event"",""trial"",""time""
""fullscreenenter"",""1"",""8326""
","
","","null","","null","","fixation","2021-04-17 17:32:20.102","","","","","",""
"card-selection-trial","52","355147","0.0-17.0-1.8","198","true","img/card_backs/set1/green.gif","img/card_backs/set1/yellow.gif","img/card_backs/set1/purple.gif","img/card_backs/set1/red.gif","img/card_backs/set2/orange.gif","img/card_backs/set2/blue.gif","img/card_backs/set2/gray.gif","img/card_backs/set2/pink.gif","""event"",""trial"",""time""
""fullscreenenter"",""1"",""8326""
","
","
","""event"",""trial"",""time""
""fullscreenenter"",""1"",""8326""
","
","","5682.815000182018","","","","practice","2021-04-17 17:32:27.792","img/practice_cards/backs/dark_blue.gif","3","200","0","",""
"casino-fixation","53","355650","0.0-17.0-0.9","198","true","img/card_backs/set1/green.gif","img/card_backs/set1/yellow.gif","img/card_backs/set1/purple.gif","img/card_backs/set1/red.gif","img/card_backs/set2/orange.gif","img/card_backs/set2/blue.gif","img/card_backs/set2/gray.gif","img/card_backs/set2/pink.gif","""event"",""trial"",""time""
""fullscreenenter"",""1"",""8326""
","
","
","""event"",""trial"",""time""
""fullscreenenter"",""1"",""8326""
","
","","null","","null","","fixation","2021-04-17 17:32:28.295","","","","","",""
"card-selection-trial","54","360580","0.0-17.0-1.9","198","true","img/card_backs/set1/green.gif","img/card_backs/set1/yellow.gif","img/card_backs/set1/purple.gif","img/card_backs/set1/red.gif","img/card_backs/set2/orange.gif","img/card_backs/set2/blue.gif","img/card_backs/set2/gray.gif","img/card_backs/set2/pink.gif","""event"",""trial"",""time""
""fullscreenenter"",""1"",""8326""
","
","
","""event"",""trial"",""time""
""fullscreenenter"",""1"",""8326""
","
","","2925.065000075847","","","","practice","2021-04-17 17:32:33.225","img/practice_cards/backs/dark_green.gif","2","-200","0","",""
"casino-keyboard-response","55","365704","0.0-18.0","198","true","img/card_backs/set1/green.gif","img/card_backs/set1/yellow.gif","img/card_backs/set1/purple.gif","img/card_backs/set1/red.gif","img/card_backs/set2/orange.gif","img/card_backs/set2/blue.gif","img/card_backs/set2/gray.gif","img/card_backs/set2/pink.gif","""event"",""trial"",""time""
""fullscreenenter"",""1"",""8326""
","
","
","""event"",""trial"",""time""
""fullscreenenter"",""1"",""8326""
","
","","5121.964999940246","You earned -400 tokens during the practice round!","82","","","2021-04-17 17:32:38.350","","","","","",""
"casino-keyboard-response","56","370786","0.0-19.0-0.0","198","true","img/card_backs/set1/green.gif","img/card_backs/set1/yellow.gif","img/card_backs/set1/purple.gif","img/card_backs/set1/red.gif","img/card_backs/set2/orange.gif","img/card_backs/set2/blue.gif","img/card_backs/set2/gray.gif","img/card_backs/set2/pink.gif","""event"",""trial"",""time""
""fullscreenenter"",""1"",""8326""
","
","
","""event"",""trial"",""time""
""fullscreenenter"",""1"",""8326""
","
","","5079.899999778718","Nice job! You are almost ready to play the real game.","86","","instructions","2021-04-17 17:32:43.431","","","","","",""
"casino-keyboard-response","57","383401","0.0-19.0-0.1","198","true","img/card_backs/set1/green.gif","img/card_backs/set1/yellow.gif","img/card_backs/set1/purple.gif","img/card_backs/set1/red.gif","img/card_backs/set2/orange.gif","img/card_backs/set2/blue.gif","img/card_backs/set2/gray.gif","img/card_backs/set2/pink.gif","""event"",""trial"",""time""
""fullscreenenter"",""1"",""8326""
","
","
","""event"",""trial"",""time""
""fullscreenenter"",""1"",""8326""
","
","","12612.924999790266","You will play two rounds of the real game. In each round, you will pick 100 cards in total.","73","","instructions","2021-04-17 17:32:56.046","","","","","",""
"casino-keyboard-response","58","393724","0.0-19.0-0.2","198","true","img/card_backs/set1/green.gif","img/card_backs/set1/yellow.gif","img/card_backs/set1/purple.gif","img/card_backs/set1/red.gif","img/card_backs/set2/orange.gif","img/card_backs/set2/blue.gif","img/card_backs/set2/gray.gif","img/card_backs/set2/pink.gif","""event"",""trial"",""time""
""fullscreenenter"",""1"",""8326""
","
","
","""event"",""trial"",""time""
""fullscreenenter"",""1"",""8326""
","
","","10320.584999863058","We are now going to ask you some questions about how the game works.","66","","instructions","2021-04-17 17:33:06.369","","","","","",""
"casino-keyboard-response","59","400548","0.0-19.0-0.3","198","true","img/card_backs/set1/green.gif","img/card_backs/set1/yellow.gif","img/card_backs/set1/purple.gif","img/card_backs/set1/red.gif","img/card_backs/set2/orange.gif","img/card_backs/set2/blue.gif","img/card_backs/set2/gray.gif","img/card_backs/set2/pink.gif","""event"",""trial"",""time""
""fullscreenenter"",""1"",""8326""
","
","
","""event"",""trial"",""time""
""fullscreenenter"",""1"",""8326""
","
","","6820.654999930412","Answer carefully. You will not be able to begin the game until you answer them correctly.","67","","instructions","2021-04-17 17:33:13.193","","","","","",""
"casino-comp_q","60","410290","0.0-20.0-0.0","198","true","img/card_backs/set1/green.gif","img/card_backs/set1/yellow.gif","img/card_backs/set1/purple.gif","img/card_backs/set1/red.gif","img/card_backs/set2/orange.gif","img/card_backs/set2/blue.gif","img/card_backs/set2/gray.gif","img/card_backs/set2/pink.gif","""event"",""trial"",""time""
""fullscreenenter"",""1"",""8326""
","
","
","""event"",""trial"",""time""
""fullscreenenter"",""1"",""8326""
","
","","9739.270000020042","True or False: All the decks have some cards that cause you to win tokens and some cards that cause you to lose tokens.","84","","","2021-04-17 17:33:22.935","","","","","",""
"casino-keyboard-response","61","415486","0.0-20.0-1.0","198","true","img/card_backs/set1/green.gif","img/card_backs/set1/yellow.gif","img/card_backs/set1/purple.gif","img/card_backs/set1/red.gif","img/card_backs/set2/orange.gif","img/card_backs/set2/blue.gif","img/card_backs/set2/gray.gif","img/card_backs/set2/pink.gif","""event"",""trial"",""time""
""fullscreenenter"",""1"",""8326""
","
","
","""event"",""trial"",""time""
""fullscreenenter"",""1"",""8326""
","
","","5191.969999810681","True is correct! All the decks have a mix of winning and losing cards.","77","","","2021-04-17 17:33:28.131","","","","","true",""
"casino-comp_q","62","424121","0.0-21.0-0.0","198","true","img/card_backs/set1/green.gif","img/card_backs/set1/yellow.gif","img/card_backs/set1/purple.gif","img/card_backs/set1/red.gif","img/card_backs/set2/orange.gif","img/card_backs/set2/blue.gif","img/card_backs/set2/gray.gif","img/card_backs/set2/pink.gif","""event"",""trial"",""time""
""fullscreenenter"",""1"",""8326""
","
","
","""event"",""trial"",""time""
""fullscreenenter"",""1"",""8326""
","
","","8629.240000154823","True or False: You will have as much time as you want to make your response.","70","","","2021-04-17 17:33:36.766","","","","","",""
"casino-keyboard-response","63","429089","0.0-21.0-1.0","198","true","img/card_backs/set1/green.gif","img/card_backs/set1/yellow.gif","img/card_backs/set1/purple.gif","img/card_backs/set1/red.gif","img/card_backs/set2/orange.gif","img/card_backs/set2/blue.gif","img/card_backs/set2/gray.gif","img/card_backs/set2/pink.gif","""event"",""trial"",""time""
""fullscreenenter"",""1"",""8326""
","
","
","""event"",""trial"",""time""
""fullscreenenter"",""1"",""8326""
","
","","4966.840000124648","False is correct! You will only have 10 seconds to make each choice.","75","","","2021-04-17 17:33:41.734","","","","","true",""
"casino-comp_q","64","434969","0.0-22.0-0.0","198","true","img/card_backs/set1/green.gif","img/card_backs/set1/yellow.gif","img/card_backs/set1/purple.gif","img/card_backs/set1/red.gif","img/card_backs/set2/orange.gif","img/card_backs/set2/blue.gif","img/card_backs/set2/gray.gif","img/card_backs/set2/pink.gif","""event"",""trial"",""time""
""fullscreenenter"",""1"",""8326""
","
","
","""event"",""trial"",""time""
""fullscreenenter"",""1"",""8326""
","
","","5876.635000109673","True or False: The location of the deck determines how lucky it is.","70","","","2021-04-17 17:33:47.614","","","","","",""
"casino-keyboard-response","65","443025","0.0-22.0-1.0","198","true","img/card_backs/set1/green.gif","img/card_backs/set1/yellow.gif","img/card_backs/set1/purple.gif","img/card_backs/set1/red.gif","img/card_backs/set2/orange.gif","img/card_backs/set2/blue.gif","img/card_backs/set2/gray.gif","img/card_backs/set2/pink.gif","""event"",""trial"",""time""
""fullscreenenter"",""1"",""8326""
","
","
","""event"",""trial"",""time""
""fullscreenenter"",""1"",""8326""
","
","","8053.559999912977","False is correct! The <i>color</i>  of the deck determines how lucky or unlucky it is.","68","","","2021-04-17 17:33:55.670","","","","","true",""
"casino-keyboard-response","66","448764","0.0-23.0-0.0","198","true","img/card_backs/set1/green.gif","img/card_backs/set1/yellow.gif","img/card_backs/set1/purple.gif","img/card_backs/set1/red.gif","img/card_backs/set2/orange.gif","img/card_backs/set2/blue.gif","img/card_backs/set2/gray.gif","img/card_backs/set2/pink.gif","""event"",""trial"",""time""
""fullscreenenter"",""1"",""8326""
","
","
","""event"",""trial"",""time""
""fullscreenenter"",""1"",""8326""
","
","","5735.944999847561","Great job! Now it's time to start the real game.","82","","instructions","2021-04-17 17:34:01.409","","","","","",""
"casino-keyboard-response","67","454797","0.0-23.0-0.1","198","true","img/card_backs/set1/green.gif","img/card_backs/set1/yellow.gif","img/card_backs/set1/purple.gif","img/card_backs/set1/red.gif","img/card_backs/set2/orange.gif","img/card_backs/set2/blue.gif","img/card_backs/set2/gray.gif","img/card_backs/set2/pink.gif","""event"",""trial"",""time""
""fullscreenenter"",""1"",""8326""
","
","
","""event"",""trial"",""time""
""fullscreenenter"",""1"",""8326""
","
","","6030.97500000149","Before we start, we're going to head into a new room of the casino.","86","","instructions","2021-04-17 17:34:07.443","","","","","",""
"casino-keyboard-response","68","462660","0.0-24.0-0.0","198","true","img/card_backs/set1/green.gif","img/card_backs/set1/yellow.gif","img/card_backs/set1/purple.gif","img/card_backs/set1/red.gif","img/card_backs/set2/orange.gif","img/card_backs/set2/blue.gif","img/card_backs/set2/gray.gif","img/card_backs/set2/pink.gif","""event"",""trial"",""time""
""fullscreenenter"",""1"",""8326""
","
","
","""event"",""trial"",""time""
""fullscreenenter"",""1"",""8326""
","
","","7859.73499994725","Here we are! The real game will use different cards, but the rules will be the same.","71","","instructions","2021-04-17 17:34:15.305","","","","","",""
"casino-keyboard-response","69","472272","0.0-24.0-0.1","198","true","img/card_backs/set1/green.gif","img/card_backs/set1/yellow.gif","img/card_backs/set1/purple.gif","img/card_backs/set1/red.gif","img/card_backs/set2/orange.gif","img/card_backs/set2/blue.gif","img/card_backs/set2/gray.gif","img/card_backs/set2/pink.gif","""event"",""trial"",""time""
""fullscreenenter"",""1"",""8326""
","
","
","""event"",""trial"",""time""
""fullscreenenter"",""1"",""8326""
","
","","9610.409999964759","Ready? Put your fingers over the '2', '4', 6', and '8' keys so you are ready to play the game. </br> Then press 2 to start.","50","","instructions","2021-04-17 17:34:24.917","","","","","",""
"casino-fixation","70","472783","0.0-25.0-0.0","198","true","img/card_backs/set1/green.gif","img/card_backs/set1/yellow.gif","img/card_backs/set1/purple.gif","img/card_backs/set1/red.gif","img/card_backs/set2/orange.gif","img/card_backs/set2/blue.gif","img/card_backs/set2/gray.gif","img/card_backs/set2/pink.gif","""event"",""trial"",""time""
""fullscreenenter"",""1"",""8326""
","
","
","""event"",""trial"",""time""
""fullscreenenter"",""1"",""8326""
","
","","null","","null","","fixation","2021-04-17 17:34:25.428","","","","","",""
"card-selection-trial","71","480569","0.0-25.0-1.0","198","true","img/card_backs/set1/green.gif","img/card_backs/set1/yellow.gif","img/card_backs/set1/purple.gif","img/card_backs/set1/red.gif","img/card_backs/set2/orange.gif","img/card_backs/set2/blue.gif","img/card_backs/set2/gray.gif","img/card_backs/set2/pink.gif","""event"",""trial"",""time""
""fullscreenenter"",""1"",""8326""
","
","
","""event"",""trial"",""time""
""fullscreenenter"",""1"",""8326""
","
","","5768.075000029057","","","","real_trial","2021-04-17 17:34:33.215","img/card_backs/set1/yellow.gif","3","260","1","",""
"casino-fixation","72","481093","0.0-25.0-0.1","198","true","img/card_backs/set1/green.gif","img/card_backs/set1/yellow.gif","img/card_backs/set1/purple.gif","img/card_backs/set1/red.gif","img/card_backs/set2/orange.gif","img/card_backs/set2/blue.gif","img/card_backs/set2/gray.gif","img/card_backs/set2/pink.gif","""event"",""trial"",""time""
""fullscreenenter"",""1"",""8326""
","
","
","""event"",""trial"",""time""
""fullscreenenter"",""1"",""8326""
","
","","null","","null","","fixation","2021-04-17 17:34:33.738","","","","","",""
"card-selection-trial","73","486473","0.0-25.0-1.1","198","true","img/card_backs/set1/green.gif","img/card_backs/set1/yellow.gif","img/card_backs/set1/purple.gif","img/card_backs/set1/red.gif","img/card_backs/set2/orange.gif","img/card_backs/set2/blue.gif","img/card_backs/set2/gray.gif","img/card_backs/set2/pink.gif","""event"",""trial"",""time""
""fullscreenenter"",""1"",""8326""
","
","
","""event"",""trial"",""time""
""fullscreenenter"",""1"",""8326""
","
","","3354.889999842271","","","","real_trial","2021-04-17 17:34:39.118","img/card_backs/set1/yellow.gif","2","250","1","",""
"casino-fixation","74","486991","0.0-25.0-0.2","198","true","img/card_backs/set1/green.gif","img/card_backs/set1/yellow.gif","img/card_backs/set1/purple.gif","img/card_backs/set1/red.gif","img/card_backs/set2/orange.gif","img/card_backs/set2/blue.gif","img/card_backs/set2/gray.gif","img/card_backs/set2/pink.gif","""event"",""trial"",""time""
""fullscreenenter"",""1"",""8326""
","
","
","""event"",""trial"",""time""
""fullscreenenter"",""1"",""8326""
","
","","null","","null","","fixation","2021-04-17 17:34:39.636","","","","","",""
"card-selection-trial","75","490511","0.0-25.0-1.2","198","true","img/card_backs/set1/green.gif","img/card_backs/set1/yellow.gif","img/card_backs/set1/purple.gif","img/card_backs/set1/red.gif","img/card_backs/set2/orange.gif","img/card_backs/set2/blue.gif","img/card_backs/set2/gray.gif","img/card_backs/set2/pink.gif","""event"",""trial"",""time""
""fullscreenenter"",""1"",""8326""
","
","
","""event"",""trial"",""time""
""fullscreenenter"",""1"",""8326""
","
","","1493.8850000035018","","","","real_trial","2021-04-17 17:34:43.156","img/card_backs/set1/yellow.gif","1","-200","1","",""
"casino-fixation","76","491032","0.0-25.0-0.3","198","true","img/card_backs/set1/green.gif","img/card_backs/set1/yellow.gif","img/card_backs/set1/purple.gif","img/card_backs/set1/red.gif","img/card_backs/set2/orange.gif","img/card_backs/set2/blue.gif","img/card_backs/set2/gray.gif","img/card_backs/set2/pink.gif","""event"",""trial"",""time""
""fullscreenenter"",""1"",""8326""
","
","
","""event"",""trial"",""time""
""fullscreenenter"",""1"",""8326""
","
","","null","","null","","fixation","2021-04-17 17:34:43.678","","","","","",""
"card-selection-trial","77","494724","0.0-25.0-1.3","198","true","img/card_backs/set1/green.gif","img/card_backs/set1/yellow.gif","img/card_backs/set1/purple.gif","img/card_backs/set1/red.gif","img/card_backs/set2/orange.gif","img/card_backs/set2/blue.gif","img/card_backs/set2/gray.gif","img/card_backs/set2/pink.gif","""event"",""trial"",""time""
""fullscreenenter"",""1"",""8326""
","
","
","""event"",""trial"",""time""
""fullscreenenter"",""1"",""8326""
","
","","1682.1749999653548","","","","real_trial","2021-04-17 17:34:47.369","img/card_backs/set1/purple.gif","0","50","1","",""
"casino-fixation","78","495236","0.0-25.0-0.4","198","true","img/card_backs/set1/green.gif","img/card_backs/set1/yellow.gif","img/card_backs/set1/purple.gif","img/card_backs/set1/red.gif","img/card_backs/set2/orange.gif","img/card_backs/set2/blue.gif","img/card_backs/set2/gray.gif","img/card_backs/set2/pink.gif","""event"",""trial"",""time""
""fullscreenenter"",""1"",""8326""
","
","
","""event"",""trial"",""time""
""fullscreenenter"",""1"",""8326""
","
","","null","","null","","fixation","2021-04-17 17:34:47.881","","","","","",""
"card-selection-trial","79","499877","0.0-25.0-1.4","198","true","img/card_backs/set1/green.gif","img/card_backs/set1/yellow.gif","img/card_backs/set1/purple.gif","img/card_backs/set1/red.gif","img/card_backs/set2/orange.gif","img/card_backs/set2/blue.gif","img/card_backs/set2/gray.gif","img/card_backs/set2/pink.gif","""event"",""trial"",""time""
""fullscreenenter"",""1"",""8326""
","
","
","""event"",""trial"",""time""
""fullscreenenter"",""1"",""8326""
","
","","2612.940000137314","","","","real_trial","2021-04-17 17:34:52.522","img/card_backs/set1/red.gif","3","60","1","",""
"casino-fixation","80","500398","0.0-25.0-0.5","198","true","img/card_backs/set1/green.gif","img/card_backs/set1/yellow.gif","img/card_backs/set1/purple.gif","img/card_backs/set1/red.gif","img/card_backs/set2/orange.gif","img/card_backs/set2/blue.gif","img/card_backs/set2/gray.gif","img/card_backs/set2/pink.gif","""event"",""trial"",""time""
""fullscreenenter"",""1"",""8326""
","
","
","""event"",""trial"",""time""
""fullscreenenter"",""1"",""8326""
","
","","null","","null","","fixation","2021-04-17 17:34:53.044","","","","","",""
"card-selection-trial","81","504578","0.0-25.0-1.5","198","true","img/card_backs/set1/green.gif","img/card_backs/set1/yellow.gif","img/card_backs/set1/purple.gif","img/card_backs/set1/red.gif","img/card_backs/set2/orange.gif","img/card_backs/set2/blue.gif","img/card_backs/set2/gray.gif","img/card_backs/set2/pink.gif","""event"",""trial"",""time""
""fullscreenenter"",""1"",""8326""
","
","
","""event"",""trial"",""time""
""fullscreenenter"",""1"",""8326""
","
","","2172.5200000219047","","","","real_trial","2021-04-17 17:34:57.224","img/card_backs/set1/green.gif","1","260","1","",""
"casino-fixation","82","505082","0.0-25.0-0.6","198","true","img/card_backs/set1/green.gif","img/card_backs/set1/yellow.gif","img/card_backs/set1/purple.gif","img/card_backs/set1/red.gif","img/card_backs/set2/orange.gif","img/card_backs/set2/blue.gif","img/card_backs/set2/gray.gif","img/card_backs/set2/pink.gif","""event"",""trial"",""time""
""fullscreenenter"",""1"",""8326""
","
","
","""event"",""trial"",""time""
""fullscreenenter"",""1"",""8326""
","
","","null","","null","","fixation","2021-04-17 17:34:57.727","","","","","",""
"card-selection-trial","83","509001","0.0-25.0-1.6","198","true","img/card_backs/set1/green.gif","img/card_backs/set1/yellow.gif","img/card_backs/set1/purple.gif","img/card_backs/set1/red.gif","img/card_backs/set2/orange.gif","img/card_backs/set2/blue.gif","img/card_backs/set2/gray.gif","img/card_backs/set2/pink.gif","""event"",""trial"",""time""
""fullscreenenter"",""1"",""8326""
","
","
","""event"",""trial"",""time""
""fullscreenenter"",""1"",""8326""
","
","","1911.6150001063943","","","","real_trial","2021-04-17 17:35:01.646","img/card_backs/set1/green.gif","3","-210","1","",""
"casino-fixation","84","509505","0.0-25.0-0.7","198","true","img/card_backs/set1/green.gif","img/card_backs/set1/yellow.gif","img/card_backs/set1/purple.gif","img/card_backs/set1/red.gif","img/card_backs/set2/orange.gif","img/card_backs/set2/blue.gif","img/card_backs/set2/gray.gif","img/card_backs/set2/pink.gif","""event"",""trial"",""time""
""fullscreenenter"",""1"",""8326""
","
","
","""event"",""trial"",""time""
""fullscreenenter"",""1"",""8326""
","
","","null","","null","","fixation","2021-04-17 17:35:02.150","","","","","",""
"card-selection-trial","85","513435","0.0-25.0-1.7","198","true","img/card_backs/set1/green.gif","img/card_backs/set1/yellow.gif","img/card_backs/set1/purple.gif","img/card_backs/set1/red.gif","img/card_backs/set2/orange.gif","img/card_backs/set2/blue.gif","img/card_backs/set2/gray.gif","img/card_backs/set2/pink.gif","""event"",""trial"",""time""
""fullscreenenter"",""1"",""8326""
","
","
","""event"",""trial"",""time""
""fullscreenenter"",""1"",""8326""
","
","","1921.7550000175834","","","","real_trial","2021-04-17 17:35:06.080","img/card_backs/set1/red.gif","1","60","1","",""
"casino-fixation","86","513938","0.0-25.0-0.8","198","true","img/card_backs/set1/green.gif","img/card_backs/set1/yellow.gif","img/card_backs/set1/purple.gif","img/card_backs/set1/red.gif","img/card_backs/set2/orange.gif","img/card_backs/set2/blue.gif","img/card_backs/set2/gray.gif","img/card_backs/set2/pink.gif","""event"",""trial"",""time""
""fullscreenenter"",""1"",""8326""
","
","
","""event"",""trial"",""time""
""fullscreenenter"",""1"",""8326""
","
","","null","","null","","fixation","2021-04-17 17:35:06.583","","","","","",""
"card-selection-trial","87","517678","0.0-25.0-1.8","198","true","img/card_backs/set1/green.gif","img/card_backs/set1/yellow.gif","img/card_backs/set1/purple.gif","img/card_backs/set1/red.gif","img/card_backs/set2/orange.gif","img/card_backs/set2/blue.gif","img/card_backs/set2/gray.gif","img/card_backs/set2/pink.gif","""event"",""trial"",""time""
""fullscreenenter"",""1"",""8326""
","
","
","""event"",""trial"",""time""
""fullscreenenter"",""1"",""8326""
","
","","1732.7050000894815","","","","real_trial","2021-04-17 17:35:10.324","img/card_backs/set1/red.gif","3","-110","1","",""
"casino-fixation","88","518182","0.0-25.0-0.9","198","true","img/card_backs/set1/green.gif","img/card_backs/set1/yellow.gif","img/card_backs/set1/purple.gif","img/card_backs/set1/red.gif","img/card_backs/set2/orange.gif","img/card_backs/set2/blue.gif","img/card_backs/set2/gray.gif","img/card_backs/set2/pink.gif","""event"",""trial"",""time""
""fullscreenenter"",""1"",""8326""
","
","
","""event"",""trial"",""time""
""fullscreenenter"",""1"",""8326""
","
","","null","","null","","fixation","2021-04-17 17:35:10.827","","","","","",""
"card-selection-trial","89","520731","0.0-25.0-1.9","198","true","img/card_backs/set1/green.gif","img/card_backs/set1/yellow.gif","img/card_backs/set1/purple.gif","img/card_backs/set1/red.gif","img/card_backs/set2/orange.gif","img/card_backs/set2/blue.gif","img/card_backs/set2/gray.gif","img/card_backs/set2/pink.gif","""event"",""trial"",""time""
""fullscreenenter"",""1"",""8326""
","
","
","""event"",""trial"",""time""
""fullscreenenter"",""1"",""8326""
","
","","540.8349998760968","","","","real_trial","2021-04-17 17:35:13.376","img/card_backs/set1/yellow.gif","0","-210","1","",""
"casino-fixation","90","521235","0.0-25.0-0.10","198","true","img/card_backs/set1/green.gif","img/card_backs/set1/yellow.gif","img/card_backs/set1/purple.gif","img/card_backs/set1/red.gif","img/card_backs/set2/orange.gif","img/card_backs/set2/blue.gif","img/card_backs/set2/gray.gif","img/card_backs/set2/pink.gif","""event"",""trial"",""time""
""fullscreenenter"",""1"",""8326""
","
","
","""event"",""trial"",""time""
""fullscreenenter"",""1"",""8326""
","
","","null","","null","","fixation","2021-04-17 17:35:13.880","","","","","",""
"card-selection-trial","91","523481","0.0-25.0-1.10","198","true","img/card_backs/set1/green.gif","img/card_backs/set1/yellow.gif","img/card_backs/set1/purple.gif","img/card_backs/set1/red.gif","img/card_backs/set2/orange.gif","img/card_backs/set2/blue.gif","img/card_backs/set2/gray.gif","img/card_backs/set2/pink.gif","""event"",""trial"",""time""
""fullscreenenter"",""1"",""8326""
","
","
","""event"",""trial"",""time""
""fullscreenenter"",""1"",""8326""
","
","","238.71499998494983","","","","real_trial","2021-04-17 17:35:16.127","img/card_backs/set1/green.gif","1","-210","1","",""
"casino-fixation","92","523985","0.0-25.0-0.11","198","true","img/card_backs/set1/green.gif","img/card_backs/set1/yellow.gif","img/card_backs/set1/purple.gif","img/card_backs/set1/red.gif","img/card_backs/set2/orange.gif","img/card_backs/set2/blue.gif","img/card_backs/set2/gray.gif","img/card_backs/set2/pink.gif","""event"",""trial"",""time""
""fullscreenenter"",""1"",""8326""
","
","
","""event"",""trial"",""time""
""fullscreenenter"",""1"",""8326""
","
","","null","","null","","fixation","2021-04-17 17:35:16.630","","","","","",""
"card-selection-trial","93","526537","0.0-25.0-1.11","198","true","img/card_backs/set1/green.gif","img/card_backs/set1/yellow.gif","img/card_backs/set1/purple.gif","img/card_backs/set1/red.gif","img/card_backs/set2/orange.gif","img/card_backs/set2/blue.gif","img/card_backs/set2/gray.gif","img/card_backs/set2/pink.gif","""event"",""trial"",""time""
""fullscreenenter"",""1"",""8326""
","
","
","""event"",""trial"",""time""
""fullscreenenter"",""1"",""8326""
","
","","544.2599998787045","","","","real_trial","2021-04-17 17:35:19.182","img/card_backs/set1/green.gif","0","250","1","",""
"casino-fixation","94","527040","0.0-25.0-0.12","198","true","img/card_backs/set1/green.gif","img/card_backs/set1/yellow.gif","img/card_backs/set1/purple.gif","img/card_backs/set1/red.gif","img/card_backs/set2/orange.gif","img/card_backs/set2/blue.gif","img/card_backs/set2/gray.gif","img/card_backs/set2/pink.gif","""event"",""trial"",""time""
""fullscreenenter"",""1"",""8326""
","
","
","""event"",""trial"",""time""
""fullscreenenter"",""1"",""8326""
","
","","null","","null","","fixation","2021-04-17 17:35:19.685","","","","","",""
"card-selection-trial","95","530762","0.0-25.0-1.12","198","true","img/card_backs/set1/green.gif","img/card_backs/set1/yellow.gif","img/card_backs/set1/purple.gif","img/card_backs/set1/red.gif","img/card_backs/set2/orange.gif","img/card_backs/set2/blue.gif","img/card_backs/set2/gray.gif","img/card_backs/set2/pink.gif","""event"",""trial"",""time""
""fullscreenenter"",""1"",""8326""
","
","
","""event"",""trial"",""time""
""fullscreenenter"",""1"",""8326""
","
","","1714.9299997836351","","","","real_trial","2021-04-17 17:35:23.408","img/card_backs/set1/purple.gif","1","-90","1","",""
"casino-fixation","96","531265","0.0-25.0-0.13","198","true","img/card_backs/set1/green.gif","img/card_backs/set1/yellow.gif","img/card_backs/set1/purple.gif","img/card_backs/set1/red.gif","img/card_backs/set2/orange.gif","img/card_backs/set2/blue.gif","img/card_backs/set2/gray.gif","img/card_backs/set2/pink.gif","""event"",""trial"",""time""
""fullscreenenter"",""1"",""8326""
","
","
","""event"",""trial"",""time""
""fullscreenenter"",""1"",""8326""
","
","","null","","null","","fixation","2021-04-17 17:35:23.910","","","","","",""
"card-selection-trial","97","536057","0.0-25.0-1.13","198","true","img/card_backs/set1/green.gif","img/card_backs/set1/yellow.gif","img/card_backs/set1/purple.gif","img/card_backs/set1/red.gif","img/card_backs/set2/orange.gif","img/card_backs/set2/blue.gif","img/card_backs/set2/gray.gif","img/card_backs/set2/pink.gif","""event"",""trial"",""time""
""fullscreenenter"",""1"",""8326""
","
","
","""event"",""trial"",""time""
""fullscreenenter"",""1"",""8326""
","
","","2783.4850000217557","","","","real_trial","2021-04-17 17:35:28.702","img/card_backs/set1/red.gif","2","-100","1","",""
"casino-fixation","98","536560","0.0-25.0-0.14","198","true","img/card_backs/set1/green.gif","img/card_backs/set1/yellow.gif","img/card_backs/set1/purple.gif","img/card_backs/set1/red.gif","img/card_backs/set2/orange.gif","img/card_backs/set2/blue.gif","img/card_backs/set2/gray.gif","img/card_backs/set2/pink.gif","""event"",""trial"",""time""
""fullscreenenter"",""1"",""8326""
","
","
","""event"",""trial"",""time""
""fullscreenenter"",""1"",""8326""
","
","","null","","null","","fixation","2021-04-17 17:35:29.205","","","","","",""
"card-selection-trial","99","540770","0.0-25.0-1.14","198","true","img/card_backs/set1/green.gif","img/card_backs/set1/yellow.gif","img/card_backs/set1/purple.gif","img/card_backs/set1/red.gif","img/card_backs/set2/orange.gif","img/card_backs/set2/blue.gif","img/card_backs/set2/gray.gif","img/card_backs/set2/pink.gif","""event"",""trial"",""time""
""fullscreenenter"",""1"",""8326""
","
","
","""event"",""trial"",""time""
""fullscreenenter"",""1"",""8326""
","
","","2201.9400000572205","","","","real_trial","2021-04-17 17:35:33.415","img/card_backs/set1/yellow.gif","3","-200","1","",""
"casino-fixation","100","541273","0.0-25.0-0.15","198","true","img/card_backs/set1/green.gif","img/card_backs/set1/yellow.gif","img/card_backs/set1/purple.gif","img/card_backs/set1/red.gif","img/card_backs/set2/orange.gif","img/card_backs/set2/blue.gif","img/card_backs/set2/gray.gif","img/card_backs/set2/pink.gif","""event"",""trial"",""time""
""fullscreenenter"",""1"",""8326""
","
","
","""event"",""trial"",""time""
""fullscreenenter"",""1"",""8326""
","
","","null","","null","","fixation","2021-04-17 17:35:33.918","","","","","",""
"card-selection-trial","101","543657","0.0-25.0-1.15","198","true","img/card_backs/set1/green.gif","img/card_backs/set1/yellow.gif","img/card_backs/set1/purple.gif","img/card_backs/set1/red.gif","img/card_backs/set2/orange.gif","img/card_backs/set2/blue.gif","img/card_backs/set2/gray.gif","img/card_backs/set2/pink.gif","""event"",""trial"",""time""
""fullscreenenter"",""1"",""8326""
","
","
","""event"",""trial"",""time""
""fullscreenenter"",""1"",""8326""
","
","","375.9600000921637","","","","real_trial","2021-04-17 17:35:36.302","img/card_backs/set1/green.gif","0","-200","1","",""
"casino-fixation","102","544159","0.0-25.0-0.16","198","true","img/card_backs/set1/green.gif","img/card_backs/set1/yellow.gif","img/card_backs/set1/purple.gif","img/card_backs/set1/red.gif","img/card_backs/set2/orange.gif","img/card_backs/set2/blue.gif","img/card_backs/set2/gray.gif","img/card_backs/set2/pink.gif","""event"",""trial"",""time""
""fullscreenenter"",""1"",""8326""
","
","
","""event"",""trial"",""time""
""fullscreenenter"",""1"",""8326""
","
","","null","","null","","fixation","2021-04-17 17:35:36.804","","","","","",""
"card-selection-trial","103","546387","0.0-25.0-1.16","198","true","img/card_backs/set1/green.gif","img/card_backs/set1/yellow.gif","img/card_backs/set1/purple.gif","img/card_backs/set1/red.gif","img/card_backs/set2/orange.gif","img/card_backs/set2/blue.gif","img/card_backs/set2/gray.gif","img/card_backs/set2/pink.gif","""event"",""trial"",""time""
""fullscreenenter"",""1"",""8326""
","
","
","""event"",""trial"",""time""
""fullscreenenter"",""1"",""8326""
","
","","220.3150000423193","","","","real_trial","2021-04-17 17:35:39.033","img/card_backs/set1/yellow.gif","1","240","1","",""
"casino-fixation","104","546891","0.0-25.0-0.17","198","true","img/card_backs/set1/green.gif","img/card_backs/set1/yellow.gif","img/card_backs/set1/purple.gif","img/card_backs/set1/red.gif","img/card_backs/set2/orange.gif","img/card_backs/set2/blue.gif","img/card_backs/set2/gray.gif","img/card_backs/set2/pink.gif","""event"",""trial"",""time""
""fullscreenenter"",""1"",""8326""
","
","
","""event"",""trial"",""time""
""fullscreenenter"",""1"",""8326""
","
","","null","","null","","fixation","2021-04-17 17:35:39.536","","","","","",""
"card-selection-trial","105","550690","0.0-25.0-1.17","198","true","img/card_backs/set1/green.gif","img/card_backs/set1/yellow.gif","img/card_backs/set1/purple.gif","img/card_backs/set1/red.gif","img/card_backs/set2/orange.gif","img/card_backs/set2/blue.gif","img/card_backs/set2/gray.gif","img/card_backs/set2/pink.gif","""event"",""trial"",""time""
""fullscreenenter"",""1"",""8326""
","
","
","""event"",""trial"",""time""
""fullscreenenter"",""1"",""8326""
","
","","1787.999999942258","","","","real_trial","2021-04-17 17:35:43.335","img/card_backs/set1/yellow.gif","0","260","1","",""
"casino-fixation","106","551194","0.0-25.0-0.18","198","true","img/card_backs/set1/green.gif","img/card_backs/set1/yellow.gif","img/card_backs/set1/purple.gif","img/card_backs/set1/red.gif","img/card_backs/set2/orange.gif","img/card_backs/set2/blue.gif","img/card_backs/set2/gray.gif","img/card_backs/set2/pink.gif","""event"",""trial"",""time""
""fullscreenenter"",""1"",""8326""
","
","
","""event"",""trial"",""time""
""fullscreenenter"",""1"",""8326""
","
","","null","","null","","fixation","2021-04-17 17:35:43.839","","","","","",""
"card-selection-trial","107","554616","0.0-25.0-1.18","198","true","img/card_backs/set1/green.gif","img/card_backs/set1/yellow.gif","img/card_backs/set1/purple.gif","img/card_backs/set1/red.gif","img/card_backs/set2/orange.gif","img/card_backs/set2/blue.gif","img/card_backs/set2/gray.gif","img/card_backs/set2/pink.gif","""event"",""trial"",""time""
""fullscreenenter"",""1"",""8326""
","
","
","""event"",""trial"",""time""
""fullscreenenter"",""1"",""8326""
","
","","1414.2150001134723","","","","real_trial","2021-04-17 17:35:47.261","img/card_backs/set1/yellow.gif","1","240","1","",""
"casino-fixation","108","555118","0.0-25.0-0.19","198","true","img/card_backs/set1/green.gif","img/card_backs/set1/yellow.gif","img/card_backs/set1/purple.gif","img/card_backs/set1/red.gif","img/card_backs/set2/orange.gif","img/card_backs/set2/blue.gif","img/card_backs/set2/gray.gif","img/card_backs/set2/pink.gif","""event"",""trial"",""time""
""fullscreenenter"",""1"",""8326""
","
","
","""event"",""trial"",""time""
""fullscreenenter"",""1"",""8326""
","
","","null","","null","","fixation","2021-04-17 17:35:47.763","","","","","",""
"card-selection-trial","109","559541","0.0-25.0-1.19","198","true","img/card_backs/set1/green.gif","img/card_backs/set1/yellow.gif","img/card_backs/set1/purple.gif","img/card_backs/set1/red.gif","img/card_backs/set2/orange.gif","img/card_backs/set2/blue.gif","img/card_backs/set2/gray.gif","img/card_backs/set2/pink.gif","""event"",""trial"",""time""
""fullscreenenter"",""1"",""8326""
","
","
","""event"",""trial"",""time""
""fullscreenenter"",""1"",""8326""
","
","","2415.2999999932945","","","","real_trial","2021-04-17 17:35:52.186","img/card_backs/set1/yellow.gif","3","-210","1","",""
"casino-fixation","110","560044","0.0-25.0-0.20","198","true","img/card_backs/set1/green.gif","img/card_backs/set1/yellow.gif","img/card_backs/set1/purple.gif","img/card_backs/set1/red.gif","img/card_backs/set2/orange.gif","img/card_backs/set2/blue.gif","img/card_backs/set2/gray.gif","img/card_backs/set2/pink.gif","""event"",""trial"",""time""
""fullscreenenter"",""1"",""8326""
","
","
","""event"",""trial"",""time""
""fullscreenenter"",""1"",""8326""
","
","","null","","null","","fixation","2021-04-17 17:35:52.689","","","","","",""
"card-selection-trial","111","564156","0.0-25.0-1.20","198","true","img/card_backs/set1/green.gif","img/card_backs/set1/yellow.gif","img/card_backs/set1/purple.gif","img/card_backs/set1/red.gif","img/card_backs/set2/orange.gif","img/card_backs/set2/blue.gif","img/card_backs/set2/gray.gif","img/card_backs/set2/pink.gif","""event"",""trial"",""time""
""fullscreenenter"",""1"",""8326""
","
","
","""event"",""trial"",""time""
""fullscreenenter"",""1"",""8326""
","
","","2105.744999833405","","","","real_trial","2021-04-17 17:35:56.801","img/card_backs/set1/red.gif","2","-90","1","",""
"casino-fixation","112","564659","0.0-25.0-0.21","198","true","img/card_backs/set1/green.gif","img/card_backs/set1/yellow.gif","img/card_backs/set1/purple.gif","img/card_backs/set1/red.gif","img/card_backs/set2/orange.gif","img/card_backs/set2/blue.gif","img/card_backs/set2/gray.gif","img/card_backs/set2/pink.gif","""event"",""trial"",""time""
""fullscreenenter"",""1"",""8326""
","
","
","""event"",""trial"",""time""
""fullscreenenter"",""1"",""8326""
","
","","null","","null","","fixation","2021-04-17 17:35:57.304","","","","","",""
"card-selection-trial","113","573097","0.0-25.0-1.21","198","true","img/card_backs/set1/green.gif","img/card_backs/set1/yellow.gif","img/card_backs/set1/purple.gif","img/card_backs/set1/red.gif","img/card_backs/set2/orange.gif","img/card_backs/set2/blue.gif","img/card_backs/set2/gray.gif","img/card_backs/set2/pink.gif","""event"",""trial"",""time""
""fullscreenenter"",""1"",""8326""
","
","
","""event"",""trial"",""time""
""fullscreenenter"",""1"",""8326""
","
","","6429.824999999255","","","","real_trial","2021-04-17 17:36:05.742","img/card_backs/set1/purple.gif","0","50","1","",""
"casino-fixation","114","573600","0.0-25.0-0.22","198","true","img/card_backs/set1/green.gif","img/card_backs/set1/yellow.gif","img/card_backs/set1/purple.gif","img/card_backs/set1/red.gif","img/card_backs/set2/orange.gif","img/card_backs/set2/blue.gif","img/card_backs/set2/gray.gif","img/card_backs/set2/pink.gif","""event"",""trial"",""time""
""fullscreenenter"",""1"",""8326""
","
","
","""event"",""trial"",""time""
""fullscreenenter"",""1"",""8326""
","
","","null","","null","","fixation","2021-04-17 17:36:06.245","","","","","",""
"card-selection-trial","115","578178","0.0-25.0-1.22","198","true","img/card_backs/set1/green.gif","img/card_backs/set1/yellow.gif","img/card_backs/set1/purple.gif","img/card_backs/set1/red.gif","img/card_backs/set2/orange.gif","img/card_backs/set2/blue.gif","img/card_backs/set2/gray.gif","img/card_backs/set2/pink.gif","""event"",""trial"",""time""
""fullscreenenter"",""1"",""8326""
","
","
","""event"",""trial"",""time""
""fullscreenenter"",""1"",""8326""
","
","","2571.1900000460446","","","","real_trial","2021-04-17 17:36:10.824","img/card_backs/set1/purple.gif","1","40","1","",""
"casino-fixation","116","578681","0.0-25.0-0.23","198","true","img/card_backs/set1/green.gif","img/card_backs/set1/yellow.gif","img/card_backs/set1/purple.gif","img/card_backs/set1/red.gif","img/card_backs/set2/orange.gif","img/card_backs/set2/blue.gif","img/card_backs/set2/gray.gif","img/card_backs/set2/pink.gif","""event"",""trial"",""time""
""fullscreenenter"",""1"",""8326""
","
","
","""event"",""trial"",""time""
""fullscreenenter"",""1"",""8326""
","
","","null","","null","","fixation","2021-04-17 17:36:11.326","","","","","",""
"card-selection-trial","117","581024","0.0-25.0-1.23","198","true","img/card_backs/set1/green.gif","img/card_backs/set1/yellow.gif","img/card_backs/set1/purple.gif","img/card_backs/set1/red.gif","img/card_backs/set2/orange.gif","img/card_backs/set2/blue.gif","img/card_backs/set2/gray.gif","img/card_backs/set2/pink.gif","""event"",""trial"",""time""
""fullscreenenter"",""1"",""8326""
","
","
","""event"",""trial"",""time""
""fullscreenenter"",""1"",""8326""
","
","","333.98499991744757","","","","real_trial","2021-04-17 17:36:13.669","img/card_backs/set1/red.gif","2","-110","1","",""
"casino-fixation","118","581526","0.0-25.0-0.24","198","true","img/card_backs/set1/green.gif","img/card_backs/set1/yellow.gif","img/card_backs/set1/purple.gif","img/card_backs/set1/red.gif","img/card_backs/set2/orange.gif","img/card_backs/set2/blue.gif","img/card_backs/set2/gray.gif","img/card_backs/set2/pink.gif","""event"",""trial"",""time""
""fullscreenenter"",""1"",""8326""
","
","
","""event"",""trial"",""time""
""fullscreenenter"",""1"",""8326""
","
","","null","","null","","fixation","2021-04-17 17:36:14.171","","","","","",""
"card-selection-trial","119","583794","0.0-25.0-1.24","198","true","img/card_backs/set1/green.gif","img/card_backs/set1/yellow.gif","img/card_backs/set1/purple.gif","img/card_backs/set1/red.gif","img/card_backs/set2/orange.gif","img/card_backs/set2/blue.gif","img/card_backs/set2/gray.gif","img/card_backs/set2/pink.gif","""event"",""trial"",""time""
""fullscreenenter"",""1"",""8326""
","
","
","""event"",""trial"",""time""
""fullscreenenter"",""1"",""8326""
","
","","259.1949999332428","","","","real_trial","2021-04-17 17:36:16.439","img/card_backs/set1/red.gif","3","40","1","",""
"casino-fixation","120","584296","0.0-25.0-0.25","198","true","img/card_backs/set1/green.gif","img/card_backs/set1/yellow.gif","img/card_backs/set1/purple.gif","img/card_backs/set1/red.gif","img/card_backs/set2/orange.gif","img/card_backs/set2/blue.gif","img/card_backs/set2/gray.gif","img/card_backs/set2/pink.gif","""event"",""trial"",""time""
""fullscreenenter"",""1"",""8326""
","
","
","""event"",""trial"",""time""
""fullscreenenter"",""1"",""8326""
","
","","null","","null","","fixation","2021-04-17 17:36:16.941","","","","","",""
"card-selection-trial","121","586588","0.0-25.0-1.25","198","true","img/card_backs/set1/green.gif","img/card_backs/set1/yellow.gif","img/card_backs/set1/purple.gif","img/card_backs/set1/red.gif","img/card_backs/set2/orange.gif","img/card_backs/set2/blue.gif","img/card_backs/set2/gray.gif","img/card_backs/set2/pink.gif","""event"",""trial"",""time""
""fullscreenenter"",""1"",""8326""
","
","
","""event"",""trial"",""time""
""fullscreenenter"",""1"",""8326""
","
","","285.0949999410659","","","","real_trial","2021-04-17 17:36:19.233","img/card_backs/set1/purple.gif","0","50","1","",""
"casino-fixation","122","587091","0.0-25.0-0.26","198","true","img/card_backs/set1/green.gif","img/card_backs/set1/yellow.gif","img/card_backs/set1/purple.gif","img/card_backs/set1/red.gif","img/card_backs/set2/orange.gif","img/card_backs/set2/blue.gif","img/card_backs/set2/gray.gif","img/card_backs/set2/pink.gif","""event"",""trial"",""time""
""fullscreenenter"",""1"",""8326""
","
","
","""event"",""trial"",""time""
""fullscreenenter"",""1"",""8326""
","
","","null","","null","","fixation","2021-04-17 17:36:19.736","","","","","",""
"card-selection-trial","123","589206","0.0-25.0-1.26","198","true","img/card_backs/set1/green.gif","img/card_backs/set1/yellow.gif","img/card_backs/set1/purple.gif","img/card_backs/set1/red.gif","img/card_backs/set2/orange.gif","img/card_backs/set2/blue.gif","img/card_backs/set2/gray.gif","img/card_backs/set2/pink.gif","""event"",""trial"",""time""
""fullscreenenter"",""1"",""8326""
","
","
","""event"",""trial"",""time""
""fullscreenenter"",""1"",""8326""
","
","","108.20499993860722","","","","real_trial","2021-04-17 17:36:21.851","img/card_backs/set1/red.gif","1","-90","1","",""
"casino-fixation","124","589708","0.0-25.0-0.27","198","true","img/card_backs/set1/green.gif","img/card_backs/set1/yellow.gif","img/card_backs/set1/purple.gif","img/card_backs/set1/red.gif","img/card_backs/set2/orange.gif","img/card_backs/set2/blue.gif","img/card_backs/set2/gray.gif","img/card_backs/set2/pink.gif","""event"",""trial"",""time""
""fullscreenenter"",""1"",""8326""
","
","
","""event"",""trial"",""time""
""fullscreenenter"",""1"",""8326""
","
","","null","","null","","fixation","2021-04-17 17:36:22.353","","","","","",""
"card-selection-trial","125","593796","0.0-25.0-1.27","198","true","img/card_backs/set1/green.gif","img/card_backs/set1/yellow.gif","img/card_backs/set1/purple.gif","img/card_backs/set1/red.gif","img/card_backs/set2/orange.gif","img/card_backs/set2/blue.gif","img/card_backs/set2/gray.gif","img/card_backs/set2/pink.gif","""event"",""trial"",""time""
""fullscreenenter"",""1"",""8326""
","
","
","""event"",""trial"",""time""
""fullscreenenter"",""1"",""8326""
","
","","2080.755000002682","","","","real_trial","2021-04-17 17:36:26.441","img/card_backs/set1/yellow.gif","3","-200","1","",""
"casino-fixation","126","594299","0.0-25.0-0.28","198","true","img/card_backs/set1/green.gif","img/card_backs/set1/yellow.gif","img/card_backs/set1/purple.gif","img/card_backs/set1/red.gif","img/card_backs/set2/orange.gif","img/card_backs/set2/blue.gif","img/card_backs/set2/gray.gif","img/card_backs/set2/pink.gif","""event"",""trial"",""time""
""fullscreenenter"",""1"",""8326""
","
","
","""event"",""trial"",""time""
""fullscreenenter"",""1"",""8326""
","
","","null","","null","","fixation","2021-04-17 17:36:26.945","","","","","",""
"card-selection-trial","127","597975","0.0-25.0-1.28","198","true","img/card_backs/set1/green.gif","img/card_backs/set1/yellow.gif","img/card_backs/set1/purple.gif","img/card_backs/set1/red.gif","img/card_backs/set2/orange.gif","img/card_backs/set2/blue.gif","img/card_backs/set2/gray.gif","img/card_backs/set2/pink.gif","""event"",""trial"",""time""
""fullscreenenter"",""1"",""8326""
","
","
","""event"",""trial"",""time""
""fullscreenenter"",""1"",""8326""
","
","","1666.7500000912696","","","","real_trial","2021-04-17 17:36:30.620","img/card_backs/set1/yellow.gif","0","240","1","",""
"casino-fixation","128","598478","0.0-25.0-0.29","198","true","img/card_backs/set1/green.gif","img/card_backs/set1/yellow.gif","img/card_backs/set1/purple.gif","img/card_backs/set1/red.gif","img/card_backs/set2/orange.gif","img/card_backs/set2/blue.gif","img/card_backs/set2/gray.gif","img/card_backs/set2/pink.gif","""event"",""trial"",""time""
""fullscreenenter"",""1"",""8326""
","
","
","""event"",""trial"",""time""
""fullscreenenter"",""1"",""8326""
","
","","null","","null","","fixation","2021-04-17 17:36:31.123","","","","","",""
"card-selection-trial","129","602145","0.0-25.0-1.29","198","true","img/card_backs/set1/green.gif","img/card_backs/set1/yellow.gif","img/card_backs/set1/purple.gif","img/card_backs/set1/red.gif","img/card_backs/set2/orange.gif","img/card_backs/set2/blue.gif","img/card_backs/set2/gray.gif","img/card_backs/set2/pink.gif","""event"",""trial"",""time""
""fullscreenenter"",""1"",""8326""
","
","
","""event"",""trial"",""time""
""fullscreenenter"",""1"",""8326""
","
","","1658.7050000671297","","","","real_trial","2021-04-17 17:36:34.790","img/card_backs/set1/yellow.gif","2","-200","1","",""
"casino-fixation","130","602647","0.0-25.0-0.30","198","true","img/card_backs/set1/green.gif","img/card_backs/set1/yellow.gif","img/card_backs/set1/purple.gif","img/card_backs/set1/red.gif","img/card_backs/set2/orange.gif","img/card_backs/set2/blue.gif","img/card_backs/set2/gray.gif","img/card_backs/set2/pink.gif","""event"",""trial"",""time""
""fullscreenenter"",""1"",""8326""
","
","
","""event"",""trial"",""time""
""fullscreenenter"",""1"",""8326""
","
","","null","","null","","fixation","2021-04-17 17:36:35.292","","","","","",""
"card-selection-trial","131","606323","0.0-25.0-1.30","198","true","img/card_backs/set1/green.gif","img/card_backs/set1/yellow.gif","img/card_backs/set1/purple.gif","img/card_backs/set1/red.gif","img/card_backs/set2/orange.gif","img/card_backs/set2/blue.gif","img/card_backs/set2/gray.gif","img/card_backs/set2/pink.gif","""event"",""trial"",""time""
""fullscreenenter"",""1"",""8326""
","
","
","""event"",""trial"",""time""
""fullscreenenter"",""1"",""8326""
","
","","1670.6900000572205","","","","real_trial","2021-04-17 17:36:38.968","img/card_backs/set1/purple.gif","1","40","1","",""
"casino-fixation","132","606825","0.0-25.0-0.31","198","true","img/card_backs/set1/green.gif","img/card_backs/set1/yellow.gif","img/card_backs/set1/purple.gif","img/card_backs/set1/red.gif","img/card_backs/set2/orange.gif","img/card_backs/set2/blue.gif","img/card_backs/set2/gray.gif","img/card_backs/set2/pink.gif","""event"",""trial"",""time""
""fullscreenenter"",""1"",""8326""
","
","
","""event"",""trial"",""time""
""fullscreenenter"",""1"",""8326""
","
","","null","","null","","fixation","2021-04-17 17:36:39.470","","","","","",""
"card-selection-trial","133","609524","0.0-25.0-1.31","198","true","img/card_backs/set1/green.gif","img/card_backs/set1/yellow.gif","img/card_backs/set1/purple.gif","img/card_backs/set1/red.gif","img/card_backs/set2/orange.gif","img/card_backs/set2/blue.gif","img/card_backs/set2/gray.gif","img/card_backs/set2/pink.gif","""event"",""trial"",""time""
""fullscreenenter"",""1"",""8326""
","
","
","""event"",""trial"",""time""
""fullscreenenter"",""1"",""8326""
","
","","690.9499999601394","","","","real_trial","2021-04-17 17:36:42.169","img/card_backs/set1/yellow.gif","2","240","1","",""
"casino-fixation","134","610026","0.0-25.0-0.32","198","true","img/card_backs/set1/green.gif","img/card_backs/set1/yellow.gif","img/card_backs/set1/purple.gif","img/card_backs/set1/red.gif","img/card_backs/set2/orange.gif","img/card_backs/set2/blue.gif","img/card_backs/set2/gray.gif","img/card_backs/set2/pink.gif","""event"",""trial"",""time""
""fullscreenenter"",""1"",""8326""
","
","
","""event"",""trial"",""time""
""fullscreenenter"",""1"",""8326""
","
","","null","","null","","fixation","2021-04-17 17:36:42.671","","","","","",""
"card-selection-trial","135","614893","0.0-25.0-1.32","198","true","img/card_backs/set1/green.gif","img/card_backs/set1/yellow.gif","img/card_backs/set1/purple.gif","img/card_backs/set1/red.gif","img/card_backs/set2/orange.gif","img/card_backs/set2/blue.gif","img/card_backs/set2/gray.gif","img/card_backs/set2/pink.gif","""event"",""trial"",""time""
""fullscreenenter"",""1"",""8326""
","
","
","""event"",""trial"",""time""
""fullscreenenter"",""1"",""8326""
","
","","2858.364999992773","","","","real_trial","2021-04-17 17:36:47.538","img/card_backs/set1/green.gif","0","260","1","",""
"casino-fixation","136","615397","0.0-25.0-0.33","198","true","img/card_backs/set1/green.gif","img/card_backs/set1/yellow.gif","img/card_backs/set1/purple.gif","img/card_backs/set1/red.gif","img/card_backs/set2/orange.gif","img/card_backs/set2/blue.gif","img/card_backs/set2/gray.gif","img/card_backs/set2/pink.gif","""event"",""trial"",""time""
""fullscreenenter"",""1"",""8326""
","
","
","""event"",""trial"",""time""
""fullscreenenter"",""1"",""8326""
","
","","null","","null","","fixation","2021-04-17 17:36:48.042","","","","","",""
"card-selection-trial","137","622418","0.0-25.0-1.33","198","true","img/card_backs/set1/green.gif","img/card_backs/set1/yellow.gif","img/card_backs/set1/purple.gif","img/card_backs/set1/red.gif","img/card_backs/set2/orange.gif","img/card_backs/set2/blue.gif","img/card_backs/set2/gray.gif","img/card_backs/set2/pink.gif","""event"",""trial"",""time""
""fullscreenenter"",""1"",""8326""
","
","
","""event"",""trial"",""time""
""fullscreenenter"",""1"",""8326""
","
","","5011.900000041351","","","","real_trial","2021-04-17 17:36:55.063","img/card_backs/set1/purple.gif","1","-90","1","",""
"casino-fixation","138","622921","0.0-25.0-0.34","198","true","img/card_backs/set1/green.gif","img/card_backs/set1/yellow.gif","img/card_backs/set1/purple.gif","img/card_backs/set1/red.gif","img/card_backs/set2/orange.gif","img/card_backs/set2/blue.gif","img/card_backs/set2/gray.gif","img/card_backs/set2/pink.gif","""event"",""trial"",""time""
""fullscreenenter"",""1"",""8326""
","
","
","""event"",""trial"",""time""
""fullscreenenter"",""1"",""8326""
","
","","null","","null","","fixation","2021-04-17 17:36:55.566","","","","","",""
"card-selection-trial","139","627614","0.0-25.0-1.34","198","true","img/card_backs/set1/green.gif","img/card_backs/set1/yellow.gif","img/card_backs/set1/purple.gif","img/card_backs/set1/red.gif","img/card_backs/set2/orange.gif","img/card_backs/set2/blue.gif","img/card_backs/set2/gray.gif","img/card_backs/set2/pink.gif","""event"",""trial"",""time""
""fullscreenenter"",""1"",""8326""
","
","
","""event"",""trial"",""time""
""fullscreenenter"",""1"",""8326""
","
","","2685.40499988012","","","","real_trial","2021-04-17 17:37:00.259","img/card_backs/set1/yellow.gif","0","240","1","",""
"casino-fixation","140","628117","0.0-25.0-0.35","198","true","img/card_backs/set1/green.gif","img/card_backs/set1/yellow.gif","img/card_backs/set1/purple.gif","img/card_backs/set1/red.gif","img/card_backs/set2/orange.gif","img/card_backs/set2/blue.gif","img/card_backs/set2/gray.gif","img/card_backs/set2/pink.gif","""event"",""trial"",""time""
""fullscreenenter"",""1"",""8326""
","
","
","""event"",""trial"",""time""
""fullscreenenter"",""1"",""8326""
","
","","null","","null","","fixation","2021-04-17 17:37:00.762","","","","","",""
"card-selection-trial","141","631588","0.0-25.0-1.35","198","true","img/card_backs/set1/green.gif","img/card_backs/set1/yellow.gif","img/card_backs/set1/purple.gif","img/card_backs/set1/red.gif","img/card_backs/set2/orange.gif","img/card_backs/set2/blue.gif","img/card_backs/set2/gray.gif","img/card_backs/set2/pink.gif","""event"",""trial"",""time""
""fullscreenenter"",""1"",""8326""
","
","
","""event"",""trial"",""time""
""fullscreenenter"",""1"",""8326""
","
","","1463.0800001323223","","","","real_trial","2021-04-17 17:37:04.233","img/card_backs/set1/yellow.gif","1","240","1","",""
"casino-fixation","142","632090","0.0-25.0-0.36","198","true","img/card_backs/set1/green.gif","img/card_backs/set1/yellow.gif","img/card_backs/set1/purple.gif","img/card_backs/set1/red.gif","img/card_backs/set2/orange.gif","img/card_backs/set2/blue.gif","img/card_backs/set2/gray.gif","img/card_backs/set2/pink.gif","""event"",""trial"",""time""
""fullscreenenter"",""1"",""8326""
","
","
","""event"",""trial"",""time""
""fullscreenenter"",""1"",""8326""
","
","","null","","null","","fixation","2021-04-17 17:37:04.735","","","","","",""
"card-selection-trial","143","636047","0.0-25.0-1.36","198","true","img/card_backs/set1/green.gif","img/card_backs/set1/yellow.gif","img/card_backs/set1/purple.gif","img/card_backs/set1/red.gif","img/card_backs/set2/orange.gif","img/card_backs/set2/blue.gif","img/card_backs/set2/gray.gif","img/card_backs/set2/pink.gif","""event"",""trial"",""time""
""fullscreenenter"",""1"",""8326""
","
","
","""event"",""trial"",""time""
""fullscreenenter"",""1"",""8326""
","
","","1948.6749998759478","","","","real_trial","2021-04-17 17:37:08.692","img/card_backs/set1/yellow.gif","3","-200","1","",""
"casino-fixation","144","636550","0.0-25.0-0.37","198","true","img/card_backs/set1/green.gif","img/card_backs/set1/yellow.gif","img/card_backs/set1/purple.gif","img/card_backs/set1/red.gif","img/card_backs/set2/orange.gif","img/card_backs/set2/blue.gif","img/card_backs/set2/gray.gif","img/card_backs/set2/pink.gif","""event"",""trial"",""time""
""fullscreenenter"",""1"",""8326""
","
","
","""event"",""trial"",""time""
""fullscreenenter"",""1"",""8326""
","
","","null","","null","","fixation","2021-04-17 17:37:09.195","","","","","",""
"card-selection-trial","145","642418","0.0-25.0-1.37","198","true","img/card_backs/set1/green.gif","img/card_backs/set1/yellow.gif","img/card_backs/set1/purple.gif","img/card_backs/set1/red.gif","img/card_backs/set2/orange.gif","img/card_backs/set2/blue.gif","img/card_backs/set2/gray.gif","img/card_backs/set2/pink.gif","""event"",""trial"",""time""
""fullscreenenter"",""1"",""8326""
","
","
","""event"",""trial"",""time""
""fullscreenenter"",""1"",""8326""
","
","","3860.89999997057","","","","real_trial","2021-04-17 17:37:15.063","img/card_backs/set1/purple.gif","1","60","1","",""
"casino-fixation","146","642922","0.0-25.0-0.38","198","true","img/card_backs/set1/green.gif","img/card_backs/set1/yellow.gif","img/card_backs/set1/purple.gif","img/card_backs/set1/red.gif","img/card_backs/set2/orange.gif","img/card_backs/set2/blue.gif","img/card_backs/set2/gray.gif","img/card_backs/set2/pink.gif","""event"",""trial"",""time""
""fullscreenenter"",""1"",""8326""
","
","
","""event"",""trial"",""time""
""fullscreenenter"",""1"",""8326""
","
","","null","","null","","fixation","2021-04-17 17:37:15.567","","","","","",""
"card-selection-trial","147","648654","0.0-25.0-1.38","198","true","img/card_backs/set1/green.gif","img/card_backs/set1/yellow.gif","img/card_backs/set1/purple.gif","img/card_backs/set1/red.gif","img/card_backs/set2/orange.gif","img/card_backs/set2/blue.gif","img/card_backs/set2/gray.gif","img/card_backs/set2/pink.gif","""event"",""trial"",""time""
""fullscreenenter"",""1"",""8326""
","
","
","""event"",""trial"",""time""
""fullscreenenter"",""1"",""8326""
","
","","3725.055000046268","","","","real_trial","2021-04-17 17:37:21.299","img/card_backs/set1/red.gif","0","-90","1","",""
"casino-fixation","148","649155","0.0-25.0-0.39","198","true","img/card_backs/set1/green.gif","img/card_backs/set1/yellow.gif","img/card_backs/set1/purple.gif","img/card_backs/set1/red.gif","img/card_backs/set2/orange.gif","img/card_backs/set2/blue.gif","img/card_backs/set2/gray.gif","img/card_backs/set2/pink.gif","""event"",""trial"",""time""
""fullscreenenter"",""1"",""8326""
","
","
","""event"",""trial"",""time""
""fullscreenenter"",""1"",""8326""
","
","","null","","null","","fixation","2021-04-17 17:37:21.800","","","","","",""
"card-selection-trial","149","653818","0.0-25.0-1.39","198","true","img/card_backs/set1/green.gif","img/card_backs/set1/yellow.gif","img/card_backs/set1/purple.gif","img/card_backs/set1/red.gif","img/card_backs/set2/orange.gif","img/card_backs/set2/blue.gif","img/card_backs/set2/gray.gif","img/card_backs/set2/pink.gif","""event"",""trial"",""time""
""fullscreenenter"",""1"",""8326""
","
","
","""event"",""trial"",""time""
""fullscreenenter"",""1"",""8326""
","
","","2653.7399999797344","","","","real_trial","2021-04-17 17:37:26.463","img/card_backs/set1/purple.gif","0","40","1","",""
"casino-fixation","150","654321","0.0-25.0-0.40","198","true","img/card_backs/set1/green.gif","img/card_backs/set1/yellow.gif","img/card_backs/set1/purple.gif","img/card_backs/set1/red.gif","img/card_backs/set2/orange.gif","img/card_backs/set2/blue.gif","img/card_backs/set2/gray.gif","img/card_backs/set2/pink.gif","""event"",""trial"",""time""
""fullscreenenter"",""1"",""8326""
","
","
","""event"",""trial"",""time""
""fullscreenenter"",""1"",""8326""
","
","","null","","null","","fixation","2021-04-17 17:37:26.966","","","","","",""
"card-selection-trial","151","657841","0.0-25.0-1.40","198","true","img/card_backs/set1/green.gif","img/card_backs/set1/yellow.gif","img/card_backs/set1/purple.gif","img/card_backs/set1/red.gif","img/card_backs/set2/orange.gif","img/card_backs/set2/blue.gif","img/card_backs/set2/gray.gif","img/card_backs/set2/pink.gif","""event"",""trial"",""time""
""fullscreenenter"",""1"",""8326""
","
","
","""event"",""trial"",""time""
""fullscreenenter"",""1"",""8326""
","
","","1510.2700002025813","","","","real_trial","2021-04-17 17:37:30.486","img/card_backs/set1/yellow.gif","0","240","1","",""
"casino-fixation","152","658343","0.0-25.0-0.41","198","true","img/card_backs/set1/green.gif","img/card_backs/set1/yellow.gif","img/card_backs/set1/purple.gif","img/card_backs/set1/red.gif","img/card_backs/set2/orange.gif","img/card_backs/set2/blue.gif","img/card_backs/set2/gray.gif","img/card_backs/set2/pink.gif","""event"",""trial"",""time""
""fullscreenenter"",""1"",""8326""
","
","
","""event"",""trial"",""time""
""fullscreenenter"",""1"",""8326""
","
","","null","","null","","fixation","2021-04-17 17:37:30.988","","","","","",""
"card-selection-trial","153","660658","0.0-25.0-1.41","198","true","img/card_backs/set1/green.gif","img/card_backs/set1/yellow.gif","img/card_backs/set1/purple.gif","img/card_backs/set1/red.gif","img/card_backs/set2/orange.gif","img/card_backs/set2/blue.gif","img/card_backs/set2/gray.gif","img/card_backs/set2/pink.gif","""event"",""trial"",""time""
""fullscreenenter"",""1"",""8326""
","
","
","""event"",""trial"",""time""
""fullscreenenter"",""1"",""8326""
","
","","307.8199999872595","","","","real_trial","2021-04-17 17:37:33.303","img/card_backs/set1/purple.gif","0","60","1","",""
"casino-fixation","154","661160","0.0-25.0-0.42","198","true","img/card_backs/set1/green.gif","img/card_backs/set1/yellow.gif","img/card_backs/set1/purple.gif","img/card_backs/set1/red.gif","img/card_backs/set2/orange.gif","img/card_backs/set2/blue.gif","img/card_backs/set2/gray.gif","img/card_backs/set2/pink.gif","""event"",""trial"",""time""
""fullscreenenter"",""1"",""8326""
","
","
","""event"",""trial"",""time""
""fullscreenenter"",""1"",""8326""
","
","","null","","null","","fixation","2021-04-17 17:37:33.805","","","","","",""
"card-selection-trial","155","663293","0.0-25.0-1.42","198","true","img/card_backs/set1/green.gif","img/card_backs/set1/yellow.gif","img/card_backs/set1/purple.gif","img/card_backs/set1/red.gif","img/card_backs/set2/orange.gif","img/card_backs/set2/blue.gif","img/card_backs/set2/gray.gif","img/card_backs/set2/pink.gif","""event"",""trial"",""time""
""fullscreenenter"",""1"",""8326""
","
","
","""event"",""trial"",""time""
""fullscreenenter"",""1"",""8326""
","
","","125.05499995313585","","","","real_trial","2021-04-17 17:37:35.938","img/card_backs/set1/purple.gif","0","40","1","",""
"casino-fixation","156","663795","0.0-25.0-0.43","198","true","img/card_backs/set1/green.gif","img/card_backs/set1/yellow.gif","img/card_backs/set1/purple.gif","img/card_backs/set1/red.gif","img/card_backs/set2/orange.gif","img/card_backs/set2/blue.gif","img/card_backs/set2/gray.gif","img/card_backs/set2/pink.gif","""event"",""trial"",""time""
""fullscreenenter"",""1"",""8326""
","
","
","""event"",""trial"",""time""
""fullscreenenter"",""1"",""8326""
","
","","null","","null","","fixation","2021-04-17 17:37:36.440","","","","","",""
"card-selection-trial","157","669071","0.0-25.0-1.43","198","true","img/card_backs/set1/green.gif","img/card_backs/set1/yellow.gif","img/card_backs/set1/purple.gif","img/card_backs/set1/red.gif","img/card_backs/set2/orange.gif","img/card_backs/set2/blue.gif","img/card_backs/set2/gray.gif","img/card_backs/set2/pink.gif","""event"",""trial"",""time""
""fullscreenenter"",""1"",""8326""
","
","
","""event"",""trial"",""time""
""fullscreenenter"",""1"",""8326""
","
","","3268.5249999631196","","","","real_trial","2021-04-17 17:37:41.716","img/card_backs/set1/yellow.gif","2","250","1","",""
"casino-fixation","158","669575","0.0-25.0-0.44","198","true","img/card_backs/set1/green.gif","img/card_backs/set1/yellow.gif","img/card_backs/set1/purple.gif","img/card_backs/set1/red.gif","img/card_backs/set2/orange.gif","img/card_backs/set2/blue.gif","img/card_backs/set2/gray.gif","img/card_backs/set2/pink.gif","""event"",""trial"",""time""
""fullscreenenter"",""1"",""8326""
","
","
","""event"",""trial"",""time""
""fullscreenenter"",""1"",""8326""
","
","","null","","null","","fixation","2021-04-17 17:37:42.220","","","","","",""
"card-selection-trial","159","674849","0.0-25.0-1.44","198","true","img/card_backs/set1/green.gif","img/card_backs/set1/yellow.gif","img/card_backs/set1/purple.gif","img/card_backs/set1/red.gif","img/card_backs/set2/orange.gif","img/card_backs/set2/blue.gif","img/card_backs/set2/gray.gif","img/card_backs/set2/pink.gif","""event"",""trial"",""time""
""fullscreenenter"",""1"",""8326""
","
","
","""event"",""trial"",""time""
""fullscreenenter"",""1"",""8326""
","
","","3265.7899998594075","","","","real_trial","2021-04-17 17:37:47.494","img/card_backs/set1/red.gif","3","-90","1","",""
"casino-fixation","160","675353","0.0-25.0-0.45","198","true","img/card_backs/set1/green.gif","img/card_backs/set1/yellow.gif","img/card_backs/set1/purple.gif","img/card_backs/set1/red.gif","img/card_backs/set2/orange.gif","img/card_backs/set2/blue.gif","img/card_backs/set2/gray.gif","img/card_backs/set2/pink.gif","""event"",""trial"",""time""
""fullscreenenter"",""1"",""8326""
","
","
","""event"",""trial"",""time""
""fullscreenenter"",""1"",""8326""
","
","","null","","null","","fixation","2021-04-17 17:37:47.998","","","","","",""
"card-selection-trial","161","680735","0.0-25.0-1.45","198","true","img/card_backs/set1/green.gif","img/card_backs/set1/yellow.gif","img/card_backs/set1/purple.gif","img/card_backs/set1/red.gif","img/card_backs/set2/orange.gif","img/card_backs/set2/blue.gif","img/card_backs/set2/gray.gif","img/card_backs/set2/pink.gif","""event"",""trial"",""time""
""fullscreenenter"",""1"",""8326""
","
","
","""event"",""trial"",""time""
""fullscreenenter"",""1"",""8326""
","
","","3373.2050000689924","","","","real_trial","2021-04-17 17:37:53.380","img/card_backs/set1/purple.gif","1","40","1","",""
"casino-fixation","162","681238","0.0-25.0-0.46","198","true","img/card_backs/set1/green.gif","img/card_backs/set1/yellow.gif","img/card_backs/set1/purple.gif","img/card_backs/set1/red.gif","img/card_backs/set2/orange.gif","img/card_backs/set2/blue.gif","img/card_backs/set2/gray.gif","img/card_backs/set2/pink.gif","""event"",""trial"",""time""
""fullscreenenter"",""1"",""8326""
","
","
","""event"",""trial"",""time""
""fullscreenenter"",""1"",""8326""
","
","","null","","null","","fixation","2021-04-17 17:37:53.883","","","","","",""
"card-selection-trial","163","689129","0.0-25.0-1.46","198","true","img/card_backs/set1/green.gif","img/card_backs/set1/yellow.gif","img/card_backs/set1/purple.gif","img/card_backs/set1/red.gif","img/card_backs/set2/orange.gif","img/card_backs/set2/blue.gif","img/card_backs/set2/gray.gif","img/card_backs/set2/pink.gif","""event"",""trial"",""time""
""fullscreenenter"",""1"",""8326""
","
","
","""event"",""trial"",""time""
""fullscreenenter"",""1"",""8326""
","
","","5883.12999997288","","","","real_trial","2021-04-17 17:38:01.774","img/card_backs/set1/yellow.gif","1","240","1","",""
"casino-fixation","164","689633","0.0-25.0-0.47","198","true","img/card_backs/set1/green.gif","img/card_backs/set1/yellow.gif","img/card_backs/set1/purple.gif","img/card_backs/set1/red.gif","img/card_backs/set2/orange.gif","img/card_backs/set2/blue.gif","img/card_backs/set2/gray.gif","img/card_backs/set2/pink.gif","""event"",""trial"",""time""
""fullscreenenter"",""1"",""8326""
","
","
","""event"",""trial"",""time""
""fullscreenenter"",""1"",""8326""
","
","","null","","null","","fixation","2021-04-17 17:38:02.278","","","","","",""
"card-selection-trial","165","692420","0.0-25.0-1.47","198","true","img/card_backs/set1/green.gif","img/card_backs/set1/yellow.gif","img/card_backs/set1/purple.gif","img/card_backs/set1/red.gif","img/card_backs/set2/orange.gif","img/card_backs/set2/blue.gif","img/card_backs/set2/gray.gif","img/card_backs/set2/pink.gif","""event"",""trial"",""time""
""fullscreenenter"",""1"",""8326""
","
","
","""event"",""trial"",""time""
""fullscreenenter"",""1"",""8326""
","
","","779.2149998713285","","","","real_trial","2021-04-17 17:38:05.066","img/card_backs/set1/green.gif","2","250","1","",""
"casino-fixation","166","692924","0.0-25.0-0.48","198","true","img/card_backs/set1/green.gif","img/card_backs/set1/yellow.gif","img/card_backs/set1/purple.gif","img/card_backs/set1/red.gif","img/card_backs/set2/orange.gif","img/card_backs/set2/blue.gif","img/card_backs/set2/gray.gif","img/card_backs/set2/pink.gif","""event"",""trial"",""time""
""fullscreenenter"",""1"",""8326""
","
","
","""event"",""trial"",""time""
""fullscreenenter"",""1"",""8326""
","
","","null","","null","","fixation","2021-04-17 17:38:05.569","","","","","",""
"card-selection-trial","167","695650","0.0-25.0-1.48","198","true","img/card_backs/set1/green.gif","img/card_backs/set1/yellow.gif","img/card_backs/set1/purple.gif","img/card_backs/set1/red.gif","img/card_backs/set2/orange.gif","img/card_backs/set2/blue.gif","img/card_backs/set2/gray.gif","img/card_backs/set2/pink.gif","""event"",""trial"",""time""
""fullscreenenter"",""1"",""8326""
","
","
","""event"",""trial"",""time""
