"trial_type","trial_index","time_elapsed","internal_node_id","sub_id","risk_good_first","block1_A","block1_B","block1_C","block1_D","block2_A","block2_B","block2_C","block2_D","interactions","blur_events","focus_events","fullscreenenter_events","fullscreenexit_events","success","rt","stimulus","key_press","button_pressed","task_part","timestamp","card_choice","choice_position","points_earned","block","correct","response"
"pavlovia","0","7","0.0-0.0","857","false","img/card_backs/set1/purple.gif","img/card_backs/set1/green.gif","img/card_backs/set1/red.gif","img/card_backs/set1/yellow.gif","img/card_backs/set2/orange.gif","img/card_backs/set2/gray.gif","img/card_backs/set2/blue.gif","img/card_backs/set2/pink.gif","""event"",""trial"",""time""
""fullscreenenter"",""1"",""5021""
","
","
","""event"",""trial"",""time""
""fullscreenenter"",""1"",""5021""
","
","","","","","","","","","","","","",""
"fullscreen","1","5990","0.0-1.0","857","false","img/card_backs/set1/purple.gif","img/card_backs/set1/green.gif","img/card_backs/set1/red.gif","img/card_backs/set1/yellow.gif","img/card_backs/set2/orange.gif","img/card_backs/set2/gray.gif","img/card_backs/set2/blue.gif","img/card_backs/set2/pink.gif","""event"",""trial"",""time""
""fullscreenenter"",""1"",""5021""
","
","
","""event"",""trial"",""time""
""fullscreenenter"",""1"",""5021""
","
","true","","","","","","","","","","","",""
"audio-keyboard-response","2","9573","0.0-2.0","857","false","img/card_backs/set1/purple.gif","img/card_backs/set1/green.gif","img/card_backs/set1/red.gif","img/card_backs/set1/yellow.gif","img/card_backs/set2/orange.gif","img/card_backs/set2/gray.gif","img/card_backs/set2/blue.gif","img/card_backs/set2/pink.gif","""event"",""trial"",""time""
""fullscreenenter"",""1"",""5021""
","
","
","""event"",""trial"",""time""
""fullscreenenter"",""1"",""5021""
","
","","2829","audio/beep_loop.wav","32","","","","","","","","",""
"audio-button-response","3","13667","0.0-3.0","857","false","img/card_backs/set1/purple.gif","img/card_backs/set1/green.gif","img/card_backs/set1/red.gif","img/card_backs/set1/yellow.gif","img/card_backs/set2/orange.gif","img/card_backs/set2/gray.gif","img/card_backs/set2/blue.gif","img/card_backs/set2/pink.gif","""event"",""trial"",""time""
""fullscreenenter"",""1"",""5021""
","
","
","""event"",""trial"",""time""
""fullscreenenter"",""1"",""5021""
","
","","NaN","audio/turtle.mp3","","3","","","","","","","",""
"audio-button-response","4","16419","0.0-4.0","857","false","img/card_backs/set1/purple.gif","img/card_backs/set1/green.gif","img/card_backs/set1/red.gif","img/card_backs/set1/yellow.gif","img/card_backs/set2/orange.gif","img/card_backs/set2/gray.gif","img/card_backs/set2/blue.gif","img/card_backs/set2/pink.gif","""event"",""trial"",""time""
""fullscreenenter"",""1"",""5021""
","
","
","""event"",""trial"",""time""
""fullscreenenter"",""1"",""5021""
","
","","NaN","audio/shark.mp3","","2","","","","","","","",""
"fullscreen","5","20410","0.0-5.0","857","false","img/card_backs/set1/purple.gif","img/card_backs/set1/green.gif","img/card_backs/set1/red.gif","img/card_backs/set1/yellow.gif","img/card_backs/set2/orange.gif","img/card_backs/set2/gray.gif","img/card_backs/set2/blue.gif","img/card_backs/set2/pink.gif","""event"",""trial"",""time""
""fullscreenenter"",""1"",""5021""
","
","
","""event"",""trial"",""time""
""fullscreenenter"",""1"",""5021""
","
","true","","","","","","","","","","","",""
"casino-keyboard-response","6","26904","0.0-6.0-0.0","857","false","img/card_backs/set1/purple.gif","img/card_backs/set1/green.gif","img/card_backs/set1/red.gif","img/card_backs/set1/yellow.gif","img/card_backs/set2/orange.gif","img/card_backs/set2/gray.gif","img/card_backs/set2/blue.gif","img/card_backs/set2/pink.gif","""event"",""trial"",""time""
""fullscreenenter"",""1"",""5021""
","
","
","""event"",""trial"",""time""
""fullscreenenter"",""1"",""5021""
","
","","6486.654999898747","Welcome to the casino!","71","","instructions","2021-04-10 14:47:04.726","","","","","",""
"casino-keyboard-response","7","38003","0.0-6.0-0.1","857","false","img/card_backs/set1/purple.gif","img/card_backs/set1/green.gif","img/card_backs/set1/red.gif","img/card_backs/set1/yellow.gif","img/card_backs/set2/orange.gif","img/card_backs/set2/gray.gif","img/card_backs/set2/blue.gif","img/card_backs/set2/pink.gif","""event"",""trial"",""time""
""fullscreenenter"",""1"",""5021""
","
","
","""event"",""trial"",""time""
""fullscreenenter"",""1"",""5021""
","
","","11094.649999868125","Today you will be playing a game to earn tokens. </br> At the end of the experiment, you will be paid a bonus based on how many tokens you win. ","69","","instructions","2021-04-10 14:47:15.825","","","","","",""
"casino-keyboard-response","8","45790","0.0-6.0-0.2","857","false","img/card_backs/set1/purple.gif","img/card_backs/set1/green.gif","img/card_backs/set1/red.gif","img/card_backs/set1/yellow.gif","img/card_backs/set2/orange.gif","img/card_backs/set2/gray.gif","img/card_backs/set2/blue.gif","img/card_backs/set2/pink.gif","""event"",""trial"",""time""
""fullscreenenter"",""1"",""5021""
","
","
","""event"",""trial"",""time""
""fullscreenenter"",""1"",""5021""
","
","","7783.615000080317","On every turn, you will be shown four different decks of cards. </br> You need to select a card from one of the four decks.  ","75","","instructions","2021-04-10 14:47:23.612","","","","","",""
"casino-keyboard-response","9","51224","0.0-6.0-0.3","857","false","img/card_backs/set1/purple.gif","img/card_backs/set1/green.gif","img/card_backs/set1/red.gif","img/card_backs/set1/yellow.gif","img/card_backs/set2/orange.gif","img/card_backs/set2/gray.gif","img/card_backs/set2/blue.gif","img/card_backs/set2/pink.gif","""event"",""trial"",""time""
""fullscreenenter"",""1"",""5021""
","
","
","""event"",""trial"",""time""
""fullscreenenter"",""1"",""5021""
","
","","5431.859999895096","On the next screen, you will see what the decks will look like. ","66","","instructions","2021-04-10 14:47:29.046","","","","","",""
"card-selection-trial","10","55240","0.0-7.0-0.0","857","false","img/card_backs/set1/purple.gif","img/card_backs/set1/green.gif","img/card_backs/set1/red.gif","img/card_backs/set1/yellow.gif","img/card_backs/set2/orange.gif","img/card_backs/set2/gray.gif","img/card_backs/set2/blue.gif","img/card_backs/set2/pink.gif","""event"",""trial"",""time""
""fullscreenenter"",""1"",""5021""
","
","
","""event"",""trial"",""time""
""fullscreenenter"",""1"",""5021""
","
","","null","","","","practice","2021-04-10 14:47:33.063","null","null","null","0","",""
"casino-keyboard-response","11","73693","0.0-8.0-0.0","857","false","img/card_backs/set1/purple.gif","img/card_backs/set1/green.gif","img/card_backs/set1/red.gif","img/card_backs/set1/yellow.gif","img/card_backs/set2/orange.gif","img/card_backs/set2/gray.gif","img/card_backs/set2/blue.gif","img/card_backs/set2/pink.gif","""event"",""trial"",""time""
""fullscreenenter"",""1"",""5021""
","
","
","""event"",""trial"",""time""
""fullscreenenter"",""1"",""5021""
","
","","18446.72999996692","You should pick a card from a deck using the '2', '4', '6', and '8' keys at the top of the keyboard.","85","","instructions","2021-04-10 14:47:51.515","","","","","",""
"casino-keyboard-response","12","79472","0.0-8.0-0.1","857","false","img/card_backs/set1/purple.gif","img/card_backs/set1/green.gif","img/card_backs/set1/red.gif","img/card_backs/set1/yellow.gif","img/card_backs/set2/orange.gif","img/card_backs/set2/gray.gif","img/card_backs/set2/blue.gif","img/card_backs/set2/pink.gif","""event"",""trial"",""time""
""fullscreenenter"",""1"",""5021""
","
","
","""event"",""trial"",""time""
""fullscreenenter"",""1"",""5021""
","
","","5774.765000212938","Once you select a card, it will turn over and you will see how many tokens you earned.","83","","instructions","2021-04-10 14:47:57.294","","","","","",""
"casino-keyboard-response","13","93974","0.0-8.0-0.2","857","false","img/card_backs/set1/purple.gif","img/card_backs/set1/green.gif","img/card_backs/set1/red.gif","img/card_backs/set1/yellow.gif","img/card_backs/set2/orange.gif","img/card_backs/set2/gray.gif","img/card_backs/set2/blue.gif","img/card_backs/set2/pink.gif","""event"",""trial"",""time""
""fullscreenenter"",""1"",""5021""
","
","
","""event"",""trial"",""time""
""fullscreenenter"",""1"",""5021""
","
","","14498.555000172928","Let's try practicing that! </br> First, try to put your fingers over the '2', '4', '6', and '8' keys. </br>  You can use whatever fingers are most comfortable for you. Try to find a comfortable position now. ","50","","instructions","2021-04-10 14:48:11.796","","","","","",""
"casino-keyboard-response","14","99973","0.0-8.0-0.3","857","false","img/card_backs/set1/purple.gif","img/card_backs/set1/green.gif","img/card_backs/set1/red.gif","img/card_backs/set1/yellow.gif","img/card_backs/set2/orange.gif","img/card_backs/set2/gray.gif","img/card_backs/set2/blue.gif","img/card_backs/set2/pink.gif","""event"",""trial"",""time""
""fullscreenenter"",""1"",""5021""
","
","
","""event"",""trial"",""time""
""fullscreenenter"",""1"",""5021""
","
","","5994.729999918491","Okay ready? </br> On the next screen, press '2' to select the left deck. ","50","","instructions","2021-04-10 14:48:17.795","","","","","",""
"card-selection-trial","15","103102","0.0-9.0-0.0","857","false","img/card_backs/set1/purple.gif","img/card_backs/set1/green.gif","img/card_backs/set1/red.gif","img/card_backs/set1/yellow.gif","img/card_backs/set2/orange.gif","img/card_backs/set2/gray.gif","img/card_backs/set2/blue.gif","img/card_backs/set2/pink.gif","""event"",""trial"",""time""
""fullscreenenter"",""1"",""5021""
","
","
","""event"",""trial"",""time""
""fullscreenenter"",""1"",""5021""
","
","","1041.4599999785423","","","","practice_card_selection","2021-04-10 14:48:20.924","img/practice_cards/backs/dark_green.gif","0","200","","",""
"casino-keyboard-response","16","108871","0.0-10.0-0.0","857","false","img/card_backs/set1/purple.gif","img/card_backs/set1/green.gif","img/card_backs/set1/red.gif","img/card_backs/set1/yellow.gif","img/card_backs/set2/orange.gif","img/card_backs/set2/gray.gif","img/card_backs/set2/blue.gif","img/card_backs/set2/pink.gif","""event"",""trial"",""time""
""fullscreenenter"",""1"",""5021""
","
","
","""event"",""trial"",""time""
""fullscreenenter"",""1"",""5021""
","
","","5767.764999996871","Great! Now on the next screen, try pressing '6' to select the third deck.","54","","instructions","2021-04-10 14:48:26.693","","","","","",""
"card-selection-trial","17","112301","0.0-11.0-0.0","857","false","img/card_backs/set1/purple.gif","img/card_backs/set1/green.gif","img/card_backs/set1/red.gif","img/card_backs/set1/yellow.gif","img/card_backs/set2/orange.gif","img/card_backs/set2/gray.gif","img/card_backs/set2/blue.gif","img/card_backs/set2/pink.gif","""event"",""trial"",""time""
""fullscreenenter"",""1"",""5021""
","
","
","""event"",""trial"",""time""
""fullscreenenter"",""1"",""5021""
","
","","1407.514999853447","","","","practice_card_selection","2021-04-10 14:48:30.123","img/practice_cards/backs/brown.gif","2","-100","","",""
"casino-keyboard-response","18","117684","0.0-12.0-0.0","857","false","img/card_backs/set1/purple.gif","img/card_backs/set1/green.gif","img/card_backs/set1/red.gif","img/card_backs/set1/yellow.gif","img/card_backs/set2/orange.gif","img/card_backs/set2/gray.gif","img/card_backs/set2/blue.gif","img/card_backs/set2/pink.gif","""event"",""trial"",""time""
""fullscreenenter"",""1"",""5021""
","
","
","""event"",""trial"",""time""
""fullscreenenter"",""1"",""5021""
","
","","5378.784999949858","Now on the next screen, try pressing '4' to select the second deck.","52","","instructions","2021-04-10 14:48:35.506","","","","","",""
"card-selection-trial","19","120646","0.0-13.0-0.0","857","false","img/card_backs/set1/purple.gif","img/card_backs/set1/green.gif","img/card_backs/set1/red.gif","img/card_backs/set1/yellow.gif","img/card_backs/set2/orange.gif","img/card_backs/set2/gray.gif","img/card_backs/set2/blue.gif","img/card_backs/set2/pink.gif","""event"",""trial"",""time""
""fullscreenenter"",""1"",""5021""
","
","
","""event"",""trial"",""time""
""fullscreenenter"",""1"",""5021""
","
","","936.3700000103563","","","","practice_card_selection","2021-04-10 14:48:38.468","img/practice_cards/backs/brown.gif","1","-100","","",""
"casino-keyboard-response","20","125114","0.0-14.0-0.0","857","false","img/card_backs/set1/purple.gif","img/card_backs/set1/green.gif","img/card_backs/set1/red.gif","img/card_backs/set1/yellow.gif","img/card_backs/set2/orange.gif","img/card_backs/set2/gray.gif","img/card_backs/set2/blue.gif","img/card_backs/set2/pink.gif","""event"",""trial"",""time""
""fullscreenenter"",""1"",""5021""
","
","
","""event"",""trial"",""time""
""fullscreenenter"",""1"",""5021""
","
","","4466.325000161305","Finally, try pressing '8' to select the deck all the way on the right.","56","","instructions","2021-04-10 14:48:42.936","","","","","",""
"card-selection-trial","21","127909","0.0-15.0-0.0","857","false","img/card_backs/set1/purple.gif","img/card_backs/set1/green.gif","img/card_backs/set1/red.gif","img/card_backs/set1/yellow.gif","img/card_backs/set2/orange.gif","img/card_backs/set2/gray.gif","img/card_backs/set2/blue.gif","img/card_backs/set2/pink.gif","""event"",""trial"",""time""
""fullscreenenter"",""1"",""5021""
","
","
","""event"",""trial"",""time""
""fullscreenenter"",""1"",""5021""
","
","","765.3399999253452","","","","practice_card_selection","2021-04-10 14:48:45.731","img/practice_cards/backs/dark_blue.gif","3","200","","",""
"casino-keyboard-response","22","133293","0.0-16.0-0.0","857","false","img/card_backs/set1/purple.gif","img/card_backs/set1/green.gif","img/card_backs/set1/red.gif","img/card_backs/set1/yellow.gif","img/card_backs/set2/orange.gif","img/card_backs/set2/gray.gif","img/card_backs/set2/blue.gif","img/card_backs/set2/pink.gif","""event"",""trial"",""time""
""fullscreenenter"",""1"",""5021""
","
","
","""event"",""trial"",""time""
""fullscreenenter"",""1"",""5021""
","
","","5381.96500018239","Great! It seems like you are getting the hang of this.","80","","instructions","2021-04-10 14:48:51.115","","","","","",""
"casino-keyboard-response","23","140746","0.0-16.0-0.1","857","false","img/card_backs/set1/purple.gif","img/card_backs/set1/green.gif","img/card_backs/set1/red.gif","img/card_backs/set1/yellow.gif","img/card_backs/set2/orange.gif","img/card_backs/set2/gray.gif","img/card_backs/set2/blue.gif","img/card_backs/set2/pink.gif","""event"",""trial"",""time""
""fullscreenenter"",""1"",""5021""
","
","
","""event"",""trial"",""time""
""fullscreenenter"",""1"",""5021""
","
","","7450.284999795258","You may have noticed that some cards will cause you to <b> win </b> tokens while other cards will cause you to <b> lose </b>  tokens.","70","","instructions","2021-04-10 14:48:58.568","","","","","",""
"casino-keyboard-response","24","150205","0.0-16.0-0.2","857","false","img/card_backs/set1/purple.gif","img/card_backs/set1/green.gif","img/card_backs/set1/red.gif","img/card_backs/set1/yellow.gif","img/card_backs/set2/orange.gif","img/card_backs/set2/gray.gif","img/card_backs/set2/blue.gif","img/card_backs/set2/pink.gif","""event"",""trial"",""time""
""fullscreenenter"",""1"",""5021""
","
","
","""event"",""trial"",""time""
""fullscreenenter"",""1"",""5021""
","
","","9454.58500017412","Each deck has a mix of cards that will cause you to win and lose tokens. </br> However, the cards in each colored deck are different.","73","","instructions","2021-04-10 14:49:08.027","","","","","",""
"casino-keyboard-response","25","166135","0.0-16.0-0.3","857","false","img/card_backs/set1/purple.gif","img/card_backs/set1/green.gif","img/card_backs/set1/red.gif","img/card_backs/set1/yellow.gif","img/card_backs/set2/orange.gif","img/card_backs/set2/gray.gif","img/card_backs/set2/blue.gif","img/card_backs/set2/pink.gif","""event"",""trial"",""time""
""fullscreenenter"",""1"",""5021""
","
","
","""event"",""trial"",""time""
""fullscreenenter"",""1"",""5021""
","
","","15927.649999968708","Some colored decks are luckier than others. </br> If you choose the lucky decks, you will earn more tokens than if you choose the unlucky decks.","69","","instructions","2021-04-10 14:49:23.958","","","","","",""
"casino-keyboard-response","26","173706","0.0-16.0-0.4","857","false","img/card_backs/set1/purple.gif","img/card_backs/set1/green.gif","img/card_backs/set1/red.gif","img/card_backs/set1/yellow.gif","img/card_backs/set2/orange.gif","img/card_backs/set2/gray.gif","img/card_backs/set2/blue.gif","img/card_backs/set2/pink.gif","""event"",""trial"",""time""
""fullscreenenter"",""1"",""5021""
","
","
","""event"",""trial"",""time""
""fullscreenenter"",""1"",""5021""
","
","","7565.440000034869","You should try to figure out which decks are lucky. </br> Then, try to choose the lucky decks so you can win the most tokens.","87","","instructions","2021-04-10 14:49:31.528","","","","","",""
"casino-keyboard-response","27","185497","0.0-16.0-0.5","857","false","img/card_backs/set1/purple.gif","img/card_backs/set1/green.gif","img/card_backs/set1/red.gif","img/card_backs/set1/yellow.gif","img/card_backs/set2/orange.gif","img/card_backs/set2/gray.gif","img/card_backs/set2/blue.gif","img/card_backs/set2/pink.gif","""event"",""trial"",""time""
""fullscreenenter"",""1"",""5021""
","
","
","""event"",""trial"",""time""
""fullscreenenter"",""1"",""5021""
","
","","11787.449999945238","To make it trickier, the casino dealer will switch the locations of the decks on every turn. </br> The color of the deck determines how lucky it is. The location does not matter.","88","","instructions","2021-04-10 14:49:43.320","","","","","",""
"casino-keyboard-response","28","212596","0.0-16.0-0.6","857","false","img/card_backs/set1/purple.gif","img/card_backs/set1/green.gif","img/card_backs/set1/red.gif","img/card_backs/set1/yellow.gif","img/card_backs/set2/orange.gif","img/card_backs/set2/gray.gif","img/card_backs/set2/blue.gif","img/card_backs/set2/pink.gif","""event"",""trial"",""time""
""fullscreenenter"",""1"",""5021""
","
","
","""event"",""trial"",""time""
""fullscreenenter"",""1"",""5021""
","
","","27094.140000175685","The mix of cards in each colored deck will stay the same throughout the game. </br> That means that a deck that is lucky early on will stay lucky.","79","","instructions","2021-04-10 14:50:10.418","","","","","",""
"casino-keyboard-response","29","221547","0.0-16.0-0.7","857","false","img/card_backs/set1/purple.gif","img/card_backs/set1/green.gif","img/card_backs/set1/red.gif","img/card_backs/set1/yellow.gif","img/card_backs/set2/orange.gif","img/card_backs/set2/gray.gif","img/card_backs/set2/blue.gif","img/card_backs/set2/pink.gif","""event"",""trial"",""time""
""fullscreenenter"",""1"",""5021""
","
","
","""event"",""trial"",""time""
""fullscreenenter"",""1"",""5021""
","
","","8947.72500009276","Remember though, all the decks have a <b> mix </b> of both <b> good </b> and <b> bad </b> cards so it may take a couple of turns to figure out if a deck is lucky.","69","","instructions","2021-04-10 14:50:19.369","","","","","",""
"casino-keyboard-response","30","230262","0.0-16.0-0.8","857","false","img/card_backs/set1/purple.gif","img/card_backs/set1/green.gif","img/card_backs/set1/red.gif","img/card_backs/set1/yellow.gif","img/card_backs/set2/orange.gif","img/card_backs/set2/gray.gif","img/card_backs/set2/blue.gif","img/card_backs/set2/pink.gif","""event"",""trial"",""time""
""fullscreenenter"",""1"",""5021""
","
","
","""event"",""trial"",""time""
""fullscreenenter"",""1"",""5021""
","
","","8709.705000044778","At the end of the game, you will be paid bonus money based on how many tokens you win. </br> If you win more tokens, you will earn more money!","72","","instructions","2021-04-10 14:50:28.084","","","","","",""
"casino-keyboard-response","31","241109","0.0-16.0-0.9","857","false","img/card_backs/set1/purple.gif","img/card_backs/set1/green.gif","img/card_backs/set1/red.gif","img/card_backs/set1/yellow.gif","img/card_backs/set2/orange.gif","img/card_backs/set2/gray.gif","img/card_backs/set2/blue.gif","img/card_backs/set2/pink.gif","""event"",""trial"",""time""
""fullscreenenter"",""1"",""5021""
","
","
","""event"",""trial"",""time""
""fullscreenenter"",""1"",""5021""
","
","","10841.620000079274","You will never <b> lose </b> money. </br> If you end up with fewer than 0 tokens, you will earn $0 of bonus money, but you will still be paid for playing the game.","83","","instructions","2021-04-10 14:50:38.931","","","","","",""
"casino-keyboard-response","32","245509","0.0-16.0-0.10","857","false","img/card_backs/set1/purple.gif","img/card_backs/set1/green.gif","img/card_backs/set1/red.gif","img/card_backs/set1/yellow.gif","img/card_backs/set2/orange.gif","img/card_backs/set2/gray.gif","img/card_backs/set2/blue.gif","img/card_backs/set2/pink.gif","""event"",""trial"",""time""
""fullscreenenter"",""1"",""5021""
","
","
","""event"",""trial"",""time""
""fullscreenenter"",""1"",""5021""
","
","","4391.814999980852","You will have 10 seconds to make each choice.","82","","instructions","2021-04-10 14:50:43.331","","","","","",""
"casino-keyboard-response","33","253799","0.0-16.0-0.11","857","false","img/card_backs/set1/purple.gif","img/card_backs/set1/green.gif","img/card_backs/set1/red.gif","img/card_backs/set1/yellow.gif","img/card_backs/set2/orange.gif","img/card_backs/set2/gray.gif","img/card_backs/set2/blue.gif","img/card_backs/set2/pink.gif","""event"",""trial"",""time""
""fullscreenenter"",""1"",""5021""
","
","
","""event"",""trial"",""time""
""fullscreenenter"",""1"",""5021""
","
","","8286.599999992177","Before you play the game for real, you will play with practice decks. </br> The tokens you earn during practice won't count toward your total.","86","","instructions","2021-04-10 14:50:51.621","","","","","",""
"casino-keyboard-response","34","265916","0.0-16.0-0.12","857","false","img/card_backs/set1/purple.gif","img/card_backs/set1/green.gif","img/card_backs/set1/red.gif","img/card_backs/set1/yellow.gif","img/card_backs/set2/orange.gif","img/card_backs/set2/gray.gif","img/card_backs/set2/blue.gif","img/card_backs/set2/pink.gif","""event"",""trial"",""time""
""fullscreenenter"",""1"",""5021""
","
","
","""event"",""trial"",""time""
""fullscreenenter"",""1"",""5021""
","
","","12113.959999987856","Ready? Remember, use the '2', '4', '6', and '8' keys to select the decks. </br> Put your fingers on those keys now and then press '2' to begin.","50","","instructions","2021-04-10 14:51:03.738","","","","","",""
"casino-fixation","35","266426","0.0-17.0-0.0","857","false","img/card_backs/set1/purple.gif","img/card_backs/set1/green.gif","img/card_backs/set1/red.gif","img/card_backs/set1/yellow.gif","img/card_backs/set2/orange.gif","img/card_backs/set2/gray.gif","img/card_backs/set2/blue.gif","img/card_backs/set2/pink.gif","""event"",""trial"",""time""
""fullscreenenter"",""1"",""5021""
","
","
","""event"",""trial"",""time""
""fullscreenenter"",""1"",""5021""
","
","","null","","null","","fixation","2021-04-10 14:51:04.248","","","","","",""
"card-selection-trial","36","270614","0.0-17.0-1.0","857","false","img/card_backs/set1/purple.gif","img/card_backs/set1/green.gif","img/card_backs/set1/red.gif","img/card_backs/set1/yellow.gif","img/card_backs/set2/orange.gif","img/card_backs/set2/gray.gif","img/card_backs/set2/blue.gif","img/card_backs/set2/pink.gif","""event"",""trial"",""time""
""fullscreenenter"",""1"",""5021""
","
","
","""event"",""trial"",""time""
""fullscreenenter"",""1"",""5021""
","
","","2171.9200001098216","","","","practice","2021-04-10 14:51:08.436","img/practice_cards/backs/dark_green.gif","1","200","0","",""
"casino-fixation","37","271128","0.0-17.0-0.1","857","false","img/card_backs/set1/purple.gif","img/card_backs/set1/green.gif","img/card_backs/set1/red.gif","img/card_backs/set1/yellow.gif","img/card_backs/set2/orange.gif","img/card_backs/set2/gray.gif","img/card_backs/set2/blue.gif","img/card_backs/set2/pink.gif","""event"",""trial"",""time""
""fullscreenenter"",""1"",""5021""
","
","
","""event"",""trial"",""time""
""fullscreenenter"",""1"",""5021""
","
","","null","","null","","fixation","2021-04-10 14:51:08.950","","","","","",""
"card-selection-trial","38","275446","0.0-17.0-1.1","857","false","img/card_backs/set1/purple.gif","img/card_backs/set1/green.gif","img/card_backs/set1/red.gif","img/card_backs/set1/yellow.gif","img/card_backs/set2/orange.gif","img/card_backs/set2/gray.gif","img/card_backs/set2/blue.gif","img/card_backs/set2/pink.gif","""event"",""trial"",""time""
""fullscreenenter"",""1"",""5021""
","
","
","""event"",""trial"",""time""
""fullscreenenter"",""1"",""5021""
","
","","2291.990000056103","","","","practice","2021-04-10 14:51:13.268","img/practice_cards/backs/dark_blue.gif","2","-200","0","",""
"casino-fixation","39","275962","0.0-17.0-0.2","857","false","img/card_backs/set1/purple.gif","img/card_backs/set1/green.gif","img/card_backs/set1/red.gif","img/card_backs/set1/yellow.gif","img/card_backs/set2/orange.gif","img/card_backs/set2/gray.gif","img/card_backs/set2/blue.gif","img/card_backs/set2/pink.gif","""event"",""trial"",""time""
""fullscreenenter"",""1"",""5021""
","
","
","""event"",""trial"",""time""
""fullscreenenter"",""1"",""5021""
","
","","null","","null","","fixation","2021-04-10 14:51:13.784","","","","","",""
"card-selection-trial","40","280112","0.0-17.0-1.2","857","false","img/card_backs/set1/purple.gif","img/card_backs/set1/green.gif","img/card_backs/set1/red.gif","img/card_backs/set1/yellow.gif","img/card_backs/set2/orange.gif","img/card_backs/set2/gray.gif","img/card_backs/set2/blue.gif","img/card_backs/set2/pink.gif","""event"",""trial"",""time""
""fullscreenenter"",""1"",""5021""
","
","
","""event"",""trial"",""time""
""fullscreenenter"",""1"",""5021""
","
","","2128.054999979213","","","","practice","2021-04-10 14:51:17.934","img/practice_cards/backs/brown.gif","1","100","0","",""
"casino-fixation","41","280628","0.0-17.0-0.3","857","false","img/card_backs/set1/purple.gif","img/card_backs/set1/green.gif","img/card_backs/set1/red.gif","img/card_backs/set1/yellow.gif","img/card_backs/set2/orange.gif","img/card_backs/set2/gray.gif","img/card_backs/set2/blue.gif","img/card_backs/set2/pink.gif","""event"",""trial"",""time""
""fullscreenenter"",""1"",""5021""
","
","
","""event"",""trial"",""time""
""fullscreenenter"",""1"",""5021""
","
","","null","","null","","fixation","2021-04-10 14:51:18.451","","","","","",""
"card-selection-trial","42","284323","0.0-17.0-1.3","857","false","img/card_backs/set1/purple.gif","img/card_backs/set1/green.gif","img/card_backs/set1/red.gif","img/card_backs/set1/yellow.gif","img/card_backs/set2/orange.gif","img/card_backs/set2/gray.gif","img/card_backs/set2/blue.gif","img/card_backs/set2/pink.gif","""event"",""trial"",""time""
""fullscreenenter"",""1"",""5021""
","
","
","""event"",""trial"",""time""
""fullscreenenter"",""1"",""5021""
","
","","1671.4149999897927","","","","practice","2021-04-10 14:51:22.145","img/practice_cards/backs/dark_green.gif","0","200","0","",""
"casino-fixation","43","284835","0.0-17.0-0.4","857","false","img/card_backs/set1/purple.gif","img/card_backs/set1/green.gif","img/card_backs/set1/red.gif","img/card_backs/set1/yellow.gif","img/card_backs/set2/orange.gif","img/card_backs/set2/gray.gif","img/card_backs/set2/blue.gif","img/card_backs/set2/pink.gif","""event"",""trial"",""time""
""fullscreenenter"",""1"",""5021""
","
","
","""event"",""trial"",""time""
""fullscreenenter"",""1"",""5021""
","
","","null","","null","","fixation","2021-04-10 14:51:22.657","","","","","",""
"card-selection-trial","44","289387","0.0-17.0-1.4","857","false","img/card_backs/set1/purple.gif","img/card_backs/set1/green.gif","img/card_backs/set1/red.gif","img/card_backs/set1/yellow.gif","img/card_backs/set2/orange.gif","img/card_backs/set2/gray.gif","img/card_backs/set2/blue.gif","img/card_backs/set2/pink.gif","""event"",""trial"",""time""
""fullscreenenter"",""1"",""5021""
","
","
","""event"",""trial"",""time""
""fullscreenenter"",""1"",""5021""
","
","","2528.6250000353903","","","","practice","2021-04-10 14:51:27.209","img/practice_cards/backs/black.gif","2","-100","0","",""
"casino-fixation","45","289905","0.0-17.0-0.5","857","false","img/card_backs/set1/purple.gif","img/card_backs/set1/green.gif","img/card_backs/set1/red.gif","img/card_backs/set1/yellow.gif","img/card_backs/set2/orange.gif","img/card_backs/set2/gray.gif","img/card_backs/set2/blue.gif","img/card_backs/set2/pink.gif","""event"",""trial"",""time""
""fullscreenenter"",""1"",""5021""
","
","
","""event"",""trial"",""time""
""fullscreenenter"",""1"",""5021""
","
","","null","","null","","fixation","2021-04-10 14:51:27.727","","","","","",""
"card-selection-trial","46","293718","0.0-17.0-1.5","857","false","img/card_backs/set1/purple.gif","img/card_backs/set1/green.gif","img/card_backs/set1/red.gif","img/card_backs/set1/yellow.gif","img/card_backs/set2/orange.gif","img/card_backs/set2/gray.gif","img/card_backs/set2/blue.gif","img/card_backs/set2/pink.gif","""event"",""trial"",""time""
""fullscreenenter"",""1"",""5021""
","
","
","""event"",""trial"",""time""
""fullscreenenter"",""1"",""5021""
","
","","1801.065000006929","","","","practice","2021-04-10 14:51:31.540","img/practice_cards/backs/dark_green.gif","3","-200","0","",""
"casino-fixation","47","294233","0.0-17.0-0.6","857","false","img/card_backs/set1/purple.gif","img/card_backs/set1/green.gif","img/card_backs/set1/red.gif","img/card_backs/set1/yellow.gif","img/card_backs/set2/orange.gif","img/card_backs/set2/gray.gif","img/card_backs/set2/blue.gif","img/card_backs/set2/pink.gif","""event"",""trial"",""time""
""fullscreenenter"",""1"",""5021""
","
","
","""event"",""trial"",""time""
""fullscreenenter"",""1"",""5021""
","
","","null","","null","","fixation","2021-04-10 14:51:32.056","","","","","",""
"card-selection-trial","48","297643","0.0-17.0-1.6","857","false","img/card_backs/set1/purple.gif","img/card_backs/set1/green.gif","img/card_backs/set1/red.gif","img/card_backs/set1/yellow.gif","img/card_backs/set2/orange.gif","img/card_backs/set2/gray.gif","img/card_backs/set2/blue.gif","img/card_backs/set2/pink.gif","""event"",""trial"",""time""
""fullscreenenter"",""1"",""5021""
","
","
","""event"",""trial"",""time""
""fullscreenenter"",""1"",""5021""
","
","","1401.9450000487268","","","","practice","2021-04-10 14:51:35.465","img/practice_cards/backs/dark_green.gif","1","200","0","",""
"casino-fixation","49","298147","0.0-17.0-0.7","857","false","img/card_backs/set1/purple.gif","img/card_backs/set1/green.gif","img/card_backs/set1/red.gif","img/card_backs/set1/yellow.gif","img/card_backs/set2/orange.gif","img/card_backs/set2/gray.gif","img/card_backs/set2/blue.gif","img/card_backs/set2/pink.gif","""event"",""trial"",""time""
""fullscreenenter"",""1"",""5021""
","
","
","""event"",""trial"",""time""
""fullscreenenter"",""1"",""5021""
","
","","null","","null","","fixation","2021-04-10 14:51:35.969","","","","","",""
"card-selection-trial","50","301883","0.0-17.0-1.7","857","false","img/card_backs/set1/purple.gif","img/card_backs/set1/green.gif","img/card_backs/set1/red.gif","img/card_backs/set1/yellow.gif","img/card_backs/set2/orange.gif","img/card_backs/set2/gray.gif","img/card_backs/set2/blue.gif","img/card_backs/set2/pink.gif","""event"",""trial"",""time""
""fullscreenenter"",""1"",""5021""
","
","
","""event"",""trial"",""time""
""fullscreenenter"",""1"",""5021""
","
","","1722.3449999000877","","","","practice","2021-04-10 14:51:39.705","img/practice_cards/backs/dark_blue.gif","1","200","0","",""
"casino-fixation","51","302387","0.0-17.0-0.8","857","false","img/card_backs/set1/purple.gif","img/card_backs/set1/green.gif","img/card_backs/set1/red.gif","img/card_backs/set1/yellow.gif","img/card_backs/set2/orange.gif","img/card_backs/set2/gray.gif","img/card_backs/set2/blue.gif","img/card_backs/set2/pink.gif","""event"",""trial"",""time""
""fullscreenenter"",""1"",""5021""
","
","
","""event"",""trial"",""time""
""fullscreenenter"",""1"",""5021""
","
","","null","","null","","fixation","2021-04-10 14:51:40.209","","","","","",""
"card-selection-trial","52","305843","0.0-17.0-1.8","857","false","img/card_backs/set1/purple.gif","img/card_backs/set1/green.gif","img/card_backs/set1/red.gif","img/card_backs/set1/yellow.gif","img/card_backs/set2/orange.gif","img/card_backs/set2/gray.gif","img/card_backs/set2/blue.gif","img/card_backs/set2/pink.gif","""event"",""trial"",""time""
""fullscreenenter"",""1"",""5021""
","
","
","""event"",""trial"",""time""
""fullscreenenter"",""1"",""5021""
","
","","1440.859999973327","","","","practice","2021-04-10 14:51:43.665","img/practice_cards/backs/dark_blue.gif","1","200","0","",""
"casino-fixation","53","306346","0.0-17.0-0.9","857","false","img/card_backs/set1/purple.gif","img/card_backs/set1/green.gif","img/card_backs/set1/red.gif","img/card_backs/set1/yellow.gif","img/card_backs/set2/orange.gif","img/card_backs/set2/gray.gif","img/card_backs/set2/blue.gif","img/card_backs/set2/pink.gif","""event"",""trial"",""time""
""fullscreenenter"",""1"",""5021""
","
","
","""event"",""trial"",""time""
""fullscreenenter"",""1"",""5021""
","
","","null","","null","","fixation","2021-04-10 14:51:44.168","","","","","",""
"card-selection-trial","54","311132","0.0-17.0-1.9","857","false","img/card_backs/set1/purple.gif","img/card_backs/set1/green.gif","img/card_backs/set1/red.gif","img/card_backs/set1/yellow.gif","img/card_backs/set2/orange.gif","img/card_backs/set2/gray.gif","img/card_backs/set2/blue.gif","img/card_backs/set2/pink.gif","""event"",""trial"",""time""
""fullscreenenter"",""1"",""5021""
","
","
","""event"",""trial"",""time""
""fullscreenenter"",""1"",""5021""
","
","","2774.229999864474","","","","practice","2021-04-10 14:51:48.954","img/practice_cards/backs/black.gif","0","-100","0","",""
"casino-keyboard-response","55","314361","0.0-18.0","857","false","img/card_backs/set1/purple.gif","img/card_backs/set1/green.gif","img/card_backs/set1/red.gif","img/card_backs/set1/yellow.gif","img/card_backs/set2/orange.gif","img/card_backs/set2/gray.gif","img/card_backs/set2/blue.gif","img/card_backs/set2/pink.gif","""event"",""trial"",""time""
""fullscreenenter"",""1"",""5021""
","
","
","""event"",""trial"",""time""
""fullscreenenter"",""1"",""5021""
","
","","3226.0849999729544","You earned 500 tokens during the practice round!","82","","","2021-04-10 14:51:52.184","","","","","",""
"casino-keyboard-response","56","318830","0.0-19.0-0.0","857","false","img/card_backs/set1/purple.gif","img/card_backs/set1/green.gif","img/card_backs/set1/red.gif","img/card_backs/set1/yellow.gif","img/card_backs/set2/orange.gif","img/card_backs/set2/gray.gif","img/card_backs/set2/blue.gif","img/card_backs/set2/pink.gif","""event"",""trial"",""time""
""fullscreenenter"",""1"",""5021""
","
","
","""event"",""trial"",""time""
""fullscreenenter"",""1"",""5021""
","
","","4463.665000163019","Nice job! You are almost ready to play the real game.","86","","instructions","2021-04-10 14:51:56.652","","","","","",""
"casino-keyboard-response","57","326412","0.0-19.0-0.1","857","false","img/card_backs/set1/purple.gif","img/card_backs/set1/green.gif","img/card_backs/set1/red.gif","img/card_backs/set1/yellow.gif","img/card_backs/set2/orange.gif","img/card_backs/set2/gray.gif","img/card_backs/set2/blue.gif","img/card_backs/set2/pink.gif","""event"",""trial"",""time""
""fullscreenenter"",""1"",""5021""
","
","
","""event"",""trial"",""time""
""fullscreenenter"",""1"",""5021""
","
","","7578.560000052676","You will play two rounds of the real game. In each round, you will pick 100 cards in total.","73","","instructions","2021-04-10 14:52:04.234","","","","","",""
"casino-keyboard-response","58","331001","0.0-19.0-0.2","857","false","img/card_backs/set1/purple.gif","img/card_backs/set1/green.gif","img/card_backs/set1/red.gif","img/card_backs/set1/yellow.gif","img/card_backs/set2/orange.gif","img/card_backs/set2/gray.gif","img/card_backs/set2/blue.gif","img/card_backs/set2/pink.gif","""event"",""trial"",""time""
""fullscreenenter"",""1"",""5021""
","
","
","""event"",""trial"",""time""
""fullscreenenter"",""1"",""5021""
","
","","4584.550000028685","We are now going to ask you some questions about how the game works.","66","","instructions","2021-04-10 14:52:08.823","","","","","",""
"casino-keyboard-response","59","337283","0.0-19.0-0.3","857","false","img/card_backs/set1/purple.gif","img/card_backs/set1/green.gif","img/card_backs/set1/red.gif","img/card_backs/set1/yellow.gif","img/card_backs/set2/orange.gif","img/card_backs/set2/gray.gif","img/card_backs/set2/blue.gif","img/card_backs/set2/pink.gif","""event"",""trial"",""time""
""fullscreenenter"",""1"",""5021""
","
","
","""event"",""trial"",""time""
""fullscreenenter"",""1"",""5021""
","
","","6278.669999912381","Answer carefully. You will not be able to begin the game until you answer them correctly.","67","","instructions","2021-04-10 14:52:15.106","","","","","",""
"casino-comp_q","60","345060","0.0-20.0-0.0","857","false","img/card_backs/set1/purple.gif","img/card_backs/set1/green.gif","img/card_backs/set1/red.gif","img/card_backs/set1/yellow.gif","img/card_backs/set2/orange.gif","img/card_backs/set2/gray.gif","img/card_backs/set2/blue.gif","img/card_backs/set2/pink.gif","""event"",""trial"",""time""
""fullscreenenter"",""1"",""5021""
","
","
","""event"",""trial"",""time""
""fullscreenenter"",""1"",""5021""
","
","","7770.66499995999","True or False: All the decks have some cards that cause you to win tokens and some cards that cause you to lose tokens.","84","","","2021-04-10 14:52:22.883","","","","","",""
"casino-keyboard-response","61","350101","0.0-20.0-1.0","857","false","img/card_backs/set1/purple.gif","img/card_backs/set1/green.gif","img/card_backs/set1/red.gif","img/card_backs/set1/yellow.gif","img/card_backs/set2/orange.gif","img/card_backs/set2/gray.gif","img/card_backs/set2/blue.gif","img/card_backs/set2/pink.gif","""event"",""trial"",""time""
""fullscreenenter"",""1"",""5021""
","
","
","""event"",""trial"",""time""
""fullscreenenter"",""1"",""5021""
","
","","5037.6550001092255","True is correct! All the decks have a mix of winning and losing cards.","77","","","2021-04-10 14:52:27.924","","","","","true",""
"casino-comp_q","62","354980","0.0-21.0-0.0","857","false","img/card_backs/set1/purple.gif","img/card_backs/set1/green.gif","img/card_backs/set1/red.gif","img/card_backs/set1/yellow.gif","img/card_backs/set2/orange.gif","img/card_backs/set2/gray.gif","img/card_backs/set2/blue.gif","img/card_backs/set2/pink.gif","""event"",""trial"",""time""
""fullscreenenter"",""1"",""5021""
","
","
","""event"",""trial"",""time""
""fullscreenenter"",""1"",""5021""
","
","","4862.394999945536","True or False: You will have as much time as you want to make your response.","70","","","2021-04-10 14:52:32.802","","","","","",""
"casino-keyboard-response","63","359729","0.0-21.0-1.0","857","false","img/card_backs/set1/purple.gif","img/card_backs/set1/green.gif","img/card_backs/set1/red.gif","img/card_backs/set1/yellow.gif","img/card_backs/set2/orange.gif","img/card_backs/set2/gray.gif","img/card_backs/set2/blue.gif","img/card_backs/set2/pink.gif","""event"",""trial"",""time""
""fullscreenenter"",""1"",""5021""
","
","
","""event"",""trial"",""time""
""fullscreenenter"",""1"",""5021""
","
","","4746.894999872893","False is correct! You will only have 10 seconds to make each choice.","75","","","2021-04-10 14:52:37.551","","","","","true",""
"casino-comp_q","64","366612","0.0-22.0-0.0","857","false","img/card_backs/set1/purple.gif","img/card_backs/set1/green.gif","img/card_backs/set1/red.gif","img/card_backs/set1/yellow.gif","img/card_backs/set2/orange.gif","img/card_backs/set2/gray.gif","img/card_backs/set2/blue.gif","img/card_backs/set2/pink.gif","""event"",""trial"",""time""
""fullscreenenter"",""1"",""5021""
","
","
","""event"",""trial"",""time""
""fullscreenenter"",""1"",""5021""
","
","","6879.244999960065","True or False: The location of the deck determines how lucky it is.","70","","","2021-04-10 14:52:44.434","","","","","",""
"casino-keyboard-response","65","373101","0.0-22.0-1.0","857","false","img/card_backs/set1/purple.gif","img/card_backs/set1/green.gif","img/card_backs/set1/red.gif","img/card_backs/set1/yellow.gif","img/card_backs/set2/orange.gif","img/card_backs/set2/gray.gif","img/card_backs/set2/blue.gif","img/card_backs/set2/pink.gif","""event"",""trial"",""time""
""fullscreenenter"",""1"",""5021""
","
","
","""event"",""trial"",""time""
""fullscreenenter"",""1"",""5021""
","
","","6485.014999983832","False is correct! The <i>color</i>  of the deck determines how lucky or unlucky it is.","68","","","2021-04-10 14:52:50.924","","","","","true",""
"casino-keyboard-response","66","377452","0.0-23.0-0.0","857","false","img/card_backs/set1/purple.gif","img/card_backs/set1/green.gif","img/card_backs/set1/red.gif","img/card_backs/set1/yellow.gif","img/card_backs/set2/orange.gif","img/card_backs/set2/gray.gif","img/card_backs/set2/blue.gif","img/card_backs/set2/pink.gif","""event"",""trial"",""time""
""fullscreenenter"",""1"",""5021""
","
","
","""event"",""trial"",""time""
""fullscreenenter"",""1"",""5021""
","
","","4346.234999829903","Great job! Now it's time to start the real game.","82","","instructions","2021-04-10 14:52:55.275","","","","","",""
"casino-keyboard-response","67","382553","0.0-23.0-0.1","857","false","img/card_backs/set1/purple.gif","img/card_backs/set1/green.gif","img/card_backs/set1/red.gif","img/card_backs/set1/yellow.gif","img/card_backs/set2/orange.gif","img/card_backs/set2/gray.gif","img/card_backs/set2/blue.gif","img/card_backs/set2/pink.gif","""event"",""trial"",""time""
""fullscreenenter"",""1"",""5021""
","
","
","""event"",""trial"",""time""
""fullscreenenter"",""1"",""5021""
","
","","5096.235000062734","Before we start, we're going to head into a new room of the casino.","86","","instructions","2021-04-10 14:53:00.375","","","","","",""
"casino-keyboard-response","68","388660","0.0-24.0-0.0","857","false","img/card_backs/set1/purple.gif","img/card_backs/set1/green.gif","img/card_backs/set1/red.gif","img/card_backs/set1/yellow.gif","img/card_backs/set2/orange.gif","img/card_backs/set2/gray.gif","img/card_backs/set2/blue.gif","img/card_backs/set2/pink.gif","""event"",""trial"",""time""
""fullscreenenter"",""1"",""5021""
","
","
","""event"",""trial"",""time""
""fullscreenenter"",""1"",""5021""
","
","","6103.119999868795","Here we are! The real game will use different cards, but the rules will be the same.","71","","instructions","2021-04-10 14:53:06.482","","","","","",""
"casino-keyboard-response","69","397825","0.0-24.0-0.1","857","false","img/card_backs/set1/purple.gif","img/card_backs/set1/green.gif","img/card_backs/set1/red.gif","img/card_backs/set1/yellow.gif","img/card_backs/set2/orange.gif","img/card_backs/set2/gray.gif","img/card_backs/set2/blue.gif","img/card_backs/set2/pink.gif","""event"",""trial"",""time""
""fullscreenenter"",""1"",""5021""
","
","
","""event"",""trial"",""time""
""fullscreenenter"",""1"",""5021""
","
","","9162.840000120923","Ready? Put your fingers over the '2', '4', 6', and '8' keys so you are ready to play the game. </br> Then press 2 to start.","50","","instructions","2021-04-10 14:53:15.648","","","","","",""
"casino-fixation","70","398332","0.0-25.0-0.0","857","false","img/card_backs/set1/purple.gif","img/card_backs/set1/green.gif","img/card_backs/set1/red.gif","img/card_backs/set1/yellow.gif","img/card_backs/set2/orange.gif","img/card_backs/set2/gray.gif","img/card_backs/set2/blue.gif","img/card_backs/set2/pink.gif","""event"",""trial"",""time""
""fullscreenenter"",""1"",""5021""
","
","
","""event"",""trial"",""time""
""fullscreenenter"",""1"",""5021""
","
","","null","","null","","fixation","2021-04-10 14:53:16.154","","","","","",""
"card-selection-trial","71","402039","0.0-25.0-1.0","857","false","img/card_backs/set1/purple.gif","img/card_backs/set1/green.gif","img/card_backs/set1/red.gif","img/card_backs/set1/yellow.gif","img/card_backs/set2/orange.gif","img/card_backs/set2/gray.gif","img/card_backs/set2/blue.gif","img/card_backs/set2/pink.gif","""event"",""trial"",""time""
""fullscreenenter"",""1"",""5021""
","
","
","""event"",""trial"",""time""
""fullscreenenter"",""1"",""5021""
","
","","1677.434999961406","","","","real_trial","2021-04-10 14:53:19.861","img/card_backs/set1/yellow.gif","0","-70","1","",""
"casino-fixation","72","402557","0.0-25.0-0.1","857","false","img/card_backs/set1/purple.gif","img/card_backs/set1/green.gif","img/card_backs/set1/red.gif","img/card_backs/set1/yellow.gif","img/card_backs/set2/orange.gif","img/card_backs/set2/gray.gif","img/card_backs/set2/blue.gif","img/card_backs/set2/pink.gif","""event"",""trial"",""time""
""fullscreenenter"",""1"",""5021""
","
","
","""event"",""trial"",""time""
""fullscreenenter"",""1"",""5021""
","
","","null","","null","","fixation","2021-04-10 14:53:20.379","","","","","",""
"card-selection-trial","73","406751","0.0-25.0-1.1","857","false","img/card_backs/set1/purple.gif","img/card_backs/set1/green.gif","img/card_backs/set1/red.gif","img/card_backs/set1/yellow.gif","img/card_backs/set2/orange.gif","img/card_backs/set2/gray.gif","img/card_backs/set2/blue.gif","img/card_backs/set2/pink.gif","""event"",""trial"",""time""
""fullscreenenter"",""1"",""5021""
","
","
","""event"",""trial"",""time""
""fullscreenenter"",""1"",""5021""
","
","","2172.0050000585616","","","","real_trial","2021-04-10 14:53:24.573","img/card_backs/set1/green.gif","0","190","1","",""
"casino-fixation","74","407266","0.0-25.0-0.2","857","false","img/card_backs/set1/purple.gif","img/card_backs/set1/green.gif","img/card_backs/set1/red.gif","img/card_backs/set1/yellow.gif","img/card_backs/set2/orange.gif","img/card_backs/set2/gray.gif","img/card_backs/set2/blue.gif","img/card_backs/set2/pink.gif","""event"",""trial"",""time""
""fullscreenenter"",""1"",""5021""
","
","
","""event"",""trial"",""time""
""fullscreenenter"",""1"",""5021""
","
","","null","","null","","fixation","2021-04-10 14:53:25.088","","","","","",""
"card-selection-trial","75","411816","0.0-25.0-1.2","857","false","img/card_backs/set1/purple.gif","img/card_backs/set1/green.gif","img/card_backs/set1/red.gif","img/card_backs/set1/yellow.gif","img/card_backs/set2/orange.gif","img/card_backs/set2/gray.gif","img/card_backs/set2/blue.gif","img/card_backs/set2/pink.gif","""event"",""trial"",""time""
""fullscreenenter"",""1"",""5021""
","
","
","""event"",""trial"",""time""
""fullscreenenter"",""1"",""5021""
","
","","2537.620000075549","","","","real_trial","2021-04-10 14:53:29.638","img/card_backs/set1/green.gif","3","200","1","",""
"casino-fixation","76","412317","0.0-25.0-0.3","857","false","img/card_backs/set1/purple.gif","img/card_backs/set1/green.gif","img/card_backs/set1/red.gif","img/card_backs/set1/yellow.gif","img/card_backs/set2/orange.gif","img/card_backs/set2/gray.gif","img/card_backs/set2/blue.gif","img/card_backs/set2/pink.gif","""event"",""trial"",""time""
""fullscreenenter"",""1"",""5021""
","
","
","""event"",""trial"",""time""
""fullscreenenter"",""1"",""5021""
","
","","null","","null","","fixation","2021-04-10 14:53:30.140","","","","","",""
"card-selection-trial","77","415508","0.0-25.0-1.3","857","false","img/card_backs/set1/purple.gif","img/card_backs/set1/green.gif","img/card_backs/set1/red.gif","img/card_backs/set1/yellow.gif","img/card_backs/set2/orange.gif","img/card_backs/set2/gray.gif","img/card_backs/set2/blue.gif","img/card_backs/set2/pink.gif","""event"",""trial"",""time""
""fullscreenenter"",""1"",""5021""
","
","
","""event"",""trial"",""time""
""fullscreenenter"",""1"",""5021""
","
","","1164.6449998952448","","","","real_trial","2021-04-10 14:53:33.330","img/card_backs/set1/green.gif","2","-240","1","",""
"casino-fixation","78","416022","0.0-25.0-0.4","857","false","img/card_backs/set1/purple.gif","img/card_backs/set1/green.gif","img/card_backs/set1/red.gif","img/card_backs/set1/yellow.gif","img/card_backs/set2/orange.gif","img/card_backs/set2/gray.gif","img/card_backs/set2/blue.gif","img/card_backs/set2/pink.gif","""event"",""trial"",""time""
""fullscreenenter"",""1"",""5021""
","
","
","""event"",""trial"",""time""
""fullscreenenter"",""1"",""5021""
","
","","null","","null","","fixation","2021-04-10 14:53:33.844","","","","","",""
"card-selection-trial","79","419388","0.0-25.0-1.4","857","false","img/card_backs/set1/purple.gif","img/card_backs/set1/green.gif","img/card_backs/set1/red.gif","img/card_backs/set1/yellow.gif","img/card_backs/set2/orange.gif","img/card_backs/set2/gray.gif","img/card_backs/set2/blue.gif","img/card_backs/set2/pink.gif","""event"",""trial"",""time""
""fullscreenenter"",""1"",""5021""
","
","
","""event"",""trial"",""time""
""fullscreenenter"",""1"",""5021""
","
","","1351.310000056401","","","","real_trial","2021-04-10 14:53:37.210","img/card_backs/set1/purple.gif","1","-230","1","",""
"casino-fixation","80","419900","0.0-25.0-0.5","857","false","img/card_backs/set1/purple.gif","img/card_backs/set1/green.gif","img/card_backs/set1/red.gif","img/card_backs/set1/yellow.gif","img/card_backs/set2/orange.gif","img/card_backs/set2/gray.gif","img/card_backs/set2/blue.gif","img/card_backs/set2/pink.gif","""event"",""trial"",""time""
""fullscreenenter"",""1"",""5021""
","
","
","""event"",""trial"",""time""
""fullscreenenter"",""1"",""5021""
","
","","null","","null","","fixation","2021-04-10 14:53:37.723","","","","","",""
"card-selection-trial","81","424229","0.0-25.0-1.5","857","false","img/card_backs/set1/purple.gif","img/card_backs/set1/green.gif","img/card_backs/set1/red.gif","img/card_backs/set1/yellow.gif","img/card_backs/set2/orange.gif","img/card_backs/set2/gray.gif","img/card_backs/set2/blue.gif","img/card_backs/set2/pink.gif","""event"",""trial"",""time""
""fullscreenenter"",""1"",""5021""
","
","
","""event"",""trial"",""time""
""fullscreenenter"",""1"",""5021""
","
","","2313.059999840334","","","","real_trial","2021-04-10 14:53:42.052","img/card_backs/set1/yellow.gif","0","100","1","",""
"casino-fixation","82","424745","0.0-25.0-0.6","857","false","img/card_backs/set1/purple.gif","img/card_backs/set1/green.gif","img/card_backs/set1/red.gif","img/card_backs/set1/yellow.gif","img/card_backs/set2/orange.gif","img/card_backs/set2/gray.gif","img/card_backs/set2/blue.gif","img/card_backs/set2/pink.gif","""event"",""trial"",""time""
""fullscreenenter"",""1"",""5021""
","
","
","""event"",""trial"",""time""
""fullscreenenter"",""1"",""5021""
","
","","null","","null","","fixation","2021-04-10 14:53:42.567","","","","","",""
"card-selection-trial","83","427895","0.0-25.0-1.6","857","false","img/card_backs/set1/purple.gif","img/card_backs/set1/green.gif","img/card_backs/set1/red.gif","img/card_backs/set1/yellow.gif","img/card_backs/set2/orange.gif","img/card_backs/set2/gray.gif","img/card_backs/set2/blue.gif","img/card_backs/set2/pink.gif","""event"",""trial"",""time""
""fullscreenenter"",""1"",""5021""
","
","
","""event"",""trial"",""time""
""fullscreenenter"",""1"",""5021""
","
","","1141.1000001244247","","","","real_trial","2021-04-10 14:53:45.717","img/card_backs/set1/red.gif","2","110","1","",""
"casino-fixation","84","428398","0.0-25.0-0.7","857","false","img/card_backs/set1/purple.gif","img/card_backs/set1/green.gif","img/card_backs/set1/red.gif","img/card_backs/set1/yellow.gif","img/card_backs/set2/orange.gif","img/card_backs/set2/gray.gif","img/card_backs/set2/blue.gif","img/card_backs/set2/pink.gif","""event"",""trial"",""time""
""fullscreenenter"",""1"",""5021""
","
","
","""event"",""trial"",""time""
""fullscreenenter"",""1"",""5021""
","
","","null","","null","","fixation","2021-04-10 14:53:46.220","","","","","",""
"card-selection-trial","85","431924","0.0-25.0-1.7","857","false","img/card_backs/set1/purple.gif","img/card_backs/set1/green.gif","img/card_backs/set1/red.gif","img/card_backs/set1/yellow.gif","img/card_backs/set2/orange.gif","img/card_backs/set2/gray.gif","img/card_backs/set2/blue.gif","img/card_backs/set2/pink.gif","""event"",""trial"",""time""
""fullscreenenter"",""1"",""5021""
","
","
","""event"",""trial"",""time""
""fullscreenenter"",""1"",""5021""
","
","","1510.0300000049174","","","","real_trial","2021-04-10 14:53:49.747","img/card_backs/set1/red.gif","1","100","1","",""
"casino-fixation","86","432430","0.0-25.0-0.8","857","false","img/card_backs/set1/purple.gif","img/card_backs/set1/green.gif","img/card_backs/set1/red.gif","img/card_backs/set1/yellow.gif","img/card_backs/set2/orange.gif","img/card_backs/set2/gray.gif","img/card_backs/set2/blue.gif","img/card_backs/set2/pink.gif","""event"",""trial"",""time""
""fullscreenenter"",""1"",""5021""
","
","
","""event"",""trial"",""time""
""fullscreenenter"",""1"",""5021""
","
","","null","","null","","fixation","2021-04-10 14:53:50.252","","","","","",""
"card-selection-trial","87","437377","0.0-25.0-1.8","857","false","img/card_backs/set1/purple.gif","img/card_backs/set1/green.gif","img/card_backs/set1/red.gif","img/card_backs/set1/yellow.gif","img/card_backs/set2/orange.gif","img/card_backs/set2/gray.gif","img/card_backs/set2/blue.gif","img/card_backs/set2/pink.gif","""event"",""trial"",""time""
""fullscreenenter"",""1"",""5021""
","
","
","""event"",""trial"",""time""
""fullscreenenter"",""1"",""5021""
","
","","2934.385000029579","","","","real_trial","2021-04-10 14:53:55.199","img/card_backs/set1/yellow.gif","3","-50","1","",""
"casino-fixation","88","437881","0.0-25.0-0.9","857","false","img/card_backs/set1/purple.gif","img/card_backs/set1/green.gif","img/card_backs/set1/red.gif","img/card_backs/set1/yellow.gif","img/card_backs/set2/orange.gif","img/card_backs/set2/gray.gif","img/card_backs/set2/blue.gif","img/card_backs/set2/pink.gif","""event"",""trial"",""time""
""fullscreenenter"",""1"",""5021""
","
","
","""event"",""trial"",""time""
""fullscreenenter"",""1"",""5021""
","
","","null","","null","","fixation","2021-04-10 14:53:55.703","","","","","",""
"card-selection-trial","89","442525","0.0-25.0-1.9","857","false","img/card_backs/set1/purple.gif","img/card_backs/set1/green.gif","img/card_backs/set1/red.gif","img/card_backs/set1/yellow.gif","img/card_backs/set2/orange.gif","img/card_backs/set2/gray.gif","img/card_backs/set2/blue.gif","img/card_backs/set2/pink.gif","""event"",""trial"",""time""
""fullscreenenter"",""1"",""5021""
","
","
","""event"",""trial"",""time""
""fullscreenenter"",""1"",""5021""
","
","","2638.7750001158565","","","","real_trial","2021-04-10 14:54:00.347","img/card_backs/set1/yellow.gif","1","110","1","",""
"casino-fixation","90","443043","0.0-25.0-0.10","857","false","img/card_backs/set1/purple.gif","img/card_backs/set1/green.gif","img/card_backs/set1/red.gif","img/card_backs/set1/yellow.gif","img/card_backs/set2/orange.gif","img/card_backs/set2/gray.gif","img/card_backs/set2/blue.gif","img/card_backs/set2/pink.gif","""event"",""trial"",""time""
""fullscreenenter"",""1"",""5021""
","
","
","""event"",""trial"",""time""
""fullscreenenter"",""1"",""5021""
","
","","null","","null","","fixation","2021-04-10 14:54:00.865","","","","","",""
"card-selection-trial","91","445965","0.0-25.0-1.10","857","false","img/card_backs/set1/purple.gif","img/card_backs/set1/green.gif","img/card_backs/set1/red.gif","img/card_backs/set1/yellow.gif","img/card_backs/set2/orange.gif","img/card_backs/set2/gray.gif","img/card_backs/set2/blue.gif","img/card_backs/set2/pink.gif","""event"",""trial"",""time""
""fullscreenenter"",""1"",""5021""
","
","
","""event"",""trial"",""time""
""fullscreenenter"",""1"",""5021""
","
","","909.334999974817","","","","real_trial","2021-04-10 14:54:03.787","img/card_backs/set1/green.gif","3","180","1","",""
"casino-fixation","92","446467","0.0-25.0-0.11","857","false","img/card_backs/set1/purple.gif","img/card_backs/set1/green.gif","img/card_backs/set1/red.gif","img/card_backs/set1/yellow.gif","img/card_backs/set2/orange.gif","img/card_backs/set2/gray.gif","img/card_backs/set2/blue.gif","img/card_backs/set2/pink.gif","""event"",""trial"",""time""
""fullscreenenter"",""1"",""5021""
","
","
","""event"",""trial"",""time""
""fullscreenenter"",""1"",""5021""
","
","","null","","null","","fixation","2021-04-10 14:54:04.289","","","","","",""
"card-selection-trial","93","451934","0.0-25.0-1.11","857","false","img/card_backs/set1/purple.gif","img/card_backs/set1/green.gif","img/card_backs/set1/red.gif","img/card_backs/set1/yellow.gif","img/card_backs/set2/orange.gif","img/card_backs/set2/gray.gif","img/card_backs/set2/blue.gif","img/card_backs/set2/pink.gif","""event"",""trial"",""time""
""fullscreenenter"",""1"",""5021""
","
","
","""event"",""trial"",""time""
""fullscreenenter"",""1"",""5021""
","
","","3455.494999885559","","","","real_trial","2021-04-10 14:54:09.756","img/card_backs/set1/red.gif","1","-50","1","",""
"casino-fixation","94","452439","0.0-25.0-0.12","857","false","img/card_backs/set1/purple.gif","img/card_backs/set1/green.gif","img/card_backs/set1/red.gif","img/card_backs/set1/yellow.gif","img/card_backs/set2/orange.gif","img/card_backs/set2/gray.gif","img/card_backs/set2/blue.gif","img/card_backs/set2/pink.gif","""event"",""trial"",""time""
""fullscreenenter"",""1"",""5021""
","
","
","""event"",""trial"",""time""
""fullscreenenter"",""1"",""5021""
","
","","null","","null","","fixation","2021-04-10 14:54:10.261","","","","","",""
"card-selection-trial","95","456865","0.0-25.0-1.12","857","false","img/card_backs/set1/purple.gif","img/card_backs/set1/green.gif","img/card_backs/set1/red.gif","img/card_backs/set1/yellow.gif","img/card_backs/set2/orange.gif","img/card_backs/set2/gray.gif","img/card_backs/set2/blue.gif","img/card_backs/set2/pink.gif","""event"",""trial"",""time""
""fullscreenenter"",""1"",""5021""
","
","
","""event"",""trial"",""time""
""fullscreenenter"",""1"",""5021""
","
","","2414.8000001441687","","","","real_trial","2021-04-10 14:54:14.687","img/card_backs/set1/green.gif","0","190","1","",""
"casino-fixation","96","457369","0.0-25.0-0.13","857","false","img/card_backs/set1/purple.gif","img/card_backs/set1/green.gif","img/card_backs/set1/red.gif","img/card_backs/set1/yellow.gif","img/card_backs/set2/orange.gif","img/card_backs/set2/gray.gif","img/card_backs/set2/blue.gif","img/card_backs/set2/pink.gif","""event"",""trial"",""time""
""fullscreenenter"",""1"",""5021""
","
","
","""event"",""trial"",""time""
""fullscreenenter"",""1"",""5021""
","
","","null","","null","","fixation","2021-04-10 14:54:15.191","","","","","",""
"card-selection-trial","97","461874","0.0-25.0-1.13","857","false","img/card_backs/set1/purple.gif","img/card_backs/set1/green.gif","img/card_backs/set1/red.gif","img/card_backs/set1/yellow.gif","img/card_backs/set2/orange.gif","img/card_backs/set2/gray.gif","img/card_backs/set2/blue.gif","img/card_backs/set2/pink.gif","""event"",""trial"",""time""
""fullscreenenter"",""1"",""5021""
","
","
","""event"",""trial"",""time""
""fullscreenenter"",""1"",""5021""
","
","","2492.5299999304116","","","","real_trial","2021-04-10 14:54:19.696","img/card_backs/set1/yellow.gif","2","-50","1","",""
"casino-fixation","98","462377","0.0-25.0-0.14","857","false","img/card_backs/set1/purple.gif","img/card_backs/set1/green.gif","img/card_backs/set1/red.gif","img/card_backs/set1/yellow.gif","img/card_backs/set2/orange.gif","img/card_backs/set2/gray.gif","img/card_backs/set2/blue.gif","img/card_backs/set2/pink.gif","""event"",""trial"",""time""
""fullscreenenter"",""1"",""5021""
","
","
","""event"",""trial"",""time""
""fullscreenenter"",""1"",""5021""
","
","","null","","null","","fixation","2021-04-10 14:54:20.200","","","","","",""
"card-selection-trial","99","467124","0.0-25.0-1.14","857","false","img/card_backs/set1/purple.gif","img/card_backs/set1/green.gif","img/card_backs/set1/red.gif","img/card_backs/set1/yellow.gif","img/card_backs/set2/orange.gif","img/card_backs/set2/gray.gif","img/card_backs/set2/blue.gif","img/card_backs/set2/pink.gif","""event"",""trial"",""time""
""fullscreenenter"",""1"",""5021""
","
","
","""event"",""trial"",""time""
""fullscreenenter"",""1"",""5021""
","
","","2736.2000001594424","","","","real_trial","2021-04-10 14:54:24.947","img/card_backs/set1/green.gif","0","-230","1","",""
"casino-fixation","100","467629","0.0-25.0-0.15","857","false","img/card_backs/set1/purple.gif","img/card_backs/set1/green.gif","img/card_backs/set1/red.gif","img/card_backs/set1/yellow.gif","img/card_backs/set2/orange.gif","img/card_backs/set2/gray.gif","img/card_backs/set2/blue.gif","img/card_backs/set2/pink.gif","""event"",""trial"",""time""
""fullscreenenter"",""1"",""5021""
","
","
","""event"",""trial"",""time""
""fullscreenenter"",""1"",""5021""
","
","","null","","null","","fixation","2021-04-10 14:54:25.452","","","","","",""
"card-selection-trial","101","471744","0.0-25.0-1.15","857","false","img/card_backs/set1/purple.gif","img/card_backs/set1/green.gif","img/card_backs/set1/red.gif","img/card_backs/set1/yellow.gif","img/card_backs/set2/orange.gif","img/card_backs/set2/gray.gif","img/card_backs/set2/blue.gif","img/card_backs/set2/pink.gif","""event"",""trial"",""time""
""fullscreenenter"",""1"",""5021""
","
","
","""event"",""trial"",""time""
""fullscreenenter"",""1"",""5021""
","
","","2105.005000019446","","","","real_trial","2021-04-10 14:54:29.566","img/card_backs/set1/yellow.gif","0","-60","1","",""
"casino-fixation","102","472247","0.0-25.0-0.16","857","false","img/card_backs/set1/purple.gif","img/card_backs/set1/green.gif","img/card_backs/set1/red.gif","img/card_backs/set1/yellow.gif","img/card_backs/set2/orange.gif","img/card_backs/set2/gray.gif","img/card_backs/set2/blue.gif","img/card_backs/set2/pink.gif","""event"",""trial"",""time""
""fullscreenenter"",""1"",""5021""
","
","
","""event"",""trial"",""time""
""fullscreenenter"",""1"",""5021""
","
","","null","","null","","fixation","2021-04-10 14:54:30.069","","","","","",""
"card-selection-trial","103","475866","0.0-25.0-1.16","857","false","img/card_backs/set1/purple.gif","img/card_backs/set1/green.gif","img/card_backs/set1/red.gif","img/card_backs/set1/yellow.gif","img/card_backs/set2/orange.gif","img/card_backs/set2/gray.gif","img/card_backs/set2/blue.gif","img/card_backs/set2/pink.gif","""event"",""trial"",""time""
""fullscreenenter"",""1"",""5021""
","
","
","""event"",""trial"",""time""
""fullscreenenter"",""1"",""5021""
","
","","1612.1749999001622","","","","real_trial","2021-04-10 14:54:33.688","img/card_backs/set1/red.gif","0","110","1","",""
"casino-fixation","104","476371","0.0-25.0-0.17","857","false","img/card_backs/set1/purple.gif","img/card_backs/set1/green.gif","img/card_backs/set1/red.gif","img/card_backs/set1/yellow.gif","img/card_backs/set2/orange.gif","img/card_backs/set2/gray.gif","img/card_backs/set2/blue.gif","img/card_backs/set2/pink.gif","""event"",""trial"",""time""
""fullscreenenter"",""1"",""5021""
","
","
","""event"",""trial"",""time""
""fullscreenenter"",""1"",""5021""
","
","","null","","null","","fixation","2021-04-10 14:54:34.194","","","","","",""
"card-selection-trial","105","480271","0.0-25.0-1.17","857","false","img/card_backs/set1/purple.gif","img/card_backs/set1/green.gif","img/card_backs/set1/red.gif","img/card_backs/set1/yellow.gif","img/card_backs/set2/orange.gif","img/card_backs/set2/gray.gif","img/card_backs/set2/blue.gif","img/card_backs/set2/pink.gif","""event"",""trial"",""time""
""fullscreenenter"",""1"",""5021""
","
","
","""event"",""trial"",""time""
""fullscreenenter"",""1"",""5021""
","
","","1886.6449999623","","","","real_trial","2021-04-10 14:54:38.093","img/card_backs/set1/purple.gif","1","-230","1","",""
"casino-fixation","106","480775","0.0-25.0-0.18","857","false","img/card_backs/set1/purple.gif","img/card_backs/set1/green.gif","img/card_backs/set1/red.gif","img/card_backs/set1/yellow.gif","img/card_backs/set2/orange.gif","img/card_backs/set2/gray.gif","img/card_backs/set2/blue.gif","img/card_backs/set2/pink.gif","""event"",""trial"",""time""
""fullscreenenter"",""1"",""5021""
","
","
","""event"",""trial"",""time""
""fullscreenenter"",""1"",""5021""
","
","","null","","null","","fixation","2021-04-10 14:54:38.597","","","","","",""
"card-selection-trial","107","485737","0.0-25.0-1.18","857","false","img/card_backs/set1/purple.gif","img/card_backs/set1/green.gif","img/card_backs/set1/red.gif","img/card_backs/set1/yellow.gif","img/card_backs/set2/orange.gif","img/card_backs/set2/gray.gif","img/card_backs/set2/blue.gif","img/card_backs/set2/pink.gif","""event"",""trial"",""time""
""fullscreenenter"",""1"",""5021""
","
","
","""event"",""trial"",""time""
""fullscreenenter"",""1"",""5021""
","
","","2948.1250001117587","","","","real_trial","2021-04-10 14:54:43.559","img/card_backs/set1/green.gif","3","-250","1","",""
"casino-fixation","108","486242","0.0-25.0-0.19","857","false","img/card_backs/set1/purple.gif","img/card_backs/set1/green.gif","img/card_backs/set1/red.gif","img/card_backs/set1/yellow.gif","img/card_backs/set2/orange.gif","img/card_backs/set2/gray.gif","img/card_backs/set2/blue.gif","img/card_backs/set2/pink.gif","""event"",""trial"",""time""
""fullscreenenter"",""1"",""5021""
","
","
","""event"",""trial"",""time""
""fullscreenenter"",""1"",""5021""
","
","","null","","null","","fixation","2021-04-10 14:54:44.064","","","","","",""
"card-selection-trial","109","490388","0.0-25.0-1.19","857","false","img/card_backs/set1/purple.gif","img/card_backs/set1/green.gif","img/card_backs/set1/red.gif","img/card_backs/set1/yellow.gif","img/card_backs/set2/orange.gif","img/card_backs/set2/gray.gif","img/card_backs/set2/blue.gif","img/card_backs/set2/pink.gif","""event"",""trial"",""time""
""fullscreenenter"",""1"",""5021""
","
","
","""event"",""trial"",""time""
""fullscreenenter"",""1"",""5021""
","
","","2128.800000064075","","","","real_trial","2021-04-10 14:54:48.210","img/card_backs/set1/green.gif","3","180","1","",""
"casino-fixation","110","490893","0.0-25.0-0.20","857","false","img/card_backs/set1/purple.gif","img/card_backs/set1/green.gif","img/card_backs/set1/red.gif","img/card_backs/set1/yellow.gif","img/card_backs/set2/orange.gif","img/card_backs/set2/gray.gif","img/card_backs/set2/blue.gif","img/card_backs/set2/pink.gif","""event"",""trial"",""time""
""fullscreenenter"",""1"",""5021""
","
","
","""event"",""trial"",""time""
""fullscreenenter"",""1"",""5021""
","
","","null","","null","","fixation","2021-04-10 14:54:48.716","","","","","",""
"card-selection-trial","111","494618","0.0-25.0-1.20","857","false","img/card_backs/set1/purple.gif","img/card_backs/set1/green.gif","img/card_backs/set1/red.gif","img/card_backs/set1/yellow.gif","img/card_backs/set2/orange.gif","img/card_backs/set2/gray.gif","img/card_backs/set2/blue.gif","img/card_backs/set2/pink.gif","""event"",""trial"",""time""
""fullscreenenter"",""1"",""5021""
","
","
","""event"",""trial"",""time""
""fullscreenenter"",""1"",""5021""
","
","","1711.9049998000264","","","","real_trial","2021-04-10 14:54:52.440","img/card_backs/set1/yellow.gif","0","-60","1","",""
"casino-fixation","112","495123","0.0-25.0-0.21","857","false","img/card_backs/set1/purple.gif","img/card_backs/set1/green.gif","img/card_backs/set1/red.gif","img/card_backs/set1/yellow.gif","img/card_backs/set2/orange.gif","img/card_backs/set2/gray.gif","img/card_backs/set2/blue.gif","img/card_backs/set2/pink.gif","""event"",""trial"",""time""
""fullscreenenter"",""1"",""5021""
","
","
","""event"",""trial"",""time""
""fullscreenenter"",""1"",""5021""
","
","","null","","null","","fixation","2021-04-10 14:54:52.945","","","","","",""
"card-selection-trial","113","498377","0.0-25.0-1.21","857","false","img/card_backs/set1/purple.gif","img/card_backs/set1/green.gif","img/card_backs/set1/red.gif","img/card_backs/set1/yellow.gif","img/card_backs/set2/orange.gif","img/card_backs/set2/gray.gif","img/card_backs/set2/blue.gif","img/card_backs/set2/pink.gif","""event"",""trial"",""time""
""fullscreenenter"",""1"",""5021""
","
","
","""event"",""trial"",""time""
""fullscreenenter"",""1"",""5021""
","
","","1246.8449999578297","","","","real_trial","2021-04-10 14:54:56.200","img/card_backs/set1/green.gif","2","180","1","",""
"casino-fixation","114","498881","0.0-25.0-0.22","857","false","img/card_backs/set1/purple.gif","img/card_backs/set1/green.gif","img/card_backs/set1/red.gif","img/card_backs/set1/yellow.gif","img/card_backs/set2/orange.gif","img/card_backs/set2/gray.gif","img/card_backs/set2/blue.gif","img/card_backs/set2/pink.gif","""event"",""trial"",""time""
""fullscreenenter"",""1"",""5021""
","
","
","""event"",""trial"",""time""
""fullscreenenter"",""1"",""5021""
","
","","null","","null","","fixation","2021-04-10 14:54:56.703","","","","","",""
"card-selection-trial","115","504098","0.0-25.0-1.22","857","false","img/card_backs/set1/purple.gif","img/card_backs/set1/green.gif","img/card_backs/set1/red.gif","img/card_backs/set1/yellow.gif","img/card_backs/set2/orange.gif","img/card_backs/set2/gray.gif","img/card_backs/set2/blue.gif","img/card_backs/set2/pink.gif","""event"",""trial"",""time""
""fullscreenenter"",""1"",""5021""
","
","
","""event"",""trial"",""time""
""fullscreenenter"",""1"",""5021""
","
","","3205.9900001622736","","","","real_trial","2021-04-10 14:55:01.923","img/card_backs/set1/green.gif","0","-250","1","",""
"casino-fixation","116","504605","0.0-25.0-0.23","857","false","img/card_backs/set1/purple.gif","img/card_backs/set1/green.gif","img/card_backs/set1/red.gif","img/card_backs/set1/yellow.gif","img/card_backs/set2/orange.gif","img/card_backs/set2/gray.gif","img/card_backs/set2/blue.gif","img/card_backs/set2/pink.gif","""event"",""trial"",""time""
""fullscreenenter"",""1"",""5021""
","
","
","""event"",""trial"",""time""
""fullscreenenter"",""1"",""5021""
","
","","null","","null","","fixation","2021-04-10 14:55:02.427","","","","","",""
"card-selection-trial","117","507851","0.0-25.0-1.23","857","false","img/card_backs/set1/purple.gif","img/card_backs/set1/green.gif","img/card_backs/set1/red.gif","img/card_backs/set1/yellow.gif","img/card_backs/set2/orange.gif","img/card_backs/set2/gray.gif","img/card_backs/set2/blue.gif","img/card_backs/set2/pink.gif","""event"",""trial"",""time""
""fullscreenenter"",""1"",""5021""
","
","
","""event"",""trial"",""time""
""fullscreenenter"",""1"",""5021""
","
","","1233.8100001215935","","","","real_trial","2021-04-10 14:55:05.673","img/card_backs/set1/yellow.gif","0","100","1","",""
"casino-fixation","118","508355","0.0-25.0-0.24","857","false","img/card_backs/set1/purple.gif","img/card_backs/set1/green.gif","img/card_backs/set1/red.gif","img/card_backs/set1/yellow.gif","img/card_backs/set2/orange.gif","img/card_backs/set2/gray.gif","img/card_backs/set2/blue.gif","img/card_backs/set2/pink.gif","""event"",""trial"",""time""
""fullscreenenter"",""1"",""5021""
","
","
","""event"",""trial"",""time""
""fullscreenenter"",""1"",""5021""
","
","","null","","null","","fixation","2021-04-10 14:55:06.177","","","","","",""
"card-selection-trial","119","513524","0.0-25.0-1.24","857","false","img/card_backs/set1/purple.gif","img/card_backs/set1/green.gif","img/card_backs/set1/red.gif","img/card_backs/set1/yellow.gif","img/card_backs/set2/orange.gif","img/card_backs/set2/gray.gif","img/card_backs/set2/blue.gif","img/card_backs/set2/pink.gif","""event"",""trial"",""time""
""fullscreenenter"",""1"",""5021""
","
","
","""event"",""trial"",""time""
""fullscreenenter"",""1"",""5021""
","
","","3165.745000122115","","","","real_trial","2021-04-10 14:55:11.347","img/card_backs/set1/purple.gif","2","-230","1","",""
"casino-fixation","120","514027","0.0-25.0-0.25","857","false","img/card_backs/set1/purple.gif","img/card_backs/set1/green.gif","img/card_backs/set1/red.gif","img/card_backs/set1/yellow.gif","img/card_backs/set2/orange.gif","img/card_backs/set2/gray.gif","img/card_backs/set2/blue.gif","img/card_backs/set2/pink.gif","""event"",""trial"",""time""
""fullscreenenter"",""1"",""5021""
","
","
","""event"",""trial"",""time""
""fullscreenenter"",""1"",""5021""
","
","","null","","null","","fixation","2021-04-10 14:55:11.849","","","","","",""
"card-selection-trial","121","517547","0.0-25.0-1.25","857","false","img/card_backs/set1/purple.gif","img/card_backs/set1/green.gif","img/card_backs/set1/red.gif","img/card_backs/set1/yellow.gif","img/card_backs/set2/orange.gif","img/card_backs/set2/gray.gif","img/card_backs/set2/blue.gif","img/card_backs/set2/pink.gif","""event"",""trial"",""time""
""fullscreenenter"",""1"",""5021""
","
","
","""event"",""trial"",""time""
""fullscreenenter"",""1"",""5021""
","
","","1515.7900000922382","","","","real_trial","2021-04-10 14:55:15.369","img/card_backs/set1/purple.gif","1","-250","1","",""
"casino-fixation","122","518052","0.0-25.0-0.26","857","false","img/card_backs/set1/purple.gif","img/card_backs/set1/green.gif","img/card_backs/set1/red.gif","img/card_backs/set1/yellow.gif","img/card_backs/set2/orange.gif","img/card_backs/set2/gray.gif","img/card_backs/set2/blue.gif","img/card_backs/set2/pink.gif","""event"",""trial"",""time""
""fullscreenenter"",""1"",""5021""
","
","
","""event"",""trial"",""time""
""fullscreenenter"",""1"",""5021""
","
","","null","","null","","fixation","2021-04-10 14:55:15.874","","","","","",""
"card-selection-trial","123","521995","0.0-25.0-1.26","857","false","img/card_backs/set1/purple.gif","img/card_backs/set1/green.gif","img/card_backs/set1/red.gif","img/card_backs/set1/yellow.gif","img/card_backs/set2/orange.gif","img/card_backs/set2/gray.gif","img/card_backs/set2/blue.gif","img/card_backs/set2/pink.gif","""event"",""trial"",""time""
""fullscreenenter"",""1"",""5021""
","
","
","""event"",""trial"",""time""
""fullscreenenter"",""1"",""5021""
","
","","1931.9449998438358","","","","real_trial","2021-04-10 14:55:19.817","img/card_backs/set1/purple.gif","2","-240","1","",""
"casino-fixation","124","522511","0.0-25.0-0.27","857","false","img/card_backs/set1/purple.gif","img/card_backs/set1/green.gif","img/card_backs/set1/red.gif","img/card_backs/set1/yellow.gif","img/card_backs/set2/orange.gif","img/card_backs/set2/gray.gif","img/card_backs/set2/blue.gif","img/card_backs/set2/pink.gif","""event"",""trial"",""time""
""fullscreenenter"",""1"",""5021""
","
","
","""event"",""trial"",""time""
""fullscreenenter"",""1"",""5021""
","
","","null","","null","","fixation","2021-04-10 14:55:20.333","","","","","",""
"card-selection-trial","125","529239","0.0-25.0-1.27","857","false","img/card_backs/set1/purple.gif","img/card_backs/set1/green.gif","img/card_backs/set1/red.gif","img/card_backs/set1/yellow.gif","img/card_backs/set2/orange.gif","img/card_backs/set2/gray.gif","img/card_backs/set2/blue.gif","img/card_backs/set2/pink.gif","""event"",""trial"",""time""
""fullscreenenter"",""1"",""5021""
","
","
","""event"",""trial"",""time""
""fullscreenenter"",""1"",""5021""
","
","","4717.780000064522","","","","real_trial","2021-04-10 14:55:27.061","img/card_backs/set1/red.gif","0","-50","1","",""
"casino-fixation","126","529742","0.0-25.0-0.28","857","false","img/card_backs/set1/purple.gif","img/card_backs/set1/green.gif","img/card_backs/set1/red.gif","img/card_backs/set1/yellow.gif","img/card_backs/set2/orange.gif","img/card_backs/set2/gray.gif","img/card_backs/set2/blue.gif","img/card_backs/set2/pink.gif","""event"",""trial"",""time""
""fullscreenenter"",""1"",""5021""
","
","
","""event"",""trial"",""time""
""fullscreenenter"",""1"",""5021""
","
","","null","","null","","fixation","2021-04-10 14:55:27.564","","","","","",""
"card-selection-trial","127","532306","0.0-25.0-1.28","857","false","img/card_backs/set1/purple.gif","img/card_backs/set1/green.gif","img/card_backs/set1/red.gif","img/card_backs/set1/yellow.gif","img/card_backs/set2/orange.gif","img/card_backs/set2/gray.gif","img/card_backs/set2/blue.gif","img/card_backs/set2/pink.gif","""event"",""trial"",""time""
""fullscreenenter"",""1"",""5021""
","
","
","""event"",""trial"",""time""
""fullscreenenter"",""1"",""5021""
","
","","548.8150001037866","","","","real_trial","2021-04-10 14:55:30.128","img/card_backs/set1/red.gif","0","110","1","",""
"casino-fixation","128","532808","0.0-25.0-0.29","857","false","img/card_backs/set1/purple.gif","img/card_backs/set1/green.gif","img/card_backs/set1/red.gif","img/card_backs/set1/yellow.gif","img/card_backs/set2/orange.gif","img/card_backs/set2/gray.gif","img/card_backs/set2/blue.gif","img/card_backs/set2/pink.gif","""event"",""trial"",""time""
""fullscreenenter"",""1"",""5021""
","
","
","""event"",""trial"",""time""
""fullscreenenter"",""1"",""5021""
","
","","null","","null","","fixation","2021-04-10 14:55:30.630","","","","","",""
"card-selection-trial","129","535370","0.0-25.0-1.29","857","false","img/card_backs/set1/purple.gif","img/card_backs/set1/green.gif","img/card_backs/set1/red.gif","img/card_backs/set1/yellow.gif","img/card_backs/set2/orange.gif","img/card_backs/set2/gray.gif","img/card_backs/set2/blue.gif","img/card_backs/set2/pink.gif","""event"",""trial"",""time""
""fullscreenenter"",""1"",""5021""
","
","
","""event"",""trial"",""time""
""fullscreenenter"",""1"",""5021""
","
","","553.804999915883","","","","real_trial","2021-04-10 14:55:33.192","img/card_backs/set1/red.gif","0","120","1","",""
"casino-fixation","130","535873","0.0-25.0-0.30","857","false","img/card_backs/set1/purple.gif","img/card_backs/set1/green.gif","img/card_backs/set1/red.gif","img/card_backs/set1/yellow.gif","img/card_backs/set2/orange.gif","img/card_backs/set2/gray.gif","img/card_backs/set2/blue.gif","img/card_backs/set2/pink.gif","""event"",""trial"",""time""
""fullscreenenter"",""1"",""5021""
","
","
","""event"",""trial"",""time""
""fullscreenenter"",""1"",""5021""
","
","","null","","null","","fixation","2021-04-10 14:55:33.695","","","","","",""
"card-selection-trial","131","538749","0.0-25.0-1.30","857","false","img/card_backs/set1/purple.gif","img/card_backs/set1/green.gif","img/card_backs/set1/red.gif","img/card_backs/set1/yellow.gif","img/card_backs/set2/orange.gif","img/card_backs/set2/gray.gif","img/card_backs/set2/blue.gif","img/card_backs/set2/pink.gif","""event"",""trial"",""time""
""fullscreenenter"",""1"",""5021""
","
","
","""event"",""trial"",""time""
""fullscreenenter"",""1"",""5021""
","
","","864.0449999365956","","","","real_trial","2021-04-10 14:55:36.571","img/card_backs/set1/red.gif","3","120","1","",""
"casino-fixation","132","539253","0.0-25.0-0.31","857","false","img/card_backs/set1/purple.gif","img/card_backs/set1/green.gif","img/card_backs/set1/red.gif","img/card_backs/set1/yellow.gif","img/card_backs/set2/orange.gif","img/card_backs/set2/gray.gif","img/card_backs/set2/blue.gif","img/card_backs/set2/pink.gif","""event"",""trial"",""time""
""fullscreenenter"",""1"",""5021""
","
","
","""event"",""trial"",""time""
""fullscreenenter"",""1"",""5021""
","
","","null","","null","","fixation","2021-04-10 14:55:37.075","","","","","",""
"card-selection-trial","133","542431","0.0-25.0-1.31","857","false","img/card_backs/set1/purple.gif","img/card_backs/set1/green.gif","img/card_backs/set1/red.gif","img/card_backs/set1/yellow.gif","img/card_backs/set2/orange.gif","img/card_backs/set2/gray.gif","img/card_backs/set2/blue.gif","img/card_backs/set2/pink.gif","""event"",""trial"",""time""
""fullscreenenter"",""1"",""5021""
","
","
","""event"",""trial"",""time""
""fullscreenenter"",""1"",""5021""
","
","","1162.555000046268","","","","real_trial","2021-04-10 14:55:40.253","img/card_backs/set1/red.gif","2","-50","1","",""
"casino-fixation","134","542934","0.0-25.0-0.32","857","false","img/card_backs/set1/purple.gif","img/card_backs/set1/green.gif","img/card_backs/set1/red.gif","img/card_backs/set1/yellow.gif","img/card_backs/set2/orange.gif","img/card_backs/set2/gray.gif","img/card_backs/set2/blue.gif","img/card_backs/set2/pink.gif","""event"",""trial"",""time""
""fullscreenenter"",""1"",""5021""
","
","
","""event"",""trial"",""time""
""fullscreenenter"",""1"",""5021""
","
","","null","","null","","fixation","2021-04-10 14:55:40.756","","","","","",""
"card-selection-trial","135","546146","0.0-25.0-1.32","857","false","img/card_backs/set1/purple.gif","img/card_backs/set1/green.gif","img/card_backs/set1/red.gif","img/card_backs/set1/yellow.gif","img/card_backs/set2/orange.gif","img/card_backs/set2/gray.gif","img/card_backs/set2/blue.gif","img/card_backs/set2/pink.gif","""event"",""trial"",""time""
""fullscreenenter"",""1"",""5021""
","
","
","""event"",""trial"",""time""
""fullscreenenter"",""1"",""5021""
","
","","1204.0450000204146","","","","real_trial","2021-04-10 14:55:43.968","img/card_backs/set1/green.gif","0","-250","1","",""
"casino-fixation","136","546648","0.0-25.0-0.33","857","false","img/card_backs/set1/purple.gif","img/card_backs/set1/green.gif","img/card_backs/set1/red.gif","img/card_backs/set1/yellow.gif","img/card_backs/set2/orange.gif","img/card_backs/set2/gray.gif","img/card_backs/set2/blue.gif","img/card_backs/set2/pink.gif","""event"",""trial"",""time""
""fullscreenenter"",""1"",""5021""
","
","
","""event"",""trial"",""time""
""fullscreenenter"",""1"",""5021""
","
","","null","","null","","fixation","2021-04-10 14:55:44.471","","","","","",""
"card-selection-trial","137","550256","0.0-25.0-1.33","857","false","img/card_backs/set1/purple.gif","img/card_backs/set1/green.gif","img/card_backs/set1/red.gif","img/card_backs/set1/yellow.gif","img/card_backs/set2/orange.gif","img/card_backs/set2/gray.gif","img/card_backs/set2/blue.gif","img/card_backs/set2/pink.gif","""event"",""trial"",""time""
""fullscreenenter"",""1"",""5021""
","
","
","""event"",""trial"",""time""
""fullscreenenter"",""1"",""5021""
","
","","1597.3849999718368","","","","real_trial","2021-04-10 14:55:48.078","img/card_backs/set1/green.gif","3","190","1","",""
"casino-fixation","138","550759","0.0-25.0-0.34","857","false","img/card_backs/set1/purple.gif","img/card_backs/set1/green.gif","img/card_backs/set1/red.gif","img/card_backs/set1/yellow.gif","img/card_backs/set2/orange.gif","img/card_backs/set2/gray.gif","img/card_backs/set2/blue.gif","img/card_backs/set2/pink.gif","""event"",""trial"",""time""
""fullscreenenter"",""1"",""5021""
","
","
","""event"",""trial"",""time""
""fullscreenenter"",""1"",""5021""
","
","","null","","null","","fixation","2021-04-10 14:55:48.581","","","","","",""
"card-selection-trial","139","553559","0.0-25.0-1.34","857","false","img/card_backs/set1/purple.gif","img/card_backs/set1/green.gif","img/card_backs/set1/red.gif","img/card_backs/set1/yellow.gif","img/card_backs/set2/orange.gif","img/card_backs/set2/gray.gif","img/card_backs/set2/blue.gif","img/card_backs/set2/pink.gif","""event"",""trial"",""time""
""fullscreenenter"",""1"",""5021""
","
","
","""event"",""trial"",""time""
""fullscreenenter"",""1"",""5021""
","
","","787.5800000037998","","","","real_trial","2021-04-10 14:55:51.382","img/card_backs/set1/green.gif","0","180","1","",""
"casino-fixation","140","554062","0.0-25.0-0.35","857","false","img/card_backs/set1/purple.gif","img/card_backs/set1/green.gif","img/card_backs/set1/red.gif","img/card_backs/set1/yellow.gif","img/card_backs/set2/orange.gif","img/card_backs/set2/gray.gif","img/card_backs/set2/blue.gif","img/card_backs/set2/pink.gif","""event"",""trial"",""time""
""fullscreenenter"",""1"",""5021""
","
","
","""event"",""trial"",""time""
""fullscreenenter"",""1"",""5021""
","
","","null","","null","","fixation","2021-04-10 14:55:51.885","","","","","",""
"card-selection-trial","141","557028","0.0-25.0-1.35","857","false","img/card_backs/set1/purple.gif","img/card_backs/set1/green.gif","img/card_backs/set1/red.gif","img/card_backs/set1/yellow.gif","img/card_backs/set2/orange.gif","img/card_backs/set2/gray.gif","img/card_backs/set2/blue.gif","img/card_backs/set2/pink.gif","""event"",""trial"",""time""
""fullscreenenter"",""1"",""5021""
","
","
","""event"",""trial"",""time""
""fullscreenenter"",""1"",""5021""
","
","","954.5899999793619","","","","real_trial","2021-04-10 14:55:54.850","img/card_backs/set1/yellow.gif","2","110","1","",""
"casino-fixation","142","557533","0.0-25.0-0.36","857","false","img/card_backs/set1/purple.gif","img/card_backs/set1/green.gif","img/card_backs/set1/red.gif","img/card_backs/set1/yellow.gif","img/card_backs/set2/orange.gif","img/card_backs/set2/gray.gif","img/card_backs/set2/blue.gif","img/card_backs/set2/pink.gif","""event"",""trial"",""time""
""fullscreenenter"",""1"",""5021""
","
","
","""event"",""trial"",""time""
""fullscreenenter"",""1"",""5021""
","
","","null","","null","","fixation","2021-04-10 14:55:55.356","","","","","",""
"card-selection-trial","143","560329","0.0-25.0-1.36","857","false","img/card_backs/set1/purple.gif","img/card_backs/set1/green.gif","img/card_backs/set1/red.gif","img/card_backs/set1/yellow.gif","img/card_backs/set2/orange.gif","img/card_backs/set2/gray.gif","img/card_backs/set2/blue.gif","img/card_backs/set2/pink.gif","""event"",""trial"",""time""
""fullscreenenter"",""1"",""5021""
","
","
","""event"",""trial"",""time""
""fullscreenenter"",""1"",""5021""
","
","","783.49499986507","","","","real_trial","2021-04-10 14:55:58.151","img/card_backs/set1/yellow.gif","3","-50","1","",""
"casino-fixation","144","560830","0.0-25.0-0.37","857","false","img/card_backs/set1/purple.gif","img/card_backs/set1/green.gif","img/card_backs/set1/red.gif","img/card_backs/set1/yellow.gif","img/card_backs/set2/orange.gif","img/card_backs/set2/gray.gif","img/card_backs/set2/blue.gif","img/card_backs/set2/pink.gif","""event"",""trial"",""time""
""fullscreenenter"",""1"",""5021""
","
","
","""event"",""trial"",""time""
""fullscreenenter"",""1"",""5021""
","
","","null","","null","","fixation","2021-04-10 14:55:58.653","","","","","",""
"card-selection-trial","145","564982","0.0-25.0-1.37","857","false","img/card_backs/set1/purple.gif","img/card_backs/set1/green.gif","img/card_backs/set1/red.gif","img/card_backs/set1/yellow.gif","img/card_backs/set2/orange.gif","img/card_backs/set2/gray.gif","img/card_backs/set2/blue.gif","img/card_backs/set2/pink.gif","""event"",""trial"",""time""
""fullscreenenter"",""1"",""5021""
","
","
","""event"",""trial"",""time""
""fullscreenenter"",""1"",""5021""
","
","","2132.129999808967","","","","real_trial","2021-04-10 14:56:02.805","img/card_backs/set1/green.gif","0","200","1","",""
"casino-fixation","146","565486","0.0-25.0-0.38","857","false","img/card_backs/set1/purple.gif","img/card_backs/set1/green.gif","img/card_backs/set1/red.gif","img/card_backs/set1/yellow.gif","img/card_backs/set2/orange.gif","img/card_backs/set2/gray.gif","img/card_backs/set2/blue.gif","img/card_backs/set2/pink.gif","""event"",""trial"",""time""
""fullscreenenter"",""1"",""5021""
","
","
","""event"",""trial"",""time""
""fullscreenenter"",""1"",""5021""
","
","","null","","null","","fixation","2021-04-10 14:56:03.308","","","","","",""
"card-selection-trial","147","569700","0.0-25.0-1.38","857","false","img/card_backs/set1/purple.gif","img/card_backs/set1/green.gif","img/card_backs/set1/red.gif","img/card_backs/set1/yellow.gif","img/card_backs/set2/orange.gif","img/card_backs/set2/gray.gif","img/card_backs/set2/blue.gif","img/card_backs/set2/pink.gif","""event"",""trial"",""time""
""fullscreenenter"",""1"",""5021""
","
","
","""event"",""trial"",""time""
""fullscreenenter"",""1"",""5021""
","
","","2203.6150000058115","","","","real_trial","2021-04-10 14:56:07.522","img/card_backs/set1/yellow.gif","3","-60","1","",""
"casino-fixation","148","570203","0.0-25.0-0.39","857","false","img/card_backs/set1/purple.gif","img/card_backs/set1/green.gif","img/card_backs/set1/red.gif","img/card_backs/set1/yellow.gif","img/card_backs/set2/orange.gif","img/card_backs/set2/gray.gif","img/card_backs/set2/blue.gif","img/card_backs/set2/pink.gif","""event"",""trial"",""time""
""fullscreenenter"",""1"",""5021""
","
","
","""event"",""trial"",""time""
""fullscreenenter"",""1"",""5021""
","
","","null","","null","","fixation","2021-04-10 14:56:08.025","","","","","",""
"card-selection-trial","149","573191","0.0-25.0-1.39","857","false","img/card_backs/set1/purple.gif","img/card_backs/set1/green.gif","img/card_backs/set1/red.gif","img/card_backs/set1/yellow.gif","img/card_backs/set2/orange.gif","img/card_backs/set2/gray.gif","img/card_backs/set2/blue.gif","img/card_backs/set2/pink.gif","""event"",""trial"",""time""
""fullscreenenter"",""1"",""5021""
","
","
","""event"",""trial"",""time""
""fullscreenenter"",""1"",""5021""
","
","","979.6549999155104","","","","real_trial","2021-04-10 14:56:11.013","img/card_backs/set1/green.gif","3","180","1","",""
"casino-fixation","150","573719","0.0-25.0-0.40","857","false","img/card_backs/set1/purple.gif","img/card_backs/set1/green.gif","img/card_backs/set1/red.gif","img/card_backs/set1/yellow.gif","img/card_backs/set2/orange.gif","img/card_backs/set2/gray.gif","img/card_backs/set2/blue.gif","img/card_backs/set2/pink.gif","""event"",""trial"",""time""
""fullscreenenter"",""1"",""5021""
","
","
","""event"",""trial"",""time""
""fullscreenenter"",""1"",""5021""
","
","","null","","null","","fixation","2021-04-10 14:56:11.542","","","","","",""
"card-selection-trial","151","579080","0.0-25.0-1.40","857","false","img/card_backs/set1/purple.gif","img/card_backs/set1/green.gif","img/card_backs/set1/red.gif","img/card_backs/set1/yellow.gif","img/card_backs/set2/orange.gif","img/card_backs/set2/gray.gif","img/card_backs/set2/blue.gif","img/card_backs/set2/pink.gif","""event"",""trial"",""time""
""fullscreenenter"",""1"",""5021""
","
","
","""event"",""trial"",""time""
""fullscreenenter"",""1"",""5021""
","
","","3349.625000031665","","","","real_trial","2021-04-10 14:56:16.902","img/card_backs/set1/purple.gif","3","180","1","",""
"casino-fixation","152","579584","0.0-25.0-0.41","857","false","img/card_backs/set1/purple.gif","img/card_backs/set1/green.gif","img/card_backs/set1/red.gif","img/card_backs/set1/yellow.gif","img/card_backs/set2/orange.gif","img/card_backs/set2/gray.gif","img/card_backs/set2/blue.gif","img/card_backs/set2/pink.gif","""event"",""trial"",""time""
""fullscreenenter"",""1"",""5021""
","
","
","""event"",""trial"",""time""
""fullscreenenter"",""1"",""5021""
","
","","null","","null","","fixation","2021-04-10 14:56:17.406","","","","","",""
"card-selection-trial","153","583498","0.0-25.0-1.41","857","false","img/card_backs/set1/purple.gif","img/card_backs/set1/green.gif","img/card_backs/set1/red.gif","img/card_backs/set1/yellow.gif","img/card_backs/set2/orange.gif","img/card_backs/set2/gray.gif","img/card_backs/set2/blue.gif","img/card_backs/set2/pink.gif","""event"",""trial"",""time""
""fullscreenenter"",""1"",""5021""
","
","
","""event"",""trial"",""time""
""fullscreenenter"",""1"",""5021""
","
","","1904.3850000016391","","","","real_trial","2021-04-10 14:56:21.320","img/card_backs/set1/green.gif","2","200","1","",""
"casino-fixation","154","584001","0.0-25.0-0.42","857","false","img/card_backs/set1/purple.gif","img/card_backs/set1/green.gif","img/card_backs/set1/red.gif","img/card_backs/set1/yellow.gif","img/card_backs/set2/orange.gif","img/card_backs/set2/gray.gif","img/card_backs/set2/blue.gif","img/card_backs/set2/pink.gif","""event"",""trial"",""time""
""fullscreenenter"",""1"",""5021""
","
","
","""event"",""trial"",""time""
""fullscreenenter"",""1"",""5021""
","
","","null","","null","","fixation","2021-04-10 14:56:21.823","","","","","",""
"card-selection-trial","155","587950","0.0-25.0-1.42","857","false","img/card_backs/set1/purple.gif","img/card_backs/set1/green.gif","img/card_backs/set1/red.gif","img/card_backs/set1/yellow.gif","img/card_backs/set2/orange.gif","img/card_backs/set2/gray.gif","img/card_backs/set2/blue.gif","img/card_backs/set2/pink.gif","""event"",""trial"",""time""
""fullscreenenter"",""1"",""5021""
","
","
","""event"",""trial"",""time""
""fullscreenenter"",""1"",""5021""
","
","","1937.58499994874","","","","real_trial","2021-04-10 14:56:25.772","img/card_backs/set1/purple.gif","0","-240","1","",""
"casino-fixation","156","588455","0.0-25.0-0.43","857","false","img/card_backs/set1/purple.gif","img/card_backs/set1/green.gif","img/card_backs/set1/red.gif","img/card_backs/set1/yellow.gif","img/card_backs/set2/orange.gif","img/card_backs/set2/gray.gif","img/card_backs/set2/blue.gif","img/card_backs/set2/pink.gif","""event"",""trial"",""time""
""fullscreenenter"",""1"",""5021""
","
","
","""event"",""trial"",""time""
""fullscreenenter"",""1"",""5021""
","
","","null","","null","","fixation","2021-04-10 14:56:26.278","","","","","",""
"card-selection-trial","157","591731","0.0-25.0-1.43","857","false","img/card_backs/set1/purple.gif","img/card_backs/set1/green.gif","img/card_backs/set1/red.gif","img/card_backs/set1/yellow.gif","img/card_backs/set2/orange.gif","img/card_backs/set2/gray.gif","img/card_backs/set2/blue.gif","img/card_backs/set2/pink.gif","""event"",""trial"",""time""
""fullscreenenter"",""1"",""5021""
","
","
","""event"",""trial"",""time""
""fullscreenenter"",""1"",""5021""
","
","","1263.6949999723583","","","","real_trial","2021-04-10 14:56:29.553","img/card_backs/set1/green.gif","0","-240","1","",""
"casino-fixation","158","592234","0.0-25.0-0.44","857","false","img/card_backs/set1/purple.gif","img/card_backs/set1/green.gif","img/card_backs/set1/red.gif","img/card_backs/set1/yellow.gif","img/card_backs/set2/orange.gif","img/card_backs/set2/gray.gif","img/card_backs/set2/blue.gif","img/card_backs/set2/pink.gif","""event"",""trial"",""time""
""fullscreenenter"",""1"",""5021""
","
","
","""event"",""trial"",""time""
""fullscreenenter"",""1"",""5021""
","
","","null","","null","","fixation","2021-04-10 14:56:30.057","","","","","",""
"card-selection-trial","159","595298","0.0-25.0-1.44","857","false","img/card_backs/set1/purple.gif","img/card_backs/set1/green.gif","img/card_backs/set1/red.gif","img/card_backs/set1/yellow.gif","img/card_backs/set2/orange.gif","img/card_backs/set2/gray.gif","img/card_backs/set2/blue.gif","img/card_backs/set2/pink.gif","""event"",""trial"",""time""
""fullscreenenter"",""1"",""5021""
","
","
","""event"",""trial"",""time""
""fullscreenenter"",""1"",""5021""
","
","","1052.7749999891967","","","","real_trial","2021-04-10 14:56:33.120","img/card_backs/set1/green.gif","3","-230","1","",""
"casino-fixation","160","595800","0.0-25.0-0.45","857","false","img/card_backs/set1/purple.gif","img/card_backs/set1/green.gif","img/card_backs/set1/red.gif","img/card_backs/set1/yellow.gif","img/card_backs/set2/orange.gif","img/card_backs/set2/gray.gif","img/card_backs/set2/blue.gif","img/card_backs/set2/pink.gif","""event"",""trial"",""time""
""fullscreenenter"",""1"",""5021""
","
","
","""event"",""trial"",""time""
""fullscreenenter"",""1"",""5021""
","
","","null","","null","","fixation","2021-04-10 14:56:33.622","","","","","",""
"card-selection-trial","161","599829","0.0-25.0-1.45","857","false","img/card_backs/set1/purple.gif","img/card_backs/set1/green.gif","img/card_backs/set1/red.gif","img/card_backs/set1/yellow.gif","img/card_backs/set2/orange.gif","img/card_backs/set2/gray.gif","img/card_backs/set2/blue.gif","img/card_backs/set2/pink.gif","""event"",""trial"",""time""
""fullscreenenter"",""1"",""5021""
","
","
","""event"",""trial"",""time""
""fullscreenenter"",""1"",""5021""
","
","","2021.089999936521","","","","real_trial","2021-04-10 14:56:37.651","img/card_backs/set1/green.gif","2","-240","1","",""
"casino-fixation","162","600330","0.0-25.0-0.46","857","false","img/card_backs/set1/purple.gif","img/card_backs/set1/green.gif","img/card_backs/set1/red.gif","img/card_backs/set1/yellow.gif","img/card_backs/set2/orange.gif","img/card_backs/set2/gray.gif","img/card_backs/set2/blue.gif","img/card_backs/set2/pink.gif","""event"",""trial"",""time""
""fullscreenenter"",""1"",""5021""
","
","
","""event"",""trial"",""time""
""fullscreenenter"",""1"",""5021""
","
","","null","","null","","fixation","2021-04-10 14:56:38.152","","","","","",""
"card-selection-trial","163","603551","0.0-25.0-1.46","857","false","img/card_backs/set1/purple.gif","img/card_backs/set1/green.gif","img/card_backs/set1/red.gif","img/card_backs/set1/yellow.gif","img/card_backs/set2/orange.gif","img/card_backs/set2/gray.gif","img/card_backs/set2/blue.gif","img/card_backs/set2/pink.gif","""event"",""trial"",""time""
""fullscreenenter"",""1"",""5021""
","
","
","""event"",""trial"",""time""
""fullscreenenter"",""1"",""5021""
","
","","1213.1800001952797","","","","real_trial","2021-04-10 14:56:41.373","img/card_backs/set1/green.gif","2","-230","1","",""
"casino-fixation","164","604054","0.0-25.0-0.47","857","false","img/card_backs/set1/purple.gif","img/card_backs/set1/green.gif","img/card_backs/set1/red.gif","img/card_backs/set1/yellow.gif","img/card_backs/set2/orange.gif","img/card_backs/set2/gray.gif","img/card_backs/set2/blue.gif","img/card_backs/set2/pink.gif","""event"",""trial"",""time""
""fullscreenenter"",""1"",""5021""
","
","
","""event"",""trial"",""time""
""fullscreenenter"",""1"",""5021""
","
","","null","","null","","fixation","2021-04-10 14:56:41.876","","","","","",""
"card-selection-trial","165","608619","0.0-25.0-1.47","857","false","img/card_backs/set1/purple.gif","img/card_backs/set1/green.gif","img/card_backs/set1/red.gif","img/card_backs/set1/yellow.gif","img/card_backs/set2/orange.gif","img/card_backs/set2/gray.gif","img/card_backs/set2/blue.gif","img/card_backs/set2/pink.gif","""event"",""trial"",""time""
""fullscreenenter"",""1"",""5021""
","
","
","""event"",""trial"",""time""
""fullscreenenter"",""1"",""5021""
","
","","2554.340000031516","","","","real_trial","2021-04-10 14:56:46.442","img/card_backs/set1/yellow.gif","2","110","1","",""
"casino-fixation","166","609123","0.0-25.0-0.48","857","false","img/card_backs/set1/purple.gif","img/card_backs/set1/green.gif","img/card_backs/set1/red.gif","img/card_backs/set1/yellow.gif","img/card_backs/set2/orange.gif","img/card_backs/set2/gray.gif","img/card_backs/set2/blue.gif","img/card_backs/set2/pink.gif","""event"",""trial"",""time""
""fullscreenenter"",""1"",""5021""
","
","
","""event"",""trial"",""time""
""fullscreenenter"",""1"",""5021""
","
","","null","","null","","fixation","2021-04-10 14:56:46.945","","","","","",""
