"trial_type","trial_index","time_elapsed","internal_node_id","sub_id","risk_good_first","block1_A","block1_B","block1_C","block1_D","block2_A","block2_B","block2_C","block2_D","interactions","blur_events","focus_events","fullscreenenter_events","fullscreenexit_events","success","rt","stimulus","key_press","button_pressed","task_part","timestamp","card_choice","choice_position","points_earned","block","correct","response"
"pavlovia","0","7","0.0-0.0","A102","false","img/card_backs/set1/yellow.gif","img/card_backs/set1/red.gif","img/card_backs/set1/purple.gif","img/card_backs/set1/green.gif","img/card_backs/set2/blue.gif","img/card_backs/set2/orange.gif","img/card_backs/set2/gray.gif","img/card_backs/set2/pink.gif","""event"",""trial"",""time""
""fullscreenenter"",""1"",""3578""
","
","
","""event"",""trial"",""time""
""fullscreenenter"",""1"",""3578""
","
","","","","","","","","","","","","",""
"fullscreen","1","4530","0.0-1.0","A102","false","img/card_backs/set1/yellow.gif","img/card_backs/set1/red.gif","img/card_backs/set1/purple.gif","img/card_backs/set1/green.gif","img/card_backs/set2/blue.gif","img/card_backs/set2/orange.gif","img/card_backs/set2/gray.gif","img/card_backs/set2/pink.gif","""event"",""trial"",""time""
""fullscreenenter"",""1"",""3578""
","
","
","""event"",""trial"",""time""
""fullscreenenter"",""1"",""3578""
","
","true","","","","","","","","","","","",""
"audio-keyboard-response","2","11273","0.0-2.0","A102","false","img/card_backs/set1/yellow.gif","img/card_backs/set1/red.gif","img/card_backs/set1/purple.gif","img/card_backs/set1/green.gif","img/card_backs/set2/blue.gif","img/card_backs/set2/orange.gif","img/card_backs/set2/gray.gif","img/card_backs/set2/pink.gif","""event"",""trial"",""time""
""fullscreenenter"",""1"",""3578""
","
","
","""event"",""trial"",""time""
""fullscreenenter"",""1"",""3578""
","
","","0","audio/beep_loop.wav","32","","","","","","","","",""
"audio-button-response","3","14432","0.0-3.0","A102","false","img/card_backs/set1/yellow.gif","img/card_backs/set1/red.gif","img/card_backs/set1/purple.gif","img/card_backs/set1/green.gif","img/card_backs/set2/blue.gif","img/card_backs/set2/orange.gif","img/card_backs/set2/gray.gif","img/card_backs/set2/pink.gif","""event"",""trial"",""time""
""fullscreenenter"",""1"",""3578""
","
","
","""event"",""trial"",""time""
""fullscreenenter"",""1"",""3578""
","
","","NaN","audio/turtle.mp3","","3","","","","","","","",""
"audio-button-response","4","16864","0.0-4.0","A102","false","img/card_backs/set1/yellow.gif","img/card_backs/set1/red.gif","img/card_backs/set1/purple.gif","img/card_backs/set1/green.gif","img/card_backs/set2/blue.gif","img/card_backs/set2/orange.gif","img/card_backs/set2/gray.gif","img/card_backs/set2/pink.gif","""event"",""trial"",""time""
""fullscreenenter"",""1"",""3578""
","
","
","""event"",""trial"",""time""
""fullscreenenter"",""1"",""3578""
","
","","NaN","audio/shark.mp3","","2","","","","","","","",""
"fullscreen","5","31254","0.0-5.0","A102","false","img/card_backs/set1/yellow.gif","img/card_backs/set1/red.gif","img/card_backs/set1/purple.gif","img/card_backs/set1/green.gif","img/card_backs/set2/blue.gif","img/card_backs/set2/orange.gif","img/card_backs/set2/gray.gif","img/card_backs/set2/pink.gif","""event"",""trial"",""time""
""fullscreenenter"",""1"",""3578""
","
","
","""event"",""trial"",""time""
""fullscreenenter"",""1"",""3578""
","
","true","","","","","","","","","","","",""
"casino-keyboard-response","6","41734","0.0-6.0-0.0","A102","false","img/card_backs/set1/yellow.gif","img/card_backs/set1/red.gif","img/card_backs/set1/purple.gif","img/card_backs/set1/green.gif","img/card_backs/set2/blue.gif","img/card_backs/set2/orange.gif","img/card_backs/set2/gray.gif","img/card_backs/set2/pink.gif","""event"",""trial"",""time""
""fullscreenenter"",""1"",""3578""
","
","
","""event"",""trial"",""time""
""fullscreenenter"",""1"",""3578""
","
","","10475.000000000007","Welcome to the casino!","71","","instructions","2021-03-30 21:39:44.760","","","","","",""
"casino-keyboard-response","7","55340","0.0-6.0-0.1","A102","false","img/card_backs/set1/yellow.gif","img/card_backs/set1/red.gif","img/card_backs/set1/purple.gif","img/card_backs/set1/green.gif","img/card_backs/set2/blue.gif","img/card_backs/set2/orange.gif","img/card_backs/set2/gray.gif","img/card_backs/set2/pink.gif","""event"",""trial"",""time""
""fullscreenenter"",""1"",""3578""
","
","
","""event"",""trial"",""time""
""fullscreenenter"",""1"",""3578""
","
","","13603.999999999993","Today you will be playing a game to earn tokens. </br> At the end of the experiment, you will be paid a bonus based on how many tokens you win. ","69","","instructions","2021-03-30 21:39:58.365","","","","","",""
"casino-keyboard-response","8","62538","0.0-6.0-0.2","A102","false","img/card_backs/set1/yellow.gif","img/card_backs/set1/red.gif","img/card_backs/set1/purple.gif","img/card_backs/set1/green.gif","img/card_backs/set2/blue.gif","img/card_backs/set2/orange.gif","img/card_backs/set2/gray.gif","img/card_backs/set2/pink.gif","""event"",""trial"",""time""
""fullscreenenter"",""1"",""3578""
","
","
","""event"",""trial"",""time""
""fullscreenenter"",""1"",""3578""
","
","","7195","On every turn, you will be shown four different decks of cards. </br> You need to select a card from one of the four decks.  ","75","","instructions","2021-03-30 21:40:05.563","","","","","",""
"casino-keyboard-response","9","67143","0.0-6.0-0.3","A102","false","img/card_backs/set1/yellow.gif","img/card_backs/set1/red.gif","img/card_backs/set1/purple.gif","img/card_backs/set1/green.gif","img/card_backs/set2/blue.gif","img/card_backs/set2/orange.gif","img/card_backs/set2/gray.gif","img/card_backs/set2/pink.gif","""event"",""trial"",""time""
""fullscreenenter"",""1"",""3578""
","
","
","""event"",""trial"",""time""
""fullscreenenter"",""1"",""3578""
","
","","4603","On the next screen, you will see what the decks will look like. ","66","","instructions","2021-03-30 21:40:10.169","","","","","",""
"card-selection-trial","10","71152","0.0-7.0-0.0","A102","false","img/card_backs/set1/yellow.gif","img/card_backs/set1/red.gif","img/card_backs/set1/purple.gif","img/card_backs/set1/green.gif","img/card_backs/set2/blue.gif","img/card_backs/set2/orange.gif","img/card_backs/set2/gray.gif","img/card_backs/set2/pink.gif","""event"",""trial"",""time""
""fullscreenenter"",""1"",""3578""
","
","
","""event"",""trial"",""time""
""fullscreenenter"",""1"",""3578""
","
","","null","","","","practice","2021-03-30 21:40:14.177","null","null","null","0","",""
"casino-keyboard-response","11","79248","0.0-8.0-0.0","A102","false","img/card_backs/set1/yellow.gif","img/card_backs/set1/red.gif","img/card_backs/set1/purple.gif","img/card_backs/set1/green.gif","img/card_backs/set2/blue.gif","img/card_backs/set2/orange.gif","img/card_backs/set2/gray.gif","img/card_backs/set2/pink.gif","""event"",""trial"",""time""
""fullscreenenter"",""1"",""3578""
","
","
","""event"",""trial"",""time""
""fullscreenenter"",""1"",""3578""
","
","","8092","You should pick a card from a deck using the '2', '4', '6', and '8' keys at the top of the keyboard.","85","","instructions","2021-03-30 21:40:22.273","","","","","",""
"casino-keyboard-response","12","88077","0.0-8.0-0.1","A102","false","img/card_backs/set1/yellow.gif","img/card_backs/set1/red.gif","img/card_backs/set1/purple.gif","img/card_backs/set1/green.gif","img/card_backs/set2/blue.gif","img/card_backs/set2/orange.gif","img/card_backs/set2/gray.gif","img/card_backs/set2/pink.gif","""event"",""trial"",""time""
""fullscreenenter"",""1"",""3578""
","
","
","""event"",""trial"",""time""
""fullscreenenter"",""1"",""3578""
","
","","8827","Once you select a card, it will turn over and you will see how many tokens you earned.","83","","instructions","2021-03-30 21:40:31.102","","","","","",""
"casino-keyboard-response","13","102404","0.0-8.0-0.2","A102","false","img/card_backs/set1/yellow.gif","img/card_backs/set1/red.gif","img/card_backs/set1/purple.gif","img/card_backs/set1/green.gif","img/card_backs/set2/blue.gif","img/card_backs/set2/orange.gif","img/card_backs/set2/gray.gif","img/card_backs/set2/pink.gif","""event"",""trial"",""time""
""fullscreenenter"",""1"",""3578""
","
","
","""event"",""trial"",""time""
""fullscreenenter"",""1"",""3578""
","
","","14324","Let's try practicing that! </br> First, try to put your fingers over the '2', '4', '6', and '8' keys. </br>  You can use whatever fingers are most comfortable for you. Try to find a comfortable position now. ","50","","instructions","2021-03-30 21:40:45.430","","","","","",""
"casino-keyboard-response","14","108161","0.0-8.0-0.3","A102","false","img/card_backs/set1/yellow.gif","img/card_backs/set1/red.gif","img/card_backs/set1/purple.gif","img/card_backs/set1/green.gif","img/card_backs/set2/blue.gif","img/card_backs/set2/orange.gif","img/card_backs/set2/gray.gif","img/card_backs/set2/pink.gif","""event"",""trial"",""time""
""fullscreenenter"",""1"",""3578""
","
","
","""event"",""trial"",""time""
""fullscreenenter"",""1"",""3578""
","
","","5753","Okay ready? </br> On the next screen, press '2' to select the left deck. ","50","","instructions","2021-03-30 21:40:51.186","","","","","",""
"card-selection-trial","15","111115","0.0-9.0-0.0","A102","false","img/card_backs/set1/yellow.gif","img/card_backs/set1/red.gif","img/card_backs/set1/purple.gif","img/card_backs/set1/green.gif","img/card_backs/set2/blue.gif","img/card_backs/set2/orange.gif","img/card_backs/set2/gray.gif","img/card_backs/set2/pink.gif","""event"",""trial"",""time""
""fullscreenenter"",""1"",""3578""
","
","
","""event"",""trial"",""time""
""fullscreenenter"",""1"",""3578""
","
","","912.9999999999854","","","","practice_card_selection","2021-03-30 21:40:54.141","img/practice_cards/backs/black.gif","0","100","","",""
"casino-keyboard-response","16","117084","0.0-10.0-0.0","A102","false","img/card_backs/set1/yellow.gif","img/card_backs/set1/red.gif","img/card_backs/set1/purple.gif","img/card_backs/set1/green.gif","img/card_backs/set2/blue.gif","img/card_backs/set2/orange.gif","img/card_backs/set2/gray.gif","img/card_backs/set2/pink.gif","""event"",""trial"",""time""
""fullscreenenter"",""1"",""3578""
","
","
","""event"",""trial"",""time""
""fullscreenenter"",""1"",""3578""
","
","","5964.999999999985","Great! Now on the next screen, try pressing '6' to select the third deck.","54","","instructions","2021-03-30 21:41:00.109","","","","","",""
"card-selection-trial","17","119898","0.0-11.0-0.0","A102","false","img/card_backs/set1/yellow.gif","img/card_backs/set1/red.gif","img/card_backs/set1/purple.gif","img/card_backs/set1/green.gif","img/card_backs/set2/blue.gif","img/card_backs/set2/orange.gif","img/card_backs/set2/gray.gif","img/card_backs/set2/pink.gif","""event"",""trial"",""time""
""fullscreenenter"",""1"",""3578""
","
","
","""event"",""trial"",""time""
""fullscreenenter"",""1"",""3578""
","
","","770.9999999999854","","","","practice_card_selection","2021-03-30 21:41:02.924","img/practice_cards/backs/black.gif","2","-100","","",""
"casino-keyboard-response","18","124781","0.0-12.0-0.0","A102","false","img/card_backs/set1/yellow.gif","img/card_backs/set1/red.gif","img/card_backs/set1/purple.gif","img/card_backs/set1/green.gif","img/card_backs/set2/blue.gif","img/card_backs/set2/orange.gif","img/card_backs/set2/gray.gif","img/card_backs/set2/pink.gif","""event"",""trial"",""time""
""fullscreenenter"",""1"",""3578""
","
","
","""event"",""trial"",""time""
""fullscreenenter"",""1"",""3578""
","
","","4879","Now on the next screen, try pressing '4' to select the second deck.","52","","instructions","2021-03-30 21:41:07.806","","","","","",""
"card-selection-trial","19","129288","0.0-13.0-0.0","A102","false","img/card_backs/set1/yellow.gif","img/card_backs/set1/red.gif","img/card_backs/set1/purple.gif","img/card_backs/set1/green.gif","img/card_backs/set2/blue.gif","img/card_backs/set2/orange.gif","img/card_backs/set2/gray.gif","img/card_backs/set2/pink.gif","""event"",""trial"",""time""
""fullscreenenter"",""1"",""3578""
","
","
","""event"",""trial"",""time""
""fullscreenenter"",""1"",""3578""
","
","","2466.999999999971","","","","practice_card_selection","2021-03-30 21:41:12.314","img/practice_cards/backs/dark_blue.gif","1","-200","","",""
"casino-keyboard-response","20","134154","0.0-14.0-0.0","A102","false","img/card_backs/set1/yellow.gif","img/card_backs/set1/red.gif","img/card_backs/set1/purple.gif","img/card_backs/set1/green.gif","img/card_backs/set2/blue.gif","img/card_backs/set2/orange.gif","img/card_backs/set2/gray.gif","img/card_backs/set2/pink.gif","""event"",""trial"",""time""
""fullscreenenter"",""1"",""3578""
","
","
","""event"",""trial"",""time""
""fullscreenenter"",""1"",""3578""
","
","","4863","Finally, try pressing '8' to select the deck all the way on the right.","56","","instructions","2021-03-30 21:41:17.179","","","","","",""
"card-selection-trial","21","137085","0.0-15.0-0.0","A102","false","img/card_backs/set1/yellow.gif","img/card_backs/set1/red.gif","img/card_backs/set1/purple.gif","img/card_backs/set1/green.gif","img/card_backs/set2/blue.gif","img/card_backs/set2/orange.gif","img/card_backs/set2/gray.gif","img/card_backs/set2/pink.gif","""event"",""trial"",""time""
""fullscreenenter"",""1"",""3578""
","
","
","""event"",""trial"",""time""
""fullscreenenter"",""1"",""3578""
","
","","890","","","","practice_card_selection","2021-03-30 21:41:20.111","img/practice_cards/backs/dark_green.gif","3","200","","",""
"casino-keyboard-response","22","140682","0.0-16.0-0.0","A102","false","img/card_backs/set1/yellow.gif","img/card_backs/set1/red.gif","img/card_backs/set1/purple.gif","img/card_backs/set1/green.gif","img/card_backs/set2/blue.gif","img/card_backs/set2/orange.gif","img/card_backs/set2/gray.gif","img/card_backs/set2/pink.gif","""event"",""trial"",""time""
""fullscreenenter"",""1"",""3578""
","
","
","""event"",""trial"",""time""
""fullscreenenter"",""1"",""3578""
","
","","3595.000000000029","Great! It seems like you are getting the hang of this.","80","","instructions","2021-03-30 21:41:23.708","","","","","",""
"casino-keyboard-response","23","151000","0.0-16.0-0.1","A102","false","img/card_backs/set1/yellow.gif","img/card_backs/set1/red.gif","img/card_backs/set1/purple.gif","img/card_backs/set1/green.gif","img/card_backs/set2/blue.gif","img/card_backs/set2/orange.gif","img/card_backs/set2/gray.gif","img/card_backs/set2/pink.gif","""event"",""trial"",""time""
""fullscreenenter"",""1"",""3578""
","
","
","""event"",""trial"",""time""
""fullscreenenter"",""1"",""3578""
","
","","10315","You may have noticed that some cards will cause you to <b> win </b> tokens while other cards will cause you to <b> lose </b>  tokens.","70","","instructions","2021-03-30 21:41:34.025","","","","","",""
"casino-keyboard-response","24","159553","0.0-16.0-0.2","A102","false","img/card_backs/set1/yellow.gif","img/card_backs/set1/red.gif","img/card_backs/set1/purple.gif","img/card_backs/set1/green.gif","img/card_backs/set2/blue.gif","img/card_backs/set2/orange.gif","img/card_backs/set2/gray.gif","img/card_backs/set2/pink.gif","""event"",""trial"",""time""
""fullscreenenter"",""1"",""3578""
","
","
","""event"",""trial"",""time""
""fullscreenenter"",""1"",""3578""
","
","","8550","Each deck has a mix of cards that will cause you to win and lose tokens. </br> However, the cards in each colored deck are different.","73","","instructions","2021-03-30 21:41:42.578","","","","","",""
"casino-keyboard-response","25","167832","0.0-16.0-0.3","A102","false","img/card_backs/set1/yellow.gif","img/card_backs/set1/red.gif","img/card_backs/set1/purple.gif","img/card_backs/set1/green.gif","img/card_backs/set2/blue.gif","img/card_backs/set2/orange.gif","img/card_backs/set2/gray.gif","img/card_backs/set2/pink.gif","""event"",""trial"",""time""
""fullscreenenter"",""1"",""3578""
","
","
","""event"",""trial"",""time""
""fullscreenenter"",""1"",""3578""
","
","","8276.00000000003","Some colored decks are luckier than others. </br> If you choose the lucky decks, you will earn more tokens than if you choose the unlucky decks.","69","","instructions","2021-03-30 21:41:50.857","","","","","",""
"casino-keyboard-response","26","175012","0.0-16.0-0.4","A102","false","img/card_backs/set1/yellow.gif","img/card_backs/set1/red.gif","img/card_backs/set1/purple.gif","img/card_backs/set1/green.gif","img/card_backs/set2/blue.gif","img/card_backs/set2/orange.gif","img/card_backs/set2/gray.gif","img/card_backs/set2/pink.gif","""event"",""trial"",""time""
""fullscreenenter"",""1"",""3578""
","
","
","""event"",""trial"",""time""
""fullscreenenter"",""1"",""3578""
","
","","7177","You should try to figure out which decks are lucky. </br> Then, try to choose the lucky decks so you can win the most tokens.","87","","instructions","2021-03-30 21:41:58.037","","","","","",""
"casino-keyboard-response","27","192010","0.0-16.0-0.5","A102","false","img/card_backs/set1/yellow.gif","img/card_backs/set1/red.gif","img/card_backs/set1/purple.gif","img/card_backs/set1/green.gif","img/card_backs/set2/blue.gif","img/card_backs/set2/orange.gif","img/card_backs/set2/gray.gif","img/card_backs/set2/pink.gif","""event"",""trial"",""time""
""fullscreenenter"",""1"",""3578""
","
","
","""event"",""trial"",""time""
""fullscreenenter"",""1"",""3578""
","
","","16997","To make it trickier, the casino dealer will switch the locations of the decks on every turn. </br> The color of the deck determines how lucky it is. The location does not matter.","88","","instructions","2021-03-30 21:42:15.036","","","","","",""
"casino-keyboard-response","28","201263","0.0-16.0-0.6","A102","false","img/card_backs/set1/yellow.gif","img/card_backs/set1/red.gif","img/card_backs/set1/purple.gif","img/card_backs/set1/green.gif","img/card_backs/set2/blue.gif","img/card_backs/set2/orange.gif","img/card_backs/set2/gray.gif","img/card_backs/set2/pink.gif","""event"",""trial"",""time""
""fullscreenenter"",""1"",""3578""
","
","
","""event"",""trial"",""time""
""fullscreenenter"",""1"",""3578""
","
","","9250","The mix of cards in each colored deck will stay the same throughout the game. </br> That means that a deck that is lucky early on will stay lucky.","79","","instructions","2021-03-30 21:42:24.288","","","","","",""
"casino-keyboard-response","29","209264","0.0-16.0-0.7","A102","false","img/card_backs/set1/yellow.gif","img/card_backs/set1/red.gif","img/card_backs/set1/purple.gif","img/card_backs/set1/green.gif","img/card_backs/set2/blue.gif","img/card_backs/set2/orange.gif","img/card_backs/set2/gray.gif","img/card_backs/set2/pink.gif","""event"",""trial"",""time""
""fullscreenenter"",""1"",""3578""
","
","
","""event"",""trial"",""time""
""fullscreenenter"",""1"",""3578""
","
","","7998","Remember though, all the decks have a <b> mix </b> of both <b> good </b> and <b> bad </b> cards so it may take a couple of turns to figure out if a deck is lucky.","69","","instructions","2021-03-30 21:42:32.289","","","","","",""
"casino-keyboard-response","30","217538","0.0-16.0-0.8","A102","false","img/card_backs/set1/yellow.gif","img/card_backs/set1/red.gif","img/card_backs/set1/purple.gif","img/card_backs/set1/green.gif","img/card_backs/set2/blue.gif","img/card_backs/set2/orange.gif","img/card_backs/set2/gray.gif","img/card_backs/set2/pink.gif","""event"",""trial"",""time""
""fullscreenenter"",""1"",""3578""
","
","
","""event"",""trial"",""time""
""fullscreenenter"",""1"",""3578""
","
","","8272.00000000003","At the end of the game, you will be paid bonus money based on how many tokens you win. </br> If you win more tokens, you will earn more money!","72","","instructions","2021-03-30 21:42:40.563","","","","","",""
"casino-keyboard-response","31","227823","0.0-16.0-0.9","A102","false","img/card_backs/set1/yellow.gif","img/card_backs/set1/red.gif","img/card_backs/set1/purple.gif","img/card_backs/set1/green.gif","img/card_backs/set2/blue.gif","img/card_backs/set2/orange.gif","img/card_backs/set2/gray.gif","img/card_backs/set2/pink.gif","""event"",""trial"",""time""
""fullscreenenter"",""1"",""3578""
","
","
","""event"",""trial"",""time""
""fullscreenenter"",""1"",""3578""
","
","","10281","You will never <b> lose </b> money. </br> If you end up with fewer than 0 tokens, you will earn $0 of bonus money, but you will still be paid for playing the game.","83","","instructions","2021-03-30 21:42:50.848","","","","","",""
"casino-keyboard-response","32","231995","0.0-16.0-0.10","A102","false","img/card_backs/set1/yellow.gif","img/card_backs/set1/red.gif","img/card_backs/set1/purple.gif","img/card_backs/set1/green.gif","img/card_backs/set2/blue.gif","img/card_backs/set2/orange.gif","img/card_backs/set2/gray.gif","img/card_backs/set2/pink.gif","""event"",""trial"",""time""
""fullscreenenter"",""1"",""3578""
","
","
","""event"",""trial"",""time""
""fullscreenenter"",""1"",""3578""
","
","","4170","You will have 10 seconds to make each choice.","82","","instructions","2021-03-30 21:42:55.020","","","","","",""
"casino-keyboard-response","33","239895","0.0-16.0-0.11","A102","false","img/card_backs/set1/yellow.gif","img/card_backs/set1/red.gif","img/card_backs/set1/purple.gif","img/card_backs/set1/green.gif","img/card_backs/set2/blue.gif","img/card_backs/set2/orange.gif","img/card_backs/set2/gray.gif","img/card_backs/set2/pink.gif","""event"",""trial"",""time""
""fullscreenenter"",""1"",""3578""
","
","
","""event"",""trial"",""time""
""fullscreenenter"",""1"",""3578""
","
","","7897.000000000029","Before you play the game for real, you will play with practice decks. </br> The tokens you earn during practice won't count toward your total.","86","","instructions","2021-03-30 21:43:02.920","","","","","",""
"casino-keyboard-response","34","242185","0.0-16.0-0.12","A102","false","img/card_backs/set1/yellow.gif","img/card_backs/set1/red.gif","img/card_backs/set1/purple.gif","img/card_backs/set1/green.gif","img/card_backs/set2/blue.gif","img/card_backs/set2/orange.gif","img/card_backs/set2/gray.gif","img/card_backs/set2/pink.gif","""event"",""trial"",""time""
""fullscreenenter"",""1"",""3578""
","
","
","""event"",""trial"",""time""
""fullscreenenter"",""1"",""3578""
","
","","2287","Ready? Remember, use the '2', '4', '6', and '8' keys to select the decks. </br> Put your fingers on those keys now and then press '2' to begin.","50","","instructions","2021-03-30 21:43:05.210","","","","","",""
"casino-fixation","35","242690","0.0-17.0-0.0","A102","false","img/card_backs/set1/yellow.gif","img/card_backs/set1/red.gif","img/card_backs/set1/purple.gif","img/card_backs/set1/green.gif","img/card_backs/set2/blue.gif","img/card_backs/set2/orange.gif","img/card_backs/set2/gray.gif","img/card_backs/set2/pink.gif","""event"",""trial"",""time""
""fullscreenenter"",""1"",""3578""
","
","
","""event"",""trial"",""time""
""fullscreenenter"",""1"",""3578""
","
","","null","","null","","fixation","2021-03-30 21:43:05.715","","","","","",""
"card-selection-trial","36","247657","0.0-17.0-1.0","A102","false","img/card_backs/set1/yellow.gif","img/card_backs/set1/red.gif","img/card_backs/set1/purple.gif","img/card_backs/set1/green.gif","img/card_backs/set2/blue.gif","img/card_backs/set2/orange.gif","img/card_backs/set2/gray.gif","img/card_backs/set2/pink.gif","""event"",""trial"",""time""
""fullscreenenter"",""1"",""3578""
","
","
","""event"",""trial"",""time""
""fullscreenenter"",""1"",""3578""
","
","","2959","","","","practice","2021-03-30 21:43:10.682","img/practice_cards/backs/black.gif","0","100","0","",""
"casino-fixation","37","248161","0.0-17.0-0.1","A102","false","img/card_backs/set1/yellow.gif","img/card_backs/set1/red.gif","img/card_backs/set1/purple.gif","img/card_backs/set1/green.gif","img/card_backs/set2/blue.gif","img/card_backs/set2/orange.gif","img/card_backs/set2/gray.gif","img/card_backs/set2/pink.gif","""event"",""trial"",""time""
""fullscreenenter"",""1"",""3578""
","
","
","""event"",""trial"",""time""
""fullscreenenter"",""1"",""3578""
","
","","null","","null","","fixation","2021-03-30 21:43:11.186","","","","","",""
"card-selection-trial","38","250574","0.0-17.0-1.1","A102","false","img/card_backs/set1/yellow.gif","img/card_backs/set1/red.gif","img/card_backs/set1/purple.gif","img/card_backs/set1/green.gif","img/card_backs/set2/blue.gif","img/card_backs/set2/orange.gif","img/card_backs/set2/gray.gif","img/card_backs/set2/pink.gif","""event"",""trial"",""time""
""fullscreenenter"",""1"",""3578""
","
","
","""event"",""trial"",""time""
""fullscreenenter"",""1"",""3578""
","
","","407","","","","practice","2021-03-30 21:43:13.599","img/practice_cards/backs/black.gif","0","100","0","",""
"casino-fixation","39","251077","0.0-17.0-0.2","A102","false","img/card_backs/set1/yellow.gif","img/card_backs/set1/red.gif","img/card_backs/set1/purple.gif","img/card_backs/set1/green.gif","img/card_backs/set2/blue.gif","img/card_backs/set2/orange.gif","img/card_backs/set2/gray.gif","img/card_backs/set2/pink.gif","""event"",""trial"",""time""
""fullscreenenter"",""1"",""3578""
","
","
","""event"",""trial"",""time""
""fullscreenenter"",""1"",""3578""
","
","","null","","null","","fixation","2021-03-30 21:43:14.103","","","","","",""
"card-selection-trial","40","253407","0.0-17.0-1.2","A102","false","img/card_backs/set1/yellow.gif","img/card_backs/set1/red.gif","img/card_backs/set1/purple.gif","img/card_backs/set1/green.gif","img/card_backs/set2/blue.gif","img/card_backs/set2/orange.gif","img/card_backs/set2/gray.gif","img/card_backs/set2/pink.gif","""event"",""trial"",""time""
""fullscreenenter"",""1"",""3578""
","
","
","""event"",""trial"",""time""
""fullscreenenter"",""1"",""3578""
","
","","324.0000000000291","","","","practice","2021-03-30 21:43:16.432","img/practice_cards/backs/dark_blue.gif","1","200","0","",""
"casino-fixation","41","253909","0.0-17.0-0.3","A102","false","img/card_backs/set1/yellow.gif","img/card_backs/set1/red.gif","img/card_backs/set1/purple.gif","img/card_backs/set1/green.gif","img/card_backs/set2/blue.gif","img/card_backs/set2/orange.gif","img/card_backs/set2/gray.gif","img/card_backs/set2/pink.gif","""event"",""trial"",""time""
""fullscreenenter"",""1"",""3578""
","
","
","""event"",""trial"",""time""
""fullscreenenter"",""1"",""3578""
","
","","null","","null","","fixation","2021-03-30 21:43:16.935","","","","","",""
"card-selection-trial","42","256166","0.0-17.0-1.3","A102","false","img/card_backs/set1/yellow.gif","img/card_backs/set1/red.gif","img/card_backs/set1/purple.gif","img/card_backs/set1/green.gif","img/card_backs/set2/blue.gif","img/card_backs/set2/orange.gif","img/card_backs/set2/gray.gif","img/card_backs/set2/pink.gif","""event"",""trial"",""time""
""fullscreenenter"",""1"",""3578""
","
","
","""event"",""trial"",""time""
""fullscreenenter"",""1"",""3578""
","
","","248","","","","practice","2021-03-30 21:43:19.191","img/practice_cards/backs/black.gif","0","100","0","",""
"casino-fixation","43","256669","0.0-17.0-0.4","A102","false","img/card_backs/set1/yellow.gif","img/card_backs/set1/red.gif","img/card_backs/set1/purple.gif","img/card_backs/set1/green.gif","img/card_backs/set2/blue.gif","img/card_backs/set2/orange.gif","img/card_backs/set2/gray.gif","img/card_backs/set2/pink.gif","""event"",""trial"",""time""
""fullscreenenter"",""1"",""3578""
","
","
","""event"",""trial"",""time""
""fullscreenenter"",""1"",""3578""
","
","","null","","null","","fixation","2021-03-30 21:43:19.695","","","","","",""
"card-selection-trial","44","259081","0.0-17.0-1.4","A102","false","img/card_backs/set1/yellow.gif","img/card_backs/set1/red.gif","img/card_backs/set1/purple.gif","img/card_backs/set1/green.gif","img/card_backs/set2/blue.gif","img/card_backs/set2/orange.gif","img/card_backs/set2/gray.gif","img/card_backs/set2/pink.gif","""event"",""trial"",""time""
""fullscreenenter"",""1"",""3578""
","
","
","""event"",""trial"",""time""
""fullscreenenter"",""1"",""3578""
","
","","404","","","","practice","2021-03-30 21:43:22.107","img/practice_cards/backs/dark_blue.gif","2","200","0","",""
"casino-fixation","45","259585","0.0-17.0-0.5","A102","false","img/card_backs/set1/yellow.gif","img/card_backs/set1/red.gif","img/card_backs/set1/purple.gif","img/card_backs/set1/green.gif","img/card_backs/set2/blue.gif","img/card_backs/set2/orange.gif","img/card_backs/set2/gray.gif","img/card_backs/set2/pink.gif","""event"",""trial"",""time""
""fullscreenenter"",""1"",""3578""
","
","
","""event"",""trial"",""time""
""fullscreenenter"",""1"",""3578""
","
","","null","","null","","fixation","2021-03-30 21:43:22.610","","","","","",""
"card-selection-trial","46","261847","0.0-17.0-1.5","A102","false","img/card_backs/set1/yellow.gif","img/card_backs/set1/red.gif","img/card_backs/set1/purple.gif","img/card_backs/set1/green.gif","img/card_backs/set2/blue.gif","img/card_backs/set2/orange.gif","img/card_backs/set2/gray.gif","img/card_backs/set2/pink.gif","""event"",""trial"",""time""
""fullscreenenter"",""1"",""3578""
","
","
","""event"",""trial"",""time""
""fullscreenenter"",""1"",""3578""
","
","","256","","","","practice","2021-03-30 21:43:24.872","img/practice_cards/backs/dark_blue.gif","3","200","0","",""
"casino-fixation","47","262349","0.0-17.0-0.6","A102","false","img/card_backs/set1/yellow.gif","img/card_backs/set1/red.gif","img/card_backs/set1/purple.gif","img/card_backs/set1/green.gif","img/card_backs/set2/blue.gif","img/card_backs/set2/orange.gif","img/card_backs/set2/gray.gif","img/card_backs/set2/pink.gif","""event"",""trial"",""time""
""fullscreenenter"",""1"",""3578""
","
","
","""event"",""trial"",""time""
""fullscreenenter"",""1"",""3578""
","
","","null","","null","","fixation","2021-03-30 21:43:25.374","","","","","",""
"card-selection-trial","48","264711","0.0-17.0-1.6","A102","false","img/card_backs/set1/yellow.gif","img/card_backs/set1/red.gif","img/card_backs/set1/purple.gif","img/card_backs/set1/green.gif","img/card_backs/set2/blue.gif","img/card_backs/set2/orange.gif","img/card_backs/set2/gray.gif","img/card_backs/set2/pink.gif","""event"",""trial"",""time""
""fullscreenenter"",""1"",""3578""
","
","
","""event"",""trial"",""time""
""fullscreenenter"",""1"",""3578""
","
","","357","","","","practice","2021-03-30 21:43:27.737","img/practice_cards/backs/brown.gif","0","100","0","",""
"casino-fixation","49","265215","0.0-17.0-0.7","A102","false","img/card_backs/set1/yellow.gif","img/card_backs/set1/red.gif","img/card_backs/set1/purple.gif","img/card_backs/set1/green.gif","img/card_backs/set2/blue.gif","img/card_backs/set2/orange.gif","img/card_backs/set2/gray.gif","img/card_backs/set2/pink.gif","""event"",""trial"",""time""
""fullscreenenter"",""1"",""3578""
","
","
","""event"",""trial"",""time""
""fullscreenenter"",""1"",""3578""
","
","","null","","null","","fixation","2021-03-30 21:43:28.240","","","","","",""
"card-selection-trial","50","267602","0.0-17.0-1.7","A102","false","img/card_backs/set1/yellow.gif","img/card_backs/set1/red.gif","img/card_backs/set1/purple.gif","img/card_backs/set1/green.gif","img/card_backs/set2/blue.gif","img/card_backs/set2/orange.gif","img/card_backs/set2/gray.gif","img/card_backs/set2/pink.gif","""event"",""trial"",""time""
""fullscreenenter"",""1"",""3578""
","
","
","""event"",""trial"",""time""
""fullscreenenter"",""1"",""3578""
","
","","380.0000000000582","","","","practice","2021-03-30 21:43:30.627","img/practice_cards/backs/black.gif","0","-100","0","",""
"casino-fixation","51","268105","0.0-17.0-0.8","A102","false","img/card_backs/set1/yellow.gif","img/card_backs/set1/red.gif","img/card_backs/set1/purple.gif","img/card_backs/set1/green.gif","img/card_backs/set2/blue.gif","img/card_backs/set2/orange.gif","img/card_backs/set2/gray.gif","img/card_backs/set2/pink.gif","""event"",""trial"",""time""
""fullscreenenter"",""1"",""3578""
","
","
","""event"",""trial"",""time""
""fullscreenenter"",""1"",""3578""
","
","","null","","null","","fixation","2021-03-30 21:43:31.130","","","","","",""
"card-selection-trial","52","270574","0.0-17.0-1.8","A102","false","img/card_backs/set1/yellow.gif","img/card_backs/set1/red.gif","img/card_backs/set1/purple.gif","img/card_backs/set1/green.gif","img/card_backs/set2/blue.gif","img/card_backs/set2/orange.gif","img/card_backs/set2/gray.gif","img/card_backs/set2/pink.gif","""event"",""trial"",""time""
""fullscreenenter"",""1"",""3578""
","
","
","""event"",""trial"",""time""
""fullscreenenter"",""1"",""3578""
","
","","463","","","","practice","2021-03-30 21:43:33.599","img/practice_cards/backs/brown.gif","0","100","0","",""
"casino-fixation","53","271076","0.0-17.0-0.9","A102","false","img/card_backs/set1/yellow.gif","img/card_backs/set1/red.gif","img/card_backs/set1/purple.gif","img/card_backs/set1/green.gif","img/card_backs/set2/blue.gif","img/card_backs/set2/orange.gif","img/card_backs/set2/gray.gif","img/card_backs/set2/pink.gif","""event"",""trial"",""time""
""fullscreenenter"",""1"",""3578""
","
","
","""event"",""trial"",""time""
""fullscreenenter"",""1"",""3578""
","
","","null","","null","","fixation","2021-03-30 21:43:34.102","","","","","",""
"card-selection-trial","54","274487","0.0-17.0-1.9","A102","false","img/card_backs/set1/yellow.gif","img/card_backs/set1/red.gif","img/card_backs/set1/purple.gif","img/card_backs/set1/green.gif","img/card_backs/set2/blue.gif","img/card_backs/set2/orange.gif","img/card_backs/set2/gray.gif","img/card_backs/set2/pink.gif","""event"",""trial"",""time""
""fullscreenenter"",""1"",""3578""
","
","
","""event"",""trial"",""time""
""fullscreenenter"",""1"",""3578""
","
","","1404","","","","practice","2021-03-30 21:43:37.512","img/practice_cards/backs/dark_green.gif","1","-200","0","",""
"casino-keyboard-response","55","277244","0.0-18.0","A102","false","img/card_backs/set1/yellow.gif","img/card_backs/set1/red.gif","img/card_backs/set1/purple.gif","img/card_backs/set1/green.gif","img/card_backs/set2/blue.gif","img/card_backs/set2/orange.gif","img/card_backs/set2/gray.gif","img/card_backs/set2/pink.gif","""event"",""trial"",""time""
""fullscreenenter"",""1"",""3578""
","
","
","""event"",""trial"",""time""
""fullscreenenter"",""1"",""3578""
","
","","2754","You earned 800 tokens during the practice round!","75","","","2021-03-30 21:43:40.269","","","","","",""
"casino-keyboard-response","56","281234","0.0-19.0-0.0","A102","false","img/card_backs/set1/yellow.gif","img/card_backs/set1/red.gif","img/card_backs/set1/purple.gif","img/card_backs/set1/green.gif","img/card_backs/set2/blue.gif","img/card_backs/set2/orange.gif","img/card_backs/set2/gray.gif","img/card_backs/set2/pink.gif","""event"",""trial"",""time""
""fullscreenenter"",""1"",""3578""
","
","
","""event"",""trial"",""time""
""fullscreenenter"",""1"",""3578""
","
","","3986","Nice job! You are almost ready to play the real game.","86","","instructions","2021-03-30 21:43:44.259","","","","","",""
"casino-keyboard-response","57","287420","0.0-19.0-0.1","A102","false","img/card_backs/set1/yellow.gif","img/card_backs/set1/red.gif","img/card_backs/set1/purple.gif","img/card_backs/set1/green.gif","img/card_backs/set2/blue.gif","img/card_backs/set2/orange.gif","img/card_backs/set2/gray.gif","img/card_backs/set2/pink.gif","""event"",""trial"",""time""
""fullscreenenter"",""1"",""3578""
","
","
","""event"",""trial"",""time""
""fullscreenenter"",""1"",""3578""
","
","","6184","You will play two rounds of the real game. In each round, you will pick 100 cards in total.","73","","instructions","2021-03-30 21:43:50.445","","","","","",""
"casino-keyboard-response","58","291341","0.0-19.0-0.2","A102","false","img/card_backs/set1/yellow.gif","img/card_backs/set1/red.gif","img/card_backs/set1/purple.gif","img/card_backs/set1/green.gif","img/card_backs/set2/blue.gif","img/card_backs/set2/orange.gif","img/card_backs/set2/gray.gif","img/card_backs/set2/pink.gif","""event"",""trial"",""time""
""fullscreenenter"",""1"",""3578""
","
","
","""event"",""trial"",""time""
""fullscreenenter"",""1"",""3578""
","
","","3919","We are now going to ask you some questions about how the game works.","66","","instructions","2021-03-30 21:43:54.366","","","","","",""
"casino-keyboard-response","59","297278","0.0-19.0-0.3","A102","false","img/card_backs/set1/yellow.gif","img/card_backs/set1/red.gif","img/card_backs/set1/purple.gif","img/card_backs/set1/green.gif","img/card_backs/set2/blue.gif","img/card_backs/set2/orange.gif","img/card_backs/set2/gray.gif","img/card_backs/set2/pink.gif","""event"",""trial"",""time""
""fullscreenenter"",""1"",""3578""
","
","
","""event"",""trial"",""time""
""fullscreenenter"",""1"",""3578""
","
","","5934.000000000058","Answer carefully. You will not be able to begin the game until you answer them correctly.","67","","instructions","2021-03-30 21:44:00.303","","","","","",""
"casino-comp_q","60","305772","0.0-20.0-0.0","A102","false","img/card_backs/set1/yellow.gif","img/card_backs/set1/red.gif","img/card_backs/set1/purple.gif","img/card_backs/set1/green.gif","img/card_backs/set2/blue.gif","img/card_backs/set2/orange.gif","img/card_backs/set2/gray.gif","img/card_backs/set2/pink.gif","""event"",""trial"",""time""
""fullscreenenter"",""1"",""3578""
","
","
","""event"",""trial"",""time""
""fullscreenenter"",""1"",""3578""
","
","","8491","True or False: All the decks have some cards that cause you to win tokens and some cards that cause you to lose tokens.","84","","","2021-03-30 21:44:08.798","","","","","",""
"casino-keyboard-response","61","308708","0.0-20.0-1.0","A102","false","img/card_backs/set1/yellow.gif","img/card_backs/set1/red.gif","img/card_backs/set1/purple.gif","img/card_backs/set1/green.gif","img/card_backs/set2/blue.gif","img/card_backs/set2/orange.gif","img/card_backs/set2/gray.gif","img/card_backs/set2/pink.gif","""event"",""trial"",""time""
""fullscreenenter"",""1"",""3578""
","
","
","""event"",""trial"",""time""
""fullscreenenter"",""1"",""3578""
","
","","2932","True is correct! All the decks have a mix of winning and losing cards.","77","","","2021-03-30 21:44:11.734","","","","","true",""
"casino-comp_q","62","313881","0.0-21.0-0.0","A102","false","img/card_backs/set1/yellow.gif","img/card_backs/set1/red.gif","img/card_backs/set1/purple.gif","img/card_backs/set1/green.gif","img/card_backs/set2/blue.gif","img/card_backs/set2/orange.gif","img/card_backs/set2/gray.gif","img/card_backs/set2/pink.gif","""event"",""trial"",""time""
""fullscreenenter"",""1"",""3578""
","
","
","""event"",""trial"",""time""
""fullscreenenter"",""1"",""3578""
","
","","5168.999999999942","True or False: You will have as much time as you want to make your response.","84","","","2021-03-30 21:44:16.906","","","","","",""
"casino-keyboard-response","63","317983","0.0-21.0-1.0","A102","false","img/card_backs/set1/yellow.gif","img/card_backs/set1/red.gif","img/card_backs/set1/purple.gif","img/card_backs/set1/green.gif","img/card_backs/set2/blue.gif","img/card_backs/set2/orange.gif","img/card_backs/set2/gray.gif","img/card_backs/set2/pink.gif","""event"",""trial"",""time""
""fullscreenenter"",""1"",""3578""
","
","
","""event"",""trial"",""time""
""fullscreenenter"",""1"",""3578""
","
","","4099","True is incorrect. You will only have 10 seconds to make each choice.","75","","","2021-03-30 21:44:21.008","","","","","false",""
"casino-comp_q","64","320526","0.0-21.1-0.1","A102","false","img/card_backs/set1/yellow.gif","img/card_backs/set1/red.gif","img/card_backs/set1/purple.gif","img/card_backs/set1/green.gif","img/card_backs/set2/blue.gif","img/card_backs/set2/orange.gif","img/card_backs/set2/gray.gif","img/card_backs/set2/pink.gif","""event"",""trial"",""time""
""fullscreenenter"",""1"",""3578""
","
","
","""event"",""trial"",""time""
""fullscreenenter"",""1"",""3578""
","
","","2538.999999999942","True or False: You will have as much time as you want to make your response.","70","","","2021-03-30 21:44:23.551","","","","","",""
"casino-keyboard-response","65","323363","0.0-21.1-1.1","A102","false","img/card_backs/set1/yellow.gif","img/card_backs/set1/red.gif","img/card_backs/set1/purple.gif","img/card_backs/set1/green.gif","img/card_backs/set2/blue.gif","img/card_backs/set2/orange.gif","img/card_backs/set2/gray.gif","img/card_backs/set2/pink.gif","""event"",""trial"",""time""
""fullscreenenter"",""1"",""3578""
","
","
","""event"",""trial"",""time""
""fullscreenenter"",""1"",""3578""
","
","","2835","False is correct! You will only have 10 seconds to make each choice.","75","","","2021-03-30 21:44:26.388","","","","","true",""
"casino-comp_q","66","326475","0.0-22.0-0.0","A102","false","img/card_backs/set1/yellow.gif","img/card_backs/set1/red.gif","img/card_backs/set1/purple.gif","img/card_backs/set1/green.gif","img/card_backs/set2/blue.gif","img/card_backs/set2/orange.gif","img/card_backs/set2/gray.gif","img/card_backs/set2/pink.gif","""event"",""trial"",""time""
""fullscreenenter"",""1"",""3578""
","
","
","""event"",""trial"",""time""
""fullscreenenter"",""1"",""3578""
","
","","3109.000000000058","True or False: The location of the deck determines how lucky it is.","70","","","2021-03-30 21:44:29.500","","","","","",""
"casino-keyboard-response","67","329319","0.0-22.0-1.0","A102","false","img/card_backs/set1/yellow.gif","img/card_backs/set1/red.gif","img/card_backs/set1/purple.gif","img/card_backs/set1/green.gif","img/card_backs/set2/blue.gif","img/card_backs/set2/orange.gif","img/card_backs/set2/gray.gif","img/card_backs/set2/pink.gif","""event"",""trial"",""time""
""fullscreenenter"",""1"",""3578""
","
","
","""event"",""trial"",""time""
""fullscreenenter"",""1"",""3578""
","
","","2841","False is correct! The <i>color</i>  of the deck determines how lucky or unlucky it is.","68","","","2021-03-30 21:44:32.344","","","","","true",""
"casino-keyboard-response","68","333308","0.0-23.0-0.0","A102","false","img/card_backs/set1/yellow.gif","img/card_backs/set1/red.gif","img/card_backs/set1/purple.gif","img/card_backs/set1/green.gif","img/card_backs/set2/blue.gif","img/card_backs/set2/orange.gif","img/card_backs/set2/gray.gif","img/card_backs/set2/pink.gif","""event"",""trial"",""time""
""fullscreenenter"",""1"",""3578""
","
","
","""event"",""trial"",""time""
""fullscreenenter"",""1"",""3578""
","
","","3987.000000000058","Great job! Now it's time to start the real game.","82","","instructions","2021-03-30 21:44:36.333","","","","","",""
"casino-keyboard-response","69","338247","0.0-23.0-0.1","A102","false","img/card_backs/set1/yellow.gif","img/card_backs/set1/red.gif","img/card_backs/set1/purple.gif","img/card_backs/set1/green.gif","img/card_backs/set2/blue.gif","img/card_backs/set2/orange.gif","img/card_backs/set2/gray.gif","img/card_backs/set2/pink.gif","""event"",""trial"",""time""
""fullscreenenter"",""1"",""3578""
","
","
","""event"",""trial"",""time""
""fullscreenenter"",""1"",""3578""
","
","","4937.000000000058","Before we start, we're going to head into a new room of the casino.","86","","instructions","2021-03-30 21:44:41.273","","","","","",""
"casino-keyboard-response","70","344227","0.0-24.0-0.0","A102","false","img/card_backs/set1/yellow.gif","img/card_backs/set1/red.gif","img/card_backs/set1/purple.gif","img/card_backs/set1/green.gif","img/card_backs/set2/blue.gif","img/card_backs/set2/orange.gif","img/card_backs/set2/gray.gif","img/card_backs/set2/pink.gif","""event"",""trial"",""time""
""fullscreenenter"",""1"",""3578""
","
","
","""event"",""trial"",""time""
""fullscreenenter"",""1"",""3578""
","
","","5977","Here we are! The real game will use different cards, but the rules will be the same.","71","","instructions","2021-03-30 21:44:47.252","","","","","",""
"casino-keyboard-response","71","348298","0.0-24.0-0.1","A102","false","img/card_backs/set1/yellow.gif","img/card_backs/set1/red.gif","img/card_backs/set1/purple.gif","img/card_backs/set1/green.gif","img/card_backs/set2/blue.gif","img/card_backs/set2/orange.gif","img/card_backs/set2/gray.gif","img/card_backs/set2/pink.gif","""event"",""trial"",""time""
""fullscreenenter"",""1"",""3578""
","
","
","""event"",""trial"",""time""
""fullscreenenter"",""1"",""3578""
","
","","4069","Ready? Put your fingers over the '2', '4', 6', and '8' keys so you are ready to play the game. </br> Then press 2 to start.","50","","instructions","2021-03-30 21:44:51.324","","","","","",""
"casino-fixation","72","348802","0.0-25.0-0.0","A102","false","img/card_backs/set1/yellow.gif","img/card_backs/set1/red.gif","img/card_backs/set1/purple.gif","img/card_backs/set1/green.gif","img/card_backs/set2/blue.gif","img/card_backs/set2/orange.gif","img/card_backs/set2/gray.gif","img/card_backs/set2/pink.gif","""event"",""trial"",""time""
""fullscreenenter"",""1"",""3578""
","
","
","""event"",""trial"",""time""
""fullscreenenter"",""1"",""3578""
","
","","null","","null","","fixation","2021-03-30 21:44:51.827","","","","","",""
"card-selection-trial","73","351493","0.0-25.0-1.0","A102","false","img/card_backs/set1/yellow.gif","img/card_backs/set1/red.gif","img/card_backs/set1/purple.gif","img/card_backs/set1/green.gif","img/card_backs/set2/blue.gif","img/card_backs/set2/orange.gif","img/card_backs/set2/gray.gif","img/card_backs/set2/pink.gif","""event"",""trial"",""time""
""fullscreenenter"",""1"",""3578""
","
","
","""event"",""trial"",""time""
""fullscreenenter"",""1"",""3578""
","
","","682.9999999999418","","","","real_trial","2021-03-30 21:44:54.518","img/card_backs/set1/red.gif","0","200","1","",""
"casino-fixation","74","351996","0.0-25.0-0.1","A102","false","img/card_backs/set1/yellow.gif","img/card_backs/set1/red.gif","img/card_backs/set1/purple.gif","img/card_backs/set1/green.gif","img/card_backs/set2/blue.gif","img/card_backs/set2/orange.gif","img/card_backs/set2/gray.gif","img/card_backs/set2/pink.gif","""event"",""trial"",""time""
""fullscreenenter"",""1"",""3578""
","
","
","""event"",""trial"",""time""
""fullscreenenter"",""1"",""3578""
","
","","null","","null","","fixation","2021-03-30 21:44:55.021","","","","","",""
"card-selection-trial","75","354608","0.0-25.0-1.1","A102","false","img/card_backs/set1/yellow.gif","img/card_backs/set1/red.gif","img/card_backs/set1/purple.gif","img/card_backs/set1/green.gif","img/card_backs/set2/blue.gif","img/card_backs/set2/orange.gif","img/card_backs/set2/gray.gif","img/card_backs/set2/pink.gif","""event"",""trial"",""time""
""fullscreenenter"",""1"",""3578""
","
","
","""event"",""trial"",""time""
""fullscreenenter"",""1"",""3578""
","
","","605","","","","real_trial","2021-03-30 21:44:57.633","img/card_backs/set1/purple.gif","0","110","1","",""
"casino-fixation","76","355111","0.0-25.0-0.2","A102","false","img/card_backs/set1/yellow.gif","img/card_backs/set1/red.gif","img/card_backs/set1/purple.gif","img/card_backs/set1/green.gif","img/card_backs/set2/blue.gif","img/card_backs/set2/orange.gif","img/card_backs/set2/gray.gif","img/card_backs/set2/pink.gif","""event"",""trial"",""time""
""fullscreenenter"",""1"",""3578""
","
","
","""event"",""trial"",""time""
""fullscreenenter"",""1"",""3578""
","
","","null","","null","","fixation","2021-03-30 21:44:58.136","","","","","",""
"card-selection-trial","77","357528","0.0-25.0-1.2","A102","false","img/card_backs/set1/yellow.gif","img/card_backs/set1/red.gif","img/card_backs/set1/purple.gif","img/card_backs/set1/green.gif","img/card_backs/set2/blue.gif","img/card_backs/set2/orange.gif","img/card_backs/set2/gray.gif","img/card_backs/set2/pink.gif","""event"",""trial"",""time""
""fullscreenenter"",""1"",""3578""
","
","
","""event"",""trial"",""time""
""fullscreenenter"",""1"",""3578""
","
","","411.0000000000582","","","","real_trial","2021-03-30 21:45:00.553","img/card_backs/set1/red.gif","0","-250","1","",""
"casino-fixation","78","358032","0.0-25.0-0.3","A102","false","img/card_backs/set1/yellow.gif","img/card_backs/set1/red.gif","img/card_backs/set1/purple.gif","img/card_backs/set1/green.gif","img/card_backs/set2/blue.gif","img/card_backs/set2/orange.gif","img/card_backs/set2/gray.gif","img/card_backs/set2/pink.gif","""event"",""trial"",""time""
""fullscreenenter"",""1"",""3578""
","
","
","""event"",""trial"",""time""
""fullscreenenter"",""1"",""3578""
","
","","null","","null","","fixation","2021-03-30 21:45:01.057","","","","","",""
"card-selection-trial","79","360517","0.0-25.0-1.3","A102","false","img/card_backs/set1/yellow.gif","img/card_backs/set1/red.gif","img/card_backs/set1/purple.gif","img/card_backs/set1/green.gif","img/card_backs/set2/blue.gif","img/card_backs/set2/orange.gif","img/card_backs/set2/gray.gif","img/card_backs/set2/pink.gif","""event"",""trial"",""time""
""fullscreenenter"",""1"",""3578""
","
","
","""event"",""trial"",""time""
""fullscreenenter"",""1"",""3578""
","
","","478","","","","real_trial","2021-03-30 21:45:03.542","img/card_backs/set1/green.gif","0","-70","1","",""
"casino-fixation","80","361020","0.0-25.0-0.4","A102","false","img/card_backs/set1/yellow.gif","img/card_backs/set1/red.gif","img/card_backs/set1/purple.gif","img/card_backs/set1/green.gif","img/card_backs/set2/blue.gif","img/card_backs/set2/orange.gif","img/card_backs/set2/gray.gif","img/card_backs/set2/pink.gif","""event"",""trial"",""time""
""fullscreenenter"",""1"",""3578""
","
","
","""event"",""trial"",""time""
""fullscreenenter"",""1"",""3578""
","
","","null","","null","","fixation","2021-03-30 21:45:04.045","","","","","",""
"card-selection-trial","81","364296","0.0-25.0-1.4","A102","false","img/card_backs/set1/yellow.gif","img/card_backs/set1/red.gif","img/card_backs/set1/purple.gif","img/card_backs/set1/green.gif","img/card_backs/set2/blue.gif","img/card_backs/set2/orange.gif","img/card_backs/set2/gray.gif","img/card_backs/set2/pink.gif","""event"",""trial"",""time""
""fullscreenenter"",""1"",""3578""
","
","
","""event"",""trial"",""time""
""fullscreenenter"",""1"",""3578""
","
","","1270","","","","real_trial","2021-03-30 21:45:07.322","img/card_backs/set1/purple.gif","1","120","1","",""
"casino-fixation","82","364801","0.0-25.0-0.5","A102","false","img/card_backs/set1/yellow.gif","img/card_backs/set1/red.gif","img/card_backs/set1/purple.gif","img/card_backs/set1/green.gif","img/card_backs/set2/blue.gif","img/card_backs/set2/orange.gif","img/card_backs/set2/gray.gif","img/card_backs/set2/pink.gif","""event"",""trial"",""time""
""fullscreenenter"",""1"",""3578""
","
","
","""event"",""trial"",""time""
""fullscreenenter"",""1"",""3578""
","
","","null","","null","","fixation","2021-03-30 21:45:07.826","","","","","",""
"card-selection-trial","83","367157","0.0-25.0-1.5","A102","false","img/card_backs/set1/yellow.gif","img/card_backs/set1/red.gif","img/card_backs/set1/purple.gif","img/card_backs/set1/green.gif","img/card_backs/set2/blue.gif","img/card_backs/set2/orange.gif","img/card_backs/set2/gray.gif","img/card_backs/set2/pink.gif","""event"",""trial"",""time""
""fullscreenenter"",""1"",""3578""
","
","
","""event"",""trial"",""time""
""fullscreenenter"",""1"",""3578""
","
","","349","","","","real_trial","2021-03-30 21:45:10.182","img/card_backs/set1/purple.gif","1","110","1","",""
"casino-fixation","84","367660","0.0-25.0-0.6","A102","false","img/card_backs/set1/yellow.gif","img/card_backs/set1/red.gif","img/card_backs/set1/purple.gif","img/card_backs/set1/green.gif","img/card_backs/set2/blue.gif","img/card_backs/set2/orange.gif","img/card_backs/set2/gray.gif","img/card_backs/set2/pink.gif","""event"",""trial"",""time""
""fullscreenenter"",""1"",""3578""
","
","
","""event"",""trial"",""time""
""fullscreenenter"",""1"",""3578""
","
","","null","","null","","fixation","2021-03-30 21:45:10.686","","","","","",""
"card-selection-trial","85","369943","0.0-25.0-1.6","A102","false","img/card_backs/set1/yellow.gif","img/card_backs/set1/red.gif","img/card_backs/set1/purple.gif","img/card_backs/set1/green.gif","img/card_backs/set2/blue.gif","img/card_backs/set2/orange.gif","img/card_backs/set2/gray.gif","img/card_backs/set2/pink.gif","""event"",""trial"",""time""
""fullscreenenter"",""1"",""3578""
","
","
","""event"",""trial"",""time""
""fullscreenenter"",""1"",""3578""
","
","","276","","","","real_trial","2021-03-30 21:45:12.968","img/card_backs/set1/yellow.gif","1","190","1","",""
"casino-fixation","86","370447","0.0-25.0-0.7","A102","false","img/card_backs/set1/yellow.gif","img/card_backs/set1/red.gif","img/card_backs/set1/purple.gif","img/card_backs/set1/green.gif","img/card_backs/set2/blue.gif","img/card_backs/set2/orange.gif","img/card_backs/set2/gray.gif","img/card_backs/set2/pink.gif","""event"",""trial"",""time""
""fullscreenenter"",""1"",""3578""
","
","
","""event"",""trial"",""time""
""fullscreenenter"",""1"",""3578""
","
","","null","","null","","fixation","2021-03-30 21:45:13.472","","","","","",""
"card-selection-trial","87","372716","0.0-25.0-1.7","A102","false","img/card_backs/set1/yellow.gif","img/card_backs/set1/red.gif","img/card_backs/set1/purple.gif","img/card_backs/set1/green.gif","img/card_backs/set2/blue.gif","img/card_backs/set2/orange.gif","img/card_backs/set2/gray.gif","img/card_backs/set2/pink.gif","""event"",""trial"",""time""
""fullscreenenter"",""1"",""3578""
","
","
","""event"",""trial"",""time""
""fullscreenenter"",""1"",""3578""
","
","","263","","","","real_trial","2021-03-30 21:45:15.741","img/card_backs/set1/purple.gif","1","100","1","",""
"casino-fixation","88","373219","0.0-25.0-0.8","A102","false","img/card_backs/set1/yellow.gif","img/card_backs/set1/red.gif","img/card_backs/set1/purple.gif","img/card_backs/set1/green.gif","img/card_backs/set2/blue.gif","img/card_backs/set2/orange.gif","img/card_backs/set2/gray.gif","img/card_backs/set2/pink.gif","""event"",""trial"",""time""
""fullscreenenter"",""1"",""3578""
","
","
","""event"",""trial"",""time""
""fullscreenenter"",""1"",""3578""
","
","","null","","null","","fixation","2021-03-30 21:45:16.244","","","","","",""
"card-selection-trial","89","375479","0.0-25.0-1.8","A102","false","img/card_backs/set1/yellow.gif","img/card_backs/set1/red.gif","img/card_backs/set1/purple.gif","img/card_backs/set1/green.gif","img/card_backs/set2/blue.gif","img/card_backs/set2/orange.gif","img/card_backs/set2/gray.gif","img/card_backs/set2/pink.gif","""event"",""trial"",""time""
""fullscreenenter"",""1"",""3578""
","
","
","""event"",""trial"",""time""
""fullscreenenter"",""1"",""3578""
","
","","253","","","","real_trial","2021-03-30 21:45:18.504","img/card_backs/set1/yellow.gif","1","-250","1","",""
"casino-fixation","90","375983","0.0-25.0-0.9","A102","false","img/card_backs/set1/yellow.gif","img/card_backs/set1/red.gif","img/card_backs/set1/purple.gif","img/card_backs/set1/green.gif","img/card_backs/set2/blue.gif","img/card_backs/set2/orange.gif","img/card_backs/set2/gray.gif","img/card_backs/set2/pink.gif","""event"",""trial"",""time""
""fullscreenenter"",""1"",""3578""
","
","
","""event"",""trial"",""time""
""fullscreenenter"",""1"",""3578""
","
","","null","","null","","fixation","2021-03-30 21:45:19.008","","","","","",""
"card-selection-trial","91","378506","0.0-25.0-1.9","A102","false","img/card_backs/set1/yellow.gif","img/card_backs/set1/red.gif","img/card_backs/set1/purple.gif","img/card_backs/set1/green.gif","img/card_backs/set2/blue.gif","img/card_backs/set2/orange.gif","img/card_backs/set2/gray.gif","img/card_backs/set2/pink.gif","""event"",""trial"",""time""
""fullscreenenter"",""1"",""3578""
","
","
","""event"",""trial"",""time""
""fullscreenenter"",""1"",""3578""
","
","","517","","","","real_trial","2021-03-30 21:45:21.531","img/card_backs/set1/red.gif","1","200","1","",""
"casino-fixation","92","379009","0.0-25.0-0.10","A102","false","img/card_backs/set1/yellow.gif","img/card_backs/set1/red.gif","img/card_backs/set1/purple.gif","img/card_backs/set1/green.gif","img/card_backs/set2/blue.gif","img/card_backs/set2/orange.gif","img/card_backs/set2/gray.gif","img/card_backs/set2/pink.gif","""event"",""trial"",""time""
""fullscreenenter"",""1"",""3578""
","
","
","""event"",""trial"",""time""
""fullscreenenter"",""1"",""3578""
","
","","null","","null","","fixation","2021-03-30 21:45:22.034","","","","","",""
"card-selection-trial","93","381582","0.0-25.0-1.10","A102","false","img/card_backs/set1/yellow.gif","img/card_backs/set1/red.gif","img/card_backs/set1/purple.gif","img/card_backs/set1/green.gif","img/card_backs/set2/blue.gif","img/card_backs/set2/orange.gif","img/card_backs/set2/gray.gif","img/card_backs/set2/pink.gif","""event"",""trial"",""time""
""fullscreenenter"",""1"",""3578""
","
","
","""event"",""trial"",""time""
""fullscreenenter"",""1"",""3578""
","
","","569","","","","real_trial","2021-03-30 21:45:24.608","img/card_backs/set1/yellow.gif","1","200","1","",""
"casino-fixation","94","382085","0.0-25.0-0.11","A102","false","img/card_backs/set1/yellow.gif","img/card_backs/set1/red.gif","img/card_backs/set1/purple.gif","img/card_backs/set1/green.gif","img/card_backs/set2/blue.gif","img/card_backs/set2/orange.gif","img/card_backs/set2/gray.gif","img/card_backs/set2/pink.gif","""event"",""trial"",""time""
""fullscreenenter"",""1"",""3578""
","
","
","""event"",""trial"",""time""
""fullscreenenter"",""1"",""3578""
","
","","null","","null","","fixation","2021-03-30 21:45:25.111","","","","","",""
"card-selection-trial","95","384504","0.0-25.0-1.11","A102","false","img/card_backs/set1/yellow.gif","img/card_backs/set1/red.gif","img/card_backs/set1/purple.gif","img/card_backs/set1/green.gif","img/card_backs/set2/blue.gif","img/card_backs/set2/orange.gif","img/card_backs/set2/gray.gif","img/card_backs/set2/pink.gif","""event"",""trial"",""time""
""fullscreenenter"",""1"",""3578""
","
","
","""event"",""trial"",""time""
""fullscreenenter"",""1"",""3578""
","
","","413","","","","real_trial","2021-03-30 21:45:27.529","img/card_backs/set1/purple.gif","1","110","1","",""
"casino-fixation","96","385008","0.0-25.0-0.12","A102","false","img/card_backs/set1/yellow.gif","img/card_backs/set1/red.gif","img/card_backs/set1/purple.gif","img/card_backs/set1/green.gif","img/card_backs/set2/blue.gif","img/card_backs/set2/orange.gif","img/card_backs/set2/gray.gif","img/card_backs/set2/pink.gif","""event"",""trial"",""time""
""fullscreenenter"",""1"",""3578""
","
","
","""event"",""trial"",""time""
""fullscreenenter"",""1"",""3578""
","
","","null","","null","","fixation","2021-03-30 21:45:28.033","","","","","",""
"card-selection-trial","97","387295","0.0-25.0-1.12","A102","false","img/card_backs/set1/yellow.gif","img/card_backs/set1/red.gif","img/card_backs/set1/purple.gif","img/card_backs/set1/green.gif","img/card_backs/set2/blue.gif","img/card_backs/set2/orange.gif","img/card_backs/set2/gray.gif","img/card_backs/set2/pink.gif","""event"",""trial"",""time""
""fullscreenenter"",""1"",""3578""
","
","
","""event"",""trial"",""time""
""fullscreenenter"",""1"",""3578""
","
","","280","","","","real_trial","2021-03-30 21:45:30.320","img/card_backs/set1/green.gif","1","-60","1","",""
"casino-fixation","98","387799","0.0-25.0-0.13","A102","false","img/card_backs/set1/yellow.gif","img/card_backs/set1/red.gif","img/card_backs/set1/purple.gif","img/card_backs/set1/green.gif","img/card_backs/set2/blue.gif","img/card_backs/set2/orange.gif","img/card_backs/set2/gray.gif","img/card_backs/set2/pink.gif","""event"",""trial"",""time""
""fullscreenenter"",""1"",""3578""
","
","
","""event"",""trial"",""time""
""fullscreenenter"",""1"",""3578""
","
","","null","","null","","fixation","2021-03-30 21:45:30.824","","","","","",""
"card-selection-trial","99","390122","0.0-25.0-1.13","A102","false","img/card_backs/set1/yellow.gif","img/card_backs/set1/red.gif","img/card_backs/set1/purple.gif","img/card_backs/set1/green.gif","img/card_backs/set2/blue.gif","img/card_backs/set2/orange.gif","img/card_backs/set2/gray.gif","img/card_backs/set2/pink.gif","""event"",""trial"",""time""
""fullscreenenter"",""1"",""3578""
","
","
","""event"",""trial"",""time""
""fullscreenenter"",""1"",""3578""
","
","","317","","","","real_trial","2021-03-30 21:45:33.147","img/card_backs/set1/purple.gif","1","110","1","",""
"casino-fixation","100","390625","0.0-25.0-0.14","A102","false","img/card_backs/set1/yellow.gif","img/card_backs/set1/red.gif","img/card_backs/set1/purple.gif","img/card_backs/set1/green.gif","img/card_backs/set2/blue.gif","img/card_backs/set2/orange.gif","img/card_backs/set2/gray.gif","img/card_backs/set2/pink.gif","""event"",""trial"",""time""
""fullscreenenter"",""1"",""3578""
","
","
","""event"",""trial"",""time""
""fullscreenenter"",""1"",""3578""
","
","","null","","null","","fixation","2021-03-30 21:45:33.650","","","","","",""
"card-selection-trial","101","392896","0.0-25.0-1.14","A102","false","img/card_backs/set1/yellow.gif","img/card_backs/set1/red.gif","img/card_backs/set1/purple.gif","img/card_backs/set1/green.gif","img/card_backs/set2/blue.gif","img/card_backs/set2/orange.gif","img/card_backs/set2/gray.gif","img/card_backs/set2/pink.gif","""event"",""trial"",""time""
""fullscreenenter"",""1"",""3578""
","
","
","""event"",""trial"",""time""
""fullscreenenter"",""1"",""3578""
","
","","265","","","","real_trial","2021-03-30 21:45:35.921","img/card_backs/set1/yellow.gif","1","-250","1","",""
"casino-fixation","102","393399","0.0-25.0-0.15","A102","false","img/card_backs/set1/yellow.gif","img/card_backs/set1/red.gif","img/card_backs/set1/purple.gif","img/card_backs/set1/green.gif","img/card_backs/set2/blue.gif","img/card_backs/set2/orange.gif","img/card_backs/set2/gray.gif","img/card_backs/set2/pink.gif","""event"",""trial"",""time""
""fullscreenenter"",""1"",""3578""
","
","
","""event"",""trial"",""time""
""fullscreenenter"",""1"",""3578""
","
","","null","","null","","fixation","2021-03-30 21:45:36.424","","","","","",""
"card-selection-trial","103","395928","0.0-25.0-1.15","A102","false","img/card_backs/set1/yellow.gif","img/card_backs/set1/red.gif","img/card_backs/set1/purple.gif","img/card_backs/set1/green.gif","img/card_backs/set2/blue.gif","img/card_backs/set2/orange.gif","img/card_backs/set2/gray.gif","img/card_backs/set2/pink.gif","""event"",""trial"",""time""
""fullscreenenter"",""1"",""3578""
","
","
","""event"",""trial"",""time""
""fullscreenenter"",""1"",""3578""
","
","","525","","","","real_trial","2021-03-30 21:45:38.954","img/card_backs/set1/red.gif","2","190","1","",""
"casino-fixation","104","396433","0.0-25.0-0.16","A102","false","img/card_backs/set1/yellow.gif","img/card_backs/set1/red.gif","img/card_backs/set1/purple.gif","img/card_backs/set1/green.gif","img/card_backs/set2/blue.gif","img/card_backs/set2/orange.gif","img/card_backs/set2/gray.gif","img/card_backs/set2/pink.gif","""event"",""trial"",""time""
""fullscreenenter"",""1"",""3578""
","
","
","""event"",""trial"",""time""
""fullscreenenter"",""1"",""3578""
","
","","null","","null","","fixation","2021-03-30 21:45:39.458","","","","","",""
"card-selection-trial","105","398764","0.0-25.0-1.16","A102","false","img/card_backs/set1/yellow.gif","img/card_backs/set1/red.gif","img/card_backs/set1/purple.gif","img/card_backs/set1/green.gif","img/card_backs/set2/blue.gif","img/card_backs/set2/orange.gif","img/card_backs/set2/gray.gif","img/card_backs/set2/pink.gif","""event"",""trial"",""time""
""fullscreenenter"",""1"",""3578""
","
","
","""event"",""trial"",""time""
""fullscreenenter"",""1"",""3578""
","
","","325","","","","real_trial","2021-03-30 21:45:41.789","img/card_backs/set1/red.gif","2","200","1","",""
"casino-fixation","106","399267","0.0-25.0-0.17","A102","false","img/card_backs/set1/yellow.gif","img/card_backs/set1/red.gif","img/card_backs/set1/purple.gif","img/card_backs/set1/green.gif","img/card_backs/set2/blue.gif","img/card_backs/set2/orange.gif","img/card_backs/set2/gray.gif","img/card_backs/set2/pink.gif","""event"",""trial"",""time""
""fullscreenenter"",""1"",""3578""
","
","
","""event"",""trial"",""time""
""fullscreenenter"",""1"",""3578""
","
","","null","","null","","fixation","2021-03-30 21:45:42.293","","","","","",""
"card-selection-trial","107","401595","0.0-25.0-1.17","A102","false","img/card_backs/set1/yellow.gif","img/card_backs/set1/red.gif","img/card_backs/set1/purple.gif","img/card_backs/set1/green.gif","img/card_backs/set2/blue.gif","img/card_backs/set2/orange.gif","img/card_backs/set2/gray.gif","img/card_backs/set2/pink.gif","""event"",""trial"",""time""
""fullscreenenter"",""1"",""3578""
","
","
","""event"",""trial"",""time""
""fullscreenenter"",""1"",""3578""
","
","","320.0000000000582","","","","real_trial","2021-03-30 21:45:44.620","img/card_backs/set1/red.gif","2","-250","1","",""
"casino-fixation","108","402098","0.0-25.0-0.18","A102","false","img/card_backs/set1/yellow.gif","img/card_backs/set1/red.gif","img/card_backs/set1/purple.gif","img/card_backs/set1/green.gif","img/card_backs/set2/blue.gif","img/card_backs/set2/orange.gif","img/card_backs/set2/gray.gif","img/card_backs/set2/pink.gif","""event"",""trial"",""time""
""fullscreenenter"",""1"",""3578""
","
","
","""event"",""trial"",""time""
""fullscreenenter"",""1"",""3578""
","
","","null","","null","","fixation","2021-03-30 21:45:45.123","","","","","",""
"card-selection-trial","109","404368","0.0-25.0-1.18","A102","false","img/card_backs/set1/yellow.gif","img/card_backs/set1/red.gif","img/card_backs/set1/purple.gif","img/card_backs/set1/green.gif","img/card_backs/set2/blue.gif","img/card_backs/set2/orange.gif","img/card_backs/set2/gray.gif","img/card_backs/set2/pink.gif","""event"",""trial"",""time""
""fullscreenenter"",""1"",""3578""
","
","
","""event"",""trial"",""time""
""fullscreenenter"",""1"",""3578""
","
","","262","","","","real_trial","2021-03-30 21:45:47.393","img/card_backs/set1/green.gif","2","110","1","",""
"casino-fixation","110","404871","0.0-25.0-0.19","A102","false","img/card_backs/set1/yellow.gif","img/card_backs/set1/red.gif","img/card_backs/set1/purple.gif","img/card_backs/set1/green.gif","img/card_backs/set2/blue.gif","img/card_backs/set2/orange.gif","img/card_backs/set2/gray.gif","img/card_backs/set2/pink.gif","""event"",""trial"",""time""
""fullscreenenter"",""1"",""3578""
","
","
","""event"",""trial"",""time""
""fullscreenenter"",""1"",""3578""
","
","","null","","null","","fixation","2021-03-30 21:45:47.896","","","","","",""
"card-selection-trial","111","407209","0.0-25.0-1.19","A102","false","img/card_backs/set1/yellow.gif","img/card_backs/set1/red.gif","img/card_backs/set1/purple.gif","img/card_backs/set1/green.gif","img/card_backs/set2/blue.gif","img/card_backs/set2/orange.gif","img/card_backs/set2/gray.gif","img/card_backs/set2/pink.gif","""event"",""trial"",""time""
""fullscreenenter"",""1"",""3578""
","
","
","""event"",""trial"",""time""
""fullscreenenter"",""1"",""3578""
","
","","331","","","","real_trial","2021-03-30 21:45:50.234","img/card_backs/set1/purple.gif","2","100","1","",""
"casino-fixation","112","407713","0.0-25.0-0.20","A102","false","img/card_backs/set1/yellow.gif","img/card_backs/set1/red.gif","img/card_backs/set1/purple.gif","img/card_backs/set1/green.gif","img/card_backs/set2/blue.gif","img/card_backs/set2/orange.gif","img/card_backs/set2/gray.gif","img/card_backs/set2/pink.gif","""event"",""trial"",""time""
""fullscreenenter"",""1"",""3578""
","
","
","""event"",""trial"",""time""
""fullscreenenter"",""1"",""3578""
","
","","null","","null","","fixation","2021-03-30 21:45:50.739","","","","","",""
"card-selection-trial","113","410055","0.0-25.0-1.20","A102","false","img/card_backs/set1/yellow.gif","img/card_backs/set1/red.gif","img/card_backs/set1/purple.gif","img/card_backs/set1/green.gif","img/card_backs/set2/blue.gif","img/card_backs/set2/orange.gif","img/card_backs/set2/gray.gif","img/card_backs/set2/pink.gif","""event"",""trial"",""time""
""fullscreenenter"",""1"",""3578""
","
","
","""event"",""trial"",""time""
""fullscreenenter"",""1"",""3578""
","
","","335","","","","real_trial","2021-03-30 21:45:53.080","img/card_backs/set1/green.gif","2","100","1","",""
"casino-fixation","114","410559","0.0-25.0-0.21","A102","false","img/card_backs/set1/yellow.gif","img/card_backs/set1/red.gif","img/card_backs/set1/purple.gif","img/card_backs/set1/green.gif","img/card_backs/set2/blue.gif","img/card_backs/set2/orange.gif","img/card_backs/set2/gray.gif","img/card_backs/set2/pink.gif","""event"",""trial"",""time""
""fullscreenenter"",""1"",""3578""
","
","
","""event"",""trial"",""time""
""fullscreenenter"",""1"",""3578""
","
","","null","","null","","fixation","2021-03-30 21:45:53.584","","","","","",""
"card-selection-trial","115","413244","0.0-25.0-1.21","A102","false","img/card_backs/set1/yellow.gif","img/card_backs/set1/red.gif","img/card_backs/set1/purple.gif","img/card_backs/set1/green.gif","img/card_backs/set2/blue.gif","img/card_backs/set2/orange.gif","img/card_backs/set2/gray.gif","img/card_backs/set2/pink.gif","""event"",""trial"",""time""
""fullscreenenter"",""1"",""3578""
","
","
","""event"",""trial"",""time""
""fullscreenenter"",""1"",""3578""
","
","","679","","","","real_trial","2021-03-30 21:45:56.269","img/card_backs/set1/red.gif","2","180","1","",""
"casino-fixation","116","413747","0.0-25.0-0.22","A102","false","img/card_backs/set1/yellow.gif","img/card_backs/set1/red.gif","img/card_backs/set1/purple.gif","img/card_backs/set1/green.gif","img/card_backs/set2/blue.gif","img/card_backs/set2/orange.gif","img/card_backs/set2/gray.gif","img/card_backs/set2/pink.gif","""event"",""trial"",""time""
""fullscreenenter"",""1"",""3578""
","
","
","""event"",""trial"",""time""
""fullscreenenter"",""1"",""3578""
","
","","null","","null","","fixation","2021-03-30 21:45:56.772","","","","","",""
"card-selection-trial","117","415995","0.0-25.0-1.22","A102","false","img/card_backs/set1/yellow.gif","img/card_backs/set1/red.gif","img/card_backs/set1/purple.gif","img/card_backs/set1/green.gif","img/card_backs/set2/blue.gif","img/card_backs/set2/orange.gif","img/card_backs/set2/gray.gif","img/card_backs/set2/pink.gif","""event"",""trial"",""time""
""fullscreenenter"",""1"",""3578""
","
","
","""event"",""trial"",""time""
""fullscreenenter"",""1"",""3578""
","
","","242","","","","real_trial","2021-03-30 21:45:59.020","img/card_backs/set1/purple.gif","0","-50","1","",""
"casino-fixation","118","416498","0.0-25.0-0.23","A102","false","img/card_backs/set1/yellow.gif","img/card_backs/set1/red.gif","img/card_backs/set1/purple.gif","img/card_backs/set1/green.gif","img/card_backs/set2/blue.gif","img/card_backs/set2/orange.gif","img/card_backs/set2/gray.gif","img/card_backs/set2/pink.gif","""event"",""trial"",""time""
""fullscreenenter"",""1"",""3578""
","
","
","""event"",""trial"",""time""
""fullscreenenter"",""1"",""3578""
","
","","null","","null","","fixation","2021-03-30 21:45:59.523","","","","","",""
"card-selection-trial","119","419683","0.0-25.0-1.23","A102","false","img/card_backs/set1/yellow.gif","img/card_backs/set1/red.gif","img/card_backs/set1/purple.gif","img/card_backs/set1/green.gif","img/card_backs/set2/blue.gif","img/card_backs/set2/orange.gif","img/card_backs/set2/gray.gif","img/card_backs/set2/pink.gif","""event"",""trial"",""time""
""fullscreenenter"",""1"",""3578""
","
","
","""event"",""trial"",""time""
""fullscreenenter"",""1"",""3578""
","
","","1177.0000000000582","","","","real_trial","2021-03-30 21:46:02.708","img/card_backs/set1/green.gif","1","120","1","",""
"casino-fixation","120","420187","0.0-25.0-0.24","A102","false","img/card_backs/set1/yellow.gif","img/card_backs/set1/red.gif","img/card_backs/set1/purple.gif","img/card_backs/set1/green.gif","img/card_backs/set2/blue.gif","img/card_backs/set2/orange.gif","img/card_backs/set2/gray.gif","img/card_backs/set2/pink.gif","""event"",""trial"",""time""
""fullscreenenter"",""1"",""3578""
","
","
","""event"",""trial"",""time""
""fullscreenenter"",""1"",""3578""
","
","","null","","null","","fixation","2021-03-30 21:46:03.212","","","","","",""
"card-selection-trial","121","423080","0.0-25.0-1.24","A102","false","img/card_backs/set1/yellow.gif","img/card_backs/set1/red.gif","img/card_backs/set1/purple.gif","img/card_backs/set1/green.gif","img/card_backs/set2/blue.gif","img/card_backs/set2/orange.gif","img/card_backs/set2/gray.gif","img/card_backs/set2/pink.gif","""event"",""trial"",""time""
""fullscreenenter"",""1"",""3578""
","
","
","""event"",""trial"",""time""
""fullscreenenter"",""1"",""3578""
","
","","887","","","","real_trial","2021-03-30 21:46:06.106","img/card_backs/set1/green.gif","2","110","1","",""
"casino-fixation","122","423584","0.0-25.0-0.25","A102","false","img/card_backs/set1/yellow.gif","img/card_backs/set1/red.gif","img/card_backs/set1/purple.gif","img/card_backs/set1/green.gif","img/card_backs/set2/blue.gif","img/card_backs/set2/orange.gif","img/card_backs/set2/gray.gif","img/card_backs/set2/pink.gif","""event"",""trial"",""time""
""fullscreenenter"",""1"",""3578""
","
","
","""event"",""trial"",""time""
""fullscreenenter"",""1"",""3578""
","
","","null","","null","","fixation","2021-03-30 21:46:06.609","","","","","",""
"card-selection-trial","123","426004","0.0-25.0-1.25","A102","false","img/card_backs/set1/yellow.gif","img/card_backs/set1/red.gif","img/card_backs/set1/purple.gif","img/card_backs/set1/green.gif","img/card_backs/set2/blue.gif","img/card_backs/set2/orange.gif","img/card_backs/set2/gray.gif","img/card_backs/set2/pink.gif","""event"",""trial"",""time""
""fullscreenenter"",""1"",""3578""
","
","
","""event"",""trial"",""time""
""fullscreenenter"",""1"",""3578""
","
","","413","","","","real_trial","2021-03-30 21:46:09.029","img/card_backs/set1/green.gif","3","120","1","",""
"casino-fixation","124","426508","0.0-25.0-0.26","A102","false","img/card_backs/set1/yellow.gif","img/card_backs/set1/red.gif","img/card_backs/set1/purple.gif","img/card_backs/set1/green.gif","img/card_backs/set2/blue.gif","img/card_backs/set2/orange.gif","img/card_backs/set2/gray.gif","img/card_backs/set2/pink.gif","""event"",""trial"",""time""
""fullscreenenter"",""1"",""3578""
","
","
","""event"",""trial"",""time""
""fullscreenenter"",""1"",""3578""
","
","","null","","null","","fixation","2021-03-30 21:46:09.534","","","","","",""
"card-selection-trial","125","428640","0.0-25.0-1.26","A102","false","img/card_backs/set1/yellow.gif","img/card_backs/set1/red.gif","img/card_backs/set1/purple.gif","img/card_backs/set1/green.gif","img/card_backs/set2/blue.gif","img/card_backs/set2/orange.gif","img/card_backs/set2/gray.gif","img/card_backs/set2/pink.gif","""event"",""trial"",""time""
""fullscreenenter"",""1"",""3578""
","
","
","""event"",""trial"",""time""
""fullscreenenter"",""1"",""3578""
","
","","125","","","","real_trial","2021-03-30 21:46:11.665","img/card_backs/set1/red.gif","3","200","1","",""
"casino-fixation","126","429144","0.0-25.0-0.27","A102","false","img/card_backs/set1/yellow.gif","img/card_backs/set1/red.gif","img/card_backs/set1/purple.gif","img/card_backs/set1/green.gif","img/card_backs/set2/blue.gif","img/card_backs/set2/orange.gif","img/card_backs/set2/gray.gif","img/card_backs/set2/pink.gif","""event"",""trial"",""time""
""fullscreenenter"",""1"",""3578""
","
","
","""event"",""trial"",""time""
""fullscreenenter"",""1"",""3578""
","
","","null","","null","","fixation","2021-03-30 21:46:12.169","","","","","",""
"card-selection-trial","127","431470","0.0-25.0-1.27","A102","false","img/card_backs/set1/yellow.gif","img/card_backs/set1/red.gif","img/card_backs/set1/purple.gif","img/card_backs/set1/green.gif","img/card_backs/set2/blue.gif","img/card_backs/set2/orange.gif","img/card_backs/set2/gray.gif","img/card_backs/set2/pink.gif","""event"",""trial"",""time""
""fullscreenenter"",""1"",""3578""
","
","
","""event"",""trial"",""time""
""fullscreenenter"",""1"",""3578""
","
","","319","","","","real_trial","2021-03-30 21:46:14.495","img/card_backs/set1/green.gif","3","-70","1","",""
"casino-fixation","128","431974","0.0-25.0-0.28","A102","false","img/card_backs/set1/yellow.gif","img/card_backs/set1/red.gif","img/card_backs/set1/purple.gif","img/card_backs/set1/green.gif","img/card_backs/set2/blue.gif","img/card_backs/set2/orange.gif","img/card_backs/set2/gray.gif","img/card_backs/set2/pink.gif","""event"",""trial"",""time""
""fullscreenenter"",""1"",""3578""
","
","
","""event"",""trial"",""time""
""fullscreenenter"",""1"",""3578""
","
","","null","","null","","fixation","2021-03-30 21:46:14.999","","","","","",""
"card-selection-trial","129","434873","0.0-25.0-1.28","A102","false","img/card_backs/set1/yellow.gif","img/card_backs/set1/red.gif","img/card_backs/set1/purple.gif","img/card_backs/set1/green.gif","img/card_backs/set2/blue.gif","img/card_backs/set2/orange.gif","img/card_backs/set2/gray.gif","img/card_backs/set2/pink.gif","""event"",""trial"",""time""
""fullscreenenter"",""1"",""3578""
","
","
","""event"",""trial"",""time""
""fullscreenenter"",""1"",""3578""
","
","","892","","","","real_trial","2021-03-30 21:46:17.898","img/card_backs/set1/yellow.gif","2","190","1","",""
"casino-fixation","130","435377","0.0-25.0-0.29","A102","false","img/card_backs/set1/yellow.gif","img/card_backs/set1/red.gif","img/card_backs/set1/purple.gif","img/card_backs/set1/green.gif","img/card_backs/set2/blue.gif","img/card_backs/set2/orange.gif","img/card_backs/set2/gray.gif","img/card_backs/set2/pink.gif","""event"",""trial"",""time""
""fullscreenenter"",""1"",""3578""
","
","
","""event"",""trial"",""time""
""fullscreenenter"",""1"",""3578""
","
","","null","","null","","fixation","2021-03-30 21:46:18.402","","","","","",""
"card-selection-trial","131","437983","0.0-25.0-1.29","A102","false","img/card_backs/set1/yellow.gif","img/card_backs/set1/red.gif","img/card_backs/set1/purple.gif","img/card_backs/set1/green.gif","img/card_backs/set2/blue.gif","img/card_backs/set2/orange.gif","img/card_backs/set2/gray.gif","img/card_backs/set2/pink.gif","""event"",""trial"",""time""
""fullscreenenter"",""1"",""3578""
","
","
","""event"",""trial"",""time""
""fullscreenenter"",""1"",""3578""
","
","","599","","","","real_trial","2021-03-30 21:46:21.008","img/card_backs/set1/red.gif","2","190","1","",""
"casino-fixation","132","438487","0.0-25.0-0.30","A102","false","img/card_backs/set1/yellow.gif","img/card_backs/set1/red.gif","img/card_backs/set1/purple.gif","img/card_backs/set1/green.gif","img/card_backs/set2/blue.gif","img/card_backs/set2/orange.gif","img/card_backs/set2/gray.gif","img/card_backs/set2/pink.gif","""event"",""trial"",""time""
""fullscreenenter"",""1"",""3578""
","
","
","""event"",""trial"",""time""
""fullscreenenter"",""1"",""3578""
","
","","null","","null","","fixation","2021-03-30 21:46:21.512","","","","","",""
"card-selection-trial","133","440788","0.0-25.0-1.30","A102","false","img/card_backs/set1/yellow.gif","img/card_backs/set1/red.gif","img/card_backs/set1/purple.gif","img/card_backs/set1/green.gif","img/card_backs/set2/blue.gif","img/card_backs/set2/orange.gif","img/card_backs/set2/gray.gif","img/card_backs/set2/pink.gif","""event"",""trial"",""time""
""fullscreenenter"",""1"",""3578""
","
","
","""event"",""trial"",""time""
""fullscreenenter"",""1"",""3578""
","
","","294","","","","real_trial","2021-03-30 21:46:23.813","img/card_backs/set1/green.gif","2","-70","1","",""
"casino-fixation","134","441291","0.0-25.0-0.31","A102","false","img/card_backs/set1/yellow.gif","img/card_backs/set1/red.gif","img/card_backs/set1/purple.gif","img/card_backs/set1/green.gif","img/card_backs/set2/blue.gif","img/card_backs/set2/orange.gif","img/card_backs/set2/gray.gif","img/card_backs/set2/pink.gif","""event"",""trial"",""time""
""fullscreenenter"",""1"",""3578""
","
","
","""event"",""trial"",""time""
""fullscreenenter"",""1"",""3578""
","
","","null","","null","","fixation","2021-03-30 21:46:24.317","","","","","",""
"card-selection-trial","135","443632","0.0-25.0-1.31","A102","false","img/card_backs/set1/yellow.gif","img/card_backs/set1/red.gif","img/card_backs/set1/purple.gif","img/card_backs/set1/green.gif","img/card_backs/set2/blue.gif","img/card_backs/set2/orange.gif","img/card_backs/set2/gray.gif","img/card_backs/set2/pink.gif","""event"",""trial"",""time""
""fullscreenenter"",""1"",""3578""
","
","
","""event"",""trial"",""time""
""fullscreenenter"",""1"",""3578""
","
","","333","","","","real_trial","2021-03-30 21:46:26.657","img/card_backs/set1/green.gif","2","-70","1","",""
"casino-fixation","136","444135","0.0-25.0-0.32","A102","false","img/card_backs/set1/yellow.gif","img/card_backs/set1/red.gif","img/card_backs/set1/purple.gif","img/card_backs/set1/green.gif","img/card_backs/set2/blue.gif","img/card_backs/set2/orange.gif","img/card_backs/set2/gray.gif","img/card_backs/set2/pink.gif","""event"",""trial"",""time""
""fullscreenenter"",""1"",""3578""
","
","
","""event"",""trial"",""time""
""fullscreenenter"",""1"",""3578""
","
","","null","","null","","fixation","2021-03-30 21:46:27.161","","","","","",""
"card-selection-trial","137","447761","0.0-25.0-1.32","A102","false","img/card_backs/set1/yellow.gif","img/card_backs/set1/red.gif","img/card_backs/set1/purple.gif","img/card_backs/set1/green.gif","img/card_backs/set2/blue.gif","img/card_backs/set2/orange.gif","img/card_backs/set2/gray.gif","img/card_backs/set2/pink.gif","""event"",""trial"",""time""
""fullscreenenter"",""1"",""3578""
","
","
","""event"",""trial"",""time""
""fullscreenenter"",""1"",""3578""
","
","","1619","","","","real_trial","2021-03-30 21:46:30.786","img/card_backs/set1/red.gif","3","200","1","",""
"casino-fixation","138","448264","0.0-25.0-0.33","A102","false","img/card_backs/set1/yellow.gif","img/card_backs/set1/red.gif","img/card_backs/set1/purple.gif","img/card_backs/set1/green.gif","img/card_backs/set2/blue.gif","img/card_backs/set2/orange.gif","img/card_backs/set2/gray.gif","img/card_backs/set2/pink.gif","""event"",""trial"",""time""
""fullscreenenter"",""1"",""3578""
","
","
","""event"",""trial"",""time""
""fullscreenenter"",""1"",""3578""
","
","","null","","null","","fixation","2021-03-30 21:46:31.290","","","","","",""
"card-selection-trial","139","450869","0.0-25.0-1.33","A102","false","img/card_backs/set1/yellow.gif","img/card_backs/set1/red.gif","img/card_backs/set1/purple.gif","img/card_backs/set1/green.gif","img/card_backs/set2/blue.gif","img/card_backs/set2/orange.gif","img/card_backs/set2/gray.gif","img/card_backs/set2/pink.gif","""event"",""trial"",""time""
""fullscreenenter"",""1"",""3578""
","
","
","""event"",""trial"",""time""
""fullscreenenter"",""1"",""3578""
","
","","597.9999999999418","","","","real_trial","2021-03-30 21:46:33.895","img/card_backs/set1/green.gif","3","-60","1","",""
"casino-fixation","140","451373","0.0-25.0-0.34","A102","false","img/card_backs/set1/yellow.gif","img/card_backs/set1/red.gif","img/card_backs/set1/purple.gif","img/card_backs/set1/green.gif","img/card_backs/set2/blue.gif","img/card_backs/set2/orange.gif","img/card_backs/set2/gray.gif","img/card_backs/set2/pink.gif","""event"",""trial"",""time""
""fullscreenenter"",""1"",""3578""
","
","
","""event"",""trial"",""time""
""fullscreenenter"",""1"",""3578""
","
","","null","","null","","fixation","2021-03-30 21:46:34.398","","","","","",""
"card-selection-trial","141","454027","0.0-25.0-1.34","A102","false","img/card_backs/set1/yellow.gif","img/card_backs/set1/red.gif","img/card_backs/set1/purple.gif","img/card_backs/set1/green.gif","img/card_backs/set2/blue.gif","img/card_backs/set2/orange.gif","img/card_backs/set2/gray.gif","img/card_backs/set2/pink.gif","""event"",""trial"",""time""
""fullscreenenter"",""1"",""3578""
","
","
","""event"",""trial"",""time""
""fullscreenenter"",""1"",""3578""
","
","","648","","","","real_trial","2021-03-30 21:46:37.052","img/card_backs/set1/green.gif","2","110","1","",""
"casino-fixation","142","454529","0.0-25.0-0.35","A102","false","img/card_backs/set1/yellow.gif","img/card_backs/set1/red.gif","img/card_backs/set1/purple.gif","img/card_backs/set1/green.gif","img/card_backs/set2/blue.gif","img/card_backs/set2/orange.gif","img/card_backs/set2/gray.gif","img/card_backs/set2/pink.gif","""event"",""trial"",""time""
""fullscreenenter"",""1"",""3578""
","
","
","""event"",""trial"",""time""
""fullscreenenter"",""1"",""3578""
","
","","null","","null","","fixation","2021-03-30 21:46:37.555","","","","","",""
"card-selection-trial","143","457194","0.0-25.0-1.35","A102","false","img/card_backs/set1/yellow.gif","img/card_backs/set1/red.gif","img/card_backs/set1/purple.gif","img/card_backs/set1/green.gif","img/card_backs/set2/blue.gif","img/card_backs/set2/orange.gif","img/card_backs/set2/gray.gif","img/card_backs/set2/pink.gif","""event"",""trial"",""time""
""fullscreenenter"",""1"",""3578""
","
","
","""event"",""trial"",""time""
""fullscreenenter"",""1"",""3578""
","
","","658","","","","real_trial","2021-03-30 21:46:40.219","img/card_backs/set1/green.gif","2","-50","1","",""
"casino-fixation","144","457698","0.0-25.0-0.36","A102","false","img/card_backs/set1/yellow.gif","img/card_backs/set1/red.gif","img/card_backs/set1/purple.gif","img/card_backs/set1/green.gif","img/card_backs/set2/blue.gif","img/card_backs/set2/orange.gif","img/card_backs/set2/gray.gif","img/card_backs/set2/pink.gif","""event"",""trial"",""time""
""fullscreenenter"",""1"",""3578""
","
","
","""event"",""trial"",""time""
""fullscreenenter"",""1"",""3578""
","
","","null","","null","","fixation","2021-03-30 21:46:40.723","","","","","",""
"card-selection-trial","145","460897","0.0-25.0-1.36","A102","false","img/card_backs/set1/yellow.gif","img/card_backs/set1/red.gif","img/card_backs/set1/purple.gif","img/card_backs/set1/green.gif","img/card_backs/set2/blue.gif","img/card_backs/set2/orange.gif","img/card_backs/set2/gray.gif","img/card_backs/set2/pink.gif","""event"",""trial"",""time""
""fullscreenenter"",""1"",""3578""
","
","
","""event"",""trial"",""time""
""fullscreenenter"",""1"",""3578""
","
","","1193","","","","real_trial","2021-03-30 21:46:43.923","img/card_backs/set1/purple.gif","1","120","1","",""
"casino-fixation","146","461401","0.0-25.0-0.37","A102","false","img/card_backs/set1/yellow.gif","img/card_backs/set1/red.gif","img/card_backs/set1/purple.gif","img/card_backs/set1/green.gif","img/card_backs/set2/blue.gif","img/card_backs/set2/orange.gif","img/card_backs/set2/gray.gif","img/card_backs/set2/pink.gif","""event"",""trial"",""time""
""fullscreenenter"",""1"",""3578""
","
","
","""event"",""trial"",""time""
""fullscreenenter"",""1"",""3578""
","
","","null","","null","","fixation","2021-03-30 21:46:44.427","","","","","",""
"card-selection-trial","147","463674","0.0-25.0-1.37","A102","false","img/card_backs/set1/yellow.gif","img/card_backs/set1/red.gif","img/card_backs/set1/purple.gif","img/card_backs/set1/green.gif","img/card_backs/set2/blue.gif","img/card_backs/set2/orange.gif","img/card_backs/set2/gray.gif","img/card_backs/set2/pink.gif","""event"",""trial"",""time""
""fullscreenenter"",""1"",""3578""
","
","
","""event"",""trial"",""time""
""fullscreenenter"",""1"",""3578""
","
","","267","","","","real_trial","2021-03-30 21:46:46.699","img/card_backs/set1/yellow.gif","1","180","1","",""
"casino-fixation","148","464178","0.0-25.0-0.38","A102","false","img/card_backs/set1/yellow.gif","img/card_backs/set1/red.gif","img/card_backs/set1/purple.gif","img/card_backs/set1/green.gif","img/card_backs/set2/blue.gif","img/card_backs/set2/orange.gif","img/card_backs/set2/gray.gif","img/card_backs/set2/pink.gif","""event"",""trial"",""time""
""fullscreenenter"",""1"",""3578""
","
","
","""event"",""trial"",""time""
""fullscreenenter"",""1"",""3578""
","
","","null","","null","","fixation","2021-03-30 21:46:47.203","","","","","",""
"card-selection-trial","149","466510","0.0-25.0-1.38","A102","false","img/card_backs/set1/yellow.gif","img/card_backs/set1/red.gif","img/card_backs/set1/purple.gif","img/card_backs/set1/green.gif","img/card_backs/set2/blue.gif","img/card_backs/set2/orange.gif","img/card_backs/set2/gray.gif","img/card_backs/set2/pink.gif","""event"",""trial"",""time""
""fullscreenenter"",""1"",""3578""
","
","
","""event"",""trial"",""time""
""fullscreenenter"",""1"",""3578""
","
","","326","","","","real_trial","2021-03-30 21:46:49.535","img/card_backs/set1/yellow.gif","1","-240","1","",""
"casino-fixation","150","467014","0.0-25.0-0.39","A102","false","img/card_backs/set1/yellow.gif","img/card_backs/set1/red.gif","img/card_backs/set1/purple.gif","img/card_backs/set1/green.gif","img/card_backs/set2/blue.gif","img/card_backs/set2/orange.gif","img/card_backs/set2/gray.gif","img/card_backs/set2/pink.gif","""event"",""trial"",""time""
""fullscreenenter"",""1"",""3578""
","
","
","""event"",""trial"",""time""
""fullscreenenter"",""1"",""3578""
","
","","null","","null","","fixation","2021-03-30 21:46:50.039","","","","","",""
"card-selection-trial","151","469490","0.0-25.0-1.39","A102","false","img/card_backs/set1/yellow.gif","img/card_backs/set1/red.gif","img/card_backs/set1/purple.gif","img/card_backs/set1/green.gif","img/card_backs/set2/blue.gif","img/card_backs/set2/orange.gif","img/card_backs/set2/gray.gif","img/card_backs/set2/pink.gif","""event"",""trial"",""time""
""fullscreenenter"",""1"",""3578""
","
","
","""event"",""trial"",""time""
""fullscreenenter"",""1"",""3578""
","
","","468.9999999999418","","","","real_trial","2021-03-30 21:46:52.516","img/card_backs/set1/green.gif","1","100","1","",""
"casino-fixation","152","469993","0.0-25.0-0.40","A102","false","img/card_backs/set1/yellow.gif","img/card_backs/set1/red.gif","img/card_backs/set1/purple.gif","img/card_backs/set1/green.gif","img/card_backs/set2/blue.gif","img/card_backs/set2/orange.gif","img/card_backs/set2/gray.gif","img/card_backs/set2/pink.gif","""event"",""trial"",""time""
""fullscreenenter"",""1"",""3578""
","
","
","""event"",""trial"",""time""
""fullscreenenter"",""1"",""3578""
","
","","null","","null","","fixation","2021-03-30 21:46:53.019","","","","","",""
"card-selection-trial","153","472315","0.0-25.0-1.40","A102","false","img/card_backs/set1/yellow.gif","img/card_backs/set1/red.gif","img/card_backs/set1/purple.gif","img/card_backs/set1/green.gif","img/card_backs/set2/blue.gif","img/card_backs/set2/orange.gif","img/card_backs/set2/gray.gif","img/card_backs/set2/pink.gif","""event"",""trial"",""time""
""fullscreenenter"",""1"",""3578""
","
","
","""event"",""trial"",""time""
""fullscreenenter"",""1"",""3578""
","
","","314","","","","real_trial","2021-03-30 21:46:55.340","img/card_backs/set1/yellow.gif","1","-240","1","",""
"casino-fixation","154","472819","0.0-25.0-0.41","A102","false","img/card_backs/set1/yellow.gif","img/card_backs/set1/red.gif","img/card_backs/set1/purple.gif","img/card_backs/set1/green.gif","img/card_backs/set2/blue.gif","img/card_backs/set2/orange.gif","img/card_backs/set2/gray.gif","img/card_backs/set2/pink.gif","""event"",""trial"",""time""
""fullscreenenter"",""1"",""3578""
","
","
","""event"",""trial"",""time""
""fullscreenenter"",""1"",""3578""
","
","","null","","null","","fixation","2021-03-30 21:46:55.844","","","","","",""
"card-selection-trial","155","475075","0.0-25.0-1.41","A102","false","img/card_backs/set1/yellow.gif","img/card_backs/set1/red.gif","img/card_backs/set1/purple.gif","img/card_backs/set1/green.gif","img/card_backs/set2/blue.gif","img/card_backs/set2/orange.gif","img/card_backs/set2/gray.gif","img/card_backs/set2/pink.gif","""event"",""trial"",""time""
""fullscreenenter"",""1"",""3578""
","
","
","""event"",""trial"",""time""
""fullscreenenter"",""1"",""3578""
","
","","250","","","","real_trial","2021-03-30 21:46:58.101","img/card_backs/set1/green.gif","0","100","1","",""
"casino-fixation","156","475579","0.0-25.0-0.42","A102","false","img/card_backs/set1/yellow.gif","img/card_backs/set1/red.gif","img/card_backs/set1/purple.gif","img/card_backs/set1/green.gif","img/card_backs/set2/blue.gif","img/card_backs/set2/orange.gif","img/card_backs/set2/gray.gif","img/card_backs/set2/pink.gif","""event"",""trial"",""time""
""fullscreenenter"",""1"",""3578""
","
","
","""event"",""trial"",""time""
""fullscreenenter"",""1"",""3578""
","
","","null","","null","","fixation","2021-03-30 21:46:58.604","","","","","",""
"card-selection-trial","157","477874","0.0-25.0-1.42","A102","false","img/card_backs/set1/yellow.gif","img/card_backs/set1/red.gif","img/card_backs/set1/purple.gif","img/card_backs/set1/green.gif","img/card_backs/set2/blue.gif","img/card_backs/set2/orange.gif","img/card_backs/set2/gray.gif","img/card_backs/set2/pink.gif","""event"",""trial"",""time""
""fullscreenenter"",""1"",""3578""
","
","
","""event"",""trial"",""time""
""fullscreenenter"",""1"",""3578""
","
","","287.9999999999418","","","","real_trial","2021-03-30 21:47:00.899","img/card_backs/set1/green.gif","0","120","1","",""
"casino-fixation","158","478377","0.0-25.0-0.43","A102","false","img/card_backs/set1/yellow.gif","img/card_backs/set1/red.gif","img/card_backs/set1/purple.gif","img/card_backs/set1/green.gif","img/card_backs/set2/blue.gif","img/card_backs/set2/orange.gif","img/card_backs/set2/gray.gif","img/card_backs/set2/pink.gif","""event"",""trial"",""time""
""fullscreenenter"",""1"",""3578""
","
","
","""event"",""trial"",""time""
""fullscreenenter"",""1"",""3578""
","
","","null","","null","","fixation","2021-03-30 21:47:01.403","","","","","",""
"card-selection-trial","159","482738","0.0-25.0-1.43","A102","false","img/card_backs/set1/yellow.gif","img/card_backs/set1/red.gif","img/card_backs/set1/purple.gif","img/card_backs/set1/green.gif","img/card_backs/set2/blue.gif","img/card_backs/set2/orange.gif","img/card_backs/set2/gray.gif","img/card_backs/set2/pink.gif","""event"",""trial"",""time""
""fullscreenenter"",""1"",""3578""
","
","
","""event"",""trial"",""time""
""fullscreenenter"",""1"",""3578""
","
","","2354.999999999942","","","","real_trial","2021-03-30 21:47:05.764","img/card_backs/set1/purple.gif","0","120","1","",""
"casino-fixation","160","483242","0.0-25.0-0.44","A102","false","img/card_backs/set1/yellow.gif","img/card_backs/set1/red.gif","img/card_backs/set1/purple.gif","img/card_backs/set1/green.gif","img/card_backs/set2/blue.gif","img/card_backs/set2/orange.gif","img/card_backs/set2/gray.gif","img/card_backs/set2/pink.gif","""event"",""trial"",""time""
""fullscreenenter"",""1"",""3578""
","
","
","""event"",""trial"",""time""
""fullscreenenter"",""1"",""3578""
","
","","null","","null","","fixation","2021-03-30 21:47:06.267","","","","","",""
"card-selection-trial","161","485526","0.0-25.0-1.44","A102","false","img/card_backs/set1/yellow.gif","img/card_backs/set1/red.gif","img/card_backs/set1/purple.gif","img/card_backs/set1/green.gif","img/card_backs/set2/blue.gif","img/card_backs/set2/orange.gif","img/card_backs/set2/gray.gif","img/card_backs/set2/pink.gif","""event"",""trial"",""time""
""fullscreenenter"",""1"",""3578""
","
","
","""event"",""trial"",""time""
""fullscreenenter"",""1"",""3578""
","
","","276.0000000000582","","","","real_trial","2021-03-30 21:47:08.551","img/card_backs/set1/purple.gif","0","110","1","",""
"casino-fixation","162","486030","0.0-25.0-0.45","A102","false","img/card_backs/set1/yellow.gif","img/card_backs/set1/red.gif","img/card_backs/set1/purple.gif","img/card_backs/set1/green.gif","img/card_backs/set2/blue.gif","img/card_backs/set2/orange.gif","img/card_backs/set2/gray.gif","img/card_backs/set2/pink.gif","""event"",""trial"",""time""
""fullscreenenter"",""1"",""3578""
","
","
","""event"",""trial"",""time""
""fullscreenenter"",""1"",""3578""
","
","","null","","null","","fixation","2021-03-30 21:47:09.055","","","","","",""
"card-selection-trial","163","488761","0.0-25.0-1.45","A102","false","img/card_backs/set1/yellow.gif","img/card_backs/set1/red.gif","img/card_backs/set1/purple.gif","img/card_backs/set1/green.gif","img/card_backs/set2/blue.gif","img/card_backs/set2/orange.gif","img/card_backs/set2/gray.gif","img/card_backs/set2/pink.gif","""event"",""trial"",""time""
""fullscreenenter"",""1"",""3578""
","
","
","""event"",""trial"",""time""
""fullscreenenter"",""1"",""3578""
","
","","726","","","","real_trial","2021-03-30 21:47:11.787","img/card_backs/set1/yellow.gif","3","180","1","",""
"casino-fixation","164","489264","0.0-25.0-0.46","A102","false","img/card_backs/set1/yellow.gif","img/card_backs/set1/red.gif","img/card_backs/set1/purple.gif","img/card_backs/set1/green.gif","img/card_backs/set2/blue.gif","img/card_backs/set2/orange.gif","img/card_backs/set2/gray.gif","img/card_backs/set2/pink.gif","""event"",""trial"",""time""
""fullscreenenter"",""1"",""3578""
","
","
","""event"",""trial"",""time""
""fullscreenenter"",""1"",""3578""
","
","","null","","null","","fixation","2021-03-30 21:47:12.289","","","","","",""
"card-selection-trial","165","491873","0.0-25.0-1.46","A102","false","img/card_backs/set1/yellow.gif","img/card_backs/set1/red.gif","img/card_backs/set1/purple.gif","img/card_backs/set1/green.gif","img/card_backs/set2/blue.gif","img/card_backs/set2/orange.gif","img/card_backs/set2/gray.gif","img/card_backs/set2/pink.gif","""event"",""trial"",""time""
""fullscreenenter"",""1"",""3578""
","
","
","""event"",""trial"",""time""
""fullscreenenter"",""1"",""3578""
","
","","601","","","","real_trial","2021-03-30 21:47:14.898","img/card_backs/set1/purple.gif","3","-60","1","",""
"casino-fixation","166","492377","0.0-25.0-0.47","A102","false","img/card_backs/set1/yellow.gif","img/card_backs/set1/red.gif","img/card_backs/set1/purple.gif","img/card_backs/set1/green.gif","img/card_backs/set2/blue.gif","img/card_backs/set2/orange.gif","img/card_backs/set2/gray.gif","img/card_backs/set2/pink.gif","""event"",""trial"",""time""
""fullscreenenter"",""1"",""3578""
","
","
","""event"",""trial"",""time""
""fullscreenenter"",""1"",""3578""
","
","","null","","null","","fixation","2021-03-30 21:47:15.402","","","","","",""
"card-selection-trial","167","494685","0.0-25.0-1.47","A102","false","img/card_backs/set1/yellow.gif","img/card_backs/set1/red.gif","img/card_backs/set1/purple.gif","img/card_backs/set1/green.gif","img/card_backs/set2/blue.gif","img/card_backs/set2/orange.gif","img/card_backs/set2/gray.gif","img/card_backs/set2/pink.gif","""event"",""trial"",""time""
""fullscreenenter"",""1"",""3578""
","
","
","""event"",""trial"",""time""
""fullscreenenter"",""1"",""3578""
","
","","301.9999999999418","","","","real_trial","2021-03-30 21:47:17.711","img/card_backs/set1/green.gif","0","120","1","",""
"casino-fixation","168","495189","0.0-25.0-0.48","A102","false","img/card_backs/set1/yellow.gif","img/card_backs/set1/red.gif","img/card_backs/set1/purple.gif","img/card_backs/set1/green.gif","img/card_backs/set2/blue.gif","img/card_backs/set2/orange.gif","img/card_backs/set2/gray.gif","img/card_backs/set2/pink.gif","""event"",""trial"",""time""
""fullscreenenter"",""1"",""3578""
","
","
","""event"",""trial"",""time""
""fullscreenenter"",""1"",""3578""
