"trial_type","trial_index","time_elapsed","internal_node_id","sub_id","risk_good_first","block1_A","block1_B","block1_C","block1_D","block2_A","block2_B","block2_C","block2_D","interactions","blur_events","focus_events","fullscreenenter_events","fullscreenexit_events","success","rt","stimulus","key_press","button_pressed","task_part","timestamp","card_choice","choice_position","points_earned","block","correct","response"
"pavlovia","0","3","0.0-0.0","593","true","img/card_backs/set1/yellow.gif","img/card_backs/set1/purple.gif","img/card_backs/set1/red.gif","img/card_backs/set1/green.gif","img/card_backs/set2/gray.gif","img/card_backs/set2/orange.gif","img/card_backs/set2/pink.gif","img/card_backs/set2/blue.gif","""event"",""trial"",""time""
""fullscreenenter"",""1"",""4963""
","
","
","""event"",""trial"",""time""
""fullscreenenter"",""1"",""4963""
","
","","","","","","","","","","","","",""
"fullscreen","1","5952","0.0-1.0","593","true","img/card_backs/set1/yellow.gif","img/card_backs/set1/purple.gif","img/card_backs/set1/red.gif","img/card_backs/set1/green.gif","img/card_backs/set2/gray.gif","img/card_backs/set2/orange.gif","img/card_backs/set2/pink.gif","img/card_backs/set2/blue.gif","""event"",""trial"",""time""
""fullscreenenter"",""1"",""4963""
","
","
","""event"",""trial"",""time""
""fullscreenenter"",""1"",""4963""
","
","true","","","","","","","","","","","",""
"audio-keyboard-response","2","16768","0.0-2.0","593","true","img/card_backs/set1/yellow.gif","img/card_backs/set1/purple.gif","img/card_backs/set1/red.gif","img/card_backs/set1/green.gif","img/card_backs/set2/gray.gif","img/card_backs/set2/orange.gif","img/card_backs/set2/pink.gif","img/card_backs/set2/blue.gif","""event"",""trial"",""time""
""fullscreenenter"",""1"",""4963""
","
","
","""event"",""trial"",""time""
""fullscreenenter"",""1"",""4963""
","
","","10675","audio/beep_loop.wav","32","","","","","","","","",""
"audio-button-response","3","21116","0.0-3.0","593","true","img/card_backs/set1/yellow.gif","img/card_backs/set1/purple.gif","img/card_backs/set1/red.gif","img/card_backs/set1/green.gif","img/card_backs/set2/gray.gif","img/card_backs/set2/orange.gif","img/card_backs/set2/pink.gif","img/card_backs/set2/blue.gif","""event"",""trial"",""time""
""fullscreenenter"",""1"",""4963""
","
","
","""event"",""trial"",""time""
""fullscreenenter"",""1"",""4963""
","
","","NaN","audio/turtle.mp3","","3","","","","","","","",""
"audio-button-response","4","23759","0.0-4.0","593","true","img/card_backs/set1/yellow.gif","img/card_backs/set1/purple.gif","img/card_backs/set1/red.gif","img/card_backs/set1/green.gif","img/card_backs/set2/gray.gif","img/card_backs/set2/orange.gif","img/card_backs/set2/pink.gif","img/card_backs/set2/blue.gif","""event"",""trial"",""time""
""fullscreenenter"",""1"",""4963""
","
","
","""event"",""trial"",""time""
""fullscreenenter"",""1"",""4963""
","
","","NaN","audio/shark.mp3","","2","","","","","","","",""
"fullscreen","5","27092","0.0-5.0","593","true","img/card_backs/set1/yellow.gif","img/card_backs/set1/purple.gif","img/card_backs/set1/red.gif","img/card_backs/set1/green.gif","img/card_backs/set2/gray.gif","img/card_backs/set2/orange.gif","img/card_backs/set2/pink.gif","img/card_backs/set2/blue.gif","""event"",""trial"",""time""
""fullscreenenter"",""1"",""4963""
","
","
","""event"",""trial"",""time""
""fullscreenenter"",""1"",""4963""
","
","true","","","","","","","","","","","",""
"casino-keyboard-response","6","31468","0.0-6.0-0.0","593","true","img/card_backs/set1/yellow.gif","img/card_backs/set1/purple.gif","img/card_backs/set1/red.gif","img/card_backs/set1/green.gif","img/card_backs/set2/gray.gif","img/card_backs/set2/orange.gif","img/card_backs/set2/pink.gif","img/card_backs/set2/blue.gif","""event"",""trial"",""time""
""fullscreenenter"",""1"",""4963""
","
","
","""event"",""trial"",""time""
""fullscreenenter"",""1"",""4963""
","
","","4372.374999977183","Welcome to the casino!","71","","instructions","2021-06-08 21:11:22.710","","","","","",""
"casino-keyboard-response","7","42879","0.0-6.0-0.1","593","true","img/card_backs/set1/yellow.gif","img/card_backs/set1/purple.gif","img/card_backs/set1/red.gif","img/card_backs/set1/green.gif","img/card_backs/set2/gray.gif","img/card_backs/set2/orange.gif","img/card_backs/set2/pink.gif","img/card_backs/set2/blue.gif","""event"",""trial"",""time""
""fullscreenenter"",""1"",""4963""
","
","
","""event"",""trial"",""time""
""fullscreenenter"",""1"",""4963""
","
","","11408.920000016224","Today you will be playing a game to earn tokens. </br> At the end of the experiment, you will be paid a bonus based on how many tokens you win. ","69","","instructions","2021-06-08 21:11:34.120","","","","","",""
"casino-keyboard-response","8","50390","0.0-6.0-0.2","593","true","img/card_backs/set1/yellow.gif","img/card_backs/set1/purple.gif","img/card_backs/set1/red.gif","img/card_backs/set1/green.gif","img/card_backs/set2/gray.gif","img/card_backs/set2/orange.gif","img/card_backs/set2/pink.gif","img/card_backs/set2/blue.gif","""event"",""trial"",""time""
""fullscreenenter"",""1"",""4963""
","
","
","""event"",""trial"",""time""
""fullscreenenter"",""1"",""4963""
","
","","7508.29500000691","On every turn, you will be shown four different decks of cards. </br> You need to select a card from one of the four decks.  ","75","","instructions","2021-06-08 21:11:41.631","","","","","",""
"casino-keyboard-response","9","55213","0.0-6.0-0.3","593","true","img/card_backs/set1/yellow.gif","img/card_backs/set1/purple.gif","img/card_backs/set1/red.gif","img/card_backs/set1/green.gif","img/card_backs/set2/gray.gif","img/card_backs/set2/orange.gif","img/card_backs/set2/pink.gif","img/card_backs/set2/blue.gif","""event"",""trial"",""time""
""fullscreenenter"",""1"",""4963""
","
","
","""event"",""trial"",""time""
""fullscreenenter"",""1"",""4963""
","
","","4820.7750000292435","On the next screen, you will see what the decks will look like. ","66","","instructions","2021-06-08 21:11:46.454","","","","","",""
"card-selection-trial","10","59219","0.0-7.0-0.0","593","true","img/card_backs/set1/yellow.gif","img/card_backs/set1/purple.gif","img/card_backs/set1/red.gif","img/card_backs/set1/green.gif","img/card_backs/set2/gray.gif","img/card_backs/set2/orange.gif","img/card_backs/set2/pink.gif","img/card_backs/set2/blue.gif","""event"",""trial"",""time""
""fullscreenenter"",""1"",""4963""
","
","
","""event"",""trial"",""time""
""fullscreenenter"",""1"",""4963""
","
","","null","","","","practice","2021-06-08 21:11:50.460","null","null","null","0","",""
"casino-keyboard-response","11","71010","0.0-8.0-0.0","593","true","img/card_backs/set1/yellow.gif","img/card_backs/set1/purple.gif","img/card_backs/set1/red.gif","img/card_backs/set1/green.gif","img/card_backs/set2/gray.gif","img/card_backs/set2/orange.gif","img/card_backs/set2/pink.gif","img/card_backs/set2/blue.gif","""event"",""trial"",""time""
""fullscreenenter"",""1"",""4963""
","
","
","""event"",""trial"",""time""
""fullscreenenter"",""1"",""4963""
","
","","11789.534999988973","You should pick a card from a deck using the '2', '4', '6', and '8' keys at the top of the keyboard.","85","","instructions","2021-06-08 21:12:02.251","","","","","",""
"casino-keyboard-response","12","81247","0.0-8.0-0.1","593","true","img/card_backs/set1/yellow.gif","img/card_backs/set1/purple.gif","img/card_backs/set1/red.gif","img/card_backs/set1/green.gif","img/card_backs/set2/gray.gif","img/card_backs/set2/orange.gif","img/card_backs/set2/pink.gif","img/card_backs/set2/blue.gif","""event"",""trial"",""time""
""fullscreenenter"",""1"",""4963""
","
","
","""event"",""trial"",""time""
""fullscreenenter"",""1"",""4963""
","
","","10234.694999991916","Once you select a card, it will turn over and you will see how many tokens you earned.","83","","instructions","2021-06-08 21:12:12.488","","","","","",""
"casino-keyboard-response","13","95641","0.0-8.0-0.2","593","true","img/card_backs/set1/yellow.gif","img/card_backs/set1/purple.gif","img/card_backs/set1/red.gif","img/card_backs/set1/green.gif","img/card_backs/set2/gray.gif","img/card_backs/set2/orange.gif","img/card_backs/set2/pink.gif","img/card_backs/set2/blue.gif","""event"",""trial"",""time""
""fullscreenenter"",""1"",""4963""
","
","
","""event"",""trial"",""time""
""fullscreenenter"",""1"",""4963""
","
","","14391.729999973904","Let's try practicing that! </br> First, try to put your fingers over the '2', '4', '6', and '8' keys. </br>  You can use whatever fingers are most comfortable for you. Try to find a comfortable position now. ","50","","instructions","2021-06-08 21:12:26.882","","","","","",""
"casino-keyboard-response","14","101786","0.0-8.0-0.3","593","true","img/card_backs/set1/yellow.gif","img/card_backs/set1/purple.gif","img/card_backs/set1/red.gif","img/card_backs/set1/green.gif","img/card_backs/set2/gray.gif","img/card_backs/set2/orange.gif","img/card_backs/set2/pink.gif","img/card_backs/set2/blue.gif","""event"",""trial"",""time""
""fullscreenenter"",""1"",""4963""
","
","
","""event"",""trial"",""time""
""fullscreenenter"",""1"",""4963""
","
","","6142.554999969434","Okay ready? </br> On the next screen, press '2' to select the left deck. ","50","","instructions","2021-06-08 21:12:33.027","","","","","",""
"card-selection-trial","15","104824","0.0-9.0-0.0","593","true","img/card_backs/set1/yellow.gif","img/card_backs/set1/purple.gif","img/card_backs/set1/red.gif","img/card_backs/set1/green.gif","img/card_backs/set2/gray.gif","img/card_backs/set2/orange.gif","img/card_backs/set2/pink.gif","img/card_backs/set2/blue.gif","""event"",""trial"",""time""
""fullscreenenter"",""1"",""4963""
","
","
","""event"",""trial"",""time""
""fullscreenenter"",""1"",""4963""
","
","","1024.2050000233576","","","","practice_card_selection","2021-06-08 21:12:36.065","img/practice_cards/backs/dark_blue.gif","0","-200","","",""
"casino-keyboard-response","16","111026","0.0-10.0-0.0","593","true","img/card_backs/set1/yellow.gif","img/card_backs/set1/purple.gif","img/card_backs/set1/red.gif","img/card_backs/set1/green.gif","img/card_backs/set2/gray.gif","img/card_backs/set2/orange.gif","img/card_backs/set2/pink.gif","img/card_backs/set2/blue.gif","""event"",""trial"",""time""
""fullscreenenter"",""1"",""4963""
","
","
","""event"",""trial"",""time""
""fullscreenenter"",""1"",""4963""
","
","","6201.30999997491","Great! Now on the next screen, try pressing '6' to select the third deck.","54","","instructions","2021-06-08 21:12:42.267","","","","","",""
"card-selection-trial","17","114258","0.0-11.0-0.0","593","true","img/card_backs/set1/yellow.gif","img/card_backs/set1/purple.gif","img/card_backs/set1/red.gif","img/card_backs/set1/green.gif","img/card_backs/set2/gray.gif","img/card_backs/set2/orange.gif","img/card_backs/set2/pink.gif","img/card_backs/set2/blue.gif","""event"",""trial"",""time""
""fullscreenenter"",""1"",""4963""
","
","
","""event"",""trial"",""time""
""fullscreenenter"",""1"",""4963""
","
","","1220.9550000261515","","","","practice_card_selection","2021-06-08 21:12:45.499","img/practice_cards/backs/dark_blue.gif","2","-200","","",""
"casino-keyboard-response","18","118981","0.0-12.0-0.0","593","true","img/card_backs/set1/yellow.gif","img/card_backs/set1/purple.gif","img/card_backs/set1/red.gif","img/card_backs/set1/green.gif","img/card_backs/set2/gray.gif","img/card_backs/set2/orange.gif","img/card_backs/set2/pink.gif","img/card_backs/set2/blue.gif","""event"",""trial"",""time""
""fullscreenenter"",""1"",""4963""
","
","
","""event"",""trial"",""time""
""fullscreenenter"",""1"",""4963""
","
","","4720.484999998007","Now on the next screen, try pressing '4' to select the second deck.","52","","instructions","2021-06-08 21:12:50.222","","","","","",""
"card-selection-trial","19","121582","0.0-13.0-0.0","593","true","img/card_backs/set1/yellow.gif","img/card_backs/set1/purple.gif","img/card_backs/set1/red.gif","img/card_backs/set1/green.gif","img/card_backs/set2/gray.gif","img/card_backs/set2/orange.gif","img/card_backs/set2/pink.gif","img/card_backs/set2/blue.gif","""event"",""trial"",""time""
""fullscreenenter"",""1"",""4963""
","
","
","""event"",""trial"",""time""
""fullscreenenter"",""1"",""4963""
","
","","592.7749999682419","","","","practice_card_selection","2021-06-08 21:12:52.823","img/practice_cards/backs/dark_blue.gif","1","200","","",""
"casino-keyboard-response","20","126129","0.0-14.0-0.0","593","true","img/card_backs/set1/yellow.gif","img/card_backs/set1/purple.gif","img/card_backs/set1/red.gif","img/card_backs/set1/green.gif","img/card_backs/set2/gray.gif","img/card_backs/set2/orange.gif","img/card_backs/set2/pink.gif","img/card_backs/set2/blue.gif","""event"",""trial"",""time""
""fullscreenenter"",""1"",""4963""
","
","
","""event"",""trial"",""time""
""fullscreenenter"",""1"",""4963""
","
","","4544.785000034608","Finally, try pressing '8' to select the deck all the way on the right.","56","","instructions","2021-06-08 21:12:57.370","","","","","",""
"card-selection-trial","21","128537","0.0-15.0-0.0","593","true","img/card_backs/set1/yellow.gif","img/card_backs/set1/purple.gif","img/card_backs/set1/red.gif","img/card_backs/set1/green.gif","img/card_backs/set2/gray.gif","img/card_backs/set2/orange.gif","img/card_backs/set2/pink.gif","img/card_backs/set2/blue.gif","""event"",""trial"",""time""
""fullscreenenter"",""1"",""4963""
","
","
","""event"",""trial"",""time""
""fullscreenenter"",""1"",""4963""
","
","","399.86500004306436","","","","practice_card_selection","2021-06-08 21:12:59.778","img/practice_cards/backs/brown.gif","3","-100","","",""
"casino-keyboard-response","22","134547","0.0-16.0-0.0","593","true","img/card_backs/set1/yellow.gif","img/card_backs/set1/purple.gif","img/card_backs/set1/red.gif","img/card_backs/set1/green.gif","img/card_backs/set2/gray.gif","img/card_backs/set2/orange.gif","img/card_backs/set2/pink.gif","img/card_backs/set2/blue.gif","""event"",""trial"",""time""
""fullscreenenter"",""1"",""4963""
","
","
","""event"",""trial"",""time""
""fullscreenenter"",""1"",""4963""
","
","","6008.14500002889","Great! It seems like you are getting the hang of this.","80","","instructions","2021-06-08 21:13:05.788","","","","","",""
"casino-keyboard-response","23","142131","0.0-16.0-0.1","593","true","img/card_backs/set1/yellow.gif","img/card_backs/set1/purple.gif","img/card_backs/set1/red.gif","img/card_backs/set1/green.gif","img/card_backs/set2/gray.gif","img/card_backs/set2/orange.gif","img/card_backs/set2/pink.gif","img/card_backs/set2/blue.gif","""event"",""trial"",""time""
""fullscreenenter"",""1"",""4963""
","
","
","""event"",""trial"",""time""
""fullscreenenter"",""1"",""4963""
","
","","7582.104999979492","You may have noticed that some cards will cause you to <b> win </b> tokens while other cards will cause you to <b> lose </b>  tokens.","70","","instructions","2021-06-08 21:13:13.372","","","","","",""
"casino-keyboard-response","24","151140","0.0-16.0-0.2","593","true","img/card_backs/set1/yellow.gif","img/card_backs/set1/purple.gif","img/card_backs/set1/red.gif","img/card_backs/set1/green.gif","img/card_backs/set2/gray.gif","img/card_backs/set2/orange.gif","img/card_backs/set2/pink.gif","img/card_backs/set2/blue.gif","""event"",""trial"",""time""
""fullscreenenter"",""1"",""4963""
","
","
","""event"",""trial"",""time""
""fullscreenenter"",""1"",""4963""
","
","","9006.57999998657","Each deck has a mix of cards that will cause you to win and lose tokens. </br> However, the cards in each colored deck are different.","73","","instructions","2021-06-08 21:13:22.381","","","","","",""
"casino-keyboard-response","25","160041","0.0-16.0-0.3","593","true","img/card_backs/set1/yellow.gif","img/card_backs/set1/purple.gif","img/card_backs/set1/red.gif","img/card_backs/set1/green.gif","img/card_backs/set2/gray.gif","img/card_backs/set2/orange.gif","img/card_backs/set2/pink.gif","img/card_backs/set2/blue.gif","""event"",""trial"",""time""
""fullscreenenter"",""1"",""4963""
","
","
","""event"",""trial"",""time""
""fullscreenenter"",""1"",""4963""
","
","","8897.88000000408","Some colored decks are luckier than others. </br> If you choose the lucky decks, you will earn more tokens than if you choose the unlucky decks.","69","","instructions","2021-06-08 21:13:31.282","","","","","",""
"casino-keyboard-response","26","167549","0.0-16.0-0.4","593","true","img/card_backs/set1/yellow.gif","img/card_backs/set1/purple.gif","img/card_backs/set1/red.gif","img/card_backs/set1/green.gif","img/card_backs/set2/gray.gif","img/card_backs/set2/orange.gif","img/card_backs/set2/pink.gif","img/card_backs/set2/blue.gif","""event"",""trial"",""time""
""fullscreenenter"",""1"",""4963""
","
","
","""event"",""trial"",""time""
""fullscreenenter"",""1"",""4963""
","
","","7505.865000013728","You should try to figure out which decks are lucky. </br> Then, try to choose the lucky decks so you can win the most tokens.","87","","instructions","2021-06-08 21:13:38.790","","","","","",""
"casino-keyboard-response","27","179500","0.0-16.0-0.5","593","true","img/card_backs/set1/yellow.gif","img/card_backs/set1/purple.gif","img/card_backs/set1/red.gif","img/card_backs/set1/green.gif","img/card_backs/set2/gray.gif","img/card_backs/set2/orange.gif","img/card_backs/set2/pink.gif","img/card_backs/set2/blue.gif","""event"",""trial"",""time""
""fullscreenenter"",""1"",""4963""
","
","
","""event"",""trial"",""time""
""fullscreenenter"",""1"",""4963""
","
","","11948.815000010654","To make it trickier, the casino dealer will switch the locations of the decks on every turn. </br> The color of the deck determines how lucky it is. The location does not matter.","88","","instructions","2021-06-08 21:13:50.741","","","","","",""
"casino-keyboard-response","28","189634","0.0-16.0-0.6","593","true","img/card_backs/set1/yellow.gif","img/card_backs/set1/purple.gif","img/card_backs/set1/red.gif","img/card_backs/set1/green.gif","img/card_backs/set2/gray.gif","img/card_backs/set2/orange.gif","img/card_backs/set2/pink.gif","img/card_backs/set2/blue.gif","""event"",""trial"",""time""
""fullscreenenter"",""1"",""4963""
","
","
","""event"",""trial"",""time""
""fullscreenenter"",""1"",""4963""
","
","","10132.180000015069","The mix of cards in each colored deck will stay the same throughout the game. </br> That means that a deck that is lucky early on will stay lucky.","79","","instructions","2021-06-08 21:14:00.875","","","","","",""
"casino-keyboard-response","29","198027","0.0-16.0-0.7","593","true","img/card_backs/set1/yellow.gif","img/card_backs/set1/purple.gif","img/card_backs/set1/red.gif","img/card_backs/set1/green.gif","img/card_backs/set2/gray.gif","img/card_backs/set2/orange.gif","img/card_backs/set2/pink.gif","img/card_backs/set2/blue.gif","""event"",""trial"",""time""
""fullscreenenter"",""1"",""4963""
","
","
","""event"",""trial"",""time""
""fullscreenenter"",""1"",""4963""
","
","","8390.720000024885","Remember though, all the decks have a <b> mix </b> of both <b> good </b> and <b> bad </b> cards so it may take a couple of turns to figure out if a deck is lucky.","69","","instructions","2021-06-08 21:14:09.268","","","","","",""
"casino-keyboard-response","30","206235","0.0-16.0-0.8","593","true","img/card_backs/set1/yellow.gif","img/card_backs/set1/purple.gif","img/card_backs/set1/red.gif","img/card_backs/set1/green.gif","img/card_backs/set2/gray.gif","img/card_backs/set2/orange.gif","img/card_backs/set2/pink.gif","img/card_backs/set2/blue.gif","""event"",""trial"",""time""
""fullscreenenter"",""1"",""4963""
","
","
","""event"",""trial"",""time""
""fullscreenenter"",""1"",""4963""
","
","","8204.895000031684","At the end of the game, you will be paid bonus money based on how many tokens you win. </br> If you win more tokens, you will earn more money!","72","","instructions","2021-06-08 21:14:17.476","","","","","",""
"casino-keyboard-response","31","216475","0.0-16.0-0.9","593","true","img/card_backs/set1/yellow.gif","img/card_backs/set1/purple.gif","img/card_backs/set1/red.gif","img/card_backs/set1/green.gif","img/card_backs/set2/gray.gif","img/card_backs/set2/orange.gif","img/card_backs/set2/pink.gif","img/card_backs/set2/blue.gif","""event"",""trial"",""time""
""fullscreenenter"",""1"",""4963""
","
","
","""event"",""trial"",""time""
""fullscreenenter"",""1"",""4963""
","
","","10239.245000004303","You will never <b> lose </b> money. </br> If you end up with fewer than 0 tokens, you will earn $0 of bonus money, but you will still be paid for playing the game.","83","","instructions","2021-06-08 21:14:27.716","","","","","",""
"casino-keyboard-response","32","222261","0.0-16.0-0.10","593","true","img/card_backs/set1/yellow.gif","img/card_backs/set1/purple.gif","img/card_backs/set1/red.gif","img/card_backs/set1/green.gif","img/card_backs/set2/gray.gif","img/card_backs/set2/orange.gif","img/card_backs/set2/pink.gif","img/card_backs/set2/blue.gif","""event"",""trial"",""time""
""fullscreenenter"",""1"",""4963""
","
","
","""event"",""trial"",""time""
""fullscreenenter"",""1"",""4963""
","
","","5784.745000011753","You will have 10 seconds to make each choice.","82","","instructions","2021-06-08 21:14:33.502","","","","","",""
"casino-keyboard-response","33","231617","0.0-16.0-0.11","593","true","img/card_backs/set1/yellow.gif","img/card_backs/set1/purple.gif","img/card_backs/set1/red.gif","img/card_backs/set1/green.gif","img/card_backs/set2/gray.gif","img/card_backs/set2/orange.gif","img/card_backs/set2/pink.gif","img/card_backs/set2/blue.gif","""event"",""trial"",""time""
""fullscreenenter"",""1"",""4963""
","
","
","""event"",""trial"",""time""
""fullscreenenter"",""1"",""4963""
","
","","9353.505000006407","Before you play the game for real, you will play with practice decks. </br> The tokens you earn during practice won't count toward your total.","86","","instructions","2021-06-08 21:14:42.858","","","","","",""
"casino-keyboard-response","34","243973","0.0-16.0-0.12","593","true","img/card_backs/set1/yellow.gif","img/card_backs/set1/purple.gif","img/card_backs/set1/red.gif","img/card_backs/set1/green.gif","img/card_backs/set2/gray.gif","img/card_backs/set2/orange.gif","img/card_backs/set2/pink.gif","img/card_backs/set2/blue.gif","""event"",""trial"",""time""
""fullscreenenter"",""1"",""4963""
","
","
","""event"",""trial"",""time""
""fullscreenenter"",""1"",""4963""
","
","","12355.000000039581","Ready? Remember, use the '2', '4', '6', and '8' keys to select the decks. </br> Put your fingers on those keys now and then press '2' to begin.","50","","instructions","2021-06-08 21:14:55.215","","","","","",""
"casino-fixation","35","244476","0.0-17.0-0.0","593","true","img/card_backs/set1/yellow.gif","img/card_backs/set1/purple.gif","img/card_backs/set1/red.gif","img/card_backs/set1/green.gif","img/card_backs/set2/gray.gif","img/card_backs/set2/orange.gif","img/card_backs/set2/pink.gif","img/card_backs/set2/blue.gif","""event"",""trial"",""time""
""fullscreenenter"",""1"",""4963""
","
","
","""event"",""trial"",""time""
""fullscreenenter"",""1"",""4963""
","
","","null","","null","","fixation","2021-06-08 21:14:55.718","","","","","",""
"card-selection-trial","36","248679","0.0-17.0-1.0","593","true","img/card_backs/set1/yellow.gif","img/card_backs/set1/purple.gif","img/card_backs/set1/red.gif","img/card_backs/set1/green.gif","img/card_backs/set2/gray.gif","img/card_backs/set2/orange.gif","img/card_backs/set2/pink.gif","img/card_backs/set2/blue.gif","""event"",""trial"",""time""
""fullscreenenter"",""1"",""4963""
","
","
","""event"",""trial"",""time""
""fullscreenenter"",""1"",""4963""
","
","","2194.919999979902","","","","practice","2021-06-08 21:14:59.921","img/practice_cards/backs/dark_blue.gif","2","-200","0","",""
"casino-fixation","37","249182","0.0-17.0-0.1","593","true","img/card_backs/set1/yellow.gif","img/card_backs/set1/purple.gif","img/card_backs/set1/red.gif","img/card_backs/set1/green.gif","img/card_backs/set2/gray.gif","img/card_backs/set2/orange.gif","img/card_backs/set2/pink.gif","img/card_backs/set2/blue.gif","""event"",""trial"",""time""
""fullscreenenter"",""1"",""4963""
","
","
","""event"",""trial"",""time""
""fullscreenenter"",""1"",""4963""
","
","","null","","null","","fixation","2021-06-08 21:15:00.423","","","","","",""
"card-selection-trial","38","252708","0.0-17.0-1.1","593","true","img/card_backs/set1/yellow.gif","img/card_backs/set1/purple.gif","img/card_backs/set1/red.gif","img/card_backs/set1/green.gif","img/card_backs/set2/gray.gif","img/card_backs/set2/orange.gif","img/card_backs/set2/pink.gif","img/card_backs/set2/blue.gif","""event"",""trial"",""time""
""fullscreenenter"",""1"",""4963""
","
","
","""event"",""trial"",""time""
""fullscreenenter"",""1"",""4963""
","
","","1519.6199999772944","","","","practice","2021-06-08 21:15:03.949","img/practice_cards/backs/dark_blue.gif","1","200","0","",""
"casino-fixation","39","253210","0.0-17.0-0.2","593","true","img/card_backs/set1/yellow.gif","img/card_backs/set1/purple.gif","img/card_backs/set1/red.gif","img/card_backs/set1/green.gif","img/card_backs/set2/gray.gif","img/card_backs/set2/orange.gif","img/card_backs/set2/pink.gif","img/card_backs/set2/blue.gif","""event"",""trial"",""time""
""fullscreenenter"",""1"",""4963""
","
","
","""event"",""trial"",""time""
""fullscreenenter"",""1"",""4963""
","
","","null","","null","","fixation","2021-06-08 21:15:04.452","","","","","",""
"card-selection-trial","40","255691","0.0-17.0-1.2","593","true","img/card_backs/set1/yellow.gif","img/card_backs/set1/purple.gif","img/card_backs/set1/red.gif","img/card_backs/set1/green.gif","img/card_backs/set2/gray.gif","img/card_backs/set2/orange.gif","img/card_backs/set2/pink.gif","img/card_backs/set2/blue.gif","""event"",""trial"",""time""
""fullscreenenter"",""1"",""4963""
","
","
","""event"",""trial"",""time""
""fullscreenenter"",""1"",""4963""
","
","","470.0099999899976","","","","practice","2021-06-08 21:15:06.932","img/practice_cards/backs/brown.gif","1","-100","0","",""
"casino-fixation","41","256194","0.0-17.0-0.3","593","true","img/card_backs/set1/yellow.gif","img/card_backs/set1/purple.gif","img/card_backs/set1/red.gif","img/card_backs/set1/green.gif","img/card_backs/set2/gray.gif","img/card_backs/set2/orange.gif","img/card_backs/set2/pink.gif","img/card_backs/set2/blue.gif","""event"",""trial"",""time""
""fullscreenenter"",""1"",""4963""
","
","
","""event"",""trial"",""time""
""fullscreenenter"",""1"",""4963""
","
","","null","","null","","fixation","2021-06-08 21:15:07.435","","","","","",""
"card-selection-trial","42","258621","0.0-17.0-1.3","593","true","img/card_backs/set1/yellow.gif","img/card_backs/set1/purple.gif","img/card_backs/set1/red.gif","img/card_backs/set1/green.gif","img/card_backs/set2/gray.gif","img/card_backs/set2/orange.gif","img/card_backs/set2/pink.gif","img/card_backs/set2/blue.gif","""event"",""trial"",""time""
""fullscreenenter"",""1"",""4963""
","
","
","""event"",""trial"",""time""
""fullscreenenter"",""1"",""4963""
","
","","418.0549999582581","","","","practice","2021-06-08 21:15:09.862","img/practice_cards/backs/dark_blue.gif","0","-200","0","",""
"casino-fixation","43","259126","0.0-17.0-0.4","593","true","img/card_backs/set1/yellow.gif","img/card_backs/set1/purple.gif","img/card_backs/set1/red.gif","img/card_backs/set1/green.gif","img/card_backs/set2/gray.gif","img/card_backs/set2/orange.gif","img/card_backs/set2/pink.gif","img/card_backs/set2/blue.gif","""event"",""trial"",""time""
""fullscreenenter"",""1"",""4963""
","
","
","""event"",""trial"",""time""
""fullscreenenter"",""1"",""4963""
","
","","null","","null","","fixation","2021-06-08 21:15:10.367","","","","","",""
"card-selection-trial","44","261587","0.0-17.0-1.4","593","true","img/card_backs/set1/yellow.gif","img/card_backs/set1/purple.gif","img/card_backs/set1/red.gif","img/card_backs/set1/green.gif","img/card_backs/set2/gray.gif","img/card_backs/set2/orange.gif","img/card_backs/set2/pink.gif","img/card_backs/set2/blue.gif","""event"",""trial"",""time""
""fullscreenenter"",""1"",""4963""
","
","
","""event"",""trial"",""time""
""fullscreenenter"",""1"",""4963""
","
","","452.54000002751127","","","","practice","2021-06-08 21:15:12.828","img/practice_cards/backs/dark_green.gif","1","-200","0","",""
"casino-fixation","45","262090","0.0-17.0-0.5","593","true","img/card_backs/set1/yellow.gif","img/card_backs/set1/purple.gif","img/card_backs/set1/red.gif","img/card_backs/set1/green.gif","img/card_backs/set2/gray.gif","img/card_backs/set2/orange.gif","img/card_backs/set2/pink.gif","img/card_backs/set2/blue.gif","""event"",""trial"",""time""
""fullscreenenter"",""1"",""4963""
","
","
","""event"",""trial"",""time""
""fullscreenenter"",""1"",""4963""
","
","","null","","null","","fixation","2021-06-08 21:15:13.331","","","","","",""
"card-selection-trial","46","264775","0.0-17.0-1.5","593","true","img/card_backs/set1/yellow.gif","img/card_backs/set1/purple.gif","img/card_backs/set1/red.gif","img/card_backs/set1/green.gif","img/card_backs/set2/gray.gif","img/card_backs/set2/orange.gif","img/card_backs/set2/pink.gif","img/card_backs/set2/blue.gif","""event"",""trial"",""time""
""fullscreenenter"",""1"",""4963""
","
","
","""event"",""trial"",""time""
""fullscreenenter"",""1"",""4963""
","
","","676.1999999871477","","","","practice","2021-06-08 21:15:16.016","img/practice_cards/backs/dark_blue.gif","3","-200","0","",""
"casino-fixation","47","265279","0.0-17.0-0.6","593","true","img/card_backs/set1/yellow.gif","img/card_backs/set1/purple.gif","img/card_backs/set1/red.gif","img/card_backs/set1/green.gif","img/card_backs/set2/gray.gif","img/card_backs/set2/orange.gif","img/card_backs/set2/pink.gif","img/card_backs/set2/blue.gif","""event"",""trial"",""time""
""fullscreenenter"",""1"",""4963""
","
","
","""event"",""trial"",""time""
""fullscreenenter"",""1"",""4963""
","
","","null","","null","","fixation","2021-06-08 21:15:16.520","","","","","",""
"card-selection-trial","48","268375","0.0-17.0-1.6","593","true","img/card_backs/set1/yellow.gif","img/card_backs/set1/purple.gif","img/card_backs/set1/red.gif","img/card_backs/set1/green.gif","img/card_backs/set2/gray.gif","img/card_backs/set2/orange.gif","img/card_backs/set2/pink.gif","img/card_backs/set2/blue.gif","""event"",""trial"",""time""
""fullscreenenter"",""1"",""4963""
","
","
","""event"",""trial"",""time""
""fullscreenenter"",""1"",""4963""
","
","","1088.114999991376","","","","practice","2021-06-08 21:15:19.616","img/practice_cards/backs/brown.gif","2","-100","0","",""
"casino-fixation","49","268878","0.0-17.0-0.7","593","true","img/card_backs/set1/yellow.gif","img/card_backs/set1/purple.gif","img/card_backs/set1/red.gif","img/card_backs/set1/green.gif","img/card_backs/set2/gray.gif","img/card_backs/set2/orange.gif","img/card_backs/set2/pink.gif","img/card_backs/set2/blue.gif","""event"",""trial"",""time""
""fullscreenenter"",""1"",""4963""
","
","
","""event"",""trial"",""time""
""fullscreenenter"",""1"",""4963""
","
","","null","","null","","fixation","2021-06-08 21:15:20.119","","","","","",""
"card-selection-trial","50","271608","0.0-17.0-1.7","593","true","img/card_backs/set1/yellow.gif","img/card_backs/set1/purple.gif","img/card_backs/set1/red.gif","img/card_backs/set1/green.gif","img/card_backs/set2/gray.gif","img/card_backs/set2/orange.gif","img/card_backs/set2/pink.gif","img/card_backs/set2/blue.gif","""event"",""trial"",""time""
""fullscreenenter"",""1"",""4963""
","
","
","""event"",""trial"",""time""
""fullscreenenter"",""1"",""4963""
","
","","721.3600000250153","","","","practice","2021-06-08 21:15:22.849","img/practice_cards/backs/black.gif","0","100","0","",""
"casino-fixation","51","272111","0.0-17.0-0.8","593","true","img/card_backs/set1/yellow.gif","img/card_backs/set1/purple.gif","img/card_backs/set1/red.gif","img/card_backs/set1/green.gif","img/card_backs/set2/gray.gif","img/card_backs/set2/orange.gif","img/card_backs/set2/pink.gif","img/card_backs/set2/blue.gif","""event"",""trial"",""time""
""fullscreenenter"",""1"",""4963""
","
","
","""event"",""trial"",""time""
""fullscreenenter"",""1"",""4963""
","
","","null","","null","","fixation","2021-06-08 21:15:23.352","","","","","",""
"card-selection-trial","52","274917","0.0-17.0-1.8","593","true","img/card_backs/set1/yellow.gif","img/card_backs/set1/purple.gif","img/card_backs/set1/red.gif","img/card_backs/set1/green.gif","img/card_backs/set2/gray.gif","img/card_backs/set2/orange.gif","img/card_backs/set2/pink.gif","img/card_backs/set2/blue.gif","""event"",""trial"",""time""
""fullscreenenter"",""1"",""4963""
","
","
","""event"",""trial"",""time""
""fullscreenenter"",""1"",""4963""
","
","","800.2850000048056","","","","practice","2021-06-08 21:15:26.158","img/practice_cards/backs/dark_green.gif","0","-200","0","",""
"casino-fixation","53","275421","0.0-17.0-0.9","593","true","img/card_backs/set1/yellow.gif","img/card_backs/set1/purple.gif","img/card_backs/set1/red.gif","img/card_backs/set1/green.gif","img/card_backs/set2/gray.gif","img/card_backs/set2/orange.gif","img/card_backs/set2/pink.gif","img/card_backs/set2/blue.gif","""event"",""trial"",""time""
""fullscreenenter"",""1"",""4963""
","
","
","""event"",""trial"",""time""
""fullscreenenter"",""1"",""4963""
","
","","null","","null","","fixation","2021-06-08 21:15:26.663","","","","","",""
"card-selection-trial","54","278168","0.0-17.0-1.9","593","true","img/card_backs/set1/yellow.gif","img/card_backs/set1/purple.gif","img/card_backs/set1/red.gif","img/card_backs/set1/green.gif","img/card_backs/set2/gray.gif","img/card_backs/set2/orange.gif","img/card_backs/set2/pink.gif","img/card_backs/set2/blue.gif","""event"",""trial"",""time""
""fullscreenenter"",""1"",""4963""
","
","
","""event"",""trial"",""time""
""fullscreenenter"",""1"",""4963""
","
","","738.599999982398","","","","practice","2021-06-08 21:15:29.409","img/practice_cards/backs/dark_green.gif","0","-200","0","",""
"casino-keyboard-response","55","282442","0.0-18.0","593","true","img/card_backs/set1/yellow.gif","img/card_backs/set1/purple.gif","img/card_backs/set1/red.gif","img/card_backs/set1/green.gif","img/card_backs/set2/gray.gif","img/card_backs/set2/orange.gif","img/card_backs/set2/pink.gif","img/card_backs/set2/blue.gif","""event"",""trial"",""time""
""fullscreenenter"",""1"",""4963""
","
","
","""event"",""trial"",""time""
""fullscreenenter"",""1"",""4963""
","
","","4272.3100000293925","You earned -1100 tokens during the practice round!","82","","","2021-06-08 21:15:33.683","","","","","",""
"casino-keyboard-response","56","287658","0.0-19.0-0.0","593","true","img/card_backs/set1/yellow.gif","img/card_backs/set1/purple.gif","img/card_backs/set1/red.gif","img/card_backs/set1/green.gif","img/card_backs/set2/gray.gif","img/card_backs/set2/orange.gif","img/card_backs/set2/pink.gif","img/card_backs/set2/blue.gif","""event"",""trial"",""time""
""fullscreenenter"",""1"",""4963""
","
","
","""event"",""trial"",""time""
""fullscreenenter"",""1"",""4963""
","
","","5215.039999980945","Nice job! You are almost ready to play the real game.","86","","instructions","2021-06-08 21:15:38.899","","","","","",""
"casino-keyboard-response","57","296319","0.0-19.0-0.1","593","true","img/card_backs/set1/yellow.gif","img/card_backs/set1/purple.gif","img/card_backs/set1/red.gif","img/card_backs/set1/green.gif","img/card_backs/set2/gray.gif","img/card_backs/set2/orange.gif","img/card_backs/set2/pink.gif","img/card_backs/set2/blue.gif","""event"",""trial"",""time""
""fullscreenenter"",""1"",""4963""
","
","
","""event"",""trial"",""time""
""fullscreenenter"",""1"",""4963""
","
","","8658.634999999776","You will play two rounds of the real game. In each round, you will pick 100 cards in total.","73","","instructions","2021-06-08 21:15:47.560","","","","","",""
"casino-keyboard-response","58","300635","0.0-19.0-0.2","593","true","img/card_backs/set1/yellow.gif","img/card_backs/set1/purple.gif","img/card_backs/set1/red.gif","img/card_backs/set1/green.gif","img/card_backs/set2/gray.gif","img/card_backs/set2/orange.gif","img/card_backs/set2/pink.gif","img/card_backs/set2/blue.gif","""event"",""trial"",""time""
""fullscreenenter"",""1"",""4963""
","
","
","""event"",""trial"",""time""
""fullscreenenter"",""1"",""4963""
","
","","4314.234999998007","We are now going to ask you some questions about how the game works.","66","","instructions","2021-06-08 21:15:51.876","","","","","",""
"casino-keyboard-response","59","307410","0.0-19.0-0.3","593","true","img/card_backs/set1/yellow.gif","img/card_backs/set1/purple.gif","img/card_backs/set1/red.gif","img/card_backs/set1/green.gif","img/card_backs/set2/gray.gif","img/card_backs/set2/orange.gif","img/card_backs/set2/pink.gif","img/card_backs/set2/blue.gif","""event"",""trial"",""time""
""fullscreenenter"",""1"",""4963""
","
","
","""event"",""trial"",""time""
""fullscreenenter"",""1"",""4963""
","
","","6772.7949999971315","Answer carefully. You will not be able to begin the game until you answer them correctly.","67","","instructions","2021-06-08 21:15:58.651","","","","","",""
"casino-comp_q","60","316166","0.0-20.0-0.0","593","true","img/card_backs/set1/yellow.gif","img/card_backs/set1/purple.gif","img/card_backs/set1/red.gif","img/card_backs/set1/green.gif","img/card_backs/set2/gray.gif","img/card_backs/set2/orange.gif","img/card_backs/set2/pink.gif","img/card_backs/set2/blue.gif","""event"",""trial"",""time""
""fullscreenenter"",""1"",""4963""
","
","
","""event"",""trial"",""time""
""fullscreenenter"",""1"",""4963""
","
","","8752.870000025723","True or False: All the decks have some cards that cause you to win tokens and some cards that cause you to lose tokens.","84","","","2021-06-08 21:16:07.407","","","","","",""
"casino-keyboard-response","61","321333","0.0-20.0-1.0","593","true","img/card_backs/set1/yellow.gif","img/card_backs/set1/purple.gif","img/card_backs/set1/red.gif","img/card_backs/set1/green.gif","img/card_backs/set2/gray.gif","img/card_backs/set2/orange.gif","img/card_backs/set2/pink.gif","img/card_backs/set2/blue.gif","""event"",""trial"",""time""
""fullscreenenter"",""1"",""4963""
","
","
","""event"",""trial"",""time""
""fullscreenenter"",""1"",""4963""
","
","","5164.555000024848","True is correct! All the decks have a mix of winning and losing cards.","77","","","2021-06-08 21:16:12.574","","","","","true",""
"casino-comp_q","62","327550","0.0-21.0-0.0","593","true","img/card_backs/set1/yellow.gif","img/card_backs/set1/purple.gif","img/card_backs/set1/red.gif","img/card_backs/set1/green.gif","img/card_backs/set2/gray.gif","img/card_backs/set2/orange.gif","img/card_backs/set2/pink.gif","img/card_backs/set2/blue.gif","""event"",""trial"",""time""
""fullscreenenter"",""1"",""4963""
","
","
","""event"",""trial"",""time""
""fullscreenenter"",""1"",""4963""
","
","","6214.480000024196","True or False: You will have as much time as you want to make your response.","70","","","2021-06-08 21:16:18.791","","","","","",""
"casino-keyboard-response","63","331699","0.0-21.0-1.0","593","true","img/card_backs/set1/yellow.gif","img/card_backs/set1/purple.gif","img/card_backs/set1/red.gif","img/card_backs/set1/green.gif","img/card_backs/set2/gray.gif","img/card_backs/set2/orange.gif","img/card_backs/set2/pink.gif","img/card_backs/set2/blue.gif","""event"",""trial"",""time""
""fullscreenenter"",""1"",""4963""
","
","
","""event"",""trial"",""time""
""fullscreenenter"",""1"",""4963""
","
","","4144.739999959711","False is correct! You will only have 10 seconds to make each choice.","75","","","2021-06-08 21:16:22.940","","","","","true",""
"casino-comp_q","64","340238","0.0-22.0-0.0","593","true","img/card_backs/set1/yellow.gif","img/card_backs/set1/purple.gif","img/card_backs/set1/red.gif","img/card_backs/set1/green.gif","img/card_backs/set2/gray.gif","img/card_backs/set2/orange.gif","img/card_backs/set2/pink.gif","img/card_backs/set2/blue.gif","""event"",""trial"",""time""
""fullscreenenter"",""1"",""4963""
","
","
","""event"",""trial"",""time""
""fullscreenenter"",""1"",""4963""
","
","","8536.550000018906","True or False: The location of the deck determines how lucky it is.","84","","","2021-06-08 21:16:31.479","","","","","",""
"casino-keyboard-response","65","346470","0.0-22.0-1.0","593","true","img/card_backs/set1/yellow.gif","img/card_backs/set1/purple.gif","img/card_backs/set1/red.gif","img/card_backs/set1/green.gif","img/card_backs/set2/gray.gif","img/card_backs/set2/orange.gif","img/card_backs/set2/pink.gif","img/card_backs/set2/blue.gif","""event"",""trial"",""time""
""fullscreenenter"",""1"",""4963""
","
","
","""event"",""trial"",""time""
""fullscreenenter"",""1"",""4963""
","
","","6229.675000009593","True is incorrect. The <i>color</i> of the deck determines how lucky or unlucky it is.","68","","","2021-06-08 21:16:37.711","","","","","false",""
"casino-comp_q","66","351249","0.0-22.1-0.1","593","true","img/card_backs/set1/yellow.gif","img/card_backs/set1/purple.gif","img/card_backs/set1/red.gif","img/card_backs/set1/green.gif","img/card_backs/set2/gray.gif","img/card_backs/set2/orange.gif","img/card_backs/set2/pink.gif","img/card_backs/set2/blue.gif","""event"",""trial"",""time""
""fullscreenenter"",""1"",""4963""
","
","
","""event"",""trial"",""time""
""fullscreenenter"",""1"",""4963""
","
","","4777.065000031143","True or False: The location of the deck determines how lucky it is.","70","","","2021-06-08 21:16:42.490","","","","","",""
"casino-keyboard-response","67","355906","0.0-22.1-1.1","593","true","img/card_backs/set1/yellow.gif","img/card_backs/set1/purple.gif","img/card_backs/set1/red.gif","img/card_backs/set1/green.gif","img/card_backs/set2/gray.gif","img/card_backs/set2/orange.gif","img/card_backs/set2/pink.gif","img/card_backs/set2/blue.gif","""event"",""trial"",""time""
""fullscreenenter"",""1"",""4963""
","
","
","""event"",""trial"",""time""
""fullscreenenter"",""1"",""4963""
","
","","4653.950000007171","False is correct! The <i>color</i>  of the deck determines how lucky or unlucky it is.","68","","","2021-06-08 21:16:47.147","","","","","true",""
"casino-keyboard-response","68","360493","0.0-23.0-0.0","593","true","img/card_backs/set1/yellow.gif","img/card_backs/set1/purple.gif","img/card_backs/set1/red.gif","img/card_backs/set1/green.gif","img/card_backs/set2/gray.gif","img/card_backs/set2/orange.gif","img/card_backs/set2/pink.gif","img/card_backs/set2/blue.gif","""event"",""trial"",""time""
""fullscreenenter"",""1"",""4963""
","
","
","""event"",""trial"",""time""
""fullscreenenter"",""1"",""4963""
","
","","4585.289999959059","Great job! Now it's time to start the real game.","82","","instructions","2021-06-08 21:16:51.734","","","","","",""
"casino-keyboard-response","69","365572","0.0-23.0-0.1","593","true","img/card_backs/set1/yellow.gif","img/card_backs/set1/purple.gif","img/card_backs/set1/red.gif","img/card_backs/set1/green.gif","img/card_backs/set2/gray.gif","img/card_backs/set2/orange.gif","img/card_backs/set2/pink.gif","img/card_backs/set2/blue.gif","""event"",""trial"",""time""
""fullscreenenter"",""1"",""4963""
","
","
","""event"",""trial"",""time""
""fullscreenenter"",""1"",""4963""
","
","","5076.570000033826","Before we start, we're going to head into a new room of the casino.","86","","instructions","2021-06-08 21:16:56.813","","","","","",""
"casino-keyboard-response","70","372661","0.0-24.0-0.0","593","true","img/card_backs/set1/yellow.gif","img/card_backs/set1/purple.gif","img/card_backs/set1/red.gif","img/card_backs/set1/green.gif","img/card_backs/set2/gray.gif","img/card_backs/set2/orange.gif","img/card_backs/set2/pink.gif","img/card_backs/set2/blue.gif","""event"",""trial"",""time""
""fullscreenenter"",""1"",""4963""
","
","
","""event"",""trial"",""time""
""fullscreenenter"",""1"",""4963""
","
","","7086.619999958202","Here we are! The real game will use different cards, but the rules will be the same.","71","","instructions","2021-06-08 21:17:03.902","","","","","",""
"casino-keyboard-response","71","381706","0.0-24.0-0.1","593","true","img/card_backs/set1/yellow.gif","img/card_backs/set1/purple.gif","img/card_backs/set1/red.gif","img/card_backs/set1/green.gif","img/card_backs/set2/gray.gif","img/card_backs/set2/orange.gif","img/card_backs/set2/pink.gif","img/card_backs/set2/blue.gif","""event"",""trial"",""time""
""fullscreenenter"",""1"",""4963""
","
","
","""event"",""trial"",""time""
""fullscreenenter"",""1"",""4963""
","
","","9043.515000026673","Ready? Put your fingers over the '2', '4', 6', and '8' keys so you are ready to play the game. </br> Then press 2 to start.","50","","instructions","2021-06-08 21:17:12.947","","","","","",""
"casino-fixation","72","382208","0.0-25.0-0.0","593","true","img/card_backs/set1/yellow.gif","img/card_backs/set1/purple.gif","img/card_backs/set1/red.gif","img/card_backs/set1/green.gif","img/card_backs/set2/gray.gif","img/card_backs/set2/orange.gif","img/card_backs/set2/pink.gif","img/card_backs/set2/blue.gif","""event"",""trial"",""time""
""fullscreenenter"",""1"",""4963""
","
","
","""event"",""trial"",""time""
""fullscreenenter"",""1"",""4963""
","
","","null","","null","","fixation","2021-06-08 21:17:13.449","","","","","",""
"card-selection-trial","73","385508","0.0-25.0-1.0","593","true","img/card_backs/set1/yellow.gif","img/card_backs/set1/purple.gif","img/card_backs/set1/red.gif","img/card_backs/set1/green.gif","img/card_backs/set2/gray.gif","img/card_backs/set2/orange.gif","img/card_backs/set2/pink.gif","img/card_backs/set2/blue.gif","""event"",""trial"",""time""
""fullscreenenter"",""1"",""4963""
","
","
","""event"",""trial"",""time""
""fullscreenenter"",""1"",""4963""
","
","","1289.6099999779835","","","","real_trial","2021-06-08 21:17:16.750","img/card_backs/set1/yellow.gif","2","250","1","",""
"casino-fixation","74","386012","0.0-25.0-0.1","593","true","img/card_backs/set1/yellow.gif","img/card_backs/set1/purple.gif","img/card_backs/set1/red.gif","img/card_backs/set1/green.gif","img/card_backs/set2/gray.gif","img/card_backs/set2/orange.gif","img/card_backs/set2/pink.gif","img/card_backs/set2/blue.gif","""event"",""trial"",""time""
""fullscreenenter"",""1"",""4963""
","
","
","""event"",""trial"",""time""
""fullscreenenter"",""1"",""4963""
","
","","null","","null","","fixation","2021-06-08 21:17:17.253","","","","","",""
"card-selection-trial","75","389611","0.0-25.0-1.1","593","true","img/card_backs/set1/yellow.gif","img/card_backs/set1/purple.gif","img/card_backs/set1/red.gif","img/card_backs/set1/green.gif","img/card_backs/set2/gray.gif","img/card_backs/set2/orange.gif","img/card_backs/set2/pink.gif","img/card_backs/set2/blue.gif","""event"",""trial"",""time""
""fullscreenenter"",""1"",""4963""
","
","
","""event"",""trial"",""time""
""fullscreenenter"",""1"",""4963""
","
","","1592.2750000027008","","","","real_trial","2021-06-08 21:17:20.852","img/card_backs/set1/red.gif","2","-100","1","",""
"casino-fixation","76","390116","0.0-25.0-0.2","593","true","img/card_backs/set1/yellow.gif","img/card_backs/set1/purple.gif","img/card_backs/set1/red.gif","img/card_backs/set1/green.gif","img/card_backs/set2/gray.gif","img/card_backs/set2/orange.gif","img/card_backs/set2/pink.gif","img/card_backs/set2/blue.gif","""event"",""trial"",""time""
""fullscreenenter"",""1"",""4963""
","
","
","""event"",""trial"",""time""
""fullscreenenter"",""1"",""4963""
","
","","null","","null","","fixation","2021-06-08 21:17:21.357","","","","","",""
"card-selection-trial","77","392544","0.0-25.0-1.2","593","true","img/card_backs/set1/yellow.gif","img/card_backs/set1/purple.gif","img/card_backs/set1/red.gif","img/card_backs/set1/green.gif","img/card_backs/set2/gray.gif","img/card_backs/set2/orange.gif","img/card_backs/set2/pink.gif","img/card_backs/set2/blue.gif","""event"",""trial"",""time""
""fullscreenenter"",""1"",""4963""
","
","
","""event"",""trial"",""time""
""fullscreenenter"",""1"",""4963""
","
","","422.24499996518716","","","","real_trial","2021-06-08 21:17:23.785","img/card_backs/set1/purple.gif","2","250","1","",""
"casino-fixation","78","393047","0.0-25.0-0.3","593","true","img/card_backs/set1/yellow.gif","img/card_backs/set1/purple.gif","img/card_backs/set1/red.gif","img/card_backs/set1/green.gif","img/card_backs/set2/gray.gif","img/card_backs/set2/orange.gif","img/card_backs/set2/pink.gif","img/card_backs/set2/blue.gif","""event"",""trial"",""time""
""fullscreenenter"",""1"",""4963""
","
","
","""event"",""trial"",""time""
""fullscreenenter"",""1"",""4963""
","
","","null","","null","","fixation","2021-06-08 21:17:24.288","","","","","",""
"card-selection-trial","79","396908","0.0-25.0-1.3","593","true","img/card_backs/set1/yellow.gif","img/card_backs/set1/purple.gif","img/card_backs/set1/red.gif","img/card_backs/set1/green.gif","img/card_backs/set2/gray.gif","img/card_backs/set2/orange.gif","img/card_backs/set2/pink.gif","img/card_backs/set2/blue.gif","""event"",""trial"",""time""
""fullscreenenter"",""1"",""4963""
","
","
","""event"",""trial"",""time""
""fullscreenenter"",""1"",""4963""
","
","","1850.6799999740906","","","","real_trial","2021-06-08 21:17:28.149","img/card_backs/set1/purple.gif","3","-200","1","",""
"casino-fixation","80","397412","0.0-25.0-0.4","593","true","img/card_backs/set1/yellow.gif","img/card_backs/set1/purple.gif","img/card_backs/set1/red.gif","img/card_backs/set1/green.gif","img/card_backs/set2/gray.gif","img/card_backs/set2/orange.gif","img/card_backs/set2/pink.gif","img/card_backs/set2/blue.gif","""event"",""trial"",""time""
""fullscreenenter"",""1"",""4963""
","
","
","""event"",""trial"",""time""
""fullscreenenter"",""1"",""4963""
","
","","null","","null","","fixation","2021-06-08 21:17:28.653","","","","","",""
"card-selection-trial","81","400484","0.0-25.0-1.4","593","true","img/card_backs/set1/yellow.gif","img/card_backs/set1/purple.gif","img/card_backs/set1/red.gif","img/card_backs/set1/green.gif","img/card_backs/set2/gray.gif","img/card_backs/set2/orange.gif","img/card_backs/set2/pink.gif","img/card_backs/set2/blue.gif","""event"",""trial"",""time""
""fullscreenenter"",""1"",""4963""
","
","
","""event"",""trial"",""time""
""fullscreenenter"",""1"",""4963""
","
","","1063.7599999899976","","","","real_trial","2021-06-08 21:17:31.725","img/card_backs/set1/purple.gif","2","240","1","",""
"casino-fixation","82","400986","0.0-25.0-0.5","593","true","img/card_backs/set1/yellow.gif","img/card_backs/set1/purple.gif","img/card_backs/set1/red.gif","img/card_backs/set1/green.gif","img/card_backs/set2/gray.gif","img/card_backs/set2/orange.gif","img/card_backs/set2/pink.gif","img/card_backs/set2/blue.gif","""event"",""trial"",""time""
""fullscreenenter"",""1"",""4963""
","
","
","""event"",""trial"",""time""
""fullscreenenter"",""1"",""4963""
","
","","null","","null","","fixation","2021-06-08 21:17:32.228","","","","","",""
"card-selection-trial","83","403692","0.0-25.0-1.5","593","true","img/card_backs/set1/yellow.gif","img/card_backs/set1/purple.gif","img/card_backs/set1/red.gif","img/card_backs/set1/green.gif","img/card_backs/set2/gray.gif","img/card_backs/set2/orange.gif","img/card_backs/set2/pink.gif","img/card_backs/set2/blue.gif","""event"",""trial"",""time""
""fullscreenenter"",""1"",""4963""
","
","
","""event"",""trial"",""time""
""fullscreenenter"",""1"",""4963""
","
","","696.0850000032224","","","","real_trial","2021-06-08 21:17:34.933","img/card_backs/set1/purple.gif","3","-190","1","",""
"casino-fixation","84","404196","0.0-25.0-0.6","593","true","img/card_backs/set1/yellow.gif","img/card_backs/set1/purple.gif","img/card_backs/set1/red.gif","img/card_backs/set1/green.gif","img/card_backs/set2/gray.gif","img/card_backs/set2/orange.gif","img/card_backs/set2/pink.gif","img/card_backs/set2/blue.gif","""event"",""trial"",""time""
""fullscreenenter"",""1"",""4963""
","
","
","""event"",""trial"",""time""
""fullscreenenter"",""1"",""4963""
","
","","null","","null","","fixation","2021-06-08 21:17:35.437","","","","","",""
"card-selection-trial","85","407925","0.0-25.0-1.6","593","true","img/card_backs/set1/yellow.gif","img/card_backs/set1/purple.gif","img/card_backs/set1/red.gif","img/card_backs/set1/green.gif","img/card_backs/set2/gray.gif","img/card_backs/set2/orange.gif","img/card_backs/set2/pink.gif","img/card_backs/set2/blue.gif","""event"",""trial"",""time""
""fullscreenenter"",""1"",""4963""
","
","
","""event"",""trial"",""time""
""fullscreenenter"",""1"",""4963""
","
","","1719.9000000255182","","","","real_trial","2021-06-08 21:17:39.166","img/card_backs/set1/green.gif","1","40","1","",""
"casino-fixation","86","408430","0.0-25.0-0.7","593","true","img/card_backs/set1/yellow.gif","img/card_backs/set1/purple.gif","img/card_backs/set1/red.gif","img/card_backs/set1/green.gif","img/card_backs/set2/gray.gif","img/card_backs/set2/orange.gif","img/card_backs/set2/pink.gif","img/card_backs/set2/blue.gif","""event"",""trial"",""time""
""fullscreenenter"",""1"",""4963""
","
","
","""event"",""trial"",""time""
""fullscreenenter"",""1"",""4963""
","
","","null","","null","","fixation","2021-06-08 21:17:39.671","","","","","",""
"card-selection-trial","87","412950","0.0-25.0-1.7","593","true","img/card_backs/set1/yellow.gif","img/card_backs/set1/purple.gif","img/card_backs/set1/red.gif","img/card_backs/set1/green.gif","img/card_backs/set2/gray.gif","img/card_backs/set2/orange.gif","img/card_backs/set2/pink.gif","img/card_backs/set2/blue.gif","""event"",""trial"",""time""
""fullscreenenter"",""1"",""4963""
","
","
","""event"",""trial"",""time""
""fullscreenenter"",""1"",""4963""
","
","","2511.6699999780394","","","","real_trial","2021-06-08 21:17:44.191","img/card_backs/set1/green.gif","0","50","1","",""
"casino-fixation","88","413453","0.0-25.0-0.8","593","true","img/card_backs/set1/yellow.gif","img/card_backs/set1/purple.gif","img/card_backs/set1/red.gif","img/card_backs/set1/green.gif","img/card_backs/set2/gray.gif","img/card_backs/set2/orange.gif","img/card_backs/set2/pink.gif","img/card_backs/set2/blue.gif","""event"",""trial"",""time""
""fullscreenenter"",""1"",""4963""
","
","
","""event"",""trial"",""time""
""fullscreenenter"",""1"",""4963""
","
","","null","","null","","fixation","2021-06-08 21:17:44.694","","","","","",""
"card-selection-trial","89","418387","0.0-25.0-1.8","593","true","img/card_backs/set1/yellow.gif","img/card_backs/set1/purple.gif","img/card_backs/set1/red.gif","img/card_backs/set1/green.gif","img/card_backs/set2/gray.gif","img/card_backs/set2/orange.gif","img/card_backs/set2/pink.gif","img/card_backs/set2/blue.gif","""event"",""trial"",""time""
""fullscreenenter"",""1"",""4963""
","
","
","""event"",""trial"",""time""
""fullscreenenter"",""1"",""4963""
","
","","2925.1149999909103","","","","real_trial","2021-06-08 21:17:49.628","img/card_backs/set1/green.gif","1","60","1","",""
"casino-fixation","90","418892","0.0-25.0-0.9","593","true","img/card_backs/set1/yellow.gif","img/card_backs/set1/purple.gif","img/card_backs/set1/red.gif","img/card_backs/set1/green.gif","img/card_backs/set2/gray.gif","img/card_backs/set2/orange.gif","img/card_backs/set2/pink.gif","img/card_backs/set2/blue.gif","""event"",""trial"",""time""
""fullscreenenter"",""1"",""4963""
","
","
","""event"",""trial"",""time""
""fullscreenenter"",""1"",""4963""
","
","","null","","null","","fixation","2021-06-08 21:17:50.133","","","","","",""
"card-selection-trial","91","421844","0.0-25.0-1.9","593","true","img/card_backs/set1/yellow.gif","img/card_backs/set1/purple.gif","img/card_backs/set1/red.gif","img/card_backs/set1/green.gif","img/card_backs/set2/gray.gif","img/card_backs/set2/orange.gif","img/card_backs/set2/pink.gif","img/card_backs/set2/blue.gif","""event"",""trial"",""time""
""fullscreenenter"",""1"",""4963""
","
","
","""event"",""trial"",""time""
""fullscreenenter"",""1"",""4963""
","
","","946.1250000167638","","","","real_trial","2021-06-08 21:17:53.085","img/card_backs/set1/purple.gif","2","-190","1","",""
"casino-fixation","92","422346","0.0-25.0-0.10","593","true","img/card_backs/set1/yellow.gif","img/card_backs/set1/purple.gif","img/card_backs/set1/red.gif","img/card_backs/set1/green.gif","img/card_backs/set2/gray.gif","img/card_backs/set2/orange.gif","img/card_backs/set2/pink.gif","img/card_backs/set2/blue.gif","""event"",""trial"",""time""
""fullscreenenter"",""1"",""4963""
","
","
","""event"",""trial"",""time""
""fullscreenenter"",""1"",""4963""
","
","","null","","null","","fixation","2021-06-08 21:17:53.587","","","","","",""
"card-selection-trial","93","427559","0.0-25.0-1.10","593","true","img/card_backs/set1/yellow.gif","img/card_backs/set1/purple.gif","img/card_backs/set1/red.gif","img/card_backs/set1/green.gif","img/card_backs/set2/gray.gif","img/card_backs/set2/orange.gif","img/card_backs/set2/pink.gif","img/card_backs/set2/blue.gif","""event"",""trial"",""time""
""fullscreenenter"",""1"",""4963""
","
","
","""event"",""trial"",""time""
""fullscreenenter"",""1"",""4963""
","
","","3202.365000033751","","","","real_trial","2021-06-08 21:17:58.800","img/card_backs/set1/green.gif","0","60","1","",""
"casino-fixation","94","428064","0.0-25.0-0.11","593","true","img/card_backs/set1/yellow.gif","img/card_backs/set1/purple.gif","img/card_backs/set1/red.gif","img/card_backs/set1/green.gif","img/card_backs/set2/gray.gif","img/card_backs/set2/orange.gif","img/card_backs/set2/pink.gif","img/card_backs/set2/blue.gif","""event"",""trial"",""time""
""fullscreenenter"",""1"",""4963""
","
","
","""event"",""trial"",""time""
""fullscreenenter"",""1"",""4963""
","
","","null","","null","","fixation","2021-06-08 21:17:59.305","","","","","",""
"card-selection-trial","95","431633","0.0-25.0-1.11","593","true","img/card_backs/set1/yellow.gif","img/card_backs/set1/purple.gif","img/card_backs/set1/red.gif","img/card_backs/set1/green.gif","img/card_backs/set2/gray.gif","img/card_backs/set2/orange.gif","img/card_backs/set2/pink.gif","img/card_backs/set2/blue.gif","""event"",""trial"",""time""
""fullscreenenter"",""1"",""4963""
","
","
","""event"",""trial"",""time""
""fullscreenenter"",""1"",""4963""
","
","","1558.8599999900907","","","","real_trial","2021-06-08 21:18:02.874","img/card_backs/set1/purple.gif","3","-190","1","",""
"casino-fixation","96","432139","0.0-25.0-0.12","593","true","img/card_backs/set1/yellow.gif","img/card_backs/set1/purple.gif","img/card_backs/set1/red.gif","img/card_backs/set1/green.gif","img/card_backs/set2/gray.gif","img/card_backs/set2/orange.gif","img/card_backs/set2/pink.gif","img/card_backs/set2/blue.gif","""event"",""trial"",""time""
""fullscreenenter"",""1"",""4963""
","
","
","""event"",""trial"",""time""
""fullscreenenter"",""1"",""4963""
","
","","null","","null","","fixation","2021-06-08 21:18:03.380","","","","","",""
"card-selection-trial","97","437155","0.0-25.0-1.12","593","true","img/card_backs/set1/yellow.gif","img/card_backs/set1/purple.gif","img/card_backs/set1/red.gif","img/card_backs/set1/green.gif","img/card_backs/set2/gray.gif","img/card_backs/set2/orange.gif","img/card_backs/set2/pink.gif","img/card_backs/set2/blue.gif","""event"",""trial"",""time""
""fullscreenenter"",""1"",""4963""
","
","
","""event"",""trial"",""time""
""fullscreenenter"",""1"",""4963""
","
","","3006.7150000249967","","","","real_trial","2021-06-08 21:18:08.396","img/card_backs/set1/green.gif","2","60","1","",""
"casino-fixation","98","437660","0.0-25.0-0.13","593","true","img/card_backs/set1/yellow.gif","img/card_backs/set1/purple.gif","img/card_backs/set1/red.gif","img/card_backs/set1/green.gif","img/card_backs/set2/gray.gif","img/card_backs/set2/orange.gif","img/card_backs/set2/pink.gif","img/card_backs/set2/blue.gif","""event"",""trial"",""time""
""fullscreenenter"",""1"",""4963""
","
","
","""event"",""trial"",""time""
""fullscreenenter"",""1"",""4963""
","
","","null","","null","","fixation","2021-06-08 21:18:08.901","","","","","",""
"card-selection-trial","99","441782","0.0-25.0-1.13","593","true","img/card_backs/set1/yellow.gif","img/card_backs/set1/purple.gif","img/card_backs/set1/red.gif","img/card_backs/set1/green.gif","img/card_backs/set2/gray.gif","img/card_backs/set2/orange.gif","img/card_backs/set2/pink.gif","img/card_backs/set2/blue.gif","""event"",""trial"",""time""
""fullscreenenter"",""1"",""4963""
","
","
","""event"",""trial"",""time""
""fullscreenenter"",""1"",""4963""
","
","","2112.520000024233","","","","real_trial","2021-06-08 21:18:13.023","img/card_backs/set1/red.gif","2","-90","1","",""
"casino-fixation","100","442286","0.0-25.0-0.14","593","true","img/card_backs/set1/yellow.gif","img/card_backs/set1/purple.gif","img/card_backs/set1/red.gif","img/card_backs/set1/green.gif","img/card_backs/set2/gray.gif","img/card_backs/set2/orange.gif","img/card_backs/set2/pink.gif","img/card_backs/set2/blue.gif","""event"",""trial"",""time""
""fullscreenenter"",""1"",""4963""
","
","
","""event"",""trial"",""time""
""fullscreenenter"",""1"",""4963""
","
","","null","","null","","fixation","2021-06-08 21:18:13.527","","","","","",""
"card-selection-trial","101","446455","0.0-25.0-1.14","593","true","img/card_backs/set1/yellow.gif","img/card_backs/set1/purple.gif","img/card_backs/set1/red.gif","img/card_backs/set1/green.gif","img/card_backs/set2/gray.gif","img/card_backs/set2/orange.gif","img/card_backs/set2/pink.gif","img/card_backs/set2/blue.gif","""event"",""trial"",""time""
""fullscreenenter"",""1"",""4963""
","
","
","""event"",""trial"",""time""
""fullscreenenter"",""1"",""4963""
","
","","2158.274999994319","","","","real_trial","2021-06-08 21:18:17.696","img/card_backs/set1/green.gif","0","50","1","",""
"casino-fixation","102","446959","0.0-25.0-0.15","593","true","img/card_backs/set1/yellow.gif","img/card_backs/set1/purple.gif","img/card_backs/set1/red.gif","img/card_backs/set1/green.gif","img/card_backs/set2/gray.gif","img/card_backs/set2/orange.gif","img/card_backs/set2/pink.gif","img/card_backs/set2/blue.gif","""event"",""trial"",""time""
""fullscreenenter"",""1"",""4963""
","
","
","""event"",""trial"",""time""
""fullscreenenter"",""1"",""4963""
","
","","null","","null","","fixation","2021-06-08 21:18:18.200","","","","","",""
"card-selection-trial","103","452730","0.0-25.0-1.15","593","true","img/card_backs/set1/yellow.gif","img/card_backs/set1/purple.gif","img/card_backs/set1/red.gif","img/card_backs/set1/green.gif","img/card_backs/set2/gray.gif","img/card_backs/set2/orange.gif","img/card_backs/set2/pink.gif","img/card_backs/set2/blue.gif","""event"",""trial"",""time""
""fullscreenenter"",""1"",""4963""
","
","
","""event"",""trial"",""time""
""fullscreenenter"",""1"",""4963""
","
","","3762.9399999859743","","","","real_trial","2021-06-08 21:18:23.971","img/card_backs/set1/green.gif","1","-100","1","",""
"casino-fixation","104","453235","0.0-25.0-0.16","593","true","img/card_backs/set1/yellow.gif","img/card_backs/set1/purple.gif","img/card_backs/set1/red.gif","img/card_backs/set1/green.gif","img/card_backs/set2/gray.gif","img/card_backs/set2/orange.gif","img/card_backs/set2/pink.gif","img/card_backs/set2/blue.gif","""event"",""trial"",""time""
""fullscreenenter"",""1"",""4963""
","
","
","""event"",""trial"",""time""
""fullscreenenter"",""1"",""4963""
","
","","null","","null","","fixation","2021-06-08 21:18:24.476","","","","","",""
"card-selection-trial","105","456462","0.0-25.0-1.16","593","true","img/card_backs/set1/yellow.gif","img/card_backs/set1/purple.gif","img/card_backs/set1/red.gif","img/card_backs/set1/green.gif","img/card_backs/set2/gray.gif","img/card_backs/set2/orange.gif","img/card_backs/set2/pink.gif","img/card_backs/set2/blue.gif","""event"",""trial"",""time""
""fullscreenenter"",""1"",""4963""
","
","
","""event"",""trial"",""time""
""fullscreenenter"",""1"",""4963""
","
","","1221.114999963902","","","","real_trial","2021-06-08 21:18:27.703","img/card_backs/set1/yellow.gif","0","240","1","",""
"casino-fixation","106","456968","0.0-25.0-0.17","593","true","img/card_backs/set1/yellow.gif","img/card_backs/set1/purple.gif","img/card_backs/set1/red.gif","img/card_backs/set1/green.gif","img/card_backs/set2/gray.gif","img/card_backs/set2/orange.gif","img/card_backs/set2/pink.gif","img/card_backs/set2/blue.gif","""event"",""trial"",""time""
""fullscreenenter"",""1"",""4963""
","
","
","""event"",""trial"",""time""
""fullscreenenter"",""1"",""4963""
","
","","null","","null","","fixation","2021-06-08 21:18:28.209","","","","","",""
"card-selection-trial","107","461954","0.0-25.0-1.17","593","true","img/card_backs/set1/yellow.gif","img/card_backs/set1/purple.gif","img/card_backs/set1/red.gif","img/card_backs/set1/green.gif","img/card_backs/set2/gray.gif","img/card_backs/set2/orange.gif","img/card_backs/set2/pink.gif","img/card_backs/set2/blue.gif","""event"",""trial"",""time""
""fullscreenenter"",""1"",""4963""
","
","
","""event"",""trial"",""time""
""fullscreenenter"",""1"",""4963""
","
","","2976.6400000080466","","","","real_trial","2021-06-08 21:18:33.195","img/card_backs/set1/yellow.gif","1","250","1","",""
"casino-fixation","108","462458","0.0-25.0-0.18","593","true","img/card_backs/set1/yellow.gif","img/card_backs/set1/purple.gif","img/card_backs/set1/red.gif","img/card_backs/set1/green.gif","img/card_backs/set2/gray.gif","img/card_backs/set2/orange.gif","img/card_backs/set2/pink.gif","img/card_backs/set2/blue.gif","""event"",""trial"",""time""
""fullscreenenter"",""1"",""4963""
","
","
","""event"",""trial"",""time""
""fullscreenenter"",""1"",""4963""
","
","","null","","null","","fixation","2021-06-08 21:18:33.699","","","","","",""
"card-selection-trial","109","465387","0.0-25.0-1.18","593","true","img/card_backs/set1/yellow.gif","img/card_backs/set1/purple.gif","img/card_backs/set1/red.gif","img/card_backs/set1/green.gif","img/card_backs/set2/gray.gif","img/card_backs/set2/orange.gif","img/card_backs/set2/pink.gif","img/card_backs/set2/blue.gif","""event"",""trial"",""time""
""fullscreenenter"",""1"",""4963""
","
","
","""event"",""trial"",""time""
""fullscreenenter"",""1"",""4963""
","
","","920.9050000063144","","","","real_trial","2021-06-08 21:18:36.628","img/card_backs/set1/yellow.gif","0","-210","1","",""
"casino-fixation","110","465892","0.0-25.0-0.19","593","true","img/card_backs/set1/yellow.gif","img/card_backs/set1/purple.gif","img/card_backs/set1/red.gif","img/card_backs/set1/green.gif","img/card_backs/set2/gray.gif","img/card_backs/set2/orange.gif","img/card_backs/set2/pink.gif","img/card_backs/set2/blue.gif","""event"",""trial"",""time""
""fullscreenenter"",""1"",""4963""
","
","
","""event"",""trial"",""time""
""fullscreenenter"",""1"",""4963""
","
","","null","","null","","fixation","2021-06-08 21:18:37.133","","","","","",""
"card-selection-trial","111","470104","0.0-25.0-1.19","593","true","img/card_backs/set1/yellow.gif","img/card_backs/set1/purple.gif","img/card_backs/set1/red.gif","img/card_backs/set1/green.gif","img/card_backs/set2/gray.gif","img/card_backs/set2/orange.gif","img/card_backs/set2/pink.gif","img/card_backs/set2/blue.gif","""event"",""trial"",""time""
""fullscreenenter"",""1"",""4963""
","
","
","""event"",""trial"",""time""
""fullscreenenter"",""1"",""4963""
","
","","2202.2649999707937","","","","real_trial","2021-06-08 21:18:41.345","img/card_backs/set1/purple.gif","0","-200","1","",""
"casino-fixation","112","470609","0.0-25.0-0.20","593","true","img/card_backs/set1/yellow.gif","img/card_backs/set1/purple.gif","img/card_backs/set1/red.gif","img/card_backs/set1/green.gif","img/card_backs/set2/gray.gif","img/card_backs/set2/orange.gif","img/card_backs/set2/pink.gif","img/card_backs/set2/blue.gif","""event"",""trial"",""time""
""fullscreenenter"",""1"",""4963""
","
","
","""event"",""trial"",""time""
""fullscreenenter"",""1"",""4963""
","
","","null","","null","","fixation","2021-06-08 21:18:41.850","","","","","",""
"card-selection-trial","113","474110","0.0-25.0-1.20","593","true","img/card_backs/set1/yellow.gif","img/card_backs/set1/purple.gif","img/card_backs/set1/red.gif","img/card_backs/set1/green.gif","img/card_backs/set2/gray.gif","img/card_backs/set2/orange.gif","img/card_backs/set2/pink.gif","img/card_backs/set2/blue.gif","""event"",""trial"",""time""
""fullscreenenter"",""1"",""4963""
","
","
","""event"",""trial"",""time""
""fullscreenenter"",""1"",""4963""
","
","","1492.3350000171922","","","","real_trial","2021-06-08 21:18:45.351","img/card_backs/set1/red.gif","1","-90","1","",""
"casino-fixation","114","474614","0.0-25.0-0.21","593","true","img/card_backs/set1/yellow.gif","img/card_backs/set1/purple.gif","img/card_backs/set1/red.gif","img/card_backs/set1/green.gif","img/card_backs/set2/gray.gif","img/card_backs/set2/orange.gif","img/card_backs/set2/pink.gif","img/card_backs/set2/blue.gif","""event"",""trial"",""time""
""fullscreenenter"",""1"",""4963""
","
","
","""event"",""trial"",""time""
""fullscreenenter"",""1"",""4963""
","
","","null","","null","","fixation","2021-06-08 21:18:45.855","","","","","",""
"card-selection-trial","115","477987","0.0-25.0-1.21","593","true","img/card_backs/set1/yellow.gif","img/card_backs/set1/purple.gif","img/card_backs/set1/red.gif","img/card_backs/set1/green.gif","img/card_backs/set2/gray.gif","img/card_backs/set2/orange.gif","img/card_backs/set2/pink.gif","img/card_backs/set2/blue.gif","""event"",""trial"",""time""
""fullscreenenter"",""1"",""4963""
","
","
","""event"",""trial"",""time""
""fullscreenenter"",""1"",""4963""
","
","","1363.98000002373","","","","real_trial","2021-06-08 21:18:49.228","img/card_backs/set1/purple.gif","1","-190","1","",""
"casino-fixation","116","478492","0.0-25.0-0.22","593","true","img/card_backs/set1/yellow.gif","img/card_backs/set1/purple.gif","img/card_backs/set1/red.gif","img/card_backs/set1/green.gif","img/card_backs/set2/gray.gif","img/card_backs/set2/orange.gif","img/card_backs/set2/pink.gif","img/card_backs/set2/blue.gif","""event"",""trial"",""time""
""fullscreenenter"",""1"",""4963""
","
","
","""event"",""trial"",""time""
""fullscreenenter"",""1"",""4963""
","
","","null","","null","","fixation","2021-06-08 21:18:49.733","","","","","",""
"card-selection-trial","117","481476","0.0-25.0-1.22","593","true","img/card_backs/set1/yellow.gif","img/card_backs/set1/purple.gif","img/card_backs/set1/red.gif","img/card_backs/set1/green.gif","img/card_backs/set2/gray.gif","img/card_backs/set2/orange.gif","img/card_backs/set2/pink.gif","img/card_backs/set2/blue.gif","""event"",""trial"",""time""
""fullscreenenter"",""1"",""4963""
","
","
","""event"",""trial"",""time""
""fullscreenenter"",""1"",""4963""
","
","","975.1750000286847","","","","real_trial","2021-06-08 21:18:52.717","img/card_backs/set1/yellow.gif","0","-200","1","",""
"casino-fixation","118","481981","0.0-25.0-0.23","593","true","img/card_backs/set1/yellow.gif","img/card_backs/set1/purple.gif","img/card_backs/set1/red.gif","img/card_backs/set1/green.gif","img/card_backs/set2/gray.gif","img/card_backs/set2/orange.gif","img/card_backs/set2/pink.gif","img/card_backs/set2/blue.gif","""event"",""trial"",""time""
""fullscreenenter"",""1"",""4963""
","
","
","""event"",""trial"",""time""
""fullscreenenter"",""1"",""4963""
","
","","null","","null","","fixation","2021-06-08 21:18:53.222","","","","","",""
"card-selection-trial","119","486027","0.0-25.0-1.23","593","true","img/card_backs/set1/yellow.gif","img/card_backs/set1/purple.gif","img/card_backs/set1/red.gif","img/card_backs/set1/green.gif","img/card_backs/set2/gray.gif","img/card_backs/set2/orange.gif","img/card_backs/set2/pink.gif","img/card_backs/set2/blue.gif","""event"",""trial"",""time""
""fullscreenenter"",""1"",""4963""
","
","
","""event"",""trial"",""time""
""fullscreenenter"",""1"",""4963""
","
","","2038.6150000267662","","","","real_trial","2021-06-08 21:18:57.268","img/card_backs/set1/yellow.gif","2","260","1","",""
"casino-fixation","120","486532","0.0-25.0-0.24","593","true","img/card_backs/set1/yellow.gif","img/card_backs/set1/purple.gif","img/card_backs/set1/red.gif","img/card_backs/set1/green.gif","img/card_backs/set2/gray.gif","img/card_backs/set2/orange.gif","img/card_backs/set2/pink.gif","img/card_backs/set2/blue.gif","""event"",""trial"",""time""
""fullscreenenter"",""1"",""4963""
","
","
","""event"",""trial"",""time""
""fullscreenenter"",""1"",""4963""
","
","","null","","null","","fixation","2021-06-08 21:18:57.773","","","","","",""
"card-selection-trial","121","490532","0.0-25.0-1.24","593","true","img/card_backs/set1/yellow.gif","img/card_backs/set1/purple.gif","img/card_backs/set1/red.gif","img/card_backs/set1/green.gif","img/card_backs/set2/gray.gif","img/card_backs/set2/orange.gif","img/card_backs/set2/pink.gif","img/card_backs/set2/blue.gif","""event"",""trial"",""time""
""fullscreenenter"",""1"",""4963""
","
","
","""event"",""trial"",""time""
""fullscreenenter"",""1"",""4963""
","
","","1989.7400000481866","","","","real_trial","2021-06-08 21:19:01.773","img/card_backs/set1/green.gif","0","-100","1","",""
"casino-fixation","122","491039","0.0-25.0-0.25","593","true","img/card_backs/set1/yellow.gif","img/card_backs/set1/purple.gif","img/card_backs/set1/red.gif","img/card_backs/set1/green.gif","img/card_backs/set2/gray.gif","img/card_backs/set2/orange.gif","img/card_backs/set2/pink.gif","img/card_backs/set2/blue.gif","""event"",""trial"",""time""
""fullscreenenter"",""1"",""4963""
","
","
","""event"",""trial"",""time""
""fullscreenenter"",""1"",""4963""
","
","","null","","null","","fixation","2021-06-08 21:19:02.280","","","","","",""
"card-selection-trial","123","494247","0.0-25.0-1.25","593","true","img/card_backs/set1/yellow.gif","img/card_backs/set1/purple.gif","img/card_backs/set1/red.gif","img/card_backs/set1/green.gif","img/card_backs/set2/gray.gif","img/card_backs/set2/orange.gif","img/card_backs/set2/pink.gif","img/card_backs/set2/blue.gif","""event"",""trial"",""time""
""fullscreenenter"",""1"",""4963""
","
","
","""event"",""trial"",""time""
""fullscreenenter"",""1"",""4963""
","
","","1200.3499999991618","","","","real_trial","2021-06-08 21:19:05.488","img/card_backs/set1/yellow.gif","0","250","1","",""
"casino-fixation","124","494752","0.0-25.0-0.26","593","true","img/card_backs/set1/yellow.gif","img/card_backs/set1/purple.gif","img/card_backs/set1/red.gif","img/card_backs/set1/green.gif","img/card_backs/set2/gray.gif","img/card_backs/set2/orange.gif","img/card_backs/set2/pink.gif","img/card_backs/set2/blue.gif","""event"",""trial"",""time""
""fullscreenenter"",""1"",""4963""
","
","
","""event"",""trial"",""time""
""fullscreenenter"",""1"",""4963""
","
","","null","","null","","fixation","2021-06-08 21:19:05.993","","","","","",""
"card-selection-trial","125","498525","0.0-25.0-1.26","593","true","img/card_backs/set1/yellow.gif","img/card_backs/set1/purple.gif","img/card_backs/set1/red.gif","img/card_backs/set1/green.gif","img/card_backs/set2/gray.gif","img/card_backs/set2/orange.gif","img/card_backs/set2/pink.gif","img/card_backs/set2/blue.gif","""event"",""trial"",""time""
""fullscreenenter"",""1"",""4963""
","
","
","""event"",""trial"",""time""
""fullscreenenter"",""1"",""4963""
","
","","1762.860000017099","","","","real_trial","2021-06-08 21:19:09.766","img/card_backs/set1/yellow.gif","2","240","1","",""
"casino-fixation","126","499030","0.0-25.0-0.27","593","true","img/card_backs/set1/yellow.gif","img/card_backs/set1/purple.gif","img/card_backs/set1/red.gif","img/card_backs/set1/green.gif","img/card_backs/set2/gray.gif","img/card_backs/set2/orange.gif","img/card_backs/set2/pink.gif","img/card_backs/set2/blue.gif","""event"",""trial"",""time""
""fullscreenenter"",""1"",""4963""
","
","
","""event"",""trial"",""time""
""fullscreenenter"",""1"",""4963""
","
","","null","","null","","fixation","2021-06-08 21:19:10.271","","","","","",""
"card-selection-trial","127","502485","0.0-25.0-1.27","593","true","img/card_backs/set1/yellow.gif","img/card_backs/set1/purple.gif","img/card_backs/set1/red.gif","img/card_backs/set1/green.gif","img/card_backs/set2/gray.gif","img/card_backs/set2/orange.gif","img/card_backs/set2/pink.gif","img/card_backs/set2/blue.gif","""event"",""trial"",""time""
""fullscreenenter"",""1"",""4963""
","
","
","""event"",""trial"",""time""
""fullscreenenter"",""1"",""4963""
","
","","1448.255000053905","","","","real_trial","2021-06-08 21:19:13.726","img/card_backs/set1/yellow.gif","0","260","1","",""
"casino-fixation","128","502989","0.0-25.0-0.28","593","true","img/card_backs/set1/yellow.gif","img/card_backs/set1/purple.gif","img/card_backs/set1/red.gif","img/card_backs/set1/green.gif","img/card_backs/set2/gray.gif","img/card_backs/set2/orange.gif","img/card_backs/set2/pink.gif","img/card_backs/set2/blue.gif","""event"",""trial"",""time""
""fullscreenenter"",""1"",""4963""
","
","
","""event"",""trial"",""time""
""fullscreenenter"",""1"",""4963""
","
","","null","","null","","fixation","2021-06-08 21:19:14.230","","","","","",""
"card-selection-trial","129","508159","0.0-25.0-1.28","593","true","img/card_backs/set1/yellow.gif","img/card_backs/set1/purple.gif","img/card_backs/set1/red.gif","img/card_backs/set1/green.gif","img/card_backs/set2/gray.gif","img/card_backs/set2/orange.gif","img/card_backs/set2/pink.gif","img/card_backs/set2/blue.gif","""event"",""trial"",""time""
""fullscreenenter"",""1"",""4963""
","
","
","""event"",""trial"",""time""
""fullscreenenter"",""1"",""4963""
","
","","3160.9150000149384","","","","real_trial","2021-06-08 21:19:19.400","img/card_backs/set1/green.gif","0","50","1","",""
"casino-fixation","130","508661","0.0-25.0-0.29","593","true","img/card_backs/set1/yellow.gif","img/card_backs/set1/purple.gif","img/card_backs/set1/red.gif","img/card_backs/set1/green.gif","img/card_backs/set2/gray.gif","img/card_backs/set2/orange.gif","img/card_backs/set2/pink.gif","img/card_backs/set2/blue.gif","""event"",""trial"",""time""
""fullscreenenter"",""1"",""4963""
","
","
","""event"",""trial"",""time""
""fullscreenenter"",""1"",""4963""
","
","","null","","null","","fixation","2021-06-08 21:19:19.902","","","","","",""
"card-selection-trial","131","512788","0.0-25.0-1.29","593","true","img/card_backs/set1/yellow.gif","img/card_backs/set1/purple.gif","img/card_backs/set1/red.gif","img/card_backs/set1/green.gif","img/card_backs/set2/gray.gif","img/card_backs/set2/orange.gif","img/card_backs/set2/pink.gif","img/card_backs/set2/blue.gif","""event"",""trial"",""time""
""fullscreenenter"",""1"",""4963""
","
","
","""event"",""trial"",""time""
""fullscreenenter"",""1"",""4963""
","
","","2120.040000008885","","","","real_trial","2021-06-08 21:19:24.029","img/card_backs/set1/purple.gif","2","-200","1","",""
"casino-fixation","132","513293","0.0-25.0-0.30","593","true","img/card_backs/set1/yellow.gif","img/card_backs/set1/purple.gif","img/card_backs/set1/red.gif","img/card_backs/set1/green.gif","img/card_backs/set2/gray.gif","img/card_backs/set2/orange.gif","img/card_backs/set2/pink.gif","img/card_backs/set2/blue.gif","""event"",""trial"",""time""
""fullscreenenter"",""1"",""4963""
","
","
","""event"",""trial"",""time""
""fullscreenenter"",""1"",""4963""
","
","","null","","null","","fixation","2021-06-08 21:19:24.534","","","","","",""
"card-selection-trial","133","516115","0.0-25.0-1.30","593","true","img/card_backs/set1/yellow.gif","img/card_backs/set1/purple.gif","img/card_backs/set1/red.gif","img/card_backs/set1/green.gif","img/card_backs/set2/gray.gif","img/card_backs/set2/orange.gif","img/card_backs/set2/pink.gif","img/card_backs/set2/blue.gif","""event"",""trial"",""time""
""fullscreenenter"",""1"",""4963""
","
","
","""event"",""trial"",""time""
""fullscreenenter"",""1"",""4963""
","
","","812.0450000278652","","","","real_trial","2021-06-08 21:19:27.356","img/card_backs/set1/yellow.gif","0","-210","1","",""
"casino-fixation","134","516619","0.0-25.0-0.31","593","true","img/card_backs/set1/yellow.gif","img/card_backs/set1/purple.gif","img/card_backs/set1/red.gif","img/card_backs/set1/green.gif","img/card_backs/set2/gray.gif","img/card_backs/set2/orange.gif","img/card_backs/set2/pink.gif","img/card_backs/set2/blue.gif","""event"",""trial"",""time""
""fullscreenenter"",""1"",""4963""
","
","
","""event"",""trial"",""time""
""fullscreenenter"",""1"",""4963""
","
","","null","","null","","fixation","2021-06-08 21:19:27.861","","","","","",""
"card-selection-trial","135","520633","0.0-25.0-1.31","593","true","img/card_backs/set1/yellow.gif","img/card_backs/set1/purple.gif","img/card_backs/set1/red.gif","img/card_backs/set1/green.gif","img/card_backs/set2/gray.gif","img/card_backs/set2/orange.gif","img/card_backs/set2/pink.gif","img/card_backs/set2/blue.gif","""event"",""trial"",""time""
""fullscreenenter"",""1"",""4963""
","
","
","""event"",""trial"",""time""
""fullscreenenter"",""1"",""4963""
","
","","2007.5800000340678","","","","real_trial","2021-06-08 21:19:31.874","img/card_backs/set1/yellow.gif","1","-200","1","",""
"casino-fixation","136","521135","0.0-25.0-0.32","593","true","img/card_backs/set1/yellow.gif","img/card_backs/set1/purple.gif","img/card_backs/set1/red.gif","img/card_backs/set1/green.gif","img/card_backs/set2/gray.gif","img/card_backs/set2/orange.gif","img/card_backs/set2/pink.gif","img/card_backs/set2/blue.gif","""event"",""trial"",""time""
""fullscreenenter"",""1"",""4963""
","
","
","""event"",""trial"",""time""
""fullscreenenter"",""1"",""4963""
","
","","null","","null","","fixation","2021-06-08 21:19:32.376","","","","","",""
"card-selection-trial","137","525182","0.0-25.0-1.32","593","true","img/card_backs/set1/yellow.gif","img/card_backs/set1/purple.gif","img/card_backs/set1/red.gif","img/card_backs/set1/green.gif","img/card_backs/set2/gray.gif","img/card_backs/set2/orange.gif","img/card_backs/set2/pink.gif","img/card_backs/set2/blue.gif","""event"",""trial"",""time""
""fullscreenenter"",""1"",""4963""
","
","
","""event"",""trial"",""time""
""fullscreenenter"",""1"",""4963""
","
","","2037.895000015851","","","","real_trial","2021-06-08 21:19:36.423","img/card_backs/set1/green.gif","3","50","1","",""
"casino-fixation","138","525686","0.0-25.0-0.33","593","true","img/card_backs/set1/yellow.gif","img/card_backs/set1/purple.gif","img/card_backs/set1/red.gif","img/card_backs/set1/green.gif","img/card_backs/set2/gray.gif","img/card_backs/set2/orange.gif","img/card_backs/set2/pink.gif","img/card_backs/set2/blue.gif","""event"",""trial"",""time""
""fullscreenenter"",""1"",""4963""
","
","
","""event"",""trial"",""time""
""fullscreenenter"",""1"",""4963""
","
","","null","","null","","fixation","2021-06-08 21:19:36.928","","","","","",""
"card-selection-trial","139","529239","0.0-25.0-1.33","593","true","img/card_backs/set1/yellow.gif","img/card_backs/set1/purple.gif","img/card_backs/set1/red.gif","img/card_backs/set1/green.gif","img/card_backs/set2/gray.gif","img/card_backs/set2/orange.gif","img/card_backs/set2/pink.gif","img/card_backs/set2/blue.gif","""event"",""trial"",""time""
""fullscreenenter"",""1"",""4963""
","
","
","""event"",""trial"",""time""
""fullscreenenter"",""1"",""4963""
","
","","1544.6349999983795","","","","real_trial","2021-06-08 21:19:40.480","img/card_backs/set1/purple.gif","0","250","1","",""
"casino-fixation","140","529745","0.0-25.0-0.34","593","true","img/card_backs/set1/yellow.gif","img/card_backs/set1/purple.gif","img/card_backs/set1/red.gif","img/card_backs/set1/green.gif","img/card_backs/set2/gray.gif","img/card_backs/set2/orange.gif","img/card_backs/set2/pink.gif","img/card_backs/set2/blue.gif","""event"",""trial"",""time""
""fullscreenenter"",""1"",""4963""
","
","
","""event"",""trial"",""time""
""fullscreenenter"",""1"",""4963""
","
","","null","","null","","fixation","2021-06-08 21:19:40.986","","","","","",""
"card-selection-trial","141","535075","0.0-25.0-1.34","593","true","img/card_backs/set1/yellow.gif","img/card_backs/set1/purple.gif","img/card_backs/set1/red.gif","img/card_backs/set1/green.gif","img/card_backs/set2/gray.gif","img/card_backs/set2/orange.gif","img/card_backs/set2/pink.gif","img/card_backs/set2/blue.gif","""event"",""trial"",""time""
""fullscreenenter"",""1"",""4963""
","
","
","""event"",""trial"",""time""
""fullscreenenter"",""1"",""4963""
","
","","3320.1549999648705","","","","real_trial","2021-06-08 21:19:46.316","img/card_backs/set1/red.gif","0","-90","1","",""
"casino-fixation","142","535579","0.0-25.0-0.35","593","true","img/card_backs/set1/yellow.gif","img/card_backs/set1/purple.gif","img/card_backs/set1/red.gif","img/card_backs/set1/green.gif","img/card_backs/set2/gray.gif","img/card_backs/set2/orange.gif","img/card_backs/set2/pink.gif","img/card_backs/set2/blue.gif","""event"",""trial"",""time""
""fullscreenenter"",""1"",""4963""
","
","
","""event"",""trial"",""time""
""fullscreenenter"",""1"",""4963""
","
","","null","","null","","fixation","2021-06-08 21:19:46.820","","","","","",""
"card-selection-trial","143","540034","0.0-25.0-1.35","593","true","img/card_backs/set1/yellow.gif","img/card_backs/set1/purple.gif","img/card_backs/set1/red.gif","img/card_backs/set1/green.gif","img/card_backs/set2/gray.gif","img/card_backs/set2/orange.gif","img/card_backs/set2/pink.gif","img/card_backs/set2/blue.gif","""event"",""trial"",""time""
""fullscreenenter"",""1"",""4963""
","
","
","""event"",""trial"",""time""
""fullscreenenter"",""1"",""4963""
","
","","2445.7950000069104","","","","real_trial","2021-06-08 21:19:51.275","img/card_backs/set1/green.gif","0","60","1","",""
"casino-fixation","144","540540","0.0-25.0-0.36","593","true","img/card_backs/set1/yellow.gif","img/card_backs/set1/purple.gif","img/card_backs/set1/red.gif","img/card_backs/set1/green.gif","img/card_backs/set2/gray.gif","img/card_backs/set2/orange.gif","img/card_backs/set2/pink.gif","img/card_backs/set2/blue.gif","""event"",""trial"",""time""
""fullscreenenter"",""1"",""4963""
","
","
","""event"",""trial"",""time""
""fullscreenenter"",""1"",""4963""
","
","","null","","null","","fixation","2021-06-08 21:19:51.781","","","","","",""
"card-selection-trial","145","546632","0.0-25.0-1.36","593","true","img/card_backs/set1/yellow.gif","img/card_backs/set1/purple.gif","img/card_backs/set1/red.gif","img/card_backs/set1/green.gif","img/card_backs/set2/gray.gif","img/card_backs/set2/orange.gif","img/card_backs/set2/pink.gif","img/card_backs/set2/blue.gif","""event"",""trial"",""time""
""fullscreenenter"",""1"",""4963""
","
","
","""event"",""trial"",""time""
""fullscreenenter"",""1"",""4963""
","
","","4080.7800000184216","","","","real_trial","2021-06-08 21:19:57.873","img/card_backs/set1/yellow.gif","2","240","1","",""
"casino-fixation","146","547136","0.0-25.0-0.37","593","true","img/card_backs/set1/yellow.gif","img/card_backs/set1/purple.gif","img/card_backs/set1/red.gif","img/card_backs/set1/green.gif","img/card_backs/set2/gray.gif","img/card_backs/set2/orange.gif","img/card_backs/set2/pink.gif","img/card_backs/set2/blue.gif","""event"",""trial"",""time""
""fullscreenenter"",""1"",""4963""
","
","
","""event"",""trial"",""time""
""fullscreenenter"",""1"",""4963""
","
","","null","","null","","fixation","2021-06-08 21:19:58.377","","","","","",""
"card-selection-trial","147","553122","0.0-25.0-1.37","593","true","img/card_backs/set1/yellow.gif","img/card_backs/set1/purple.gif","img/card_backs/set1/red.gif","img/card_backs/set1/green.gif","img/card_backs/set2/gray.gif","img/card_backs/set2/orange.gif","img/card_backs/set2/pink.gif","img/card_backs/set2/blue.gif","""event"",""trial"",""time""
""fullscreenenter"",""1"",""4963""
","
","
","""event"",""trial"",""time""
""fullscreenenter"",""1"",""4963""
","
","","3976.1299999663606","","","","real_trial","2021-06-08 21:20:04.363","img/card_backs/set1/purple.gif","0","240","1","",""
"casino-fixation","148","553626","0.0-25.0-0.38","593","true","img/card_backs/set1/yellow.gif","img/card_backs/set1/purple.gif","img/card_backs/set1/red.gif","img/card_backs/set1/green.gif","img/card_backs/set2/gray.gif","img/card_backs/set2/orange.gif","img/card_backs/set2/pink.gif","img/card_backs/set2/blue.gif","""event"",""trial"",""time""
""fullscreenenter"",""1"",""4963""
","
","
","""event"",""trial"",""time""
""fullscreenenter"",""1"",""4963""
","
","","null","","null","","fixation","2021-06-08 21:20:04.867","","","","","",""
"card-selection-trial","149","557009","0.0-25.0-1.38","593","true","img/card_backs/set1/yellow.gif","img/card_backs/set1/purple.gif","img/card_backs/set1/red.gif","img/card_backs/set1/green.gif","img/card_backs/set2/gray.gif","img/card_backs/set2/orange.gif","img/card_backs/set2/pink.gif","img/card_backs/set2/blue.gif","""event"",""trial"",""time""
""fullscreenenter"",""1"",""4963""
","
","
","""event"",""trial"",""time""
""fullscreenenter"",""1"",""4963""
","
","","1373.0649999924935","","","","real_trial","2021-06-08 21:20:08.250","img/card_backs/set1/yellow.gif","0","-190","1","",""
"casino-fixation","150","557516","0.0-25.0-0.39","593","true","img/card_backs/set1/yellow.gif","img/card_backs/set1/purple.gif","img/card_backs/set1/red.gif","img/card_backs/set1/green.gif","img/card_backs/set2/gray.gif","img/card_backs/set2/orange.gif","img/card_backs/set2/pink.gif","img/card_backs/set2/blue.gif","""event"",""trial"",""time""
""fullscreenenter"",""1"",""4963""
","
","
","""event"",""trial"",""time""
""fullscreenenter"",""1"",""4963""
","
","","null","","null","","fixation","2021-06-08 21:20:08.757","","","","","",""
"card-selection-trial","151","562026","0.0-25.0-1.39","593","true","img/card_backs/set1/yellow.gif","img/card_backs/set1/purple.gif","img/card_backs/set1/red.gif","img/card_backs/set1/green.gif","img/card_backs/set2/gray.gif","img/card_backs/set2/orange.gif","img/card_backs/set2/pink.gif","img/card_backs/set2/blue.gif","""event"",""trial"",""time""
""fullscreenenter"",""1"",""4963""
","
","
","""event"",""trial"",""time""
""fullscreenenter"",""1"",""4963""
","
","","2501.5399999683723","","","","real_trial","2021-06-08 21:20:13.267","img/card_backs/set1/purple.gif","0","240","1","",""
"casino-fixation","152","562531","0.0-25.0-0.40","593","true","img/card_backs/set1/yellow.gif","img/card_backs/set1/purple.gif","img/card_backs/set1/red.gif","img/card_backs/set1/green.gif","img/card_backs/set2/gray.gif","img/card_backs/set2/orange.gif","img/card_backs/set2/pink.gif","img/card_backs/set2/blue.gif","""event"",""trial"",""time""
""fullscreenenter"",""1"",""4963""
","
","
","""event"",""trial"",""time""
""fullscreenenter"",""1"",""4963""
","
","","null","","null","","fixation","2021-06-08 21:20:13.772","","","","","",""
"card-selection-trial","153","565684","0.0-25.0-1.40","593","true","img/card_backs/set1/yellow.gif","img/card_backs/set1/purple.gif","img/card_backs/set1/red.gif","img/card_backs/set1/green.gif","img/card_backs/set2/gray.gif","img/card_backs/set2/orange.gif","img/card_backs/set2/pink.gif","img/card_backs/set2/blue.gif","""event"",""trial"",""time""
""fullscreenenter"",""1"",""4963""
","
","
","""event"",""trial"",""time""
""fullscreenenter"",""1"",""4963""
","
","","1145.50500002224","","","","real_trial","2021-06-08 21:20:16.925","img/card_backs/set1/yellow.gif","2","-190","1","",""
"casino-fixation","154","566188","0.0-25.0-0.41","593","true","img/card_backs/set1/yellow.gif","img/card_backs/set1/purple.gif","img/card_backs/set1/red.gif","img/card_backs/set1/green.gif","img/card_backs/set2/gray.gif","img/card_backs/set2/orange.gif","img/card_backs/set2/pink.gif","img/card_backs/set2/blue.gif","""event"",""trial"",""time""
""fullscreenenter"",""1"",""4963""
","
","
","""event"",""trial"",""time""
""fullscreenenter"",""1"",""4963""
","
","","null","","null","","fixation","2021-06-08 21:20:17.429","","","","","",""
"card-selection-trial","155","568910","0.0-25.0-1.41","593","true","img/card_backs/set1/yellow.gif","img/card_backs/set1/purple.gif","img/card_backs/set1/red.gif","img/card_backs/set1/green.gif","img/card_backs/set2/gray.gif","img/card_backs/set2/orange.gif","img/card_backs/set2/pink.gif","img/card_backs/set2/blue.gif","""event"",""trial"",""time""
""fullscreenenter"",""1"",""4963""
","
","
","""event"",""trial"",""time""
""fullscreenenter"",""1"",""4963""
","
","","716.1699999705888","","","","real_trial","2021-06-08 21:20:20.152","img/card_backs/set1/purple.gif","0","-210","1","",""
"casino-fixation","156","569416","0.0-25.0-0.42","593","true","img/card_backs/set1/yellow.gif","img/card_backs/set1/purple.gif","img/card_backs/set1/red.gif","img/card_backs/set1/green.gif","img/card_backs/set2/gray.gif","img/card_backs/set2/orange.gif","img/card_backs/set2/pink.gif","img/card_backs/set2/blue.gif","""event"",""trial"",""time""
""fullscreenenter"",""1"",""4963""
","
","
","""event"",""trial"",""time""
""fullscreenenter"",""1"",""4963""
","
","","null","","null","","fixation","2021-06-08 21:20:20.657","","","","","",""
"card-selection-trial","157","572458","0.0-25.0-1.42","593","true","img/card_backs/set1/yellow.gif","img/card_backs/set1/purple.gif","img/card_backs/set1/red.gif","img/card_backs/set1/green.gif","img/card_backs/set2/gray.gif","img/card_backs/set2/orange.gif","img/card_backs/set2/pink.gif","img/card_backs/set2/blue.gif","""event"",""trial"",""time""
""fullscreenenter"",""1"",""4963""
","
","
","""event"",""trial"",""time""
""fullscreenenter"",""1"",""4963""
","
","","1031.69999999227","","","","real_trial","2021-06-08 21:20:23.699","img/card_backs/set1/yellow.gif","0","-210","1","",""
"casino-fixation","158","572963","0.0-25.0-0.43","593","true","img/card_backs/set1/yellow.gif","img/card_backs/set1/purple.gif","img/card_backs/set1/red.gif","img/card_backs/set1/green.gif","img/card_backs/set2/gray.gif","img/card_backs/set2/orange.gif","img/card_backs/set2/pink.gif","img/card_backs/set2/blue.gif","""event"",""trial"",""time""
""fullscreenenter"",""1"",""4963""
","
","
","""event"",""trial"",""time""
""fullscreenenter"",""1"",""4963""
","
","","null","","null","","fixation","2021-06-08 21:20:24.204","","","","","",""
"card-selection-trial","159","576103","0.0-25.0-1.43","593","true","img/card_backs/set1/yellow.gif","img/card_backs/set1/purple.gif","img/card_backs/set1/red.gif","img/card_backs/set1/green.gif","img/card_backs/set2/gray.gif","img/card_backs/set2/orange.gif","img/card_backs/set2/pink.gif","img/card_backs/set2/blue.gif","""event"",""trial"",""time""
""fullscreenenter"",""1"",""4963""
","
","
","""event"",""trial"",""time""
""fullscreenenter"",""1"",""4963""
","
","","1132.8300000168383","","","","real_trial","2021-06-08 21:20:27.344","img/card_backs/set1/purple.gif","2","260","1","",""
"casino-fixation","160","576609","0.0-25.0-0.44","593","true","img/card_backs/set1/yellow.gif","img/card_backs/set1/purple.gif","img/card_backs/set1/red.gif","img/card_backs/set1/green.gif","img/card_backs/set2/gray.gif","img/card_backs/set2/orange.gif","img/card_backs/set2/pink.gif","img/card_backs/set2/blue.gif","""event"",""trial"",""time""
""fullscreenenter"",""1"",""4963""
","
","
","""event"",""trial"",""time""
""fullscreenenter"",""1"",""4963""
","
","","null","","null","","fixation","2021-06-08 21:20:27.850","","","","","",""
"card-selection-trial","161","579365","0.0-25.0-1.44","593","true","img/card_backs/set1/yellow.gif","img/card_backs/set1/purple.gif","img/card_backs/set1/red.gif","img/card_backs/set1/green.gif","img/card_backs/set2/gray.gif","img/card_backs/set2/orange.gif","img/card_backs/set2/pink.gif","img/card_backs/set2/blue.gif","""event"",""trial"",""time""
""fullscreenenter"",""1"",""4963""
","
","
","""event"",""trial"",""time""
""fullscreenenter"",""1"",""4963""
","
","","749.6649999520741","","","","real_trial","2021-06-08 21:20:30.606","img/card_backs/set1/purple.gif","0","240","1","",""
"casino-fixation","162","579871","0.0-25.0-0.45","593","true","img/card_backs/set1/yellow.gif","img/card_backs/set1/purple.gif","img/card_backs/set1/red.gif","img/card_backs/set1/green.gif","img/card_backs/set2/gray.gif","img/card_backs/set2/orange.gif","img/card_backs/set2/pink.gif","img/card_backs/set2/blue.gif","""event"",""trial"",""time""
""fullscreenenter"",""1"",""4963""
","
","
","""event"",""trial"",""time""
""fullscreenenter"",""1"",""4963""
","
","","null","","null","","fixation","2021-06-08 21:20:31.112","","","","","",""
"card-selection-trial","163","583128","0.0-25.0-1.45","593","true","img/card_backs/set1/yellow.gif","img/card_backs/set1/purple.gif","img/card_backs/set1/red.gif","img/card_backs/set1/green.gif","img/card_backs/set2/gray.gif","img/card_backs/set2/orange.gif","img/card_backs/set2/pink.gif","img/card_backs/set2/blue.gif","""event"",""trial"",""time""
""fullscreenenter"",""1"",""4963""
","
","
","""event"",""trial"",""time""
""fullscreenenter"",""1"",""4963""
","
","","1250.339999969583","","","","real_trial","2021-06-08 21:20:34.369","img/card_backs/set1/yellow.gif","2","-190","1","",""
"casino-fixation","164","583632","0.0-25.0-0.46","593","true","img/card_backs/set1/yellow.gif","img/card_backs/set1/purple.gif","img/card_backs/set1/red.gif","img/card_backs/set1/green.gif","img/card_backs/set2/gray.gif","img/card_backs/set2/orange.gif","img/card_backs/set2/pink.gif","img/card_backs/set2/blue.gif","""event"",""trial"",""time""
""fullscreenenter"",""1"",""4963""
","
","
","""event"",""trial"",""time""
""fullscreenenter"",""1"",""4963""
","
","","null","","null","","fixation","2021-06-08 21:20:34.873","","","","","",""
"card-selection-trial","165","586507","0.0-25.0-1.46","593","true","img/card_backs/set1/yellow.gif","img/card_backs/set1/purple.gif","img/card_backs/set1/red.gif","img/card_backs/set1/green.gif","img/card_backs/set2/gray.gif","img/card_backs/set2/orange.gif","img/card_backs/set2/pink.gif","img/card_backs/set2/blue.gif","""event"",""trial"",""time""
""fullscreenenter"",""1"",""4963""
","
","
","""event"",""trial"",""time""
""fullscreenenter"",""1"",""4963""
","
","","865.6000000191852","","","","real_trial","2021-06-08 21:20:37.748","img/card_backs/set1/purple.gif","3","260","1","",""
"casino-fixation","166","587011","0.0-25.0-0.47","593","true","img/card_backs/set1/yellow.gif","img/card_backs/set1/purple.gif","img/card_backs/set1/red.gif","img/card_backs/set1/green.gif","img/card_backs/set2/gray.gif","img/card_backs/set2/orange.gif","img/card_backs/set2/pink.gif","img/card_backs/set2/blue.gif","""event"",""trial"",""time""
""fullscreenenter"",""1"",""4963""
","
","
","""event"",""trial"",""time""
""fullscreenenter"",""1"",""4963""
","
","","null","","null","","fixation","2021-06-08 21:20:38.252","","","","","",""
