"trial_type","trial_index","time_elapsed","internal_node_id","sub_id","risk_good_first","block1_A","block1_B","block1_C","block1_D","block2_A","block2_B","block2_C","block2_D","interactions","blur_events","focus_events","fullscreenenter_events","fullscreenexit_events","success","rt","stimulus","key_press","button_pressed","task_part","timestamp","card_choice","choice_position","points_earned","block","correct","response"
"pavlovia","0","11","0.0-0.0","A785","false","img/card_backs/set1/yellow.gif","img/card_backs/set1/purple.gif","img/card_backs/set1/green.gif","img/card_backs/set1/red.gif","img/card_backs/set2/pink.gif","img/card_backs/set2/orange.gif","img/card_backs/set2/blue.gif","img/card_backs/set2/gray.gif","""event"",""trial"",""time""
""fullscreenenter"",""1"",""1409""
","
","
","""event"",""trial"",""time""
""fullscreenenter"",""1"",""1409""
","
","","","","","","","","","","","","",""
"fullscreen","1","2387","0.0-1.0","A785","false","img/card_backs/set1/yellow.gif","img/card_backs/set1/purple.gif","img/card_backs/set1/green.gif","img/card_backs/set1/red.gif","img/card_backs/set2/pink.gif","img/card_backs/set2/orange.gif","img/card_backs/set2/blue.gif","img/card_backs/set2/gray.gif","""event"",""trial"",""time""
""fullscreenenter"",""1"",""1409""
","
","
","""event"",""trial"",""time""
""fullscreenenter"",""1"",""1409""
","
","true","","","","","","","","","","","",""
"audio-keyboard-response","2","6129","0.0-2.0","A785","false","img/card_backs/set1/yellow.gif","img/card_backs/set1/purple.gif","img/card_backs/set1/green.gif","img/card_backs/set1/red.gif","img/card_backs/set2/pink.gif","img/card_backs/set2/orange.gif","img/card_backs/set2/blue.gif","img/card_backs/set2/gray.gif","""event"",""trial"",""time""
""fullscreenenter"",""1"",""1409""
","
","
","""event"",""trial"",""time""
""fullscreenenter"",""1"",""1409""
","
","","3741","audio/beep_loop.wav","32","","","","","","","","",""
"audio-button-response","3","8266","0.0-3.0","A785","false","img/card_backs/set1/yellow.gif","img/card_backs/set1/purple.gif","img/card_backs/set1/green.gif","img/card_backs/set1/red.gif","img/card_backs/set2/pink.gif","img/card_backs/set2/orange.gif","img/card_backs/set2/blue.gif","img/card_backs/set2/gray.gif","""event"",""trial"",""time""
""fullscreenenter"",""1"",""1409""
","
","
","""event"",""trial"",""time""
""fullscreenenter"",""1"",""1409""
","
","","NaN","audio/turtle.mp3","","3","","","","","","","",""
"audio-button-response","4","10310","0.0-4.0","A785","false","img/card_backs/set1/yellow.gif","img/card_backs/set1/purple.gif","img/card_backs/set1/green.gif","img/card_backs/set1/red.gif","img/card_backs/set2/pink.gif","img/card_backs/set2/orange.gif","img/card_backs/set2/blue.gif","img/card_backs/set2/gray.gif","""event"",""trial"",""time""
""fullscreenenter"",""1"",""1409""
","
","
","""event"",""trial"",""time""
""fullscreenenter"",""1"",""1409""
","
","","NaN","audio/shark.mp3","","2","","","","","","","",""
"fullscreen","5","13127","0.0-5.0","A785","false","img/card_backs/set1/yellow.gif","img/card_backs/set1/purple.gif","img/card_backs/set1/green.gif","img/card_backs/set1/red.gif","img/card_backs/set2/pink.gif","img/card_backs/set2/orange.gif","img/card_backs/set2/blue.gif","img/card_backs/set2/gray.gif","""event"",""trial"",""time""
""fullscreenenter"",""1"",""1409""
","
","
","""event"",""trial"",""time""
""fullscreenenter"",""1"",""1409""
","
","true","","","","","","","","","","","",""
"casino-keyboard-response","6","16146","0.0-6.0-0.0","A785","false","img/card_backs/set1/yellow.gif","img/card_backs/set1/purple.gif","img/card_backs/set1/green.gif","img/card_backs/set1/red.gif","img/card_backs/set2/pink.gif","img/card_backs/set2/orange.gif","img/card_backs/set2/blue.gif","img/card_backs/set2/gray.gif","""event"",""trial"",""time""
""fullscreenenter"",""1"",""1409""
","
","
","""event"",""trial"",""time""
""fullscreenenter"",""1"",""1409""
","
","","3013.4900000412017","Welcome to the casino!","71","","instructions","2021-03-31 03:38:28.755","","","","","",""
"casino-keyboard-response","7","25502","0.0-6.0-0.1","A785","false","img/card_backs/set1/yellow.gif","img/card_backs/set1/purple.gif","img/card_backs/set1/green.gif","img/card_backs/set1/red.gif","img/card_backs/set2/pink.gif","img/card_backs/set2/orange.gif","img/card_backs/set2/blue.gif","img/card_backs/set2/gray.gif","""event"",""trial"",""time""
""fullscreenenter"",""1"",""1409""
","
","
","""event"",""trial"",""time""
""fullscreenenter"",""1"",""1409""
","
","","9353.140000021085","Today you will be playing a game to earn tokens. </br> At the end of the experiment, you will be paid a bonus based on how many tokens you win. ","69","","instructions","2021-03-31 03:38:38.111","","","","","",""
"casino-keyboard-response","8","32703","0.0-6.0-0.2","A785","false","img/card_backs/set1/yellow.gif","img/card_backs/set1/purple.gif","img/card_backs/set1/green.gif","img/card_backs/set1/red.gif","img/card_backs/set2/pink.gif","img/card_backs/set2/orange.gif","img/card_backs/set2/blue.gif","img/card_backs/set2/gray.gif","""event"",""trial"",""time""
""fullscreenenter"",""1"",""1409""
","
","
","""event"",""trial"",""time""
""fullscreenenter"",""1"",""1409""
","
","","7198.355000000447","On every turn, you will be shown four different decks of cards. </br> You need to select a card from one of the four decks.  ","75","","instructions","2021-03-31 03:38:45.313","","","","","",""
"casino-keyboard-response","9","39261","0.0-6.0-0.3","A785","false","img/card_backs/set1/yellow.gif","img/card_backs/set1/purple.gif","img/card_backs/set1/green.gif","img/card_backs/set1/red.gif","img/card_backs/set2/pink.gif","img/card_backs/set2/orange.gif","img/card_backs/set2/blue.gif","img/card_backs/set2/gray.gif","""event"",""trial"",""time""
""fullscreenenter"",""1"",""1409""
","
","
","""event"",""trial"",""time""
""fullscreenenter"",""1"",""1409""
","
","","6554.110000142828","On the next screen, you will see what the decks will look like. ","66","","instructions","2021-03-31 03:38:51.870","","","","","",""
"card-selection-trial","10","43297","0.0-7.0-0.0","A785","false","img/card_backs/set1/yellow.gif","img/card_backs/set1/purple.gif","img/card_backs/set1/green.gif","img/card_backs/set1/red.gif","img/card_backs/set2/pink.gif","img/card_backs/set2/orange.gif","img/card_backs/set2/blue.gif","img/card_backs/set2/gray.gif","""event"",""trial"",""time""
""fullscreenenter"",""1"",""1409""
","
","
","""event"",""trial"",""time""
""fullscreenenter"",""1"",""1409""
","
","","null","","","","practice","2021-03-31 03:38:55.907","null","null","null","0","",""
"casino-keyboard-response","11","50559","0.0-8.0-0.0","A785","false","img/card_backs/set1/yellow.gif","img/card_backs/set1/purple.gif","img/card_backs/set1/green.gif","img/card_backs/set1/red.gif","img/card_backs/set2/pink.gif","img/card_backs/set2/orange.gif","img/card_backs/set2/blue.gif","img/card_backs/set2/gray.gif","""event"",""trial"",""time""
""fullscreenenter"",""1"",""1409""
","
","
","""event"",""trial"",""time""
""fullscreenenter"",""1"",""1409""
","
","","7258.314999984577","You should pick a card from a deck using the '2', '4', '6', and '8' keys at the top of the keyboard.","85","","instructions","2021-03-31 03:39:03.168","","","","","",""
"casino-keyboard-response","12","55636","0.0-8.0-0.1","A785","false","img/card_backs/set1/yellow.gif","img/card_backs/set1/purple.gif","img/card_backs/set1/green.gif","img/card_backs/set1/red.gif","img/card_backs/set2/pink.gif","img/card_backs/set2/orange.gif","img/card_backs/set2/blue.gif","img/card_backs/set2/gray.gif","""event"",""trial"",""time""
""fullscreenenter"",""1"",""1409""
","
","
","""event"",""trial"",""time""
""fullscreenenter"",""1"",""1409""
","
","","5074.729999992996","Once you select a card, it will turn over and you will see how many tokens you earned.","83","","instructions","2021-03-31 03:39:08.245","","","","","",""
"casino-keyboard-response","13","69587","0.0-8.0-0.2","A785","false","img/card_backs/set1/yellow.gif","img/card_backs/set1/purple.gif","img/card_backs/set1/green.gif","img/card_backs/set1/red.gif","img/card_backs/set2/pink.gif","img/card_backs/set2/orange.gif","img/card_backs/set2/blue.gif","img/card_backs/set2/gray.gif","""event"",""trial"",""time""
""fullscreenenter"",""1"",""1409""
","
","
","""event"",""trial"",""time""
""fullscreenenter"",""1"",""1409""
","
","","13948.759999824688","Let's try practicing that! </br> First, try to put your fingers over the '2', '4', '6', and '8' keys. </br>  You can use whatever fingers are most comfortable for you. Try to find a comfortable position now. ","50","","instructions","2021-03-31 03:39:22.196","","","","","",""
"casino-keyboard-response","14","75343","0.0-8.0-0.3","A785","false","img/card_backs/set1/yellow.gif","img/card_backs/set1/purple.gif","img/card_backs/set1/green.gif","img/card_backs/set1/red.gif","img/card_backs/set2/pink.gif","img/card_backs/set2/orange.gif","img/card_backs/set2/blue.gif","img/card_backs/set2/gray.gif","""event"",""trial"",""time""
""fullscreenenter"",""1"",""1409""
","
","
","""event"",""trial"",""time""
""fullscreenenter"",""1"",""1409""
","
","","5753.144999966025","Okay ready? </br> On the next screen, press '2' to select the left deck. ","50","","instructions","2021-03-31 03:39:27.952","","","","","",""
"card-selection-trial","15","77918","0.0-9.0-0.0","A785","false","img/card_backs/set1/yellow.gif","img/card_backs/set1/purple.gif","img/card_backs/set1/green.gif","img/card_backs/set1/red.gif","img/card_backs/set2/pink.gif","img/card_backs/set2/orange.gif","img/card_backs/set2/blue.gif","img/card_backs/set2/gray.gif","""event"",""trial"",""time""
""fullscreenenter"",""1"",""1409""
","
","
","""event"",""trial"",""time""
""fullscreenenter"",""1"",""1409""
","
","","541.7949999682605","","","","practice_card_selection","2021-03-31 03:39:30.527","img/practice_cards/backs/dark_blue.gif","0","-200","","",""
"casino-keyboard-response","16","80779","0.0-10.0-0.0","A785","false","img/card_backs/set1/yellow.gif","img/card_backs/set1/purple.gif","img/card_backs/set1/green.gif","img/card_backs/set1/red.gif","img/card_backs/set2/pink.gif","img/card_backs/set2/orange.gif","img/card_backs/set2/blue.gif","img/card_backs/set2/gray.gif","""event"",""trial"",""time""
""fullscreenenter"",""1"",""1409""
","
","
","""event"",""trial"",""time""
""fullscreenenter"",""1"",""1409""
","
","","2858.9500000234693","Great! Now on the next screen, try pressing '6' to select the third deck.","54","","instructions","2021-03-31 03:39:33.388","","","","","",""
"card-selection-trial","17","85157","0.0-11.0-0.0","A785","false","img/card_backs/set1/yellow.gif","img/card_backs/set1/purple.gif","img/card_backs/set1/green.gif","img/card_backs/set1/red.gif","img/card_backs/set2/pink.gif","img/card_backs/set2/orange.gif","img/card_backs/set2/blue.gif","img/card_backs/set2/gray.gif","""event"",""trial"",""time""
""fullscreenenter"",""1"",""1409""
","
","
","""event"",""trial"",""time""
""fullscreenenter"",""1"",""1409""
","
","","2356.235000072047","","","","practice_card_selection","2021-03-31 03:39:37.766","img/practice_cards/backs/black.gif","2","-100","","",""
"casino-keyboard-response","18","86667","0.0-12.0-0.0","A785","false","img/card_backs/set1/yellow.gif","img/card_backs/set1/purple.gif","img/card_backs/set1/green.gif","img/card_backs/set1/red.gif","img/card_backs/set2/pink.gif","img/card_backs/set2/orange.gif","img/card_backs/set2/blue.gif","img/card_backs/set2/gray.gif","""event"",""trial"",""time""
""fullscreenenter"",""1"",""1409""
","
","
","""event"",""trial"",""time""
""fullscreenenter"",""1"",""1409""
","
","","1507.1000000461936","Now on the next screen, try pressing '4' to select the second deck.","52","","instructions","2021-03-31 03:39:39.276","","","","","",""
"card-selection-trial","19","88847","0.0-13.0-0.0","A785","false","img/card_backs/set1/yellow.gif","img/card_backs/set1/purple.gif","img/card_backs/set1/green.gif","img/card_backs/set1/red.gif","img/card_backs/set2/pink.gif","img/card_backs/set2/orange.gif","img/card_backs/set2/blue.gif","img/card_backs/set2/gray.gif","""event"",""trial"",""time""
""fullscreenenter"",""1"",""1409""
","
","
","""event"",""trial"",""time""
""fullscreenenter"",""1"",""1409""
","
","","168.07500016875565","","","","practice_card_selection","2021-03-31 03:39:41.456","img/practice_cards/backs/dark_blue.gif","1","-200","","",""
"casino-keyboard-response","20","89421","0.0-14.0-0.0","A785","false","img/card_backs/set1/yellow.gif","img/card_backs/set1/purple.gif","img/card_backs/set1/green.gif","img/card_backs/set1/red.gif","img/card_backs/set2/pink.gif","img/card_backs/set2/orange.gif","img/card_backs/set2/blue.gif","img/card_backs/set2/gray.gif","""event"",""trial"",""time""
""fullscreenenter"",""1"",""1409""
","
","
","""event"",""trial"",""time""
""fullscreenenter"",""1"",""1409""
","
","","572.0549998804927","Finally, try pressing '8' to select the deck all the way on the right.","56","","instructions","2021-03-31 03:39:42.030","","","","","",""
"card-selection-trial","21","91667","0.0-15.0-0.0","A785","false","img/card_backs/set1/yellow.gif","img/card_backs/set1/purple.gif","img/card_backs/set1/green.gif","img/card_backs/set1/red.gif","img/card_backs/set2/pink.gif","img/card_backs/set2/orange.gif","img/card_backs/set2/blue.gif","img/card_backs/set2/gray.gif","""event"",""trial"",""time""
""fullscreenenter"",""1"",""1409""
","
","
","""event"",""trial"",""time""
""fullscreenenter"",""1"",""1409""
","
","","218.4050001669675","","","","practice_card_selection","2021-03-31 03:39:44.276","img/practice_cards/backs/dark_green.gif","3","200","","",""
"casino-keyboard-response","22","95379","0.0-16.0-0.0","A785","false","img/card_backs/set1/yellow.gif","img/card_backs/set1/purple.gif","img/card_backs/set1/green.gif","img/card_backs/set1/red.gif","img/card_backs/set2/pink.gif","img/card_backs/set2/orange.gif","img/card_backs/set2/blue.gif","img/card_backs/set2/gray.gif","""event"",""trial"",""time""
""fullscreenenter"",""1"",""1409""
","
","
","""event"",""trial"",""time""
""fullscreenenter"",""1"",""1409""
","
","","3709.7300000023097","Great! It seems like you are getting the hang of this.","80","","instructions","2021-03-31 03:39:47.988","","","","","",""
"casino-keyboard-response","23","103326","0.0-16.0-0.1","A785","false","img/card_backs/set1/yellow.gif","img/card_backs/set1/purple.gif","img/card_backs/set1/green.gif","img/card_backs/set1/red.gif","img/card_backs/set2/pink.gif","img/card_backs/set2/orange.gif","img/card_backs/set2/blue.gif","img/card_backs/set2/gray.gif","""event"",""trial"",""time""
""fullscreenenter"",""1"",""1409""
","
","
","""event"",""trial"",""time""
""fullscreenenter"",""1"",""1409""
","
","","7944.764999905601","You may have noticed that some cards will cause you to <b> win </b> tokens while other cards will cause you to <b> lose </b>  tokens.","70","","instructions","2021-03-31 03:39:55.935","","","","","",""
"casino-keyboard-response","24","111545","0.0-16.0-0.2","A785","false","img/card_backs/set1/yellow.gif","img/card_backs/set1/purple.gif","img/card_backs/set1/green.gif","img/card_backs/set1/red.gif","img/card_backs/set2/pink.gif","img/card_backs/set2/orange.gif","img/card_backs/set2/blue.gif","img/card_backs/set2/gray.gif","""event"",""trial"",""time""
""fullscreenenter"",""1"",""1409""
","
","
","""event"",""trial"",""time""
""fullscreenenter"",""1"",""1409""
","
","","8216.354999924079","Each deck has a mix of cards that will cause you to win and lose tokens. </br> However, the cards in each colored deck are different.","73","","instructions","2021-03-31 03:40:04.155","","","","","",""
"casino-keyboard-response","25","119578","0.0-16.0-0.3","A785","false","img/card_backs/set1/yellow.gif","img/card_backs/set1/purple.gif","img/card_backs/set1/green.gif","img/card_backs/set1/red.gif","img/card_backs/set2/pink.gif","img/card_backs/set2/orange.gif","img/card_backs/set2/blue.gif","img/card_backs/set2/gray.gif","""event"",""trial"",""time""
""fullscreenenter"",""1"",""1409""
","
","
","""event"",""trial"",""time""
""fullscreenenter"",""1"",""1409""
","
","","8028.824999928474","Some colored decks are luckier than others. </br> If you choose the lucky decks, you will earn more tokens than if you choose the unlucky decks.","69","","instructions","2021-03-31 03:40:12.187","","","","","",""
"casino-keyboard-response","26","126624","0.0-16.0-0.4","A785","false","img/card_backs/set1/yellow.gif","img/card_backs/set1/purple.gif","img/card_backs/set1/green.gif","img/card_backs/set1/red.gif","img/card_backs/set2/pink.gif","img/card_backs/set2/orange.gif","img/card_backs/set2/blue.gif","img/card_backs/set2/gray.gif","""event"",""trial"",""time""
""fullscreenenter"",""1"",""1409""
","
","
","""event"",""trial"",""time""
""fullscreenenter"",""1"",""1409""
","
","","7043.6149998568","You should try to figure out which decks are lucky. </br> Then, try to choose the lucky decks so you can win the most tokens.","87","","instructions","2021-03-31 03:40:19.233","","","","","",""
"casino-keyboard-response","27","137858","0.0-16.0-0.5","A785","false","img/card_backs/set1/yellow.gif","img/card_backs/set1/purple.gif","img/card_backs/set1/green.gif","img/card_backs/set1/red.gif","img/card_backs/set2/pink.gif","img/card_backs/set2/orange.gif","img/card_backs/set2/blue.gif","img/card_backs/set2/gray.gif","""event"",""trial"",""time""
""fullscreenenter"",""1"",""1409""
","
","
","""event"",""trial"",""time""
""fullscreenenter"",""1"",""1409""
","
","","11230.419999919832","To make it trickier, the casino dealer will switch the locations of the decks on every turn. </br> The color of the deck determines how lucky it is. The location does not matter.","88","","instructions","2021-03-31 03:40:30.467","","","","","",""
"casino-keyboard-response","28","147069","0.0-16.0-0.6","A785","false","img/card_backs/set1/yellow.gif","img/card_backs/set1/purple.gif","img/card_backs/set1/green.gif","img/card_backs/set1/red.gif","img/card_backs/set2/pink.gif","img/card_backs/set2/orange.gif","img/card_backs/set2/blue.gif","img/card_backs/set2/gray.gif","""event"",""trial"",""time""
""fullscreenenter"",""1"",""1409""
","
","
","""event"",""trial"",""time""
""fullscreenenter"",""1"",""1409""
","
","","9208.765000104904","The mix of cards in each colored deck will stay the same throughout the game. </br> That means that a deck that is lucky early on will stay lucky.","79","","instructions","2021-03-31 03:40:39.679","","","","","",""
"casino-keyboard-response","29","154790","0.0-16.0-0.7","A785","false","img/card_backs/set1/yellow.gif","img/card_backs/set1/purple.gif","img/card_backs/set1/green.gif","img/card_backs/set1/red.gif","img/card_backs/set2/pink.gif","img/card_backs/set2/orange.gif","img/card_backs/set2/blue.gif","img/card_backs/set2/gray.gif","""event"",""trial"",""time""
""fullscreenenter"",""1"",""1409""
","
","
","""event"",""trial"",""time""
""fullscreenenter"",""1"",""1409""
","
","","7717.75499987416","Remember though, all the decks have a <b> mix </b> of both <b> good </b> and <b> bad </b> cards so it may take a couple of turns to figure out if a deck is lucky.","69","","instructions","2021-03-31 03:40:47.399","","","","","",""
"casino-keyboard-response","30","162968","0.0-16.0-0.8","A785","false","img/card_backs/set1/yellow.gif","img/card_backs/set1/purple.gif","img/card_backs/set1/green.gif","img/card_backs/set1/red.gif","img/card_backs/set2/pink.gif","img/card_backs/set2/orange.gif","img/card_backs/set2/blue.gif","img/card_backs/set2/gray.gif","""event"",""trial"",""time""
""fullscreenenter"",""1"",""1409""
","
","
","""event"",""trial"",""time""
""fullscreenenter"",""1"",""1409""
","
","","8174.684999976307","At the end of the game, you will be paid bonus money based on how many tokens you win. </br> If you win more tokens, you will earn more money!","72","","instructions","2021-03-31 03:40:55.577","","","","","",""
"casino-keyboard-response","31","172967","0.0-16.0-0.9","A785","false","img/card_backs/set1/yellow.gif","img/card_backs/set1/purple.gif","img/card_backs/set1/green.gif","img/card_backs/set1/red.gif","img/card_backs/set2/pink.gif","img/card_backs/set2/orange.gif","img/card_backs/set2/blue.gif","img/card_backs/set2/gray.gif","""event"",""trial"",""time""
""fullscreenenter"",""1"",""1409""
","
","
","""event"",""trial"",""time""
""fullscreenenter"",""1"",""1409""
","
","","9996.065000072122","You will never <b> lose </b> money. </br> If you end up with fewer than 0 tokens, you will earn $0 of bonus money, but you will still be paid for playing the game.","83","","instructions","2021-03-31 03:41:05.577","","","","","",""
"casino-keyboard-response","32","177257","0.0-16.0-0.10","A785","false","img/card_backs/set1/yellow.gif","img/card_backs/set1/purple.gif","img/card_backs/set1/green.gif","img/card_backs/set1/red.gif","img/card_backs/set2/pink.gif","img/card_backs/set2/orange.gif","img/card_backs/set2/blue.gif","img/card_backs/set2/gray.gif","""event"",""trial"",""time""
""fullscreenenter"",""1"",""1409""
","
","
","""event"",""trial"",""time""
""fullscreenenter"",""1"",""1409""
","
","","4284.054999938235","You will have 10 seconds to make each choice.","82","","instructions","2021-03-31 03:41:09.866","","","","","",""
"casino-keyboard-response","33","185387","0.0-16.0-0.11","A785","false","img/card_backs/set1/yellow.gif","img/card_backs/set1/purple.gif","img/card_backs/set1/green.gif","img/card_backs/set1/red.gif","img/card_backs/set2/pink.gif","img/card_backs/set2/orange.gif","img/card_backs/set2/blue.gif","img/card_backs/set2/gray.gif","""event"",""trial"",""time""
""fullscreenenter"",""1"",""1409""
","
","
","""event"",""trial"",""time""
""fullscreenenter"",""1"",""1409""
","
","","8127.374999923632","Before you play the game for real, you will play with practice decks. </br> The tokens you earn during practice won't count toward your total.","86","","instructions","2021-03-31 03:41:17.996","","","","","",""
"casino-keyboard-response","34","187225","0.0-16.0-0.12","A785","false","img/card_backs/set1/yellow.gif","img/card_backs/set1/purple.gif","img/card_backs/set1/green.gif","img/card_backs/set1/red.gif","img/card_backs/set2/pink.gif","img/card_backs/set2/orange.gif","img/card_backs/set2/blue.gif","img/card_backs/set2/gray.gif","""event"",""trial"",""time""
""fullscreenenter"",""1"",""1409""
","
","
","""event"",""trial"",""time""
""fullscreenenter"",""1"",""1409""
","
","","1835.2099999319762","Ready? Remember, use the '2', '4', '6', and '8' keys to select the decks. </br> Put your fingers on those keys now and then press '2' to begin.","50","","instructions","2021-03-31 03:41:19.834","","","","","",""
"casino-fixation","35","187737","0.0-17.0-0.0","A785","false","img/card_backs/set1/yellow.gif","img/card_backs/set1/purple.gif","img/card_backs/set1/green.gif","img/card_backs/set1/red.gif","img/card_backs/set2/pink.gif","img/card_backs/set2/orange.gif","img/card_backs/set2/blue.gif","img/card_backs/set2/gray.gif","""event"",""trial"",""time""
""fullscreenenter"",""1"",""1409""
","
","
","""event"",""trial"",""time""
""fullscreenenter"",""1"",""1409""
","
","","null","","null","","fixation","2021-03-31 03:41:20.346","","","","","",""
"card-selection-trial","36","190312","0.0-17.0-1.0","A785","false","img/card_backs/set1/yellow.gif","img/card_backs/set1/purple.gif","img/card_backs/set1/green.gif","img/card_backs/set1/red.gif","img/card_backs/set2/pink.gif","img/card_backs/set2/orange.gif","img/card_backs/set2/blue.gif","img/card_backs/set2/gray.gif","""event"",""trial"",""time""
""fullscreenenter"",""1"",""1409""
","
","
","""event"",""trial"",""time""
""fullscreenenter"",""1"",""1409""
","
","","556.0749999713153","","","","practice","2021-03-31 03:41:22.921","img/practice_cards/backs/dark_blue.gif","0","200","0","",""
"casino-fixation","37","190836","0.0-17.0-0.1","A785","false","img/card_backs/set1/yellow.gif","img/card_backs/set1/purple.gif","img/card_backs/set1/green.gif","img/card_backs/set1/red.gif","img/card_backs/set2/pink.gif","img/card_backs/set2/orange.gif","img/card_backs/set2/blue.gif","img/card_backs/set2/gray.gif","""event"",""trial"",""time""
""fullscreenenter"",""1"",""1409""
","
","
","""event"",""trial"",""time""
""fullscreenenter"",""1"",""1409""
","
","","null","","null","","fixation","2021-03-31 03:41:23.446","","","","","",""
"card-selection-trial","38","193717","0.0-17.0-1.1","A785","false","img/card_backs/set1/yellow.gif","img/card_backs/set1/purple.gif","img/card_backs/set1/green.gif","img/card_backs/set1/red.gif","img/card_backs/set2/pink.gif","img/card_backs/set2/orange.gif","img/card_backs/set2/blue.gif","img/card_backs/set2/gray.gif","""event"",""trial"",""time""
""fullscreenenter"",""1"",""1409""
","
","
","""event"",""trial"",""time""
""fullscreenenter"",""1"",""1409""
","
","","858.4749998990446","","","","practice","2021-03-31 03:41:26.326","img/practice_cards/backs/dark_blue.gif","1","200","0","",""
"casino-fixation","39","194236","0.0-17.0-0.2","A785","false","img/card_backs/set1/yellow.gif","img/card_backs/set1/purple.gif","img/card_backs/set1/green.gif","img/card_backs/set1/red.gif","img/card_backs/set2/pink.gif","img/card_backs/set2/orange.gif","img/card_backs/set2/blue.gif","img/card_backs/set2/gray.gif","""event"",""trial"",""time""
""fullscreenenter"",""1"",""1409""
","
","
","""event"",""trial"",""time""
""fullscreenenter"",""1"",""1409""
","
","","null","","null","","fixation","2021-03-31 03:41:26.846","","","","","",""
"card-selection-trial","40","196707","0.0-17.0-1.2","A785","false","img/card_backs/set1/yellow.gif","img/card_backs/set1/purple.gif","img/card_backs/set1/green.gif","img/card_backs/set1/red.gif","img/card_backs/set2/pink.gif","img/card_backs/set2/orange.gif","img/card_backs/set2/blue.gif","img/card_backs/set2/gray.gif","""event"",""trial"",""time""
""fullscreenenter"",""1"",""1409""
","
","
","""event"",""trial"",""time""
""fullscreenenter"",""1"",""1409""
","
","","460.7600001618266","","","","practice","2021-03-31 03:41:29.316","img/practice_cards/backs/dark_blue.gif","0","-200","0","",""
"casino-fixation","41","197216","0.0-17.0-0.3","A785","false","img/card_backs/set1/yellow.gif","img/card_backs/set1/purple.gif","img/card_backs/set1/green.gif","img/card_backs/set1/red.gif","img/card_backs/set2/pink.gif","img/card_backs/set2/orange.gif","img/card_backs/set2/blue.gif","img/card_backs/set2/gray.gif","""event"",""trial"",""time""
""fullscreenenter"",""1"",""1409""
","
","
","""event"",""trial"",""time""
""fullscreenenter"",""1"",""1409""
","
","","null","","null","","fixation","2021-03-31 03:41:29.826","","","","","",""
"card-selection-trial","42","199917","0.0-17.0-1.3","A785","false","img/card_backs/set1/yellow.gif","img/card_backs/set1/purple.gif","img/card_backs/set1/green.gif","img/card_backs/set1/red.gif","img/card_backs/set2/pink.gif","img/card_backs/set2/orange.gif","img/card_backs/set2/blue.gif","img/card_backs/set2/gray.gif","""event"",""trial"",""time""
""fullscreenenter"",""1"",""1409""
","
","
","""event"",""trial"",""time""
""fullscreenenter"",""1"",""1409""
","
","","676.4199999161065","","","","practice","2021-03-31 03:41:32.526","img/practice_cards/backs/black.gif","3","-100","0","",""
"casino-fixation","43","200426","0.0-17.0-0.4","A785","false","img/card_backs/set1/yellow.gif","img/card_backs/set1/purple.gif","img/card_backs/set1/green.gif","img/card_backs/set1/red.gif","img/card_backs/set2/pink.gif","img/card_backs/set2/orange.gif","img/card_backs/set2/blue.gif","img/card_backs/set2/gray.gif","""event"",""trial"",""time""
""fullscreenenter"",""1"",""1409""
","
","
","""event"",""trial"",""time""
""fullscreenenter"",""1"",""1409""
","
","","null","","null","","fixation","2021-03-31 03:41:33.035","","","","","",""
"card-selection-trial","44","202827","0.0-17.0-1.4","A785","false","img/card_backs/set1/yellow.gif","img/card_backs/set1/purple.gif","img/card_backs/set1/green.gif","img/card_backs/set1/red.gif","img/card_backs/set2/pink.gif","img/card_backs/set2/orange.gif","img/card_backs/set2/blue.gif","img/card_backs/set2/gray.gif","""event"",""trial"",""time""
""fullscreenenter"",""1"",""1409""
","
","
","""event"",""trial"",""time""
""fullscreenenter"",""1"",""1409""
","
","","377.1549998782575","","","","practice","2021-03-31 03:41:35.436","img/practice_cards/backs/dark_blue.gif","0","200","0","",""
"casino-fixation","45","203333","0.0-17.0-0.5","A785","false","img/card_backs/set1/yellow.gif","img/card_backs/set1/purple.gif","img/card_backs/set1/green.gif","img/card_backs/set1/red.gif","img/card_backs/set2/pink.gif","img/card_backs/set2/orange.gif","img/card_backs/set2/blue.gif","img/card_backs/set2/gray.gif","""event"",""trial"",""time""
""fullscreenenter"",""1"",""1409""
","
","
","""event"",""trial"",""time""
""fullscreenenter"",""1"",""1409""
","
","","null","","null","","fixation","2021-03-31 03:41:35.942","","","","","",""
"card-selection-trial","46","205502","0.0-17.0-1.5","A785","false","img/card_backs/set1/yellow.gif","img/card_backs/set1/purple.gif","img/card_backs/set1/green.gif","img/card_backs/set1/red.gif","img/card_backs/set2/pink.gif","img/card_backs/set2/orange.gif","img/card_backs/set2/blue.gif","img/card_backs/set2/gray.gif","""event"",""trial"",""time""
""fullscreenenter"",""1"",""1409""
","
","
","""event"",""trial"",""time""
""fullscreenenter"",""1"",""1409""
","
","","157.4649999383837","","","","practice","2021-03-31 03:41:38.111","img/practice_cards/backs/dark_green.gif","3","-200","0","",""
"casino-fixation","47","206026","0.0-17.0-0.6","A785","false","img/card_backs/set1/yellow.gif","img/card_backs/set1/purple.gif","img/card_backs/set1/green.gif","img/card_backs/set1/red.gif","img/card_backs/set2/pink.gif","img/card_backs/set2/orange.gif","img/card_backs/set2/blue.gif","img/card_backs/set2/gray.gif","""event"",""trial"",""time""
""fullscreenenter"",""1"",""1409""
","
","
","""event"",""trial"",""time""
""fullscreenenter"",""1"",""1409""
","
","","null","","null","","fixation","2021-03-31 03:41:38.636","","","","","",""
"card-selection-trial","48","208057","0.0-17.0-1.6","A785","false","img/card_backs/set1/yellow.gif","img/card_backs/set1/purple.gif","img/card_backs/set1/green.gif","img/card_backs/set1/red.gif","img/card_backs/set2/pink.gif","img/card_backs/set2/orange.gif","img/card_backs/set2/blue.gif","img/card_backs/set2/gray.gif","""event"",""trial"",""time""
""fullscreenenter"",""1"",""1409""
","
","
","""event"",""trial"",""time""
""fullscreenenter"",""1"",""1409""
","
","","10.245000012218952","","","","practice","2021-03-31 03:41:40.666","img/practice_cards/backs/brown.gif","3","100","0","",""
"casino-fixation","49","208576","0.0-17.0-0.7","A785","false","img/card_backs/set1/yellow.gif","img/card_backs/set1/purple.gif","img/card_backs/set1/green.gif","img/card_backs/set1/red.gif","img/card_backs/set2/pink.gif","img/card_backs/set2/orange.gif","img/card_backs/set2/blue.gif","img/card_backs/set2/gray.gif","""event"",""trial"",""time""
""fullscreenenter"",""1"",""1409""
","
","
","""event"",""trial"",""time""
""fullscreenenter"",""1"",""1409""
","
","","null","","null","","fixation","2021-03-31 03:41:41.186","","","","","",""
"card-selection-trial","50","210727","0.0-17.0-1.7","A785","false","img/card_backs/set1/yellow.gif","img/card_backs/set1/purple.gif","img/card_backs/set1/green.gif","img/card_backs/set1/red.gif","img/card_backs/set2/pink.gif","img/card_backs/set2/orange.gif","img/card_backs/set2/blue.gif","img/card_backs/set2/gray.gif","""event"",""trial"",""time""
""fullscreenenter"",""1"",""1409""
","
","
","""event"",""trial"",""time""
""fullscreenenter"",""1"",""1409""
","
","","138.25499988161027","","","","practice","2021-03-31 03:41:43.336","img/practice_cards/backs/black.gif","0","-100","0","",""
"casino-fixation","51","211246","0.0-17.0-0.8","A785","false","img/card_backs/set1/yellow.gif","img/card_backs/set1/purple.gif","img/card_backs/set1/green.gif","img/card_backs/set1/red.gif","img/card_backs/set2/pink.gif","img/card_backs/set2/orange.gif","img/card_backs/set2/blue.gif","img/card_backs/set2/gray.gif","""event"",""trial"",""time""
""fullscreenenter"",""1"",""1409""
","
","
","""event"",""trial"",""time""
""fullscreenenter"",""1"",""1409""
","
","","null","","null","","fixation","2021-03-31 03:41:43.855","","","","","",""
"card-selection-trial","52","213427","0.0-17.0-1.8","A785","false","img/card_backs/set1/yellow.gif","img/card_backs/set1/purple.gif","img/card_backs/set1/green.gif","img/card_backs/set1/red.gif","img/card_backs/set2/pink.gif","img/card_backs/set2/orange.gif","img/card_backs/set2/blue.gif","img/card_backs/set2/gray.gif","""event"",""trial"",""time""
""fullscreenenter"",""1"",""1409""
","
","
","""event"",""trial"",""time""
""fullscreenenter"",""1"",""1409""
","
","","166.77000001072884","","","","practice","2021-03-31 03:41:46.036","img/practice_cards/backs/dark_blue.gif","0","-200","0","",""
"casino-fixation","53","213942","0.0-17.0-0.9","A785","false","img/card_backs/set1/yellow.gif","img/card_backs/set1/purple.gif","img/card_backs/set1/green.gif","img/card_backs/set1/red.gif","img/card_backs/set2/pink.gif","img/card_backs/set2/orange.gif","img/card_backs/set2/blue.gif","img/card_backs/set2/gray.gif","""event"",""trial"",""time""
""fullscreenenter"",""1"",""1409""
","
","
","""event"",""trial"",""time""
""fullscreenenter"",""1"",""1409""
","
","","null","","null","","fixation","2021-03-31 03:41:46.551","","","","","",""
"card-selection-trial","54","215987","0.0-17.0-1.9","A785","false","img/card_backs/set1/yellow.gif","img/card_backs/set1/purple.gif","img/card_backs/set1/green.gif","img/card_backs/set1/red.gif","img/card_backs/set2/pink.gif","img/card_backs/set2/orange.gif","img/card_backs/set2/blue.gif","img/card_backs/set2/gray.gif","""event"",""trial"",""time""
""fullscreenenter"",""1"",""1409""
","
","
","""event"",""trial"",""time""
""fullscreenenter"",""1"",""1409""
","
","","26.014999952167273","","","","practice","2021-03-31 03:41:48.596","img/practice_cards/backs/dark_blue.gif","2","-200","0","",""
"casino-keyboard-response","55","218838","0.0-18.0","A785","false","img/card_backs/set1/yellow.gif","img/card_backs/set1/purple.gif","img/card_backs/set1/green.gif","img/card_backs/set1/red.gif","img/card_backs/set2/pink.gif","img/card_backs/set2/orange.gif","img/card_backs/set2/blue.gif","img/card_backs/set2/gray.gif","""event"",""trial"",""time""
""fullscreenenter"",""1"",""1409""
","
","
","""event"",""trial"",""time""
""fullscreenenter"",""1"",""1409""
","
","","2849.2749999277294","You earned -300 tokens during the practice round!","75","","","2021-03-31 03:41:51.448","","","","","",""
"casino-keyboard-response","56","222793","0.0-19.0-0.0","A785","false","img/card_backs/set1/yellow.gif","img/card_backs/set1/purple.gif","img/card_backs/set1/green.gif","img/card_backs/set1/red.gif","img/card_backs/set2/pink.gif","img/card_backs/set2/orange.gif","img/card_backs/set2/blue.gif","img/card_backs/set2/gray.gif","""event"",""trial"",""time""
""fullscreenenter"",""1"",""1409""
","
","
","""event"",""trial"",""time""
""fullscreenenter"",""1"",""1409""
","
","","3952.95500010252","Nice job! You are almost ready to play the real game.","86","","instructions","2021-03-31 03:41:55.402","","","","","",""
"casino-keyboard-response","57","228983","0.0-19.0-0.1","A785","false","img/card_backs/set1/yellow.gif","img/card_backs/set1/purple.gif","img/card_backs/set1/green.gif","img/card_backs/set1/red.gif","img/card_backs/set2/pink.gif","img/card_backs/set2/orange.gif","img/card_backs/set2/blue.gif","img/card_backs/set2/gray.gif","""event"",""trial"",""time""
""fullscreenenter"",""1"",""1409""
","
","
","""event"",""trial"",""time""
""fullscreenenter"",""1"",""1409""
","
","","6187.03499995172","You will play two rounds of the real game. In each round, you will pick 100 cards in total.","73","","instructions","2021-03-31 03:42:01.592","","","","","",""
"casino-keyboard-response","58","232980","0.0-19.0-0.2","A785","false","img/card_backs/set1/yellow.gif","img/card_backs/set1/purple.gif","img/card_backs/set1/green.gif","img/card_backs/set1/red.gif","img/card_backs/set2/pink.gif","img/card_backs/set2/orange.gif","img/card_backs/set2/blue.gif","img/card_backs/set2/gray.gif","""event"",""trial"",""time""
""fullscreenenter"",""1"",""1409""
","
","
","""event"",""trial"",""time""
""fullscreenenter"",""1"",""1409""
","
","","3994.6250000502914","We are now going to ask you some questions about how the game works.","66","","instructions","2021-03-31 03:42:05.589","","","","","",""
"casino-keyboard-response","59","238993","0.0-19.0-0.3","A785","false","img/card_backs/set1/yellow.gif","img/card_backs/set1/purple.gif","img/card_backs/set1/green.gif","img/card_backs/set1/red.gif","img/card_backs/set2/pink.gif","img/card_backs/set2/orange.gif","img/card_backs/set2/blue.gif","img/card_backs/set2/gray.gif","""event"",""trial"",""time""
""fullscreenenter"",""1"",""1409""
","
","
","""event"",""trial"",""time""
""fullscreenenter"",""1"",""1409""
","
","","6009.779999963939","Answer carefully. You will not be able to begin the game until you answer them correctly.","67","","instructions","2021-03-31 03:42:11.602","","","","","",""
"casino-comp_q","60","243498","0.0-20.0-0.0","A785","false","img/card_backs/set1/yellow.gif","img/card_backs/set1/purple.gif","img/card_backs/set1/green.gif","img/card_backs/set1/red.gif","img/card_backs/set2/pink.gif","img/card_backs/set2/orange.gif","img/card_backs/set2/blue.gif","img/card_backs/set2/gray.gif","""event"",""trial"",""time""
""fullscreenenter"",""1"",""1409""
","
","
","""event"",""trial"",""time""
""fullscreenenter"",""1"",""1409""
","
","","4501.579999923706","True or False: All the decks have some cards that cause you to win tokens and some cards that cause you to lose tokens.","84","","","2021-03-31 03:42:16.108","","","","","",""
"casino-keyboard-response","61","246125","0.0-20.0-1.0","A785","false","img/card_backs/set1/yellow.gif","img/card_backs/set1/purple.gif","img/card_backs/set1/green.gif","img/card_backs/set1/red.gif","img/card_backs/set2/pink.gif","img/card_backs/set2/orange.gif","img/card_backs/set2/blue.gif","img/card_backs/set2/gray.gif","""event"",""trial"",""time""
""fullscreenenter"",""1"",""1409""
","
","
","""event"",""trial"",""time""
""fullscreenenter"",""1"",""1409""
","
","","2623.5600002110004","True is correct! All the decks have a mix of winning and losing cards.","77","","","2021-03-31 03:42:18.735","","","","","true",""
"casino-comp_q","62","248940","0.0-21.0-0.0","A785","false","img/card_backs/set1/yellow.gif","img/card_backs/set1/purple.gif","img/card_backs/set1/green.gif","img/card_backs/set1/red.gif","img/card_backs/set2/pink.gif","img/card_backs/set2/orange.gif","img/card_backs/set2/blue.gif","img/card_backs/set2/gray.gif","""event"",""trial"",""time""
""fullscreenenter"",""1"",""1409""
","
","
","""event"",""trial"",""time""
""fullscreenenter"",""1"",""1409""
","
","","2808.849999913946","True or False: You will have as much time as you want to make your response.","70","","","2021-03-31 03:42:21.550","","","","","",""
"casino-keyboard-response","63","252247","0.0-21.0-1.0","A785","false","img/card_backs/set1/yellow.gif","img/card_backs/set1/purple.gif","img/card_backs/set1/green.gif","img/card_backs/set1/red.gif","img/card_backs/set2/pink.gif","img/card_backs/set2/orange.gif","img/card_backs/set2/blue.gif","img/card_backs/set2/gray.gif","""event"",""trial"",""time""
""fullscreenenter"",""1"",""1409""
","
","
","""event"",""trial"",""time""
""fullscreenenter"",""1"",""1409""
","
","","3304.8600000329316","False is correct! You will only have 10 seconds to make each choice.","75","","","2021-03-31 03:42:24.856","","","","","true",""
"casino-comp_q","64","254899","0.0-22.0-0.0","A785","false","img/card_backs/set1/yellow.gif","img/card_backs/set1/purple.gif","img/card_backs/set1/green.gif","img/card_backs/set1/red.gif","img/card_backs/set2/pink.gif","img/card_backs/set2/orange.gif","img/card_backs/set2/blue.gif","img/card_backs/set2/gray.gif","""event"",""trial"",""time""
""fullscreenenter"",""1"",""1409""
","
","
","""event"",""trial"",""time""
""fullscreenenter"",""1"",""1409""
","
","","2648.884999798611","True or False: The location of the deck determines how lucky it is.","70","","","2021-03-31 03:42:27.508","","","","","",""
"casino-keyboard-response","65","259595","0.0-22.0-1.0","A785","false","img/card_backs/set1/yellow.gif","img/card_backs/set1/purple.gif","img/card_backs/set1/green.gif","img/card_backs/set1/red.gif","img/card_backs/set2/pink.gif","img/card_backs/set2/orange.gif","img/card_backs/set2/blue.gif","img/card_backs/set2/gray.gif","""event"",""trial"",""time""
""fullscreenenter"",""1"",""1409""
","
","
","""event"",""trial"",""time""
""fullscreenenter"",""1"",""1409""
","
","","4694.149999879301","False is correct! The <i>color</i>  of the deck determines how lucky or unlucky it is.","68","","","2021-03-31 03:42:32.204","","","","","true",""
"casino-keyboard-response","66","266752","0.0-23.0-0.0","A785","false","img/card_backs/set1/yellow.gif","img/card_backs/set1/purple.gif","img/card_backs/set1/green.gif","img/card_backs/set1/red.gif","img/card_backs/set2/pink.gif","img/card_backs/set2/orange.gif","img/card_backs/set2/blue.gif","img/card_backs/set2/gray.gif","""event"",""trial"",""time""
""fullscreenenter"",""1"",""1409""
","
","
","""event"",""trial"",""time""
""fullscreenenter"",""1"",""1409""
","
","","7154.004999902099","Great job! Now it's time to start the real game.","82","","instructions","2021-03-31 03:42:39.361","","","","","",""
"casino-keyboard-response","67","271708","0.0-23.0-0.1","A785","false","img/card_backs/set1/yellow.gif","img/card_backs/set1/purple.gif","img/card_backs/set1/green.gif","img/card_backs/set1/red.gif","img/card_backs/set2/pink.gif","img/card_backs/set2/orange.gif","img/card_backs/set2/blue.gif","img/card_backs/set2/gray.gif","""event"",""trial"",""time""
""fullscreenenter"",""1"",""1409""
","
","
","""event"",""trial"",""time""
""fullscreenenter"",""1"",""1409""
","
","","4953.290000092238","Before we start, we're going to head into a new room of the casino.","86","","instructions","2021-03-31 03:42:44.317","","","","","",""
"casino-keyboard-response","68","277786","0.0-24.0-0.0","A785","false","img/card_backs/set1/yellow.gif","img/card_backs/set1/purple.gif","img/card_backs/set1/green.gif","img/card_backs/set1/red.gif","img/card_backs/set2/pink.gif","img/card_backs/set2/orange.gif","img/card_backs/set2/blue.gif","img/card_backs/set2/gray.gif","""event"",""trial"",""time""
""fullscreenenter"",""1"",""1409""
","
","
","""event"",""trial"",""time""
""fullscreenenter"",""1"",""1409""
","
","","6075.609999941662","Here we are! The real game will use different cards, but the rules will be the same.","71","","instructions","2021-03-31 03:42:50.395","","","","","",""
"casino-keyboard-response","69","281013","0.0-24.0-0.1","A785","false","img/card_backs/set1/yellow.gif","img/card_backs/set1/purple.gif","img/card_backs/set1/green.gif","img/card_backs/set1/red.gif","img/card_backs/set2/pink.gif","img/card_backs/set2/orange.gif","img/card_backs/set2/blue.gif","img/card_backs/set2/gray.gif","""event"",""trial"",""time""
""fullscreenenter"",""1"",""1409""
","
","
","""event"",""trial"",""time""
""fullscreenenter"",""1"",""1409""
","
","","3224.27500016056","Ready? Put your fingers over the '2', '4', 6', and '8' keys so you are ready to play the game. </br> Then press 2 to start.","50","","instructions","2021-03-31 03:42:53.622","","","","","",""
"casino-fixation","70","281526","0.0-25.0-0.0","A785","false","img/card_backs/set1/yellow.gif","img/card_backs/set1/purple.gif","img/card_backs/set1/green.gif","img/card_backs/set1/red.gif","img/card_backs/set2/pink.gif","img/card_backs/set2/orange.gif","img/card_backs/set2/blue.gif","img/card_backs/set2/gray.gif","""event"",""trial"",""time""
""fullscreenenter"",""1"",""1409""
","
","
","""event"",""trial"",""time""
""fullscreenenter"",""1"",""1409""
","
","","null","","null","","fixation","2021-03-31 03:42:54.135","","","","","",""
"card-selection-trial","71","284897","0.0-25.0-1.0","A785","false","img/card_backs/set1/yellow.gif","img/card_backs/set1/purple.gif","img/card_backs/set1/green.gif","img/card_backs/set1/red.gif","img/card_backs/set2/pink.gif","img/card_backs/set2/orange.gif","img/card_backs/set2/blue.gif","img/card_backs/set2/gray.gif","""event"",""trial"",""time""
""fullscreenenter"",""1"",""1409""
","
","
","""event"",""trial"",""time""
""fullscreenenter"",""1"",""1409""
","
","","1353.2499999273568","","","","real_trial","2021-03-31 03:42:57.506","img/card_backs/set1/purple.gif","0","-240","1","",""
"casino-fixation","72","285416","0.0-25.0-0.1","A785","false","img/card_backs/set1/yellow.gif","img/card_backs/set1/purple.gif","img/card_backs/set1/green.gif","img/card_backs/set1/red.gif","img/card_backs/set2/pink.gif","img/card_backs/set2/orange.gif","img/card_backs/set2/blue.gif","img/card_backs/set2/gray.gif","""event"",""trial"",""time""
""fullscreenenter"",""1"",""1409""
","
","
","""event"",""trial"",""time""
""fullscreenenter"",""1"",""1409""
","
","","null","","null","","fixation","2021-03-31 03:42:58.025","","","","","",""
"card-selection-trial","73","288307","0.0-25.0-1.1","A785","false","img/card_backs/set1/yellow.gif","img/card_backs/set1/purple.gif","img/card_backs/set1/green.gif","img/card_backs/set1/red.gif","img/card_backs/set2/pink.gif","img/card_backs/set2/orange.gif","img/card_backs/set2/blue.gif","img/card_backs/set2/gray.gif","""event"",""trial"",""time""
""fullscreenenter"",""1"",""1409""
","
","
","""event"",""trial"",""time""
""fullscreenenter"",""1"",""1409""
","
","","867.1750000212342","","","","real_trial","2021-03-31 03:43:00.916","img/card_backs/set1/purple.gif","2","180","1","",""
"casino-fixation","74","288816","0.0-25.0-0.2","A785","false","img/card_backs/set1/yellow.gif","img/card_backs/set1/purple.gif","img/card_backs/set1/green.gif","img/card_backs/set1/red.gif","img/card_backs/set2/pink.gif","img/card_backs/set2/orange.gif","img/card_backs/set2/blue.gif","img/card_backs/set2/gray.gif","""event"",""trial"",""time""
""fullscreenenter"",""1"",""1409""
","
","
","""event"",""trial"",""time""
""fullscreenenter"",""1"",""1409""
","
","","null","","null","","fixation","2021-03-31 03:43:01.425","","","","","",""
"card-selection-trial","75","291406","0.0-25.0-1.2","A785","false","img/card_backs/set1/yellow.gif","img/card_backs/set1/purple.gif","img/card_backs/set1/green.gif","img/card_backs/set1/red.gif","img/card_backs/set2/pink.gif","img/card_backs/set2/orange.gif","img/card_backs/set2/blue.gif","img/card_backs/set2/gray.gif","""event"",""trial"",""time""
""fullscreenenter"",""1"",""1409""
","
","
","""event"",""trial"",""time""
""fullscreenenter"",""1"",""1409""
","
","","573.7000000663102","","","","real_trial","2021-03-31 03:43:04.015","img/card_backs/set1/purple.gif","3","180","1","",""
"casino-fixation","76","291916","0.0-25.0-0.3","A785","false","img/card_backs/set1/yellow.gif","img/card_backs/set1/purple.gif","img/card_backs/set1/green.gif","img/card_backs/set1/red.gif","img/card_backs/set2/pink.gif","img/card_backs/set2/orange.gif","img/card_backs/set2/blue.gif","img/card_backs/set2/gray.gif","""event"",""trial"",""time""
""fullscreenenter"",""1"",""1409""
","
","
","""event"",""trial"",""time""
""fullscreenenter"",""1"",""1409""
","
","","null","","null","","fixation","2021-03-31 03:43:04.525","","","","","",""
"card-selection-trial","77","294696","0.0-25.0-1.3","A785","false","img/card_backs/set1/yellow.gif","img/card_backs/set1/purple.gif","img/card_backs/set1/green.gif","img/card_backs/set1/red.gif","img/card_backs/set2/pink.gif","img/card_backs/set2/orange.gif","img/card_backs/set2/blue.gif","img/card_backs/set2/gray.gif","""event"",""trial"",""time""
""fullscreenenter"",""1"",""1409""
","
","
","""event"",""trial"",""time""
""fullscreenenter"",""1"",""1409""
","
","","763.7700000777841","","","","real_trial","2021-03-31 03:43:07.305","img/card_backs/set1/purple.gif","2","180","1","",""
"casino-fixation","78","295216","0.0-25.0-0.4","A785","false","img/card_backs/set1/yellow.gif","img/card_backs/set1/purple.gif","img/card_backs/set1/green.gif","img/card_backs/set1/red.gif","img/card_backs/set2/pink.gif","img/card_backs/set2/orange.gif","img/card_backs/set2/blue.gif","img/card_backs/set2/gray.gif","""event"",""trial"",""time""
""fullscreenenter"",""1"",""1409""
","
","
","""event"",""trial"",""time""
""fullscreenenter"",""1"",""1409""
","
","","null","","null","","fixation","2021-03-31 03:43:07.825","","","","","",""
"card-selection-trial","79","297786","0.0-25.0-1.4","A785","false","img/card_backs/set1/yellow.gif","img/card_backs/set1/purple.gif","img/card_backs/set1/green.gif","img/card_backs/set1/red.gif","img/card_backs/set2/pink.gif","img/card_backs/set2/orange.gif","img/card_backs/set2/blue.gif","img/card_backs/set2/gray.gif","""event"",""trial"",""time""
""fullscreenenter"",""1"",""1409""
","
","
","""event"",""trial"",""time""
""fullscreenenter"",""1"",""1409""
","
","","556.5299999434501","","","","real_trial","2021-03-31 03:43:10.396","img/card_backs/set1/purple.gif","3","190","1","",""
"casino-fixation","80","298298","0.0-25.0-0.5","A785","false","img/card_backs/set1/yellow.gif","img/card_backs/set1/purple.gif","img/card_backs/set1/green.gif","img/card_backs/set1/red.gif","img/card_backs/set2/pink.gif","img/card_backs/set2/orange.gif","img/card_backs/set2/blue.gif","img/card_backs/set2/gray.gif","""event"",""trial"",""time""
""fullscreenenter"",""1"",""1409""
","
","
","""event"",""trial"",""time""
""fullscreenenter"",""1"",""1409""
","
","","null","","null","","fixation","2021-03-31 03:43:10.907","","","","","",""
"card-selection-trial","81","300946","0.0-25.0-1.5","A785","false","img/card_backs/set1/yellow.gif","img/card_backs/set1/purple.gif","img/card_backs/set1/green.gif","img/card_backs/set1/red.gif","img/card_backs/set2/pink.gif","img/card_backs/set2/orange.gif","img/card_backs/set2/blue.gif","img/card_backs/set2/gray.gif","""event"",""trial"",""time""
""fullscreenenter"",""1"",""1409""
","
","
","""event"",""trial"",""time""
""fullscreenenter"",""1"",""1409""
","
","","630.4500000551343","","","","real_trial","2021-03-31 03:43:13.556","img/card_backs/set1/purple.gif","0","-230","1","",""
"casino-fixation","82","301466","0.0-25.0-0.6","A785","false","img/card_backs/set1/yellow.gif","img/card_backs/set1/purple.gif","img/card_backs/set1/green.gif","img/card_backs/set1/red.gif","img/card_backs/set2/pink.gif","img/card_backs/set2/orange.gif","img/card_backs/set2/blue.gif","img/card_backs/set2/gray.gif","""event"",""trial"",""time""
""fullscreenenter"",""1"",""1409""
","
","
","""event"",""trial"",""time""
""fullscreenenter"",""1"",""1409""
","
","","null","","null","","fixation","2021-03-31 03:43:14.075","","","","","",""
"card-selection-trial","83","304086","0.0-25.0-1.6","A785","false","img/card_backs/set1/yellow.gif","img/card_backs/set1/purple.gif","img/card_backs/set1/green.gif","img/card_backs/set1/red.gif","img/card_backs/set2/pink.gif","img/card_backs/set2/orange.gif","img/card_backs/set2/blue.gif","img/card_backs/set2/gray.gif","""event"",""trial"",""time""
""fullscreenenter"",""1"",""1409""
","
","
","""event"",""trial"",""time""
""fullscreenenter"",""1"",""1409""
","
","","597.6749998517334","","","","real_trial","2021-03-31 03:43:16.695","img/card_backs/set1/purple.gif","0","-240","1","",""
"casino-fixation","84","304596","0.0-25.0-0.7","A785","false","img/card_backs/set1/yellow.gif","img/card_backs/set1/purple.gif","img/card_backs/set1/green.gif","img/card_backs/set1/red.gif","img/card_backs/set2/pink.gif","img/card_backs/set2/orange.gif","img/card_backs/set2/blue.gif","img/card_backs/set2/gray.gif","""event"",""trial"",""time""
""fullscreenenter"",""1"",""1409""
","
","
","""event"",""trial"",""time""
""fullscreenenter"",""1"",""1409""
","
","","null","","null","","fixation","2021-03-31 03:43:17.205","","","","","",""
"card-selection-trial","85","307087","0.0-25.0-1.7","A785","false","img/card_backs/set1/yellow.gif","img/card_backs/set1/purple.gif","img/card_backs/set1/green.gif","img/card_backs/set1/red.gif","img/card_backs/set2/pink.gif","img/card_backs/set2/orange.gif","img/card_backs/set2/blue.gif","img/card_backs/set2/gray.gif","""event"",""trial"",""time""
""fullscreenenter"",""1"",""1409""
","
","
","""event"",""trial"",""time""
""fullscreenenter"",""1"",""1409""
","
","","480.9149999637157","","","","real_trial","2021-03-31 03:43:19.696","img/card_backs/set1/purple.gif","3","-250","1","",""
"casino-fixation","86","307597","0.0-25.0-0.8","A785","false","img/card_backs/set1/yellow.gif","img/card_backs/set1/purple.gif","img/card_backs/set1/green.gif","img/card_backs/set1/red.gif","img/card_backs/set2/pink.gif","img/card_backs/set2/orange.gif","img/card_backs/set2/blue.gif","img/card_backs/set2/gray.gif","""event"",""trial"",""time""
""fullscreenenter"",""1"",""1409""
","
","
","""event"",""trial"",""time""
""fullscreenenter"",""1"",""1409""
","
","","null","","null","","fixation","2021-03-31 03:43:20.206","","","","","",""
"card-selection-trial","87","310497","0.0-25.0-1.8","A785","false","img/card_backs/set1/yellow.gif","img/card_backs/set1/purple.gif","img/card_backs/set1/green.gif","img/card_backs/set1/red.gif","img/card_backs/set2/pink.gif","img/card_backs/set2/orange.gif","img/card_backs/set2/blue.gif","img/card_backs/set2/gray.gif","""event"",""trial"",""time""
""fullscreenenter"",""1"",""1409""
","
","
","""event"",""trial"",""time""
""fullscreenenter"",""1"",""1409""
","
","","877.6399998459965","","","","real_trial","2021-03-31 03:43:23.106","img/card_backs/set1/purple.gif","1","180","1","",""
"casino-fixation","88","311007","0.0-25.0-0.9","A785","false","img/card_backs/set1/yellow.gif","img/card_backs/set1/purple.gif","img/card_backs/set1/green.gif","img/card_backs/set1/red.gif","img/card_backs/set2/pink.gif","img/card_backs/set2/orange.gif","img/card_backs/set2/blue.gif","img/card_backs/set2/gray.gif","""event"",""trial"",""time""
""fullscreenenter"",""1"",""1409""
","
","
","""event"",""trial"",""time""
""fullscreenenter"",""1"",""1409""
","
","","null","","null","","fixation","2021-03-31 03:43:23.616","","","","","",""
"card-selection-trial","89","313613","0.0-25.0-1.9","A785","false","img/card_backs/set1/yellow.gif","img/card_backs/set1/purple.gif","img/card_backs/set1/green.gif","img/card_backs/set1/red.gif","img/card_backs/set2/pink.gif","img/card_backs/set2/orange.gif","img/card_backs/set2/blue.gif","img/card_backs/set2/gray.gif","""event"",""trial"",""time""
""fullscreenenter"",""1"",""1409""
","
","
","""event"",""trial"",""time""
""fullscreenenter"",""1"",""1409""
","
","","594.5650001522154","","","","real_trial","2021-03-31 03:43:26.222","img/card_backs/set1/purple.gif","0","180","1","",""
"casino-fixation","90","314115","0.0-25.0-0.10","A785","false","img/card_backs/set1/yellow.gif","img/card_backs/set1/purple.gif","img/card_backs/set1/green.gif","img/card_backs/set1/red.gif","img/card_backs/set2/pink.gif","img/card_backs/set2/orange.gif","img/card_backs/set2/blue.gif","img/card_backs/set2/gray.gif","""event"",""trial"",""time""
""fullscreenenter"",""1"",""1409""
","
","
","""event"",""trial"",""time""
""fullscreenenter"",""1"",""1409""
","
","","null","","null","","fixation","2021-03-31 03:43:26.724","","","","","",""
"card-selection-trial","91","317097","0.0-25.0-1.10","A785","false","img/card_backs/set1/yellow.gif","img/card_backs/set1/purple.gif","img/card_backs/set1/green.gif","img/card_backs/set1/red.gif","img/card_backs/set2/pink.gif","img/card_backs/set2/orange.gif","img/card_backs/set2/blue.gif","img/card_backs/set2/gray.gif","""event"",""trial"",""time""
""fullscreenenter"",""1"",""1409""
","
","
","""event"",""trial"",""time""
""fullscreenenter"",""1"",""1409""
","
","","967.339999973774","","","","real_trial","2021-03-31 03:43:29.706","img/card_backs/set1/yellow.gif","0","180","1","",""
"casino-fixation","92","317607","0.0-25.0-0.11","A785","false","img/card_backs/set1/yellow.gif","img/card_backs/set1/purple.gif","img/card_backs/set1/green.gif","img/card_backs/set1/red.gif","img/card_backs/set2/pink.gif","img/card_backs/set2/orange.gif","img/card_backs/set2/blue.gif","img/card_backs/set2/gray.gif","""event"",""trial"",""time""
""fullscreenenter"",""1"",""1409""
","
","
","""event"",""trial"",""time""
""fullscreenenter"",""1"",""1409""
","
","","null","","null","","fixation","2021-03-31 03:43:30.216","","","","","",""
"card-selection-trial","93","320688","0.0-25.0-1.11","A785","false","img/card_backs/set1/yellow.gif","img/card_backs/set1/purple.gif","img/card_backs/set1/green.gif","img/card_backs/set1/red.gif","img/card_backs/set2/pink.gif","img/card_backs/set2/orange.gif","img/card_backs/set2/blue.gif","img/card_backs/set2/gray.gif","""event"",""trial"",""time""
""fullscreenenter"",""1"",""1409""
","
","
","""event"",""trial"",""time""
""fullscreenenter"",""1"",""1409""
","
","","1063.8650001492351","","","","real_trial","2021-03-31 03:43:33.297","img/card_backs/set1/purple.gif","1","190","1","",""
"casino-fixation","94","321200","0.0-25.0-0.12","A785","false","img/card_backs/set1/yellow.gif","img/card_backs/set1/purple.gif","img/card_backs/set1/green.gif","img/card_backs/set1/red.gif","img/card_backs/set2/pink.gif","img/card_backs/set2/orange.gif","img/card_backs/set2/blue.gif","img/card_backs/set2/gray.gif","""event"",""trial"",""time""
""fullscreenenter"",""1"",""1409""
","
","
","""event"",""trial"",""time""
""fullscreenenter"",""1"",""1409""
","
","","null","","null","","fixation","2021-03-31 03:43:33.809","","","","","",""
"card-selection-trial","95","323780","0.0-25.0-1.12","A785","false","img/card_backs/set1/yellow.gif","img/card_backs/set1/purple.gif","img/card_backs/set1/green.gif","img/card_backs/set1/red.gif","img/card_backs/set2/pink.gif","img/card_backs/set2/orange.gif","img/card_backs/set2/blue.gif","img/card_backs/set2/gray.gif","""event"",""trial"",""time""
""fullscreenenter"",""1"",""1409""
","
","
","""event"",""trial"",""time""
""fullscreenenter"",""1"",""1409""
","
","","566.4749999996275","","","","real_trial","2021-03-31 03:43:36.389","img/card_backs/set1/yellow.gif","0","190","1","",""
"casino-fixation","96","324282","0.0-25.0-0.13","A785","false","img/card_backs/set1/yellow.gif","img/card_backs/set1/purple.gif","img/card_backs/set1/green.gif","img/card_backs/set1/red.gif","img/card_backs/set2/pink.gif","img/card_backs/set2/orange.gif","img/card_backs/set2/blue.gif","img/card_backs/set2/gray.gif","""event"",""trial"",""time""
""fullscreenenter"",""1"",""1409""
","
","
","""event"",""trial"",""time""
""fullscreenenter"",""1"",""1409""
","
","","null","","null","","fixation","2021-03-31 03:43:36.891","","","","","",""
"card-selection-trial","97","326733","0.0-25.0-1.13","A785","false","img/card_backs/set1/yellow.gif","img/card_backs/set1/purple.gif","img/card_backs/set1/green.gif","img/card_backs/set1/red.gif","img/card_backs/set2/pink.gif","img/card_backs/set2/orange.gif","img/card_backs/set2/blue.gif","img/card_backs/set2/gray.gif","""event"",""trial"",""time""
""fullscreenenter"",""1"",""1409""
","
","
","""event"",""trial"",""time""
""fullscreenenter"",""1"",""1409""
","
","","431.2299999874085","","","","real_trial","2021-03-31 03:43:39.342","img/card_backs/set1/yellow.gif","2","-240","1","",""
"casino-fixation","98","327251","0.0-25.0-0.14","A785","false","img/card_backs/set1/yellow.gif","img/card_backs/set1/purple.gif","img/card_backs/set1/green.gif","img/card_backs/set1/red.gif","img/card_backs/set2/pink.gif","img/card_backs/set2/orange.gif","img/card_backs/set2/blue.gif","img/card_backs/set2/gray.gif","""event"",""trial"",""time""
""fullscreenenter"",""1"",""1409""
","
","
","""event"",""trial"",""time""
""fullscreenenter"",""1"",""1409""
","
","","null","","null","","fixation","2021-03-31 03:43:39.860","","","","","",""
"card-selection-trial","99","329670","0.0-25.0-1.14","A785","false","img/card_backs/set1/yellow.gif","img/card_backs/set1/purple.gif","img/card_backs/set1/green.gif","img/card_backs/set1/red.gif","img/card_backs/set2/pink.gif","img/card_backs/set2/orange.gif","img/card_backs/set2/blue.gif","img/card_backs/set2/gray.gif","""event"",""trial"",""time""
""fullscreenenter"",""1"",""1409""
","
","
","""event"",""trial"",""time""
""fullscreenenter"",""1"",""1409""
","
","","405.6899999268353","","","","real_trial","2021-03-31 03:43:42.279","img/card_backs/set1/yellow.gif","2","200","1","",""
"casino-fixation","100","330172","0.0-25.0-0.15","A785","false","img/card_backs/set1/yellow.gif","img/card_backs/set1/purple.gif","img/card_backs/set1/green.gif","img/card_backs/set1/red.gif","img/card_backs/set2/pink.gif","img/card_backs/set2/orange.gif","img/card_backs/set2/blue.gif","img/card_backs/set2/gray.gif","""event"",""trial"",""time""
""fullscreenenter"",""1"",""1409""
","
","
","""event"",""trial"",""time""
""fullscreenenter"",""1"",""1409""
","
","","null","","null","","fixation","2021-03-31 03:43:42.782","","","","","",""
"card-selection-trial","101","332694","0.0-25.0-1.15","A785","false","img/card_backs/set1/yellow.gif","img/card_backs/set1/purple.gif","img/card_backs/set1/green.gif","img/card_backs/set1/red.gif","img/card_backs/set2/pink.gif","img/card_backs/set2/orange.gif","img/card_backs/set2/blue.gif","img/card_backs/set2/gray.gif","""event"",""trial"",""time""
""fullscreenenter"",""1"",""1409""
","
","
","""event"",""trial"",""time""
""fullscreenenter"",""1"",""1409""
","
","","503.66000016219914","","","","real_trial","2021-03-31 03:43:45.303","img/card_backs/set1/yellow.gif","3","190","1","",""
"casino-fixation","102","333206","0.0-25.0-0.16","A785","false","img/card_backs/set1/yellow.gif","img/card_backs/set1/purple.gif","img/card_backs/set1/green.gif","img/card_backs/set1/red.gif","img/card_backs/set2/pink.gif","img/card_backs/set2/orange.gif","img/card_backs/set2/blue.gif","img/card_backs/set2/gray.gif","""event"",""trial"",""time""
""fullscreenenter"",""1"",""1409""
","
","
","""event"",""trial"",""time""
""fullscreenenter"",""1"",""1409""
","
","","null","","null","","fixation","2021-03-31 03:43:45.815","","","","","",""
"card-selection-trial","103","335565","0.0-25.0-1.16","A785","false","img/card_backs/set1/yellow.gif","img/card_backs/set1/purple.gif","img/card_backs/set1/green.gif","img/card_backs/set1/red.gif","img/card_backs/set2/pink.gif","img/card_backs/set2/orange.gif","img/card_backs/set2/blue.gif","img/card_backs/set2/gray.gif","""event"",""trial"",""time""
""fullscreenenter"",""1"",""1409""
","
","
","""event"",""trial"",""time""
""fullscreenenter"",""1"",""1409""
","
","","344.36500002630055","","","","real_trial","2021-03-31 03:43:48.175","img/card_backs/set1/yellow.gif","3","200","1","",""
"casino-fixation","104","336073","0.0-25.0-0.17","A785","false","img/card_backs/set1/yellow.gif","img/card_backs/set1/purple.gif","img/card_backs/set1/green.gif","img/card_backs/set1/red.gif","img/card_backs/set2/pink.gif","img/card_backs/set2/orange.gif","img/card_backs/set2/blue.gif","img/card_backs/set2/gray.gif","""event"",""trial"",""time""
""fullscreenenter"",""1"",""1409""
","
","
","""event"",""trial"",""time""
""fullscreenenter"",""1"",""1409""
","
","","null","","null","","fixation","2021-03-31 03:43:48.682","","","","","",""
"card-selection-trial","105","338494","0.0-25.0-1.17","A785","false","img/card_backs/set1/yellow.gif","img/card_backs/set1/purple.gif","img/card_backs/set1/green.gif","img/card_backs/set1/red.gif","img/card_backs/set2/pink.gif","img/card_backs/set2/orange.gif","img/card_backs/set2/blue.gif","img/card_backs/set2/gray.gif","""event"",""trial"",""time""
""fullscreenenter"",""1"",""1409""
","
","
","""event"",""trial"",""time""
""fullscreenenter"",""1"",""1409""
","
","","406.1249999795109","","","","real_trial","2021-03-31 03:43:51.103","img/card_backs/set1/yellow.gif","3","180","1","",""
"casino-fixation","106","339002","0.0-25.0-0.18","A785","false","img/card_backs/set1/yellow.gif","img/card_backs/set1/purple.gif","img/card_backs/set1/green.gif","img/card_backs/set1/red.gif","img/card_backs/set2/pink.gif","img/card_backs/set2/orange.gif","img/card_backs/set2/blue.gif","img/card_backs/set2/gray.gif","""event"",""trial"",""time""
""fullscreenenter"",""1"",""1409""
","
","
","""event"",""trial"",""time""
""fullscreenenter"",""1"",""1409""
","
","","null","","null","","fixation","2021-03-31 03:43:51.611","","","","","",""
"card-selection-trial","107","341365","0.0-25.0-1.18","A785","false","img/card_backs/set1/yellow.gif","img/card_backs/set1/purple.gif","img/card_backs/set1/green.gif","img/card_backs/set1/red.gif","img/card_backs/set2/pink.gif","img/card_backs/set2/orange.gif","img/card_backs/set2/blue.gif","img/card_backs/set2/gray.gif","""event"",""trial"",""time""
""fullscreenenter"",""1"",""1409""
","
","
","""event"",""trial"",""time""
""fullscreenenter"",""1"",""1409""
","
","","350.584999890998","","","","real_trial","2021-03-31 03:43:53.974","img/card_backs/set1/yellow.gif","3","-250","1","",""
"casino-fixation","108","341882","0.0-25.0-0.19","A785","false","img/card_backs/set1/yellow.gif","img/card_backs/set1/purple.gif","img/card_backs/set1/green.gif","img/card_backs/set1/red.gif","img/card_backs/set2/pink.gif","img/card_backs/set2/orange.gif","img/card_backs/set2/blue.gif","img/card_backs/set2/gray.gif","""event"",""trial"",""time""
""fullscreenenter"",""1"",""1409""
","
","
","""event"",""trial"",""time""
""fullscreenenter"",""1"",""1409""
","
","","null","","null","","fixation","2021-03-31 03:43:54.491","","","","","",""
"card-selection-trial","109","344508","0.0-25.0-1.19","A785","false","img/card_backs/set1/yellow.gif","img/card_backs/set1/purple.gif","img/card_backs/set1/green.gif","img/card_backs/set1/red.gif","img/card_backs/set2/pink.gif","img/card_backs/set2/orange.gif","img/card_backs/set2/blue.gif","img/card_backs/set2/gray.gif","""event"",""trial"",""time""
""fullscreenenter"",""1"",""1409""
","
","
","""event"",""trial"",""time""
""fullscreenenter"",""1"",""1409""
","
","","610.1800000760704","","","","real_trial","2021-03-31 03:43:57.117","img/card_backs/set1/yellow.gif","2","190","1","",""
"casino-fixation","110","345017","0.0-25.0-0.20","A785","false","img/card_backs/set1/yellow.gif","img/card_backs/set1/purple.gif","img/card_backs/set1/green.gif","img/card_backs/set1/red.gif","img/card_backs/set2/pink.gif","img/card_backs/set2/orange.gif","img/card_backs/set2/blue.gif","img/card_backs/set2/gray.gif","""event"",""trial"",""time""
""fullscreenenter"",""1"",""1409""
","
","
","""event"",""trial"",""time""
""fullscreenenter"",""1"",""1409""
","
","","null","","null","","fixation","2021-03-31 03:43:57.626","","","","","",""
"card-selection-trial","111","347664","0.0-25.0-1.20","A785","false","img/card_backs/set1/yellow.gif","img/card_backs/set1/purple.gif","img/card_backs/set1/green.gif","img/card_backs/set1/red.gif","img/card_backs/set2/pink.gif","img/card_backs/set2/orange.gif","img/card_backs/set2/blue.gif","img/card_backs/set2/gray.gif","""event"",""trial"",""time""
""fullscreenenter"",""1"",""1409""
","
","
","""event"",""trial"",""time""
""fullscreenenter"",""1"",""1409""
","
","","635.5749999638647","","","","real_trial","2021-03-31 03:44:00.273","img/card_backs/set1/yellow.gif","0","200","1","",""
"casino-fixation","112","348174","0.0-25.0-0.21","A785","false","img/card_backs/set1/yellow.gif","img/card_backs/set1/purple.gif","img/card_backs/set1/green.gif","img/card_backs/set1/red.gif","img/card_backs/set2/pink.gif","img/card_backs/set2/orange.gif","img/card_backs/set2/blue.gif","img/card_backs/set2/gray.gif","""event"",""trial"",""time""
""fullscreenenter"",""1"",""1409""
","
","
","""event"",""trial"",""time""
""fullscreenenter"",""1"",""1409""
","
","","null","","null","","fixation","2021-03-31 03:44:00.783","","","","","",""
"card-selection-trial","113","351473","0.0-25.0-1.21","A785","false","img/card_backs/set1/yellow.gif","img/card_backs/set1/purple.gif","img/card_backs/set1/green.gif","img/card_backs/set1/red.gif","img/card_backs/set2/pink.gif","img/card_backs/set2/orange.gif","img/card_backs/set2/blue.gif","img/card_backs/set2/gray.gif","""event"",""trial"",""time""
""fullscreenenter"",""1"",""1409""
","
","
","""event"",""trial"",""time""
""fullscreenenter"",""1"",""1409""
","
","","1284.379999851808","","","","real_trial","2021-03-31 03:44:04.082","img/card_backs/set1/green.gif","1","-70","1","",""
"casino-fixation","114","351986","0.0-25.0-0.22","A785","false","img/card_backs/set1/yellow.gif","img/card_backs/set1/purple.gif","img/card_backs/set1/green.gif","img/card_backs/set1/red.gif","img/card_backs/set2/pink.gif","img/card_backs/set2/orange.gif","img/card_backs/set2/blue.gif","img/card_backs/set2/gray.gif","""event"",""trial"",""time""
""fullscreenenter"",""1"",""1409""
","
","
","""event"",""trial"",""time""
""fullscreenenter"",""1"",""1409""
","
","","null","","null","","fixation","2021-03-31 03:44:04.595","","","","","",""
"card-selection-trial","115","354577","0.0-25.0-1.22","A785","false","img/card_backs/set1/yellow.gif","img/card_backs/set1/purple.gif","img/card_backs/set1/green.gif","img/card_backs/set1/red.gif","img/card_backs/set2/pink.gif","img/card_backs/set2/orange.gif","img/card_backs/set2/blue.gif","img/card_backs/set2/gray.gif","""event"",""trial"",""time""
""fullscreenenter"",""1"",""1409""
","
","
","""event"",""trial"",""time""
""fullscreenenter"",""1"",""1409""
","
","","579.9199999310076","","","","real_trial","2021-03-31 03:44:07.186","img/card_backs/set1/green.gif","0","110","1","",""
"casino-fixation","116","355086","0.0-25.0-0.23","A785","false","img/card_backs/set1/yellow.gif","img/card_backs/set1/purple.gif","img/card_backs/set1/green.gif","img/card_backs/set1/red.gif","img/card_backs/set2/pink.gif","img/card_backs/set2/orange.gif","img/card_backs/set2/blue.gif","img/card_backs/set2/gray.gif","""event"",""trial"",""time""
""fullscreenenter"",""1"",""1409""
","
","
","""event"",""trial"",""time""
""fullscreenenter"",""1"",""1409""
","
","","null","","null","","fixation","2021-03-31 03:44:07.695","","","","","",""
"card-selection-trial","117","357892","0.0-25.0-1.23","A785","false","img/card_backs/set1/yellow.gif","img/card_backs/set1/purple.gif","img/card_backs/set1/green.gif","img/card_backs/set1/red.gif","img/card_backs/set2/pink.gif","img/card_backs/set2/orange.gif","img/card_backs/set2/blue.gif","img/card_backs/set2/gray.gif","""event"",""trial"",""time""
""fullscreenenter"",""1"",""1409""
","
","
","""event"",""trial"",""time""
""fullscreenenter"",""1"",""1409""
","
","","790.305000031367","","","","real_trial","2021-03-31 03:44:10.501","img/card_backs/set1/green.gif","2","110","1","",""
"casino-fixation","118","358411","0.0-25.0-0.24","A785","false","img/card_backs/set1/yellow.gif","img/card_backs/set1/purple.gif","img/card_backs/set1/green.gif","img/card_backs/set1/red.gif","img/card_backs/set2/pink.gif","img/card_backs/set2/orange.gif","img/card_backs/set2/blue.gif","img/card_backs/set2/gray.gif","""event"",""trial"",""time""
""fullscreenenter"",""1"",""1409""
","
","
","""event"",""trial"",""time""
""fullscreenenter"",""1"",""1409""
","
","","null","","null","","fixation","2021-03-31 03:44:11.020","","","","","",""
"card-selection-trial","119","360960","0.0-25.0-1.24","A785","false","img/card_backs/set1/yellow.gif","img/card_backs/set1/purple.gif","img/card_backs/set1/green.gif","img/card_backs/set1/red.gif","img/card_backs/set2/pink.gif","img/card_backs/set2/orange.gif","img/card_backs/set2/blue.gif","img/card_backs/set2/gray.gif","""event"",""trial"",""time""
""fullscreenenter"",""1"",""1409""
","
","
","""event"",""trial"",""time""
""fullscreenenter"",""1"",""1409""
","
","","539.6849999669939","","","","real_trial","2021-03-31 03:44:13.569","img/card_backs/set1/green.gif","3","-70","1","",""
"casino-fixation","120","361474","0.0-25.0-0.25","A785","false","img/card_backs/set1/yellow.gif","img/card_backs/set1/purple.gif","img/card_backs/set1/green.gif","img/card_backs/set1/red.gif","img/card_backs/set2/pink.gif","img/card_backs/set2/orange.gif","img/card_backs/set2/blue.gif","img/card_backs/set2/gray.gif","""event"",""trial"",""time""
""fullscreenenter"",""1"",""1409""
","
","
","""event"",""trial"",""time""
""fullscreenenter"",""1"",""1409""
","
","","null","","null","","fixation","2021-03-31 03:44:14.083","","","","","",""
"card-selection-trial","121","364120","0.0-25.0-1.25","A785","false","img/card_backs/set1/yellow.gif","img/card_backs/set1/purple.gif","img/card_backs/set1/green.gif","img/card_backs/set1/red.gif","img/card_backs/set2/pink.gif","img/card_backs/set2/orange.gif","img/card_backs/set2/blue.gif","img/card_backs/set2/gray.gif","""event"",""trial"",""time""
""fullscreenenter"",""1"",""1409""
","
","
","""event"",""trial"",""time""
""fullscreenenter"",""1"",""1409""
","
","","626.2100001331419","","","","real_trial","2021-03-31 03:44:16.729","img/card_backs/set1/green.gif","0","120","1","",""
"casino-fixation","122","364622","0.0-25.0-0.26","A785","false","img/card_backs/set1/yellow.gif","img/card_backs/set1/purple.gif","img/card_backs/set1/green.gif","img/card_backs/set1/red.gif","img/card_backs/set2/pink.gif","img/card_backs/set2/orange.gif","img/card_backs/set2/blue.gif","img/card_backs/set2/gray.gif","""event"",""trial"",""time""
""fullscreenenter"",""1"",""1409""
","
","
","""event"",""trial"",""time""
""fullscreenenter"",""1"",""1409""
","
","","null","","null","","fixation","2021-03-31 03:44:17.231","","","","","",""
"card-selection-trial","123","367406","0.0-25.0-1.26","A785","false","img/card_backs/set1/yellow.gif","img/card_backs/set1/purple.gif","img/card_backs/set1/green.gif","img/card_backs/set1/red.gif","img/card_backs/set2/pink.gif","img/card_backs/set2/orange.gif","img/card_backs/set2/blue.gif","img/card_backs/set2/gray.gif","""event"",""trial"",""time""
""fullscreenenter"",""1"",""1409""
","
","
","""event"",""trial"",""time""
""fullscreenenter"",""1"",""1409""
","
","","761.5699998568743","","","","real_trial","2021-03-31 03:44:20.015","img/card_backs/set1/green.gif","1","110","1","",""
"casino-fixation","124","367913","0.0-25.0-0.27","A785","false","img/card_backs/set1/yellow.gif","img/card_backs/set1/purple.gif","img/card_backs/set1/green.gif","img/card_backs/set1/red.gif","img/card_backs/set2/pink.gif","img/card_backs/set2/orange.gif","img/card_backs/set2/blue.gif","img/card_backs/set2/gray.gif","""event"",""trial"",""time""
""fullscreenenter"",""1"",""1409""
","
","
","""event"",""trial"",""time""
""fullscreenenter"",""1"",""1409""
","
","","null","","null","","fixation","2021-03-31 03:44:20.522","","","","","",""
"card-selection-trial","125","370660","0.0-25.0-1.27","A785","false","img/card_backs/set1/yellow.gif","img/card_backs/set1/purple.gif","img/card_backs/set1/green.gif","img/card_backs/set1/red.gif","img/card_backs/set2/pink.gif","img/card_backs/set2/orange.gif","img/card_backs/set2/blue.gif","img/card_backs/set2/gray.gif","""event"",""trial"",""time""
""fullscreenenter"",""1"",""1409""
","
","
","""event"",""trial"",""time""
""fullscreenenter"",""1"",""1409""
","
","","723.1350000947714","","","","real_trial","2021-03-31 03:44:23.270","img/card_backs/set1/green.gif","2","120","1","",""
"casino-fixation","126","371172","0.0-25.0-0.28","A785","false","img/card_backs/set1/yellow.gif","img/card_backs/set1/purple.gif","img/card_backs/set1/green.gif","img/card_backs/set1/red.gif","img/card_backs/set2/pink.gif","img/card_backs/set2/orange.gif","img/card_backs/set2/blue.gif","img/card_backs/set2/gray.gif","""event"",""trial"",""time""
""fullscreenenter"",""1"",""1409""
","
","
","""event"",""trial"",""time""
""fullscreenenter"",""1"",""1409""
","
","","null","","null","","fixation","2021-03-31 03:44:23.781","","","","","",""
"card-selection-trial","127","373720","0.0-25.0-1.28","A785","false","img/card_backs/set1/yellow.gif","img/card_backs/set1/purple.gif","img/card_backs/set1/green.gif","img/card_backs/set1/red.gif","img/card_backs/set2/pink.gif","img/card_backs/set2/orange.gif","img/card_backs/set2/blue.gif","img/card_backs/set2/gray.gif","""event"",""trial"",""time""
""fullscreenenter"",""1"",""1409""
","
","
","""event"",""trial"",""time""
""fullscreenenter"",""1"",""1409""
","
","","530.544999986887","","","","real_trial","2021-03-31 03:44:26.329","img/card_backs/set1/green.gif","0","110","1","",""
"casino-fixation","128","374230","0.0-25.0-0.29","A785","false","img/card_backs/set1/yellow.gif","img/card_backs/set1/purple.gif","img/card_backs/set1/green.gif","img/card_backs/set1/red.gif","img/card_backs/set2/pink.gif","img/card_backs/set2/orange.gif","img/card_backs/set2/blue.gif","img/card_backs/set2/gray.gif","""event"",""trial"",""time""
""fullscreenenter"",""1"",""1409""
","
","
","""event"",""trial"",""time""
""fullscreenenter"",""1"",""1409""
","
","","null","","null","","fixation","2021-03-31 03:44:26.839","","","","","",""
"card-selection-trial","129","376757","0.0-25.0-1.29","A785","false","img/card_backs/set1/yellow.gif","img/card_backs/set1/purple.gif","img/card_backs/set1/green.gif","img/card_backs/set1/red.gif","img/card_backs/set2/pink.gif","img/card_backs/set2/orange.gif","img/card_backs/set2/blue.gif","img/card_backs/set2/gray.gif","""event"",""trial"",""time""
""fullscreenenter"",""1"",""1409""
","
","
","""event"",""trial"",""time""
""fullscreenenter"",""1"",""1409""
","
","","511.35000004433095","","","","real_trial","2021-03-31 03:44:29.366","img/card_backs/set1/green.gif","0","-70","1","",""
"casino-fixation","130","377260","0.0-25.0-0.30","A785","false","img/card_backs/set1/yellow.gif","img/card_backs/set1/purple.gif","img/card_backs/set1/green.gif","img/card_backs/set1/red.gif","img/card_backs/set2/pink.gif","img/card_backs/set2/orange.gif","img/card_backs/set2/blue.gif","img/card_backs/set2/gray.gif","""event"",""trial"",""time""
""fullscreenenter"",""1"",""1409""
","
","
","""event"",""trial"",""time""
""fullscreenenter"",""1"",""1409""
","
","","null","","null","","fixation","2021-03-31 03:44:29.869","","","","","",""
"card-selection-trial","131","380213","0.0-25.0-1.30","A785","false","img/card_backs/set1/yellow.gif","img/card_backs/set1/purple.gif","img/card_backs/set1/green.gif","img/card_backs/set1/red.gif","img/card_backs/set2/pink.gif","img/card_backs/set2/orange.gif","img/card_backs/set2/blue.gif","img/card_backs/set2/gray.gif","""event"",""trial"",""time""
""fullscreenenter"",""1"",""1409""
","
","
","""event"",""trial"",""time""
""fullscreenenter"",""1"",""1409""
","
","","939.7700000554323","","","","real_trial","2021-03-31 03:44:32.822","img/card_backs/set1/green.gif","2","100","1","",""
"casino-fixation","132","380718","0.0-25.0-0.31","A785","false","img/card_backs/set1/yellow.gif","img/card_backs/set1/purple.gif","img/card_backs/set1/green.gif","img/card_backs/set1/red.gif","img/card_backs/set2/pink.gif","img/card_backs/set2/orange.gif","img/card_backs/set2/blue.gif","img/card_backs/set2/gray.gif","""event"",""trial"",""time""
""fullscreenenter"",""1"",""1409""
","
","
","""event"",""trial"",""time""
""fullscreenenter"",""1"",""1409""
","
","","null","","null","","fixation","2021-03-31 03:44:33.327","","","","","",""
"card-selection-trial","133","384296","0.0-25.0-1.31","A785","false","img/card_backs/set1/yellow.gif","img/card_backs/set1/purple.gif","img/card_backs/set1/green.gif","img/card_backs/set1/red.gif","img/card_backs/set2/pink.gif","img/card_backs/set2/orange.gif","img/card_backs/set2/blue.gif","img/card_backs/set2/gray.gif","""event"",""trial"",""time""
""fullscreenenter"",""1"",""1409""
","
","
","""event"",""trial"",""time""
""fullscreenenter"",""1"",""1409""
","
","","1560.9050001949072","","","","real_trial","2021-03-31 03:44:36.906","img/card_backs/set1/red.gif","1","120","1","",""
"casino-fixation","134","384815","0.0-25.0-0.32","A785","false","img/card_backs/set1/yellow.gif","img/card_backs/set1/purple.gif","img/card_backs/set1/green.gif","img/card_backs/set1/red.gif","img/card_backs/set2/pink.gif","img/card_backs/set2/orange.gif","img/card_backs/set2/blue.gif","img/card_backs/set2/gray.gif","""event"",""trial"",""time""
""fullscreenenter"",""1"",""1409""
","
","
","""event"",""trial"",""time""
""fullscreenenter"",""1"",""1409""
","
","","null","","null","","fixation","2021-03-31 03:44:37.424","","","","","",""
"card-selection-trial","135","387345","0.0-25.0-1.32","A785","false","img/card_backs/set1/yellow.gif","img/card_backs/set1/purple.gif","img/card_backs/set1/green.gif","img/card_backs/set1/red.gif","img/card_backs/set2/pink.gif","img/card_backs/set2/orange.gif","img/card_backs/set2/blue.gif","img/card_backs/set2/gray.gif","""event"",""trial"",""time""
""fullscreenenter"",""1"",""1409""
","
","
","""event"",""trial"",""time""
""fullscreenenter"",""1"",""1409""
","
","","517.4050000496209","","","","real_trial","2021-03-31 03:44:39.954","img/card_backs/set1/red.gif","0","120","1","",""
"casino-fixation","136","387850","0.0-25.0-0.33","A785","false","img/card_backs/set1/yellow.gif","img/card_backs/set1/purple.gif","img/card_backs/set1/green.gif","img/card_backs/set1/red.gif","img/card_backs/set2/pink.gif","img/card_backs/set2/orange.gif","img/card_backs/set2/blue.gif","img/card_backs/set2/gray.gif","""event"",""trial"",""time""
""fullscreenenter"",""1"",""1409""
","
","
","""event"",""trial"",""time""
""fullscreenenter"",""1"",""1409""
","
","","null","","null","","fixation","2021-03-31 03:44:40.459","","","","","",""
"card-selection-trial","137","390466","0.0-25.0-1.33","A785","false","img/card_backs/set1/yellow.gif","img/card_backs/set1/purple.gif","img/card_backs/set1/green.gif","img/card_backs/set1/red.gif","img/card_backs/set2/pink.gif","img/card_backs/set2/orange.gif","img/card_backs/set2/blue.gif","img/card_backs/set2/gray.gif","""event"",""trial"",""time""
""fullscreenenter"",""1"",""1409""
","
","
","""event"",""trial"",""time""
""fullscreenenter"",""1"",""1409""
","
","","600.3849999979138","","","","real_trial","2021-03-31 03:44:43.075","img/card_backs/set1/red.gif","2","110","1","",""
"casino-fixation","138","390970","0.0-25.0-0.34","A785","false","img/card_backs/set1/yellow.gif","img/card_backs/set1/purple.gif","img/card_backs/set1/green.gif","img/card_backs/set1/red.gif","img/card_backs/set2/pink.gif","img/card_backs/set2/orange.gif","img/card_backs/set2/blue.gif","img/card_backs/set2/gray.gif","""event"",""trial"",""time""
""fullscreenenter"",""1"",""1409""
","
","
","""event"",""trial"",""time""
""fullscreenenter"",""1"",""1409""
","
","","null","","null","","fixation","2021-03-31 03:44:43.579","","","","","",""
"card-selection-trial","139","393370","0.0-25.0-1.34","A785","false","img/card_backs/set1/yellow.gif","img/card_backs/set1/purple.gif","img/card_backs/set1/green.gif","img/card_backs/set1/red.gif","img/card_backs/set2/pink.gif","img/card_backs/set2/orange.gif","img/card_backs/set2/blue.gif","img/card_backs/set2/gray.gif","""event"",""trial"",""time""
""fullscreenenter"",""1"",""1409""
","
","
","""event"",""trial"",""time""
""fullscreenenter"",""1"",""1409""
","
","","391.2549999076873","","","","real_trial","2021-03-31 03:44:45.979","img/card_backs/set1/red.gif","2","100","1","",""
"casino-fixation","140","393880","0.0-25.0-0.35","A785","false","img/card_backs/set1/yellow.gif","img/card_backs/set1/purple.gif","img/card_backs/set1/green.gif","img/card_backs/set1/red.gif","img/card_backs/set2/pink.gif","img/card_backs/set2/orange.gif","img/card_backs/set2/blue.gif","img/card_backs/set2/gray.gif","""event"",""trial"",""time""
""fullscreenenter"",""1"",""1409""
","
","
","""event"",""trial"",""time""
""fullscreenenter"",""1"",""1409""
","
","","null","","null","","fixation","2021-03-31 03:44:46.489","","","","","",""
"card-selection-trial","141","396202","0.0-25.0-1.35","A785","false","img/card_backs/set1/yellow.gif","img/card_backs/set1/purple.gif","img/card_backs/set1/green.gif","img/card_backs/set1/red.gif","img/card_backs/set2/pink.gif","img/card_backs/set2/orange.gif","img/card_backs/set2/blue.gif","img/card_backs/set2/gray.gif","""event"",""trial"",""time""
""fullscreenenter"",""1"",""1409""
","
","
","""event"",""trial"",""time""
""fullscreenenter"",""1"",""1409""
","
","","301.25999986194074","","","","real_trial","2021-03-31 03:44:48.811","img/card_backs/set1/red.gif","2","-60","1","",""
"casino-fixation","142","396714","0.0-25.0-0.36","A785","false","img/card_backs/set1/yellow.gif","img/card_backs/set1/purple.gif","img/card_backs/set1/green.gif","img/card_backs/set1/red.gif","img/card_backs/set2/pink.gif","img/card_backs/set2/orange.gif","img/card_backs/set2/blue.gif","img/card_backs/set2/gray.gif","""event"",""trial"",""time""
""fullscreenenter"",""1"",""1409""
","
","
","""event"",""trial"",""time""
""fullscreenenter"",""1"",""1409""
","
","","null","","null","","fixation","2021-03-31 03:44:49.324","","","","","",""
"card-selection-trial","143","399257","0.0-25.0-1.36","A785","false","img/card_backs/set1/yellow.gif","img/card_backs/set1/purple.gif","img/card_backs/set1/green.gif","img/card_backs/set1/red.gif","img/card_backs/set2/pink.gif","img/card_backs/set2/orange.gif","img/card_backs/set2/blue.gif","img/card_backs/set2/gray.gif","""event"",""trial"",""time""
""fullscreenenter"",""1"",""1409""
","
","
","""event"",""trial"",""time""
""fullscreenenter"",""1"",""1409""
","
","","521.2599998340011","","","","real_trial","2021-03-31 03:44:51.867","img/card_backs/set1/red.gif","3","-60","1","",""
"casino-fixation","144","399763","0.0-25.0-0.37","A785","false","img/card_backs/set1/yellow.gif","img/card_backs/set1/purple.gif","img/card_backs/set1/green.gif","img/card_backs/set1/red.gif","img/card_backs/set2/pink.gif","img/card_backs/set2/orange.gif","img/card_backs/set2/blue.gif","img/card_backs/set2/gray.gif","""event"",""trial"",""time""
""fullscreenenter"",""1"",""1409""
","
","
","""event"",""trial"",""time""
""fullscreenenter"",""1"",""1409""
","
","","null","","null","","fixation","2021-03-31 03:44:52.372","","","","","",""
"card-selection-trial","145","402550","0.0-25.0-1.37","A785","false","img/card_backs/set1/yellow.gif","img/card_backs/set1/purple.gif","img/card_backs/set1/green.gif","img/card_backs/set1/red.gif","img/card_backs/set2/pink.gif","img/card_backs/set2/orange.gif","img/card_backs/set2/blue.gif","img/card_backs/set2/gray.gif","""event"",""trial"",""time""
""fullscreenenter"",""1"",""1409""
","
","
","""event"",""trial"",""time""
""fullscreenenter"",""1"",""1409""
","
","","779.5949999708682","","","","real_trial","2021-03-31 03:44:55.159","img/card_backs/set1/red.gif","1","-50","1","",""
"casino-fixation","146","403062","0.0-25.0-0.38","A785","false","img/card_backs/set1/yellow.gif","img/card_backs/set1/purple.gif","img/card_backs/set1/green.gif","img/card_backs/set1/red.gif","img/card_backs/set2/pink.gif","img/card_backs/set2/orange.gif","img/card_backs/set2/blue.gif","img/card_backs/set2/gray.gif","""event"",""trial"",""time""
""fullscreenenter"",""1"",""1409""
","
","
","""event"",""trial"",""time""
""fullscreenenter"",""1"",""1409""
","
","","null","","null","","fixation","2021-03-31 03:44:55.671","","","","","",""
"card-selection-trial","147","405691","0.0-25.0-1.38","A785","false","img/card_backs/set1/yellow.gif","img/card_backs/set1/purple.gif","img/card_backs/set1/green.gif","img/card_backs/set1/red.gif","img/card_backs/set2/pink.gif","img/card_backs/set2/orange.gif","img/card_backs/set2/blue.gif","img/card_backs/set2/gray.gif","""event"",""trial"",""time""
""fullscreenenter"",""1"",""1409""
","
","
","""event"",""trial"",""time""
""fullscreenenter"",""1"",""1409""
","
","","609.0800000820309","","","","real_trial","2021-03-31 03:44:58.301","img/card_backs/set1/red.gif","2","-50","1","",""
"casino-fixation","148","406194","0.0-25.0-0.39","A785","false","img/card_backs/set1/yellow.gif","img/card_backs/set1/purple.gif","img/card_backs/set1/green.gif","img/card_backs/set1/red.gif","img/card_backs/set2/pink.gif","img/card_backs/set2/orange.gif","img/card_backs/set2/blue.gif","img/card_backs/set2/gray.gif","""event"",""trial"",""time""
""fullscreenenter"",""1"",""1409""
","
","
","""event"",""trial"",""time""
""fullscreenenter"",""1"",""1409""
","
","","null","","null","","fixation","2021-03-31 03:44:58.803","","","","","",""
"card-selection-trial","149","408586","0.0-25.0-1.39","A785","false","img/card_backs/set1/yellow.gif","img/card_backs/set1/purple.gif","img/card_backs/set1/green.gif","img/card_backs/set1/red.gif","img/card_backs/set2/pink.gif","img/card_backs/set2/orange.gif","img/card_backs/set2/blue.gif","img/card_backs/set2/gray.gif","""event"",""trial"",""time""
""fullscreenenter"",""1"",""1409""
","
","
","""event"",""trial"",""time""
""fullscreenenter"",""1"",""1409""
","
","","381.67500006966293","","","","real_trial","2021-03-31 03:45:01.195","img/card_backs/set1/red.gif","2","-50","1","",""
"casino-fixation","150","409104","0.0-25.0-0.40","A785","false","img/card_backs/set1/yellow.gif","img/card_backs/set1/purple.gif","img/card_backs/set1/green.gif","img/card_backs/set1/red.gif","img/card_backs/set2/pink.gif","img/card_backs/set2/orange.gif","img/card_backs/set2/blue.gif","img/card_backs/set2/gray.gif","""event"",""trial"",""time""
""fullscreenenter"",""1"",""1409""
","
","
","""event"",""trial"",""time""
""fullscreenenter"",""1"",""1409""
","
","","null","","null","","fixation","2021-03-31 03:45:01.713","","","","","",""
"card-selection-trial","151","411627","0.0-25.0-1.40","A785","false","img/card_backs/set1/yellow.gif","img/card_backs/set1/purple.gif","img/card_backs/set1/green.gif","img/card_backs/set1/red.gif","img/card_backs/set2/pink.gif","img/card_backs/set2/orange.gif","img/card_backs/set2/blue.gif","img/card_backs/set2/gray.gif","""event"",""trial"",""time""
""fullscreenenter"",""1"",""1409""
","
","
","""event"",""trial"",""time""
""fullscreenenter"",""1"",""1409""
","
","","504.46999981068075","","","","real_trial","2021-03-31 03:45:04.236","img/card_backs/set1/red.gif","3","110","1","",""
"casino-fixation","152","412132","0.0-25.0-0.41","A785","false","img/card_backs/set1/yellow.gif","img/card_backs/set1/purple.gif","img/card_backs/set1/green.gif","img/card_backs/set1/red.gif","img/card_backs/set2/pink.gif","img/card_backs/set2/orange.gif","img/card_backs/set2/blue.gif","img/card_backs/set2/gray.gif","""event"",""trial"",""time""
""fullscreenenter"",""1"",""1409""
","
","
","""event"",""trial"",""time""
""fullscreenenter"",""1"",""1409""
","
","","null","","null","","fixation","2021-03-31 03:45:04.741","","","","","",""
"card-selection-trial","153","415858","0.0-25.0-1.41","A785","false","img/card_backs/set1/yellow.gif","img/card_backs/set1/purple.gif","img/card_backs/set1/green.gif","img/card_backs/set1/red.gif","img/card_backs/set2/pink.gif","img/card_backs/set2/orange.gif","img/card_backs/set2/blue.gif","img/card_backs/set2/gray.gif","""event"",""trial"",""time""
""fullscreenenter"",""1"",""1409""
","
","
","""event"",""trial"",""time""
""fullscreenenter"",""1"",""1409""
","
","","1716.4600000251085","","","","real_trial","2021-03-31 03:45:08.467","img/card_backs/set1/purple.gif","2","-250","1","",""
"casino-fixation","154","416370","0.0-25.0-0.42","A785","false","img/card_backs/set1/yellow.gif","img/card_backs/set1/purple.gif","img/card_backs/set1/green.gif","img/card_backs/set1/red.gif","img/card_backs/set2/pink.gif","img/card_backs/set2/orange.gif","img/card_backs/set2/blue.gif","img/card_backs/set2/gray.gif","""event"",""trial"",""time""
""fullscreenenter"",""1"",""1409""
","
","
","""event"",""trial"",""time""
""fullscreenenter"",""1"",""1409""
","
","","null","","null","","fixation","2021-03-31 03:45:08.979","","","","","",""
"card-selection-trial","155","419331","0.0-25.0-1.42","A785","false","img/card_backs/set1/yellow.gif","img/card_backs/set1/purple.gif","img/card_backs/set1/green.gif","img/card_backs/set1/red.gif","img/card_backs/set2/pink.gif","img/card_backs/set2/orange.gif","img/card_backs/set2/blue.gif","img/card_backs/set2/gray.gif","""event"",""trial"",""time""
""fullscreenenter"",""1"",""1409""
","
","
","""event"",""trial"",""time""
""fullscreenenter"",""1"",""1409""
","
","","946.8050000723451","","","","real_trial","2021-03-31 03:45:11.940","img/card_backs/set1/yellow.gif","1","-230","1","",""
"casino-fixation","156","419841","0.0-25.0-0.43","A785","false","img/card_backs/set1/yellow.gif","img/card_backs/set1/purple.gif","img/card_backs/set1/green.gif","img/card_backs/set1/red.gif","img/card_backs/set2/pink.gif","img/card_backs/set2/orange.gif","img/card_backs/set2/blue.gif","img/card_backs/set2/gray.gif","""event"",""trial"",""time""
""fullscreenenter"",""1"",""1409""
","
","
","""event"",""trial"",""time""
""fullscreenenter"",""1"",""1409""
","
","","null","","null","","fixation","2021-03-31 03:45:12.451","","","","","",""
"card-selection-trial","157","422436","0.0-25.0-1.43","A785","false","img/card_backs/set1/yellow.gif","img/card_backs/set1/purple.gif","img/card_backs/set1/green.gif","img/card_backs/set1/red.gif","img/card_backs/set2/pink.gif","img/card_backs/set2/orange.gif","img/card_backs/set2/blue.gif","img/card_backs/set2/gray.gif","""event"",""trial"",""time""
""fullscreenenter"",""1"",""1409""
","
","
","""event"",""trial"",""time""
""fullscreenenter"",""1"",""1409""
","
","","571.0249999538064","","","","real_trial","2021-03-31 03:45:15.045","img/card_backs/set1/yellow.gif","2","190","1","",""
"casino-fixation","158","422947","0.0-25.0-0.44","A785","false","img/card_backs/set1/yellow.gif","img/card_backs/set1/purple.gif","img/card_backs/set1/green.gif","img/card_backs/set1/red.gif","img/card_backs/set2/pink.gif","img/card_backs/set2/orange.gif","img/card_backs/set2/blue.gif","img/card_backs/set2/gray.gif","""event"",""trial"",""time""
""fullscreenenter"",""1"",""1409""
","
","
","""event"",""trial"",""time""
""fullscreenenter"",""1"",""1409""
","
","","null","","null","","fixation","2021-03-31 03:45:15.556","","","","","",""
"card-selection-trial","159","425437","0.0-25.0-1.44","A785","false","img/card_backs/set1/yellow.gif","img/card_backs/set1/purple.gif","img/card_backs/set1/green.gif","img/card_backs/set1/red.gif","img/card_backs/set2/pink.gif","img/card_backs/set2/orange.gif","img/card_backs/set2/blue.gif","img/card_backs/set2/gray.gif","""event"",""trial"",""time""
""fullscreenenter"",""1"",""1409""
","
","
","""event"",""trial"",""time""
""fullscreenenter"",""1"",""1409""
","
","","467.42499992251396","","","","real_trial","2021-03-31 03:45:18.046","img/card_backs/set1/yellow.gif","3","190","1","",""
"casino-fixation","160","425943","0.0-25.0-0.45","A785","false","img/card_backs/set1/yellow.gif","img/card_backs/set1/purple.gif","img/card_backs/set1/green.gif","img/card_backs/set1/red.gif","img/card_backs/set2/pink.gif","img/card_backs/set2/orange.gif","img/card_backs/set2/blue.gif","img/card_backs/set2/gray.gif","""event"",""trial"",""time""
""fullscreenenter"",""1"",""1409""
","
","
","""event"",""trial"",""time""
""fullscreenenter"",""1"",""1409""
","
","","null","","null","","fixation","2021-03-31 03:45:18.552","","","","","",""
"card-selection-trial","161","428500","0.0-25.0-1.45","A785","false","img/card_backs/set1/yellow.gif","img/card_backs/set1/purple.gif","img/card_backs/set1/green.gif","img/card_backs/set1/red.gif","img/card_backs/set2/pink.gif","img/card_backs/set2/orange.gif","img/card_backs/set2/blue.gif","img/card_backs/set2/gray.gif","""event"",""trial"",""time""
""fullscreenenter"",""1"",""1409""
","
","
","""event"",""trial"",""time""
""fullscreenenter"",""1"",""1409""
","
","","539.4999999552965","","","","real_trial","2021-03-31 03:45:21.109","img/card_backs/set1/yellow.gif","0","-250","1","",""
"casino-fixation","162","429013","0.0-25.0-0.46","A785","false","img/card_backs/set1/yellow.gif","img/card_backs/set1/purple.gif","img/card_backs/set1/green.gif","img/card_backs/set1/red.gif","img/card_backs/set2/pink.gif","img/card_backs/set2/orange.gif","img/card_backs/set2/blue.gif","img/card_backs/set2/gray.gif","""event"",""trial"",""time""
""fullscreenenter"",""1"",""1409""
","
","
","""event"",""trial"",""time""
""fullscreenenter"",""1"",""1409""
","
","","null","","null","","fixation","2021-03-31 03:45:21.622","","","","","",""
"card-selection-trial","163","431522","0.0-25.0-1.46","A785","false","img/card_backs/set1/yellow.gif","img/card_backs/set1/purple.gif","img/card_backs/set1/green.gif","img/card_backs/set1/red.gif","img/card_backs/set2/pink.gif","img/card_backs/set2/orange.gif","img/card_backs/set2/blue.gif","img/card_backs/set2/gray.gif","""event"",""trial"",""time""
""fullscreenenter"",""1"",""1409""
","
","
","""event"",""trial"",""time""
""fullscreenenter"",""1"",""1409""
","
","","492.0950001105666","","","","real_trial","2021-03-31 03:45:24.132","img/card_backs/set1/yellow.gif","2","-230","1","",""
"casino-fixation","164","432037","0.0-25.0-0.47","A785","false","img/card_backs/set1/yellow.gif","img/card_backs/set1/purple.gif","img/card_backs/set1/green.gif","img/card_backs/set1/red.gif","img/card_backs/set2/pink.gif","img/card_backs/set2/orange.gif","img/card_backs/set2/blue.gif","img/card_backs/set2/gray.gif","""event"",""trial"",""time""
""fullscreenenter"",""1"",""1409""
","
","
","""event"",""trial"",""time""
""fullscreenenter"",""1"",""1409""
","
","","null","","null","","fixation","2021-03-31 03:45:24.646","","","","","",""
"card-selection-trial","165","434500","0.0-25.0-1.47","A785","false","img/card_backs/set1/yellow.gif","img/card_backs/set1/purple.gif","img/card_backs/set1/green.gif","img/card_backs/set1/red.gif","img/card_backs/set2/pink.gif","img/card_backs/set2/orange.gif","img/card_backs/set2/blue.gif","img/card_backs/set2/gray.gif","""event"",""trial"",""time""
""fullscreenenter"",""1"",""1409""
","
","
","""event"",""trial"",""time""
""fullscreenenter"",""1"",""1409""
","
","","439.55500004813075","","","","real_trial","2021-03-31 03:45:27.109","img/card_backs/set1/yellow.gif","3","-240","1","",""
"casino-fixation","166","435011","0.0-25.0-0.48","A785","false","img/card_backs/set1/yellow.gif","img/card_backs/set1/purple.gif","img/card_backs/set1/green.gif","img/card_backs/set1/red.gif","img/card_backs/set2/pink.gif","img/card_backs/set2/orange.gif","img/card_backs/set2/blue.gif","img/card_backs/set2/gray.gif","""event"",""trial"",""time""
""fullscreenenter"",""1"",""1409""
","
","
","""event"",""trial"",""time""
""fullscreenenter"",""1"",""1409""
","
","","null","","null","","fixation","2021-03-31 03:45:27.620","","","","","",""
