"trial_type","trial_index","time_elapsed","internal_node_id","sub_id","risk_good_first","block1_A","block1_B","block1_C","block1_D","block2_A","block2_B","block2_C","block2_D","interactions","blur_events","focus_events","fullscreenenter_events","fullscreenexit_events","success","rt","stimulus","key_press","button_pressed","task_part","timestamp","card_choice","choice_position","points_earned","block","correct","response"
"pavlovia","0","3","0.0-0.0","889","false","img/card_backs/set1/green.gif","img/card_backs/set1/purple.gif","img/card_backs/set1/red.gif","img/card_backs/set1/yellow.gif","img/card_backs/set2/blue.gif","img/card_backs/set2/orange.gif","img/card_backs/set2/gray.gif","img/card_backs/set2/pink.gif","""event"",""trial"",""time""
""fullscreenenter"",""1"",""4361""
","
","
","""event"",""trial"",""time""
""fullscreenenter"",""1"",""4361""
","
","","","","","","","","","","","","",""
"fullscreen","1","5350","0.0-1.0","889","false","img/card_backs/set1/green.gif","img/card_backs/set1/purple.gif","img/card_backs/set1/red.gif","img/card_backs/set1/yellow.gif","img/card_backs/set2/blue.gif","img/card_backs/set2/orange.gif","img/card_backs/set2/gray.gif","img/card_backs/set2/pink.gif","""event"",""trial"",""time""
""fullscreenenter"",""1"",""4361""
","
","
","""event"",""trial"",""time""
""fullscreenenter"",""1"",""4361""
","
","true","","","","","","","","","","","",""
"audio-keyboard-response","2","7355","0.0-2.0","889","false","img/card_backs/set1/green.gif","img/card_backs/set1/purple.gif","img/card_backs/set1/red.gif","img/card_backs/set1/yellow.gif","img/card_backs/set2/blue.gif","img/card_backs/set2/orange.gif","img/card_backs/set2/gray.gif","img/card_backs/set2/pink.gif","""event"",""trial"",""time""
""fullscreenenter"",""1"",""4361""
","
","
","""event"",""trial"",""time""
""fullscreenenter"",""1"",""4361""
","
","","1691","audio/beep_loop.wav","32","","","","","","","","",""
"audio-button-response","3","10005","0.0-3.0","889","false","img/card_backs/set1/green.gif","img/card_backs/set1/purple.gif","img/card_backs/set1/red.gif","img/card_backs/set1/yellow.gif","img/card_backs/set2/blue.gif","img/card_backs/set2/orange.gif","img/card_backs/set2/gray.gif","img/card_backs/set2/pink.gif","""event"",""trial"",""time""
""fullscreenenter"",""1"",""4361""
","
","
","""event"",""trial"",""time""
""fullscreenenter"",""1"",""4361""
","
","","NaN","audio/turtle.mp3","","3","","","","","","","",""
"audio-button-response","4","12640","0.0-4.0","889","false","img/card_backs/set1/green.gif","img/card_backs/set1/purple.gif","img/card_backs/set1/red.gif","img/card_backs/set1/yellow.gif","img/card_backs/set2/blue.gif","img/card_backs/set2/orange.gif","img/card_backs/set2/gray.gif","img/card_backs/set2/pink.gif","""event"",""trial"",""time""
""fullscreenenter"",""1"",""4361""
","
","
","""event"",""trial"",""time""
""fullscreenenter"",""1"",""4361""
","
","","NaN","audio/shark.mp3","","2","","","","","","","",""
"fullscreen","5","16758","0.0-5.0","889","false","img/card_backs/set1/green.gif","img/card_backs/set1/purple.gif","img/card_backs/set1/red.gif","img/card_backs/set1/yellow.gif","img/card_backs/set2/blue.gif","img/card_backs/set2/orange.gif","img/card_backs/set2/gray.gif","img/card_backs/set2/pink.gif","""event"",""trial"",""time""
""fullscreenenter"",""1"",""4361""
","
","
","""event"",""trial"",""time""
""fullscreenenter"",""1"",""4361""
","
","true","","","","","","","","","","","",""
"casino-keyboard-response","6","20351","0.0-6.0-0.0","889","false","img/card_backs/set1/green.gif","img/card_backs/set1/purple.gif","img/card_backs/set1/red.gif","img/card_backs/set1/yellow.gif","img/card_backs/set2/blue.gif","img/card_backs/set2/orange.gif","img/card_backs/set2/gray.gif","img/card_backs/set2/pink.gif","""event"",""trial"",""time""
""fullscreenenter"",""1"",""4361""
","
","
","""event"",""trial"",""time""
""fullscreenenter"",""1"",""4361""
","
","","3590.899999999965","Welcome to the casino!","71","","instructions","2021-08-11 12:25:54.129","","","","","",""
"casino-keyboard-response","7","29721","0.0-6.0-0.1","889","false","img/card_backs/set1/green.gif","img/card_backs/set1/purple.gif","img/card_backs/set1/red.gif","img/card_backs/set1/yellow.gif","img/card_backs/set2/blue.gif","img/card_backs/set2/orange.gif","img/card_backs/set2/gray.gif","img/card_backs/set2/pink.gif","""event"",""trial"",""time""
""fullscreenenter"",""1"",""4361""
","
","
","""event"",""trial"",""time""
""fullscreenenter"",""1"",""4361""
","
","","9368.099999999977","Today you will be playing a game to earn tokens. </br> At the end of the experiment, you will be paid a bonus based on how many tokens you win. ","69","","instructions","2021-08-11 12:26:03.499","","","","","",""
"casino-keyboard-response","8","37537","0.0-6.0-0.2","889","false","img/card_backs/set1/green.gif","img/card_backs/set1/purple.gif","img/card_backs/set1/red.gif","img/card_backs/set1/yellow.gif","img/card_backs/set2/blue.gif","img/card_backs/set2/orange.gif","img/card_backs/set2/gray.gif","img/card_backs/set2/pink.gif","""event"",""trial"",""time""
""fullscreenenter"",""1"",""4361""
","
","
","""event"",""trial"",""time""
""fullscreenenter"",""1"",""4361""
","
","","7812.5","On every turn, you will be shown four different decks of cards. </br> You need to select a card from one of the four decks.  ","75","","instructions","2021-08-11 12:26:11.316","","","","","",""
"casino-keyboard-response","9","42366","0.0-6.0-0.3","889","false","img/card_backs/set1/green.gif","img/card_backs/set1/purple.gif","img/card_backs/set1/red.gif","img/card_backs/set1/yellow.gif","img/card_backs/set2/blue.gif","img/card_backs/set2/orange.gif","img/card_backs/set2/gray.gif","img/card_backs/set2/pink.gif","""event"",""trial"",""time""
""fullscreenenter"",""1"",""4361""
","
","
","""event"",""trial"",""time""
""fullscreenenter"",""1"",""4361""
","
","","4825.699999999953","On the next screen, you will see what the decks will look like. ","66","","instructions","2021-08-11 12:26:16.144","","","","","",""
"card-selection-trial","10","46374","0.0-7.0-0.0","889","false","img/card_backs/set1/green.gif","img/card_backs/set1/purple.gif","img/card_backs/set1/red.gif","img/card_backs/set1/yellow.gif","img/card_backs/set2/blue.gif","img/card_backs/set2/orange.gif","img/card_backs/set2/gray.gif","img/card_backs/set2/pink.gif","""event"",""trial"",""time""
""fullscreenenter"",""1"",""4361""
","
","
","""event"",""trial"",""time""
""fullscreenenter"",""1"",""4361""
","
","","null","","","","practice","2021-08-11 12:26:20.152","null","null","null","0","",""
"casino-keyboard-response","11","55138","0.0-8.0-0.0","889","false","img/card_backs/set1/green.gif","img/card_backs/set1/purple.gif","img/card_backs/set1/red.gif","img/card_backs/set1/yellow.gif","img/card_backs/set2/blue.gif","img/card_backs/set2/orange.gif","img/card_backs/set2/gray.gif","img/card_backs/set2/pink.gif","""event"",""trial"",""time""
""fullscreenenter"",""1"",""4361""
","
","
","""event"",""trial"",""time""
""fullscreenenter"",""1"",""4361""
","
","","8762.5","You should pick a card from a deck using the '2', '4', '6', and '8' keys at the top of the keyboard.","85","","instructions","2021-08-11 12:26:28.916","","","","","",""
"casino-keyboard-response","12","61813","0.0-8.0-0.1","889","false","img/card_backs/set1/green.gif","img/card_backs/set1/purple.gif","img/card_backs/set1/red.gif","img/card_backs/set1/yellow.gif","img/card_backs/set2/blue.gif","img/card_backs/set2/orange.gif","img/card_backs/set2/gray.gif","img/card_backs/set2/pink.gif","""event"",""trial"",""time""
""fullscreenenter"",""1"",""4361""
","
","
","""event"",""trial"",""time""
""fullscreenenter"",""1"",""4361""
","
","","6673","Once you select a card, it will turn over and you will see how many tokens you earned.","83","","instructions","2021-08-11 12:26:35.592","","","","","",""
"casino-keyboard-response","13","85196","0.0-8.0-0.2","889","false","img/card_backs/set1/green.gif","img/card_backs/set1/purple.gif","img/card_backs/set1/red.gif","img/card_backs/set1/yellow.gif","img/card_backs/set2/blue.gif","img/card_backs/set2/orange.gif","img/card_backs/set2/gray.gif","img/card_backs/set2/pink.gif","""event"",""trial"",""time""
""fullscreenenter"",""1"",""4361""
","
","
","""event"",""trial"",""time""
""fullscreenenter"",""1"",""4361""
","
","","23380.100000000035","Let's try practicing that! </br> First, try to put your fingers over the '2', '4', '6', and '8' keys. </br>  You can use whatever fingers are most comfortable for you. Try to find a comfortable position now. ","50","","instructions","2021-08-11 12:26:58.974","","","","","",""
"casino-keyboard-response","14","90984","0.0-8.0-0.3","889","false","img/card_backs/set1/green.gif","img/card_backs/set1/purple.gif","img/card_backs/set1/red.gif","img/card_backs/set1/yellow.gif","img/card_backs/set2/blue.gif","img/card_backs/set2/orange.gif","img/card_backs/set2/gray.gif","img/card_backs/set2/pink.gif","""event"",""trial"",""time""
""fullscreenenter"",""1"",""4361""
","
","
","""event"",""trial"",""time""
""fullscreenenter"",""1"",""4361""
","
","","5785.199999999953","Okay ready? </br> On the next screen, press '2' to select the left deck. ","50","","instructions","2021-08-11 12:27:04.762","","","","","",""
"card-selection-trial","15","94718","0.0-9.0-0.0","889","false","img/card_backs/set1/green.gif","img/card_backs/set1/purple.gif","img/card_backs/set1/red.gif","img/card_backs/set1/yellow.gif","img/card_backs/set2/blue.gif","img/card_backs/set2/orange.gif","img/card_backs/set2/gray.gif","img/card_backs/set2/pink.gif","""event"",""trial"",""time""
""fullscreenenter"",""1"",""4361""
","
","
","""event"",""trial"",""time""
""fullscreenenter"",""1"",""4361""
","
","","1697.2000000000116","","","","practice_card_selection","2021-08-11 12:27:08.497","img/practice_cards/backs/black.gif","0","100","","",""
"casino-keyboard-response","16","100471","0.0-10.0-0.0","889","false","img/card_backs/set1/green.gif","img/card_backs/set1/purple.gif","img/card_backs/set1/red.gif","img/card_backs/set1/yellow.gif","img/card_backs/set2/blue.gif","img/card_backs/set2/orange.gif","img/card_backs/set2/gray.gif","img/card_backs/set2/pink.gif","""event"",""trial"",""time""
""fullscreenenter"",""1"",""4361""
","
","
","""event"",""trial"",""time""
""fullscreenenter"",""1"",""4361""
","
","","5749.899999999965","Great! Now on the next screen, try pressing '6' to select the third deck.","54","","instructions","2021-08-11 12:27:14.249","","","","","",""
"card-selection-trial","17","103219","0.0-11.0-0.0","889","false","img/card_backs/set1/green.gif","img/card_backs/set1/purple.gif","img/card_backs/set1/red.gif","img/card_backs/set1/yellow.gif","img/card_backs/set2/blue.gif","img/card_backs/set2/orange.gif","img/card_backs/set2/gray.gif","img/card_backs/set2/pink.gif","""event"",""trial"",""time""
""fullscreenenter"",""1"",""4361""
","
","
","""event"",""trial"",""time""
""fullscreenenter"",""1"",""4361""
","
","","724.3999999999651","","","","practice_card_selection","2021-08-11 12:27:16.997","img/practice_cards/backs/brown.gif","2","-100","","",""
"casino-keyboard-response","18","108020","0.0-12.0-0.0","889","false","img/card_backs/set1/green.gif","img/card_backs/set1/purple.gif","img/card_backs/set1/red.gif","img/card_backs/set1/yellow.gif","img/card_backs/set2/blue.gif","img/card_backs/set2/orange.gif","img/card_backs/set2/gray.gif","img/card_backs/set2/pink.gif","""event"",""trial"",""time""
""fullscreenenter"",""1"",""4361""
","
","
","""event"",""trial"",""time""
""fullscreenenter"",""1"",""4361""
","
","","4799.799999999988","Now on the next screen, try pressing '4' to select the second deck.","52","","instructions","2021-08-11 12:27:21.798","","","","","",""
"card-selection-trial","19","111098","0.0-13.0-0.0","889","false","img/card_backs/set1/green.gif","img/card_backs/set1/purple.gif","img/card_backs/set1/red.gif","img/card_backs/set1/yellow.gif","img/card_backs/set2/blue.gif","img/card_backs/set2/orange.gif","img/card_backs/set2/gray.gif","img/card_backs/set2/pink.gif","""event"",""trial"",""time""
""fullscreenenter"",""1"",""4361""
","
","
","""event"",""trial"",""time""
""fullscreenenter"",""1"",""4361""
","
","","1057.899999999965","","","","practice_card_selection","2021-08-11 12:27:24.876","img/practice_cards/backs/black.gif","1","-100","","",""
"casino-keyboard-response","20","115061","0.0-14.0-0.0","889","false","img/card_backs/set1/green.gif","img/card_backs/set1/purple.gif","img/card_backs/set1/red.gif","img/card_backs/set1/yellow.gif","img/card_backs/set2/blue.gif","img/card_backs/set2/orange.gif","img/card_backs/set2/gray.gif","img/card_backs/set2/pink.gif","""event"",""trial"",""time""
""fullscreenenter"",""1"",""4361""
","
","
","""event"",""trial"",""time""
""fullscreenenter"",""1"",""4361""
","
","","3961.2000000000116","Finally, try pressing '8' to select the deck all the way on the right.","56","","instructions","2021-08-11 12:27:28.839","","","","","",""
"card-selection-trial","21","117859","0.0-15.0-0.0","889","false","img/card_backs/set1/green.gif","img/card_backs/set1/purple.gif","img/card_backs/set1/red.gif","img/card_backs/set1/yellow.gif","img/card_backs/set2/blue.gif","img/card_backs/set2/orange.gif","img/card_backs/set2/gray.gif","img/card_backs/set2/pink.gif","""event"",""trial"",""time""
""fullscreenenter"",""1"",""4361""
","
","
","""event"",""trial"",""time""
""fullscreenenter"",""1"",""4361""
","
","","789.9000000000233","","","","practice_card_selection","2021-08-11 12:27:31.637","img/practice_cards/backs/dark_blue.gif","3","-200","","",""
"casino-keyboard-response","22","121416","0.0-16.0-0.0","889","false","img/card_backs/set1/green.gif","img/card_backs/set1/purple.gif","img/card_backs/set1/red.gif","img/card_backs/set1/yellow.gif","img/card_backs/set2/blue.gif","img/card_backs/set2/orange.gif","img/card_backs/set2/gray.gif","img/card_backs/set2/pink.gif","""event"",""trial"",""time""
""fullscreenenter"",""1"",""4361""
","
","
","""event"",""trial"",""time""
""fullscreenenter"",""1"",""4361""
","
","","3554.5","Great! It seems like you are getting the hang of this.","80","","instructions","2021-08-11 12:27:35.194","","","","","",""
"casino-keyboard-response","23","128913","0.0-16.0-0.1","889","false","img/card_backs/set1/green.gif","img/card_backs/set1/purple.gif","img/card_backs/set1/red.gif","img/card_backs/set1/yellow.gif","img/card_backs/set2/blue.gif","img/card_backs/set2/orange.gif","img/card_backs/set2/gray.gif","img/card_backs/set2/pink.gif","""event"",""trial"",""time""
""fullscreenenter"",""1"",""4361""
","
","
","""event"",""trial"",""time""
""fullscreenenter"",""1"",""4361""
","
","","7495.700000000012","You may have noticed that some cards will cause you to <b> win </b> tokens while other cards will cause you to <b> lose </b>  tokens.","70","","instructions","2021-08-11 12:27:42.691","","","","","",""
"casino-keyboard-response","24","137258","0.0-16.0-0.2","889","false","img/card_backs/set1/green.gif","img/card_backs/set1/purple.gif","img/card_backs/set1/red.gif","img/card_backs/set1/yellow.gif","img/card_backs/set2/blue.gif","img/card_backs/set2/orange.gif","img/card_backs/set2/gray.gif","img/card_backs/set2/pink.gif","""event"",""trial"",""time""
""fullscreenenter"",""1"",""4361""
","
","
","""event"",""trial"",""time""
""fullscreenenter"",""1"",""4361""
","
","","8341.399999999965","Each deck has a mix of cards that will cause you to win and lose tokens. </br> However, the cards in each colored deck are different.","73","","instructions","2021-08-11 12:27:51.036","","","","","",""
"casino-keyboard-response","25","146311","0.0-16.0-0.3","889","false","img/card_backs/set1/green.gif","img/card_backs/set1/purple.gif","img/card_backs/set1/red.gif","img/card_backs/set1/yellow.gif","img/card_backs/set2/blue.gif","img/card_backs/set2/orange.gif","img/card_backs/set2/gray.gif","img/card_backs/set2/pink.gif","""event"",""trial"",""time""
""fullscreenenter"",""1"",""4361""
","
","
","""event"",""trial"",""time""
""fullscreenenter"",""1"",""4361""
","
","","9050.900000000023","Some colored decks are luckier than others. </br> If you choose the lucky decks, you will earn more tokens than if you choose the unlucky decks.","69","","instructions","2021-08-11 12:28:00.089","","","","","",""
"casino-keyboard-response","26","153880","0.0-16.0-0.4","889","false","img/card_backs/set1/green.gif","img/card_backs/set1/purple.gif","img/card_backs/set1/red.gif","img/card_backs/set1/yellow.gif","img/card_backs/set2/blue.gif","img/card_backs/set2/orange.gif","img/card_backs/set2/gray.gif","img/card_backs/set2/pink.gif","""event"",""trial"",""time""
""fullscreenenter"",""1"",""4361""
","
","
","""event"",""trial"",""time""
""fullscreenenter"",""1"",""4361""
","
","","7567.400000000023","You should try to figure out which decks are lucky. </br> Then, try to choose the lucky decks so you can win the most tokens.","87","","instructions","2021-08-11 12:28:07.658","","","","","",""
"casino-keyboard-response","27","165708","0.0-16.0-0.5","889","false","img/card_backs/set1/green.gif","img/card_backs/set1/purple.gif","img/card_backs/set1/red.gif","img/card_backs/set1/yellow.gif","img/card_backs/set2/blue.gif","img/card_backs/set2/orange.gif","img/card_backs/set2/gray.gif","img/card_backs/set2/pink.gif","""event"",""trial"",""time""
""fullscreenenter"",""1"",""4361""
","
","
","""event"",""trial"",""time""
""fullscreenenter"",""1"",""4361""
","
","","11826.699999999953","To make it trickier, the casino dealer will switch the locations of the decks on every turn. </br> The color of the deck determines how lucky it is. The location does not matter.","88","","instructions","2021-08-11 12:28:19.486","","","","","",""
"casino-keyboard-response","28","175377","0.0-16.0-0.6","889","false","img/card_backs/set1/green.gif","img/card_backs/set1/purple.gif","img/card_backs/set1/red.gif","img/card_backs/set1/yellow.gif","img/card_backs/set2/blue.gif","img/card_backs/set2/orange.gif","img/card_backs/set2/gray.gif","img/card_backs/set2/pink.gif","""event"",""trial"",""time""
""fullscreenenter"",""1"",""4361""
","
","
","""event"",""trial"",""time""
""fullscreenenter"",""1"",""4361""
","
","","9669","The mix of cards in each colored deck will stay the same throughout the game. </br> That means that a deck that is lucky early on will stay lucky.","79","","instructions","2021-08-11 12:28:29.155","","","","","",""
"casino-keyboard-response","29","184689","0.0-16.0-0.7","889","false","img/card_backs/set1/green.gif","img/card_backs/set1/purple.gif","img/card_backs/set1/red.gif","img/card_backs/set1/yellow.gif","img/card_backs/set2/blue.gif","img/card_backs/set2/orange.gif","img/card_backs/set2/gray.gif","img/card_backs/set2/pink.gif","""event"",""trial"",""time""
""fullscreenenter"",""1"",""4361""
","
","
","""event"",""trial"",""time""
""fullscreenenter"",""1"",""4361""
","
","","9310.700000000012","Remember though, all the decks have a <b> mix </b> of both <b> good </b> and <b> bad </b> cards so it may take a couple of turns to figure out if a deck is lucky.","69","","instructions","2021-08-11 12:28:38.467","","","","","",""
"casino-keyboard-response","30","193622","0.0-16.0-0.8","889","false","img/card_backs/set1/green.gif","img/card_backs/set1/purple.gif","img/card_backs/set1/red.gif","img/card_backs/set1/yellow.gif","img/card_backs/set2/blue.gif","img/card_backs/set2/orange.gif","img/card_backs/set2/gray.gif","img/card_backs/set2/pink.gif","""event"",""trial"",""time""
""fullscreenenter"",""1"",""4361""
","
","
","""event"",""trial"",""time""
""fullscreenenter"",""1"",""4361""
","
","","8932.399999999965","At the end of the game, you will be paid bonus money based on how many tokens you win. </br> If you win more tokens, you will earn more money!","72","","instructions","2021-08-11 12:28:47.401","","","","","",""
"casino-keyboard-response","31","204236","0.0-16.0-0.9","889","false","img/card_backs/set1/green.gif","img/card_backs/set1/purple.gif","img/card_backs/set1/red.gif","img/card_backs/set1/yellow.gif","img/card_backs/set2/blue.gif","img/card_backs/set2/orange.gif","img/card_backs/set2/gray.gif","img/card_backs/set2/pink.gif","""event"",""trial"",""time""
""fullscreenenter"",""1"",""4361""
","
","
","""event"",""trial"",""time""
""fullscreenenter"",""1"",""4361""
","
","","10611","You will never <b> lose </b> money. </br> If you end up with fewer than 0 tokens, you will earn $0 of bonus money, but you will still be paid for playing the game.","83","","instructions","2021-08-11 12:28:58.014","","","","","",""
"casino-keyboard-response","32","209239","0.0-16.0-0.10","889","false","img/card_backs/set1/green.gif","img/card_backs/set1/purple.gif","img/card_backs/set1/red.gif","img/card_backs/set1/yellow.gif","img/card_backs/set2/blue.gif","img/card_backs/set2/orange.gif","img/card_backs/set2/gray.gif","img/card_backs/set2/pink.gif","""event"",""trial"",""time""
""fullscreenenter"",""1"",""4361""
","
","
","""event"",""trial"",""time""
""fullscreenenter"",""1"",""4361""
","
","","5000.600000000035","You will have 10 seconds to make each choice.","82","","instructions","2021-08-11 12:29:03.017","","","","","",""
"casino-keyboard-response","33","218024","0.0-16.0-0.11","889","false","img/card_backs/set1/green.gif","img/card_backs/set1/purple.gif","img/card_backs/set1/red.gif","img/card_backs/set1/yellow.gif","img/card_backs/set2/blue.gif","img/card_backs/set2/orange.gif","img/card_backs/set2/gray.gif","img/card_backs/set2/pink.gif","""event"",""trial"",""time""
""fullscreenenter"",""1"",""4361""
","
","
","""event"",""trial"",""time""
""fullscreenenter"",""1"",""4361""
","
","","8780.199999999953","Before you play the game for real, you will play with practice decks. </br> The tokens you earn during practice won't count toward your total.","86","","instructions","2021-08-11 12:29:11.802","","","","","",""
"casino-keyboard-response","34","229017","0.0-16.0-0.12","889","false","img/card_backs/set1/green.gif","img/card_backs/set1/purple.gif","img/card_backs/set1/red.gif","img/card_backs/set1/yellow.gif","img/card_backs/set2/blue.gif","img/card_backs/set2/orange.gif","img/card_backs/set2/gray.gif","img/card_backs/set2/pink.gif","""event"",""trial"",""time""
""fullscreenenter"",""1"",""4361""
","
","
","""event"",""trial"",""time""
""fullscreenenter"",""1"",""4361""
","
","","10989.900000000023","Ready? Remember, use the '2', '4', '6', and '8' keys to select the decks. </br> Put your fingers on those keys now and then press '2' to begin.","50","","instructions","2021-08-11 12:29:22.795","","","","","",""
"casino-fixation","35","229537","0.0-17.0-0.0","889","false","img/card_backs/set1/green.gif","img/card_backs/set1/purple.gif","img/card_backs/set1/red.gif","img/card_backs/set1/yellow.gif","img/card_backs/set2/blue.gif","img/card_backs/set2/orange.gif","img/card_backs/set2/gray.gif","img/card_backs/set2/pink.gif","""event"",""trial"",""time""
""fullscreenenter"",""1"",""4361""
","
","
","""event"",""trial"",""time""
""fullscreenenter"",""1"",""4361""
","
","","null","","null","","fixation","2021-08-11 12:29:23.315","","","","","",""
"card-selection-trial","36","234387","0.0-17.0-1.0","889","false","img/card_backs/set1/green.gif","img/card_backs/set1/purple.gif","img/card_backs/set1/red.gif","img/card_backs/set1/yellow.gif","img/card_backs/set2/blue.gif","img/card_backs/set2/orange.gif","img/card_backs/set2/gray.gif","img/card_backs/set2/pink.gif","""event"",""trial"",""time""
""fullscreenenter"",""1"",""4361""
","
","
","""event"",""trial"",""time""
""fullscreenenter"",""1"",""4361""
","
","","2834.100000000035","","","","practice","2021-08-11 12:29:28.165","img/practice_cards/backs/brown.gif","0","100","0","",""
"casino-fixation","37","234895","0.0-17.0-0.1","889","false","img/card_backs/set1/green.gif","img/card_backs/set1/purple.gif","img/card_backs/set1/red.gif","img/card_backs/set1/yellow.gif","img/card_backs/set2/blue.gif","img/card_backs/set2/orange.gif","img/card_backs/set2/gray.gif","img/card_backs/set2/pink.gif","""event"",""trial"",""time""
""fullscreenenter"",""1"",""4361""
","
","
","""event"",""trial"",""time""
""fullscreenenter"",""1"",""4361""
","
","","null","","null","","fixation","2021-08-11 12:29:28.673","","","","","",""
"card-selection-trial","38","238844","0.0-17.0-1.1","889","false","img/card_backs/set1/green.gif","img/card_backs/set1/purple.gif","img/card_backs/set1/red.gif","img/card_backs/set1/yellow.gif","img/card_backs/set2/blue.gif","img/card_backs/set2/orange.gif","img/card_backs/set2/gray.gif","img/card_backs/set2/pink.gif","""event"",""trial"",""time""
""fullscreenenter"",""1"",""4361""
","
","
","""event"",""trial"",""time""
""fullscreenenter"",""1"",""4361""
","
","","1938.7999999999884","","","","practice","2021-08-11 12:29:32.622","img/practice_cards/backs/brown.gif","2","100","0","",""
"casino-fixation","39","239364","0.0-17.0-0.2","889","false","img/card_backs/set1/green.gif","img/card_backs/set1/purple.gif","img/card_backs/set1/red.gif","img/card_backs/set1/yellow.gif","img/card_backs/set2/blue.gif","img/card_backs/set2/orange.gif","img/card_backs/set2/gray.gif","img/card_backs/set2/pink.gif","""event"",""trial"",""time""
""fullscreenenter"",""1"",""4361""
","
","
","""event"",""trial"",""time""
""fullscreenenter"",""1"",""4361""
","
","","null","","null","","fixation","2021-08-11 12:29:33.142","","","","","",""
"card-selection-trial","40","242824","0.0-17.0-1.2","889","false","img/card_backs/set1/green.gif","img/card_backs/set1/purple.gif","img/card_backs/set1/red.gif","img/card_backs/set1/yellow.gif","img/card_backs/set2/blue.gif","img/card_backs/set2/orange.gif","img/card_backs/set2/gray.gif","img/card_backs/set2/pink.gif","""event"",""trial"",""time""
""fullscreenenter"",""1"",""4361""
","
","
","""event"",""trial"",""time""
""fullscreenenter"",""1"",""4361""
","
","","1446.7000000000116","","","","practice","2021-08-11 12:29:36.602","img/practice_cards/backs/black.gif","1","100","0","",""
"casino-fixation","41","243344","0.0-17.0-0.3","889","false","img/card_backs/set1/green.gif","img/card_backs/set1/purple.gif","img/card_backs/set1/red.gif","img/card_backs/set1/yellow.gif","img/card_backs/set2/blue.gif","img/card_backs/set2/orange.gif","img/card_backs/set2/gray.gif","img/card_backs/set2/pink.gif","""event"",""trial"",""time""
""fullscreenenter"",""1"",""4361""
","
","
","""event"",""trial"",""time""
""fullscreenenter"",""1"",""4361""
","
","","null","","null","","fixation","2021-08-11 12:29:37.122","","","","","",""
"card-selection-trial","42","246543","0.0-17.0-1.3","889","false","img/card_backs/set1/green.gif","img/card_backs/set1/purple.gif","img/card_backs/set1/red.gif","img/card_backs/set1/yellow.gif","img/card_backs/set2/blue.gif","img/card_backs/set2/orange.gif","img/card_backs/set2/gray.gif","img/card_backs/set2/pink.gif","""event"",""trial"",""time""
""fullscreenenter"",""1"",""4361""
","
","
","""event"",""trial"",""time""
""fullscreenenter"",""1"",""4361""
","
","","1184.7999999999884","","","","practice","2021-08-11 12:29:40.321","img/practice_cards/backs/dark_blue.gif","3","200","0","",""
"casino-fixation","43","247063","0.0-17.0-0.4","889","false","img/card_backs/set1/green.gif","img/card_backs/set1/purple.gif","img/card_backs/set1/red.gif","img/card_backs/set1/yellow.gif","img/card_backs/set2/blue.gif","img/card_backs/set2/orange.gif","img/card_backs/set2/gray.gif","img/card_backs/set2/pink.gif","""event"",""trial"",""time""
""fullscreenenter"",""1"",""4361""
","
","
","""event"",""trial"",""time""
""fullscreenenter"",""1"",""4361""
","
","","null","","null","","fixation","2021-08-11 12:29:40.841","","","","","",""
"card-selection-trial","44","252073","0.0-17.0-1.4","889","false","img/card_backs/set1/green.gif","img/card_backs/set1/purple.gif","img/card_backs/set1/red.gif","img/card_backs/set1/yellow.gif","img/card_backs/set2/blue.gif","img/card_backs/set2/orange.gif","img/card_backs/set2/gray.gif","img/card_backs/set2/pink.gif","""event"",""trial"",""time""
""fullscreenenter"",""1"",""4361""
","
","
","""event"",""trial"",""time""
""fullscreenenter"",""1"",""4361""
","
","","2988.2000000000116","","","","practice","2021-08-11 12:29:45.851","img/practice_cards/backs/dark_blue.gif","0","200","0","",""
"casino-fixation","45","252593","0.0-17.0-0.5","889","false","img/card_backs/set1/green.gif","img/card_backs/set1/purple.gif","img/card_backs/set1/red.gif","img/card_backs/set1/yellow.gif","img/card_backs/set2/blue.gif","img/card_backs/set2/orange.gif","img/card_backs/set2/gray.gif","img/card_backs/set2/pink.gif","""event"",""trial"",""time""
""fullscreenenter"",""1"",""4361""
","
","
","""event"",""trial"",""time""
""fullscreenenter"",""1"",""4361""
","
","","null","","null","","fixation","2021-08-11 12:29:46.371","","","","","",""
"card-selection-trial","46","256163","0.0-17.0-1.5","889","false","img/card_backs/set1/green.gif","img/card_backs/set1/purple.gif","img/card_backs/set1/red.gif","img/card_backs/set1/yellow.gif","img/card_backs/set2/blue.gif","img/card_backs/set2/orange.gif","img/card_backs/set2/gray.gif","img/card_backs/set2/pink.gif","""event"",""trial"",""time""
""fullscreenenter"",""1"",""4361""
","
","
","""event"",""trial"",""time""
""fullscreenenter"",""1"",""4361""
","
","","1547.7000000000116","","","","practice","2021-08-11 12:29:49.941","img/practice_cards/backs/dark_green.gif","2","200","0","",""
"casino-fixation","47","256673","0.0-17.0-0.6","889","false","img/card_backs/set1/green.gif","img/card_backs/set1/purple.gif","img/card_backs/set1/red.gif","img/card_backs/set1/yellow.gif","img/card_backs/set2/blue.gif","img/card_backs/set2/orange.gif","img/card_backs/set2/gray.gif","img/card_backs/set2/pink.gif","""event"",""trial"",""time""
""fullscreenenter"",""1"",""4361""
","
","
","""event"",""trial"",""time""
""fullscreenenter"",""1"",""4361""
","
","","null","","null","","fixation","2021-08-11 12:29:50.451","","","","","",""
"card-selection-trial","48","260241","0.0-17.0-1.6","889","false","img/card_backs/set1/green.gif","img/card_backs/set1/purple.gif","img/card_backs/set1/red.gif","img/card_backs/set1/yellow.gif","img/card_backs/set2/blue.gif","img/card_backs/set2/orange.gif","img/card_backs/set2/gray.gif","img/card_backs/set2/pink.gif","""event"",""trial"",""time""
""fullscreenenter"",""1"",""4361""
","
","
","""event"",""trial"",""time""
""fullscreenenter"",""1"",""4361""
","
","","1564","","","","practice","2021-08-11 12:29:54.019","img/practice_cards/backs/brown.gif","1","-100","0","",""
"casino-fixation","49","260742","0.0-17.0-0.7","889","false","img/card_backs/set1/green.gif","img/card_backs/set1/purple.gif","img/card_backs/set1/red.gif","img/card_backs/set1/yellow.gif","img/card_backs/set2/blue.gif","img/card_backs/set2/orange.gif","img/card_backs/set2/gray.gif","img/card_backs/set2/pink.gif","""event"",""trial"",""time""
""fullscreenenter"",""1"",""4361""
","
","
","""event"",""trial"",""time""
""fullscreenenter"",""1"",""4361""
","
","","null","","null","","fixation","2021-08-11 12:29:54.520","","","","","",""
"card-selection-trial","50","264404","0.0-17.0-1.7","889","false","img/card_backs/set1/green.gif","img/card_backs/set1/purple.gif","img/card_backs/set1/red.gif","img/card_backs/set1/yellow.gif","img/card_backs/set2/blue.gif","img/card_backs/set2/orange.gif","img/card_backs/set2/gray.gif","img/card_backs/set2/pink.gif","""event"",""trial"",""time""
""fullscreenenter"",""1"",""4361""
","
","
","""event"",""trial"",""time""
""fullscreenenter"",""1"",""4361""
","
","","1658.0999999999767","","","","practice","2021-08-11 12:29:58.182","img/practice_cards/backs/dark_green.gif","3","-200","0","",""
"casino-fixation","51","264905","0.0-17.0-0.8","889","false","img/card_backs/set1/green.gif","img/card_backs/set1/purple.gif","img/card_backs/set1/red.gif","img/card_backs/set1/yellow.gif","img/card_backs/set2/blue.gif","img/card_backs/set2/orange.gif","img/card_backs/set2/gray.gif","img/card_backs/set2/pink.gif","""event"",""trial"",""time""
""fullscreenenter"",""1"",""4361""
","
","
","""event"",""trial"",""time""
""fullscreenenter"",""1"",""4361""
","
","","null","","null","","fixation","2021-08-11 12:29:58.683","","","","","",""
"card-selection-trial","52","268916","0.0-17.0-1.8","889","false","img/card_backs/set1/green.gif","img/card_backs/set1/purple.gif","img/card_backs/set1/red.gif","img/card_backs/set1/yellow.gif","img/card_backs/set2/blue.gif","img/card_backs/set2/orange.gif","img/card_backs/set2/gray.gif","img/card_backs/set2/pink.gif","""event"",""trial"",""time""
""fullscreenenter"",""1"",""4361""
","
","
","""event"",""trial"",""time""
""fullscreenenter"",""1"",""4361""
","
","","2008","","","","practice","2021-08-11 12:30:02.694","img/practice_cards/backs/dark_green.gif","1","-200","0","",""
"casino-fixation","53","269418","0.0-17.0-0.9","889","false","img/card_backs/set1/green.gif","img/card_backs/set1/purple.gif","img/card_backs/set1/red.gif","img/card_backs/set1/yellow.gif","img/card_backs/set2/blue.gif","img/card_backs/set2/orange.gif","img/card_backs/set2/gray.gif","img/card_backs/set2/pink.gif","""event"",""trial"",""time""
""fullscreenenter"",""1"",""4361""
","
","
","""event"",""trial"",""time""
""fullscreenenter"",""1"",""4361""
","
","","null","","null","","fixation","2021-08-11 12:30:03.196","","","","","",""
"card-selection-trial","54","271927","0.0-17.0-1.9","889","false","img/card_backs/set1/green.gif","img/card_backs/set1/purple.gif","img/card_backs/set1/red.gif","img/card_backs/set1/yellow.gif","img/card_backs/set2/blue.gif","img/card_backs/set2/orange.gif","img/card_backs/set2/gray.gif","img/card_backs/set2/pink.gif","""event"",""trial"",""time""
""fullscreenenter"",""1"",""4361""
","
","
","""event"",""trial"",""time""
""fullscreenenter"",""1"",""4361""
","
","","504.0999999999767","","","","practice","2021-08-11 12:30:05.705","img/practice_cards/backs/dark_green.gif","0","200","0","",""
"casino-keyboard-response","55","274712","0.0-18.0","889","false","img/card_backs/set1/green.gif","img/card_backs/set1/purple.gif","img/card_backs/set1/red.gif","img/card_backs/set1/yellow.gif","img/card_backs/set2/blue.gif","img/card_backs/set2/orange.gif","img/card_backs/set2/gray.gif","img/card_backs/set2/pink.gif","""event"",""trial"",""time""
""fullscreenenter"",""1"",""4361""
","
","
","""event"",""trial"",""time""
""fullscreenenter"",""1"",""4361""
","
","","2784.5","You earned 600 tokens during the practice round!","82","","","2021-08-11 12:30:08.490","","","","","",""
"casino-keyboard-response","56","279717","0.0-19.0-0.0","889","false","img/card_backs/set1/green.gif","img/card_backs/set1/purple.gif","img/card_backs/set1/red.gif","img/card_backs/set1/yellow.gif","img/card_backs/set2/blue.gif","img/card_backs/set2/orange.gif","img/card_backs/set2/gray.gif","img/card_backs/set2/pink.gif","""event"",""trial"",""time""
""fullscreenenter"",""1"",""4361""
","
","
","""event"",""trial"",""time""
""fullscreenenter"",""1"",""4361""
","
","","5003.900000000023","Nice job! You are almost ready to play the real game.","86","","instructions","2021-08-11 12:30:13.495","","","","","",""
"casino-keyboard-response","57","287597","0.0-19.0-0.1","889","false","img/card_backs/set1/green.gif","img/card_backs/set1/purple.gif","img/card_backs/set1/red.gif","img/card_backs/set1/yellow.gif","img/card_backs/set2/blue.gif","img/card_backs/set2/orange.gif","img/card_backs/set2/gray.gif","img/card_backs/set2/pink.gif","""event"",""trial"",""time""
""fullscreenenter"",""1"",""4361""
","
","
","""event"",""trial"",""time""
""fullscreenenter"",""1"",""4361""
","
","","7879.599999999977","You will play two rounds of the real game. In each round, you will pick 100 cards in total.","73","","instructions","2021-08-11 12:30:21.375","","","","","",""
"casino-keyboard-response","58","291825","0.0-19.0-0.2","889","false","img/card_backs/set1/green.gif","img/card_backs/set1/purple.gif","img/card_backs/set1/red.gif","img/card_backs/set1/yellow.gif","img/card_backs/set2/blue.gif","img/card_backs/set2/orange.gif","img/card_backs/set2/gray.gif","img/card_backs/set2/pink.gif","""event"",""trial"",""time""
""fullscreenenter"",""1"",""4361""
","
","
","""event"",""trial"",""time""
""fullscreenenter"",""1"",""4361""
","
","","4226.79999999993","We are now going to ask you some questions about how the game works.","66","","instructions","2021-08-11 12:30:25.603","","","","","",""
"casino-keyboard-response","59","298359","0.0-19.0-0.3","889","false","img/card_backs/set1/green.gif","img/card_backs/set1/purple.gif","img/card_backs/set1/red.gif","img/card_backs/set1/yellow.gif","img/card_backs/set2/blue.gif","img/card_backs/set2/orange.gif","img/card_backs/set2/gray.gif","img/card_backs/set2/pink.gif","""event"",""trial"",""time""
""fullscreenenter"",""1"",""4361""
","
","
","""event"",""trial"",""time""
""fullscreenenter"",""1"",""4361""
","
","","6527.900000000023","Answer carefully. You will not be able to begin the game until you answer them correctly.","67","","instructions","2021-08-11 12:30:32.138","","","","","",""
"casino-comp_q","60","306226","0.0-20.0-0.0","889","false","img/card_backs/set1/green.gif","img/card_backs/set1/purple.gif","img/card_backs/set1/red.gif","img/card_backs/set1/yellow.gif","img/card_backs/set2/blue.gif","img/card_backs/set2/orange.gif","img/card_backs/set2/gray.gif","img/card_backs/set2/pink.gif","""event"",""trial"",""time""
""fullscreenenter"",""1"",""4361""
","
","
","""event"",""trial"",""time""
""fullscreenenter"",""1"",""4361""
","
","","7863.900000000023","True or False: All the decks have some cards that cause you to win tokens and some cards that cause you to lose tokens.","84","","","2021-08-11 12:30:40.005","","","","","",""
"casino-keyboard-response","61","310598","0.0-20.0-1.0","889","false","img/card_backs/set1/green.gif","img/card_backs/set1/purple.gif","img/card_backs/set1/red.gif","img/card_backs/set1/yellow.gif","img/card_backs/set2/blue.gif","img/card_backs/set2/orange.gif","img/card_backs/set2/gray.gif","img/card_backs/set2/pink.gif","""event"",""trial"",""time""
""fullscreenenter"",""1"",""4361""
","
","
","""event"",""trial"",""time""
""fullscreenenter"",""1"",""4361""
","
","","4369.899999999907","True is correct! All the decks have a mix of winning and losing cards.","77","","","2021-08-11 12:30:44.377","","","","","true",""
"casino-comp_q","62","315200","0.0-21.0-0.0","889","false","img/card_backs/set1/green.gif","img/card_backs/set1/purple.gif","img/card_backs/set1/red.gif","img/card_backs/set1/yellow.gif","img/card_backs/set2/blue.gif","img/card_backs/set2/orange.gif","img/card_backs/set2/gray.gif","img/card_backs/set2/pink.gif","""event"",""trial"",""time""
""fullscreenenter"",""1"",""4361""
","
","
","""event"",""trial"",""time""
""fullscreenenter"",""1"",""4361""
","
","","4600.5","True or False: You will have as much time as you want to make your response.","70","","","2021-08-11 12:30:48.978","","","","","",""
"casino-keyboard-response","63","319058","0.0-21.0-1.0","889","false","img/card_backs/set1/green.gif","img/card_backs/set1/purple.gif","img/card_backs/set1/red.gif","img/card_backs/set1/yellow.gif","img/card_backs/set2/blue.gif","img/card_backs/set2/orange.gif","img/card_backs/set2/gray.gif","img/card_backs/set2/pink.gif","""event"",""trial"",""time""
""fullscreenenter"",""1"",""4361""
","
","
","""event"",""trial"",""time""
""fullscreenenter"",""1"",""4361""
","
","","3856.1999999999534","False is correct! You will only have 10 seconds to make each choice.","75","","","2021-08-11 12:30:52.836","","","","","true",""
"casino-comp_q","64","326440","0.0-22.0-0.0","889","false","img/card_backs/set1/green.gif","img/card_backs/set1/purple.gif","img/card_backs/set1/red.gif","img/card_backs/set1/yellow.gif","img/card_backs/set2/blue.gif","img/card_backs/set2/orange.gif","img/card_backs/set2/gray.gif","img/card_backs/set2/pink.gif","""event"",""trial"",""time""
""fullscreenenter"",""1"",""4361""
","
","
","""event"",""trial"",""time""
""fullscreenenter"",""1"",""4361""
","
","","7380.29999999993","True or False: The location of the deck determines how lucky it is.","70","","","2021-08-11 12:31:00.218","","","","","",""
"casino-keyboard-response","65","331453","0.0-22.0-1.0","889","false","img/card_backs/set1/green.gif","img/card_backs/set1/purple.gif","img/card_backs/set1/red.gif","img/card_backs/set1/yellow.gif","img/card_backs/set2/blue.gif","img/card_backs/set2/orange.gif","img/card_backs/set2/gray.gif","img/card_backs/set2/pink.gif","""event"",""trial"",""time""
""fullscreenenter"",""1"",""4361""
","
","
","""event"",""trial"",""time""
""fullscreenenter"",""1"",""4361""
","
","","5011.199999999953","False is correct! The <i>color</i>  of the deck determines how lucky or unlucky it is.","68","","","2021-08-11 12:31:05.231","","","","","true",""
"casino-keyboard-response","66","336328","0.0-23.0-0.0","889","false","img/card_backs/set1/green.gif","img/card_backs/set1/purple.gif","img/card_backs/set1/red.gif","img/card_backs/set1/yellow.gif","img/card_backs/set2/blue.gif","img/card_backs/set2/orange.gif","img/card_backs/set2/gray.gif","img/card_backs/set2/pink.gif","""event"",""trial"",""time""
""fullscreenenter"",""1"",""4361""
","
","
","""event"",""trial"",""time""
""fullscreenenter"",""1"",""4361""
","
","","4874.300000000047","Great job! Now it's time to start the real game.","82","","instructions","2021-08-11 12:31:10.106","","","","","",""
"casino-keyboard-response","67","342007","0.0-23.0-0.1","889","false","img/card_backs/set1/green.gif","img/card_backs/set1/purple.gif","img/card_backs/set1/red.gif","img/card_backs/set1/yellow.gif","img/card_backs/set2/blue.gif","img/card_backs/set2/orange.gif","img/card_backs/set2/gray.gif","img/card_backs/set2/pink.gif","""event"",""trial"",""time""
""fullscreenenter"",""1"",""4361""
","
","
","""event"",""trial"",""time""
""fullscreenenter"",""1"",""4361""
","
","","5678.600000000093","Before we start, we're going to head into a new room of the casino.","86","","instructions","2021-08-11 12:31:15.785","","","","","",""
"casino-keyboard-response","68","348379","0.0-24.0-0.0","889","false","img/card_backs/set1/green.gif","img/card_backs/set1/purple.gif","img/card_backs/set1/red.gif","img/card_backs/set1/yellow.gif","img/card_backs/set2/blue.gif","img/card_backs/set2/orange.gif","img/card_backs/set2/gray.gif","img/card_backs/set2/pink.gif","""event"",""trial"",""time""
""fullscreenenter"",""1"",""4361""
","
","
","""event"",""trial"",""time""
""fullscreenenter"",""1"",""4361""
","
","","6370.70000000007","Here we are! The real game will use different cards, but the rules will be the same.","71","","instructions","2021-08-11 12:31:22.157","","","","","",""
"casino-keyboard-response","69","357753","0.0-24.0-0.1","889","false","img/card_backs/set1/green.gif","img/card_backs/set1/purple.gif","img/card_backs/set1/red.gif","img/card_backs/set1/yellow.gif","img/card_backs/set2/blue.gif","img/card_backs/set2/orange.gif","img/card_backs/set2/gray.gif","img/card_backs/set2/pink.gif","""event"",""trial"",""time""
""fullscreenenter"",""1"",""4361""
","
","
","""event"",""trial"",""time""
""fullscreenenter"",""1"",""4361""
","
","","9373.800000000047","Ready? Put your fingers over the '2', '4', 6', and '8' keys so you are ready to play the game. </br> Then press 2 to start.","50","","instructions","2021-08-11 12:31:31.532","","","","","",""
"casino-fixation","70","358266","0.0-25.0-0.0","889","false","img/card_backs/set1/green.gif","img/card_backs/set1/purple.gif","img/card_backs/set1/red.gif","img/card_backs/set1/yellow.gif","img/card_backs/set2/blue.gif","img/card_backs/set2/orange.gif","img/card_backs/set2/gray.gif","img/card_backs/set2/pink.gif","""event"",""trial"",""time""
""fullscreenenter"",""1"",""4361""
","
","
","""event"",""trial"",""time""
""fullscreenenter"",""1"",""4361""
","
","","null","","null","","fixation","2021-08-11 12:31:32.044","","","","","",""
"card-selection-trial","71","361545","0.0-25.0-1.0","889","false","img/card_backs/set1/green.gif","img/card_backs/set1/purple.gif","img/card_backs/set1/red.gif","img/card_backs/set1/yellow.gif","img/card_backs/set2/blue.gif","img/card_backs/set2/orange.gif","img/card_backs/set2/gray.gif","img/card_backs/set2/pink.gif","""event"",""trial"",""time""
""fullscreenenter"",""1"",""4361""
","
","
","""event"",""trial"",""time""
""fullscreenenter"",""1"",""4361""
","
","","1270.1000000000931","","","","real_trial","2021-08-11 12:31:35.323","img/card_backs/set1/yellow.gif","0","110","1","",""
"casino-fixation","72","362066","0.0-25.0-0.1","889","false","img/card_backs/set1/green.gif","img/card_backs/set1/purple.gif","img/card_backs/set1/red.gif","img/card_backs/set1/yellow.gif","img/card_backs/set2/blue.gif","img/card_backs/set2/orange.gif","img/card_backs/set2/gray.gif","img/card_backs/set2/pink.gif","""event"",""trial"",""time""
""fullscreenenter"",""1"",""4361""
","
","
","""event"",""trial"",""time""
""fullscreenenter"",""1"",""4361""
","
","","null","","null","","fixation","2021-08-11 12:31:35.844","","","","","",""
"card-selection-trial","73","364845","0.0-25.0-1.1","889","false","img/card_backs/set1/green.gif","img/card_backs/set1/purple.gif","img/card_backs/set1/red.gif","img/card_backs/set1/yellow.gif","img/card_backs/set2/blue.gif","img/card_backs/set2/orange.gif","img/card_backs/set2/gray.gif","img/card_backs/set2/pink.gif","""event"",""trial"",""time""
""fullscreenenter"",""1"",""4361""
","
","
","""event"",""trial"",""time""
""fullscreenenter"",""1"",""4361""
","
","","755","","","","real_trial","2021-08-11 12:31:38.623","img/card_backs/set1/red.gif","2","-50","1","",""
"casino-fixation","74","365365","0.0-25.0-0.2","889","false","img/card_backs/set1/green.gif","img/card_backs/set1/purple.gif","img/card_backs/set1/red.gif","img/card_backs/set1/yellow.gif","img/card_backs/set2/blue.gif","img/card_backs/set2/orange.gif","img/card_backs/set2/gray.gif","img/card_backs/set2/pink.gif","""event"",""trial"",""time""
""fullscreenenter"",""1"",""4361""
","
","
","""event"",""trial"",""time""
""fullscreenenter"",""1"",""4361""
","
","","null","","null","","fixation","2021-08-11 12:31:39.144","","","","","",""
"card-selection-trial","75","367795","0.0-25.0-1.2","889","false","img/card_backs/set1/green.gif","img/card_backs/set1/purple.gif","img/card_backs/set1/red.gif","img/card_backs/set1/yellow.gif","img/card_backs/set2/blue.gif","img/card_backs/set2/orange.gif","img/card_backs/set2/gray.gif","img/card_backs/set2/pink.gif","""event"",""trial"",""time""
""fullscreenenter"",""1"",""4361""
","
","
","""event"",""trial"",""time""
""fullscreenenter"",""1"",""4361""
","
","","405.4000000000233","","","","real_trial","2021-08-11 12:31:41.574","img/card_backs/set1/yellow.gif","1","100","1","",""
"casino-fixation","76","368305","0.0-25.0-0.3","889","false","img/card_backs/set1/green.gif","img/card_backs/set1/purple.gif","img/card_backs/set1/red.gif","img/card_backs/set1/yellow.gif","img/card_backs/set2/blue.gif","img/card_backs/set2/orange.gif","img/card_backs/set2/gray.gif","img/card_backs/set2/pink.gif","""event"",""trial"",""time""
""fullscreenenter"",""1"",""4361""
","
","
","""event"",""trial"",""time""
""fullscreenenter"",""1"",""4361""
","
","","null","","null","","fixation","2021-08-11 12:31:42.083","","","","","",""
"card-selection-trial","77","370705","0.0-25.0-1.3","889","false","img/card_backs/set1/green.gif","img/card_backs/set1/purple.gif","img/card_backs/set1/red.gif","img/card_backs/set1/yellow.gif","img/card_backs/set2/blue.gif","img/card_backs/set2/orange.gif","img/card_backs/set2/gray.gif","img/card_backs/set2/pink.gif","""event"",""trial"",""time""
""fullscreenenter"",""1"",""4361""
","
","
","""event"",""trial"",""time""
""fullscreenenter"",""1"",""4361""
","
","","389.5999999999767","","","","real_trial","2021-08-11 12:31:44.483","img/card_backs/set1/yellow.gif","0","100","1","",""
"casino-fixation","78","371225","0.0-25.0-0.4","889","false","img/card_backs/set1/green.gif","img/card_backs/set1/purple.gif","img/card_backs/set1/red.gif","img/card_backs/set1/yellow.gif","img/card_backs/set2/blue.gif","img/card_backs/set2/orange.gif","img/card_backs/set2/gray.gif","img/card_backs/set2/pink.gif","""event"",""trial"",""time""
""fullscreenenter"",""1"",""4361""
","
","
","""event"",""trial"",""time""
""fullscreenenter"",""1"",""4361""
","
","","null","","null","","fixation","2021-08-11 12:31:45.003","","","","","",""
"card-selection-trial","79","373875","0.0-25.0-1.4","889","false","img/card_backs/set1/green.gif","img/card_backs/set1/purple.gif","img/card_backs/set1/red.gif","img/card_backs/set1/yellow.gif","img/card_backs/set2/blue.gif","img/card_backs/set2/orange.gif","img/card_backs/set2/gray.gif","img/card_backs/set2/pink.gif","""event"",""trial"",""time""
""fullscreenenter"",""1"",""4361""
","
","
","""event"",""trial"",""time""
""fullscreenenter"",""1"",""4361""
","
","","642.1000000000931","","","","real_trial","2021-08-11 12:31:47.653","img/card_backs/set1/yellow.gif","3","-60","1","",""
"casino-fixation","80","374385","0.0-25.0-0.5","889","false","img/card_backs/set1/green.gif","img/card_backs/set1/purple.gif","img/card_backs/set1/red.gif","img/card_backs/set1/yellow.gif","img/card_backs/set2/blue.gif","img/card_backs/set2/orange.gif","img/card_backs/set2/gray.gif","img/card_backs/set2/pink.gif","""event"",""trial"",""time""
""fullscreenenter"",""1"",""4361""
","
","
","""event"",""trial"",""time""
""fullscreenenter"",""1"",""4361""
","
","","null","","null","","fixation","2021-08-11 12:31:48.163","","","","","",""
"card-selection-trial","81","376835","0.0-25.0-1.5","889","false","img/card_backs/set1/green.gif","img/card_backs/set1/purple.gif","img/card_backs/set1/red.gif","img/card_backs/set1/yellow.gif","img/card_backs/set2/blue.gif","img/card_backs/set2/orange.gif","img/card_backs/set2/gray.gif","img/card_backs/set2/pink.gif","""event"",""trial"",""time""
""fullscreenenter"",""1"",""4361""
","
","
","""event"",""trial"",""time""
""fullscreenenter"",""1"",""4361""
","
","","443.79999999993015","","","","real_trial","2021-08-11 12:31:50.613","img/card_backs/set1/yellow.gif","1","-50","1","",""
"casino-fixation","82","377345","0.0-25.0-0.6","889","false","img/card_backs/set1/green.gif","img/card_backs/set1/purple.gif","img/card_backs/set1/red.gif","img/card_backs/set1/yellow.gif","img/card_backs/set2/blue.gif","img/card_backs/set2/orange.gif","img/card_backs/set2/gray.gif","img/card_backs/set2/pink.gif","""event"",""trial"",""time""
""fullscreenenter"",""1"",""4361""
","
","
","""event"",""trial"",""time""
""fullscreenenter"",""1"",""4361""
","
","","null","","null","","fixation","2021-08-11 12:31:51.123","","","","","",""
"card-selection-trial","83","379946","0.0-25.0-1.6","889","false","img/card_backs/set1/green.gif","img/card_backs/set1/purple.gif","img/card_backs/set1/red.gif","img/card_backs/set1/yellow.gif","img/card_backs/set2/blue.gif","img/card_backs/set2/orange.gif","img/card_backs/set2/gray.gif","img/card_backs/set2/pink.gif","""event"",""trial"",""time""
""fullscreenenter"",""1"",""4361""
","
","
","""event"",""trial"",""time""
""fullscreenenter"",""1"",""4361""
","
","","578.5","","","","real_trial","2021-08-11 12:31:53.724","img/card_backs/set1/green.gif","2","190","1","",""
"casino-fixation","84","380455","0.0-25.0-0.7","889","false","img/card_backs/set1/green.gif","img/card_backs/set1/purple.gif","img/card_backs/set1/red.gif","img/card_backs/set1/yellow.gif","img/card_backs/set2/blue.gif","img/card_backs/set2/orange.gif","img/card_backs/set2/gray.gif","img/card_backs/set2/pink.gif","""event"",""trial"",""time""
""fullscreenenter"",""1"",""4361""
","
","
","""event"",""trial"",""time""
""fullscreenenter"",""1"",""4361""
","
","","null","","null","","fixation","2021-08-11 12:31:54.233","","","","","",""
"card-selection-trial","85","382866","0.0-25.0-1.7","889","false","img/card_backs/set1/green.gif","img/card_backs/set1/purple.gif","img/card_backs/set1/red.gif","img/card_backs/set1/yellow.gif","img/card_backs/set2/blue.gif","img/card_backs/set2/orange.gif","img/card_backs/set2/gray.gif","img/card_backs/set2/pink.gif","""event"",""trial"",""time""
""fullscreenenter"",""1"",""4361""
","
","
","""event"",""trial"",""time""
""fullscreenenter"",""1"",""4361""
","
","","391.70000000006985","","","","real_trial","2021-08-11 12:31:56.644","img/card_backs/set1/red.gif","0","-70","1","",""
"casino-fixation","86","383385","0.0-25.0-0.8","889","false","img/card_backs/set1/green.gif","img/card_backs/set1/purple.gif","img/card_backs/set1/red.gif","img/card_backs/set1/yellow.gif","img/card_backs/set2/blue.gif","img/card_backs/set2/orange.gif","img/card_backs/set2/gray.gif","img/card_backs/set2/pink.gif","""event"",""trial"",""time""
""fullscreenenter"",""1"",""4361""
","
","
","""event"",""trial"",""time""
""fullscreenenter"",""1"",""4361""
","
","","null","","null","","fixation","2021-08-11 12:31:57.163","","","","","",""
"card-selection-trial","87","387096","0.0-25.0-1.8","889","false","img/card_backs/set1/green.gif","img/card_backs/set1/purple.gif","img/card_backs/set1/red.gif","img/card_backs/set1/yellow.gif","img/card_backs/set2/blue.gif","img/card_backs/set2/orange.gif","img/card_backs/set2/gray.gif","img/card_backs/set2/pink.gif","""event"",""trial"",""time""
""fullscreenenter"",""1"",""4361""
","
","
","""event"",""trial"",""time""
""fullscreenenter"",""1"",""4361""
","
","","1696.5","","","","real_trial","2021-08-11 12:32:00.874","img/card_backs/set1/purple.gif","3","-230","1","",""
"casino-fixation","88","387598","0.0-25.0-0.9","889","false","img/card_backs/set1/green.gif","img/card_backs/set1/purple.gif","img/card_backs/set1/red.gif","img/card_backs/set1/yellow.gif","img/card_backs/set2/blue.gif","img/card_backs/set2/orange.gif","img/card_backs/set2/gray.gif","img/card_backs/set2/pink.gif","""event"",""trial"",""time""
""fullscreenenter"",""1"",""4361""
","
","
","""event"",""trial"",""time""
""fullscreenenter"",""1"",""4361""
","
","","null","","null","","fixation","2021-08-11 12:32:01.376","","","","","",""
"card-selection-trial","89","390594","0.0-25.0-1.9","889","false","img/card_backs/set1/green.gif","img/card_backs/set1/purple.gif","img/card_backs/set1/red.gif","img/card_backs/set1/yellow.gif","img/card_backs/set2/blue.gif","img/card_backs/set2/orange.gif","img/card_backs/set2/gray.gif","img/card_backs/set2/pink.gif","""event"",""trial"",""time""
""fullscreenenter"",""1"",""4361""
","
","
","""event"",""trial"",""time""
""fullscreenenter"",""1"",""4361""
","
","","992.3000000000466","","","","real_trial","2021-08-11 12:32:04.372","img/card_backs/set1/green.gif","1","190","1","",""
"casino-fixation","90","391095","0.0-25.0-0.10","889","false","img/card_backs/set1/green.gif","img/card_backs/set1/purple.gif","img/card_backs/set1/red.gif","img/card_backs/set1/yellow.gif","img/card_backs/set2/blue.gif","img/card_backs/set2/orange.gif","img/card_backs/set2/gray.gif","img/card_backs/set2/pink.gif","""event"",""trial"",""time""
""fullscreenenter"",""1"",""4361""
","
","
","""event"",""trial"",""time""
""fullscreenenter"",""1"",""4361""
","
","","null","","null","","fixation","2021-08-11 12:32:04.873","","","","","",""
"card-selection-trial","91","394261","0.0-25.0-1.10","889","false","img/card_backs/set1/green.gif","img/card_backs/set1/purple.gif","img/card_backs/set1/red.gif","img/card_backs/set1/yellow.gif","img/card_backs/set2/blue.gif","img/card_backs/set2/orange.gif","img/card_backs/set2/gray.gif","img/card_backs/set2/pink.gif","""event"",""trial"",""time""
""fullscreenenter"",""1"",""4361""
","
","
","""event"",""trial"",""time""
""fullscreenenter"",""1"",""4361""
","
","","1161.5","","","","real_trial","2021-08-11 12:32:08.039","img/card_backs/set1/purple.gif","2","180","1","",""
"casino-fixation","92","394762","0.0-25.0-0.11","889","false","img/card_backs/set1/green.gif","img/card_backs/set1/purple.gif","img/card_backs/set1/red.gif","img/card_backs/set1/yellow.gif","img/card_backs/set2/blue.gif","img/card_backs/set2/orange.gif","img/card_backs/set2/gray.gif","img/card_backs/set2/pink.gif","""event"",""trial"",""time""
""fullscreenenter"",""1"",""4361""
","
","
","""event"",""trial"",""time""
""fullscreenenter"",""1"",""4361""
","
","","null","","null","","fixation","2021-08-11 12:32:08.540","","","","","",""
"card-selection-trial","93","398025","0.0-25.0-1.11","889","false","img/card_backs/set1/green.gif","img/card_backs/set1/purple.gif","img/card_backs/set1/red.gif","img/card_backs/set1/yellow.gif","img/card_backs/set2/blue.gif","img/card_backs/set2/orange.gif","img/card_backs/set2/gray.gif","img/card_backs/set2/pink.gif","""event"",""trial"",""time""
""fullscreenenter"",""1"",""4361""
","
","
","""event"",""trial"",""time""
""fullscreenenter"",""1"",""4361""
","
","","1258","","","","real_trial","2021-08-11 12:32:11.803","img/card_backs/set1/red.gif","0","110","1","",""
"casino-fixation","94","398528","0.0-25.0-0.12","889","false","img/card_backs/set1/green.gif","img/card_backs/set1/purple.gif","img/card_backs/set1/red.gif","img/card_backs/set1/yellow.gif","img/card_backs/set2/blue.gif","img/card_backs/set2/orange.gif","img/card_backs/set2/gray.gif","img/card_backs/set2/pink.gif","""event"",""trial"",""time""
""fullscreenenter"",""1"",""4361""
","
","
","""event"",""trial"",""time""
""fullscreenenter"",""1"",""4361""
","
","","null","","null","","fixation","2021-08-11 12:32:12.306","","","","","",""
"card-selection-trial","95","401105","0.0-25.0-1.12","889","false","img/card_backs/set1/green.gif","img/card_backs/set1/purple.gif","img/card_backs/set1/red.gif","img/card_backs/set1/yellow.gif","img/card_backs/set2/blue.gif","img/card_backs/set2/orange.gif","img/card_backs/set2/gray.gif","img/card_backs/set2/pink.gif","""event"",""trial"",""time""
""fullscreenenter"",""1"",""4361""
","
","
","""event"",""trial"",""time""
""fullscreenenter"",""1"",""4361""
","
","","574.7000000000698","","","","real_trial","2021-08-11 12:32:14.883","img/card_backs/set1/green.gif","2","-250","1","",""
"casino-fixation","96","401607","0.0-25.0-0.13","889","false","img/card_backs/set1/green.gif","img/card_backs/set1/purple.gif","img/card_backs/set1/red.gif","img/card_backs/set1/yellow.gif","img/card_backs/set2/blue.gif","img/card_backs/set2/orange.gif","img/card_backs/set2/gray.gif","img/card_backs/set2/pink.gif","""event"",""trial"",""time""
""fullscreenenter"",""1"",""4361""
","
","
","""event"",""trial"",""time""
""fullscreenenter"",""1"",""4361""
","
","","null","","null","","fixation","2021-08-11 12:32:15.385","","","","","",""
"card-selection-trial","97","404998","0.0-25.0-1.13","889","false","img/card_backs/set1/green.gif","img/card_backs/set1/purple.gif","img/card_backs/set1/red.gif","img/card_backs/set1/yellow.gif","img/card_backs/set2/blue.gif","img/card_backs/set2/orange.gif","img/card_backs/set2/gray.gif","img/card_backs/set2/pink.gif","""event"",""trial"",""time""
""fullscreenenter"",""1"",""4361""
","
","
","""event"",""trial"",""time""
""fullscreenenter"",""1"",""4361""
","
","","1386.8999999999069","","","","real_trial","2021-08-11 12:32:18.776","img/card_backs/set1/yellow.gif","3","-70","1","",""
"casino-fixation","98","405501","0.0-25.0-0.14","889","false","img/card_backs/set1/green.gif","img/card_backs/set1/purple.gif","img/card_backs/set1/red.gif","img/card_backs/set1/yellow.gif","img/card_backs/set2/blue.gif","img/card_backs/set2/orange.gif","img/card_backs/set2/gray.gif","img/card_backs/set2/pink.gif","""event"",""trial"",""time""
""fullscreenenter"",""1"",""4361""
","
","
","""event"",""trial"",""time""
""fullscreenenter"",""1"",""4361""
","
","","null","","null","","fixation","2021-08-11 12:32:19.279","","","","","",""
"card-selection-trial","99","408695","0.0-25.0-1.14","889","false","img/card_backs/set1/green.gif","img/card_backs/set1/purple.gif","img/card_backs/set1/red.gif","img/card_backs/set1/yellow.gif","img/card_backs/set2/blue.gif","img/card_backs/set2/orange.gif","img/card_backs/set2/gray.gif","img/card_backs/set2/pink.gif","""event"",""trial"",""time""
""fullscreenenter"",""1"",""4361""
","
","
","""event"",""trial"",""time""
""fullscreenenter"",""1"",""4361""
","
","","1190.8999999999069","","","","real_trial","2021-08-11 12:32:22.473","img/card_backs/set1/yellow.gif","1","110","1","",""
"casino-fixation","100","409196","0.0-25.0-0.15","889","false","img/card_backs/set1/green.gif","img/card_backs/set1/purple.gif","img/card_backs/set1/red.gif","img/card_backs/set1/yellow.gif","img/card_backs/set2/blue.gif","img/card_backs/set2/orange.gif","img/card_backs/set2/gray.gif","img/card_backs/set2/pink.gif","""event"",""trial"",""time""
""fullscreenenter"",""1"",""4361""
","
","
","""event"",""trial"",""time""
""fullscreenenter"",""1"",""4361""
","
","","null","","null","","fixation","2021-08-11 12:32:22.974","","","","","",""
"card-selection-trial","101","412021","0.0-25.0-1.15","889","false","img/card_backs/set1/green.gif","img/card_backs/set1/purple.gif","img/card_backs/set1/red.gif","img/card_backs/set1/yellow.gif","img/card_backs/set2/blue.gif","img/card_backs/set2/orange.gif","img/card_backs/set2/gray.gif","img/card_backs/set2/pink.gif","""event"",""trial"",""time""
""fullscreenenter"",""1"",""4361""
","
","
","""event"",""trial"",""time""
""fullscreenenter"",""1"",""4361""
","
","","820.5999999999767","","","","real_trial","2021-08-11 12:32:25.799","img/card_backs/set1/yellow.gif","1","-50","1","",""
"casino-fixation","102","412523","0.0-25.0-0.16","889","false","img/card_backs/set1/green.gif","img/card_backs/set1/purple.gif","img/card_backs/set1/red.gif","img/card_backs/set1/yellow.gif","img/card_backs/set2/blue.gif","img/card_backs/set2/orange.gif","img/card_backs/set2/gray.gif","img/card_backs/set2/pink.gif","""event"",""trial"",""time""
""fullscreenenter"",""1"",""4361""
","
","
","""event"",""trial"",""time""
""fullscreenenter"",""1"",""4361""
","
","","null","","null","","fixation","2021-08-11 12:32:26.301","","","","","",""
"card-selection-trial","103","415070","0.0-25.0-1.16","889","false","img/card_backs/set1/green.gif","img/card_backs/set1/purple.gif","img/card_backs/set1/red.gif","img/card_backs/set1/yellow.gif","img/card_backs/set2/blue.gif","img/card_backs/set2/orange.gif","img/card_backs/set2/gray.gif","img/card_backs/set2/pink.gif","""event"",""trial"",""time""
""fullscreenenter"",""1"",""4361""
","
","
","""event"",""trial"",""time""
""fullscreenenter"",""1"",""4361""
","
","","538.8000000000466","","","","real_trial","2021-08-11 12:32:28.848","img/card_backs/set1/green.gif","2","-230","1","",""
"casino-fixation","104","415572","0.0-25.0-0.17","889","false","img/card_backs/set1/green.gif","img/card_backs/set1/purple.gif","img/card_backs/set1/red.gif","img/card_backs/set1/yellow.gif","img/card_backs/set2/blue.gif","img/card_backs/set2/orange.gif","img/card_backs/set2/gray.gif","img/card_backs/set2/pink.gif","""event"",""trial"",""time""
""fullscreenenter"",""1"",""4361""
","
","
","""event"",""trial"",""time""
""fullscreenenter"",""1"",""4361""
","
","","null","","null","","fixation","2021-08-11 12:32:29.350","","","","","",""
"card-selection-trial","105","419030","0.0-25.0-1.17","889","false","img/card_backs/set1/green.gif","img/card_backs/set1/purple.gif","img/card_backs/set1/red.gif","img/card_backs/set1/yellow.gif","img/card_backs/set2/blue.gif","img/card_backs/set2/orange.gif","img/card_backs/set2/gray.gif","img/card_backs/set2/pink.gif","""event"",""trial"",""time""
""fullscreenenter"",""1"",""4361""
","
","
","""event"",""trial"",""time""
""fullscreenenter"",""1"",""4361""
","
","","1452.1999999999534","","","","real_trial","2021-08-11 12:32:32.808","img/card_backs/set1/green.gif","0","200","1","",""
"casino-fixation","106","419532","0.0-25.0-0.18","889","false","img/card_backs/set1/green.gif","img/card_backs/set1/purple.gif","img/card_backs/set1/red.gif","img/card_backs/set1/yellow.gif","img/card_backs/set2/blue.gif","img/card_backs/set2/orange.gif","img/card_backs/set2/gray.gif","img/card_backs/set2/pink.gif","""event"",""trial"",""time""
""fullscreenenter"",""1"",""4361""
","
","
","""event"",""trial"",""time""
""fullscreenenter"",""1"",""4361""
","
","","null","","null","","fixation","2021-08-11 12:32:33.310","","","","","",""
"card-selection-trial","107","421851","0.0-25.0-1.18","889","false","img/card_backs/set1/green.gif","img/card_backs/set1/purple.gif","img/card_backs/set1/red.gif","img/card_backs/set1/yellow.gif","img/card_backs/set2/blue.gif","img/card_backs/set2/orange.gif","img/card_backs/set2/gray.gif","img/card_backs/set2/pink.gif","""event"",""trial"",""time""
""fullscreenenter"",""1"",""4361""
","
","
","""event"",""trial"",""time""
""fullscreenenter"",""1"",""4361""
","
","","312.9000000000233","","","","real_trial","2021-08-11 12:32:35.629","img/card_backs/set1/red.gif","1","110","1","",""
"casino-fixation","108","422356","0.0-25.0-0.19","889","false","img/card_backs/set1/green.gif","img/card_backs/set1/purple.gif","img/card_backs/set1/red.gif","img/card_backs/set1/yellow.gif","img/card_backs/set2/blue.gif","img/card_backs/set2/orange.gif","img/card_backs/set2/gray.gif","img/card_backs/set2/pink.gif","""event"",""trial"",""time""
""fullscreenenter"",""1"",""4361""
","
","
","""event"",""trial"",""time""
""fullscreenenter"",""1"",""4361""
","
","","null","","null","","fixation","2021-08-11 12:32:36.134","","","","","",""
"card-selection-trial","109","424746","0.0-25.0-1.19","889","false","img/card_backs/set1/green.gif","img/card_backs/set1/purple.gif","img/card_backs/set1/red.gif","img/card_backs/set1/yellow.gif","img/card_backs/set2/blue.gif","img/card_backs/set2/orange.gif","img/card_backs/set2/gray.gif","img/card_backs/set2/pink.gif","""event"",""trial"",""time""
""fullscreenenter"",""1"",""4361""
","
","
","""event"",""trial"",""time""
""fullscreenenter"",""1"",""4361""
","
","","384","","","","real_trial","2021-08-11 12:32:38.524","img/card_backs/set1/yellow.gif","0","120","1","",""
"casino-fixation","110","425248","0.0-25.0-0.20","889","false","img/card_backs/set1/green.gif","img/card_backs/set1/purple.gif","img/card_backs/set1/red.gif","img/card_backs/set1/yellow.gif","img/card_backs/set2/blue.gif","img/card_backs/set2/orange.gif","img/card_backs/set2/gray.gif","img/card_backs/set2/pink.gif","""event"",""trial"",""time""
""fullscreenenter"",""1"",""4361""
","
","
","""event"",""trial"",""time""
""fullscreenenter"",""1"",""4361""
","
","","null","","null","","fixation","2021-08-11 12:32:39.026","","","","","",""
"card-selection-trial","111","427690","0.0-25.0-1.20","889","false","img/card_backs/set1/green.gif","img/card_backs/set1/purple.gif","img/card_backs/set1/red.gif","img/card_backs/set1/yellow.gif","img/card_backs/set2/blue.gif","img/card_backs/set2/orange.gif","img/card_backs/set2/gray.gif","img/card_backs/set2/pink.gif","""event"",""trial"",""time""
""fullscreenenter"",""1"",""4361""
","
","
","""event"",""trial"",""time""
""fullscreenenter"",""1"",""4361""
","
","","436.30000000004657","","","","real_trial","2021-08-11 12:32:41.468","img/card_backs/set1/yellow.gif","1","110","1","",""
"casino-fixation","112","428192","0.0-25.0-0.21","889","false","img/card_backs/set1/green.gif","img/card_backs/set1/purple.gif","img/card_backs/set1/red.gif","img/card_backs/set1/yellow.gif","img/card_backs/set2/blue.gif","img/card_backs/set2/orange.gif","img/card_backs/set2/gray.gif","img/card_backs/set2/pink.gif","""event"",""trial"",""time""
""fullscreenenter"",""1"",""4361""
","
","
","""event"",""trial"",""time""
""fullscreenenter"",""1"",""4361""
","
","","null","","null","","fixation","2021-08-11 12:32:41.971","","","","","",""
"card-selection-trial","113","430511","0.0-25.0-1.21","889","false","img/card_backs/set1/green.gif","img/card_backs/set1/purple.gif","img/card_backs/set1/red.gif","img/card_backs/set1/yellow.gif","img/card_backs/set2/blue.gif","img/card_backs/set2/orange.gif","img/card_backs/set2/gray.gif","img/card_backs/set2/pink.gif","""event"",""trial"",""time""
""fullscreenenter"",""1"",""4361""
","
","
","""event"",""trial"",""time""
""fullscreenenter"",""1"",""4361""
","
","","315.20000000006985","","","","real_trial","2021-08-11 12:32:44.289","img/card_backs/set1/purple.gif","0","-240","1","",""
"casino-fixation","114","431012","0.0-25.0-0.22","889","false","img/card_backs/set1/green.gif","img/card_backs/set1/purple.gif","img/card_backs/set1/red.gif","img/card_backs/set1/yellow.gif","img/card_backs/set2/blue.gif","img/card_backs/set2/orange.gif","img/card_backs/set2/gray.gif","img/card_backs/set2/pink.gif","""event"",""trial"",""time""
""fullscreenenter"",""1"",""4361""
","
","
","""event"",""trial"",""time""
""fullscreenenter"",""1"",""4361""
","
","","null","","null","","fixation","2021-08-11 12:32:44.790","","","","","",""
"card-selection-trial","115","433576","0.0-25.0-1.22","889","false","img/card_backs/set1/green.gif","img/card_backs/set1/purple.gif","img/card_backs/set1/red.gif","img/card_backs/set1/yellow.gif","img/card_backs/set2/blue.gif","img/card_backs/set2/orange.gif","img/card_backs/set2/gray.gif","img/card_backs/set2/pink.gif","""event"",""trial"",""time""
""fullscreenenter"",""1"",""4361""
","
","
","""event"",""trial"",""time""
""fullscreenenter"",""1"",""4361""
","
","","551.9000000000233","","","","real_trial","2021-08-11 12:32:47.354","img/card_backs/set1/red.gif","1","-60","1","",""
"casino-fixation","116","434079","0.0-25.0-0.23","889","false","img/card_backs/set1/green.gif","img/card_backs/set1/purple.gif","img/card_backs/set1/red.gif","img/card_backs/set1/yellow.gif","img/card_backs/set2/blue.gif","img/card_backs/set2/orange.gif","img/card_backs/set2/gray.gif","img/card_backs/set2/pink.gif","""event"",""trial"",""time""
""fullscreenenter"",""1"",""4361""
","
","
","""event"",""trial"",""time""
""fullscreenenter"",""1"",""4361""
","
","","null","","null","","fixation","2021-08-11 12:32:47.857","","","","","",""
"card-selection-trial","117","439102","0.0-25.0-1.23","889","false","img/card_backs/set1/green.gif","img/card_backs/set1/purple.gif","img/card_backs/set1/red.gif","img/card_backs/set1/yellow.gif","img/card_backs/set2/blue.gif","img/card_backs/set2/orange.gif","img/card_backs/set2/gray.gif","img/card_backs/set2/pink.gif","""event"",""trial"",""time""
""fullscreenenter"",""1"",""4361""
","
","
","""event"",""trial"",""time""
""fullscreenenter"",""1"",""4361""
","
","","3018.79999999993","","","","real_trial","2021-08-11 12:32:52.880","img/card_backs/set1/green.gif","2","-230","1","",""
"casino-fixation","118","439604","0.0-25.0-0.24","889","false","img/card_backs/set1/green.gif","img/card_backs/set1/purple.gif","img/card_backs/set1/red.gif","img/card_backs/set1/yellow.gif","img/card_backs/set2/blue.gif","img/card_backs/set2/orange.gif","img/card_backs/set2/gray.gif","img/card_backs/set2/pink.gif","""event"",""trial"",""time""
""fullscreenenter"",""1"",""4361""
","
","
","""event"",""trial"",""time""
""fullscreenenter"",""1"",""4361""
","
","","null","","null","","fixation","2021-08-11 12:32:53.382","","","","","",""
"card-selection-trial","119","441969","0.0-25.0-1.24","889","false","img/card_backs/set1/green.gif","img/card_backs/set1/purple.gif","img/card_backs/set1/red.gif","img/card_backs/set1/yellow.gif","img/card_backs/set2/blue.gif","img/card_backs/set2/orange.gif","img/card_backs/set2/gray.gif","img/card_backs/set2/pink.gif","""event"",""trial"",""time""
""fullscreenenter"",""1"",""4361""
","
","
","""event"",""trial"",""time""
""fullscreenenter"",""1"",""4361""
","
","","358.69999999995343","","","","real_trial","2021-08-11 12:32:55.747","img/card_backs/set1/yellow.gif","3","-70","1","",""
"casino-fixation","120","442484","0.0-25.0-0.25","889","false","img/card_backs/set1/green.gif","img/card_backs/set1/purple.gif","img/card_backs/set1/red.gif","img/card_backs/set1/yellow.gif","img/card_backs/set2/blue.gif","img/card_backs/set2/orange.gif","img/card_backs/set2/gray.gif","img/card_backs/set2/pink.gif","""event"",""trial"",""time""
""fullscreenenter"",""1"",""4361""
","
","
","""event"",""trial"",""time""
""fullscreenenter"",""1"",""4361""
","
","","null","","null","","fixation","2021-08-11 12:32:56.262","","","","","",""
"card-selection-trial","121","444975","0.0-25.0-1.25","889","false","img/card_backs/set1/green.gif","img/card_backs/set1/purple.gif","img/card_backs/set1/red.gif","img/card_backs/set1/yellow.gif","img/card_backs/set2/blue.gif","img/card_backs/set2/orange.gif","img/card_backs/set2/gray.gif","img/card_backs/set2/pink.gif","""event"",""trial"",""time""
""fullscreenenter"",""1"",""4361""
","
","
","""event"",""trial"",""time""
""fullscreenenter"",""1"",""4361""
","
","","484.5999999999767","","","","real_trial","2021-08-11 12:32:58.753","img/card_backs/set1/green.gif","0","-230","1","",""
"casino-fixation","122","445477","0.0-25.0-0.26","889","false","img/card_backs/set1/green.gif","img/card_backs/set1/purple.gif","img/card_backs/set1/red.gif","img/card_backs/set1/yellow.gif","img/card_backs/set2/blue.gif","img/card_backs/set2/orange.gif","img/card_backs/set2/gray.gif","img/card_backs/set2/pink.gif","""event"",""trial"",""time""
""fullscreenenter"",""1"",""4361""
","
","
","""event"",""trial"",""time""
""fullscreenenter"",""1"",""4361""
","
","","null","","null","","fixation","2021-08-11 12:32:59.255","","","","","",""
"card-selection-trial","123","447817","0.0-25.0-1.26","889","false","img/card_backs/set1/green.gif","img/card_backs/set1/purple.gif","img/card_backs/set1/red.gif","img/card_backs/set1/yellow.gif","img/card_backs/set2/blue.gif","img/card_backs/set2/orange.gif","img/card_backs/set2/gray.gif","img/card_backs/set2/pink.gif","""event"",""trial"",""time""
""fullscreenenter"",""1"",""4361""
","
","
","""event"",""trial"",""time""
""fullscreenenter"",""1"",""4361""
","
","","334.19999999995343","","","","real_trial","2021-08-11 12:33:01.595","img/card_backs/set1/green.gif","1","180","1","",""
"casino-fixation","124","448317","0.0-25.0-0.27","889","false","img/card_backs/set1/green.gif","img/card_backs/set1/purple.gif","img/card_backs/set1/red.gif","img/card_backs/set1/yellow.gif","img/card_backs/set2/blue.gif","img/card_backs/set2/orange.gif","img/card_backs/set2/gray.gif","img/card_backs/set2/pink.gif","""event"",""trial"",""time""
""fullscreenenter"",""1"",""4361""
","
","
","""event"",""trial"",""time""
""fullscreenenter"",""1"",""4361""
","
","","null","","null","","fixation","2021-08-11 12:33:02.095","","","","","",""
"card-selection-trial","125","451419","0.0-25.0-1.27","889","false","img/card_backs/set1/green.gif","img/card_backs/set1/purple.gif","img/card_backs/set1/red.gif","img/card_backs/set1/yellow.gif","img/card_backs/set2/blue.gif","img/card_backs/set2/orange.gif","img/card_backs/set2/gray.gif","img/card_backs/set2/pink.gif","""event"",""trial"",""time""
""fullscreenenter"",""1"",""4361""
","
","
","""event"",""trial"",""time""
""fullscreenenter"",""1"",""4361""
","
","","1098.7000000000698","","","","real_trial","2021-08-11 12:33:05.197","img/card_backs/set1/yellow.gif","0","100","1","",""
"casino-fixation","126","451920","0.0-25.0-0.28","889","false","img/card_backs/set1/green.gif","img/card_backs/set1/purple.gif","img/card_backs/set1/red.gif","img/card_backs/set1/yellow.gif","img/card_backs/set2/blue.gif","img/card_backs/set2/orange.gif","img/card_backs/set2/gray.gif","img/card_backs/set2/pink.gif","""event"",""trial"",""time""
""fullscreenenter"",""1"",""4361""
","
","
","""event"",""trial"",""time""
""fullscreenenter"",""1"",""4361""
","
","","null","","null","","fixation","2021-08-11 12:33:05.699","","","","","",""
"card-selection-trial","127","454477","0.0-25.0-1.28","889","false","img/card_backs/set1/green.gif","img/card_backs/set1/purple.gif","img/card_backs/set1/red.gif","img/card_backs/set1/yellow.gif","img/card_backs/set2/blue.gif","img/card_backs/set2/orange.gif","img/card_backs/set2/gray.gif","img/card_backs/set2/pink.gif","""event"",""trial"",""time""
""fullscreenenter"",""1"",""4361""
","
","
","""event"",""trial"",""time""
""fullscreenenter"",""1"",""4361""
","
","","551.2999999999302","","","","real_trial","2021-08-11 12:33:08.255","img/card_backs/set1/yellow.gif","1","120","1","",""
"casino-fixation","128","454979","0.0-25.0-0.29","889","false","img/card_backs/set1/green.gif","img/card_backs/set1/purple.gif","img/card_backs/set1/red.gif","img/card_backs/set1/yellow.gif","img/card_backs/set2/blue.gif","img/card_backs/set2/orange.gif","img/card_backs/set2/gray.gif","img/card_backs/set2/pink.gif","""event"",""trial"",""time""
""fullscreenenter"",""1"",""4361""
","
","
","""event"",""trial"",""time""
""fullscreenenter"",""1"",""4361""
","
","","null","","null","","fixation","2021-08-11 12:33:08.757","","","","","",""
"card-selection-trial","129","458340","0.0-25.0-1.29","889","false","img/card_backs/set1/green.gif","img/card_backs/set1/purple.gif","img/card_backs/set1/red.gif","img/card_backs/set1/yellow.gif","img/card_backs/set2/blue.gif","img/card_backs/set2/orange.gif","img/card_backs/set2/gray.gif","img/card_backs/set2/pink.gif","""event"",""trial"",""time""
""fullscreenenter"",""1"",""4361""
","
","
","""event"",""trial"",""time""
""fullscreenenter"",""1"",""4361""
","
","","1356.1999999999534","","","","real_trial","2021-08-11 12:33:12.118","img/card_backs/set1/green.gif","2","180","1","",""
"casino-fixation","130","458843","0.0-25.0-0.30","889","false","img/card_backs/set1/green.gif","img/card_backs/set1/purple.gif","img/card_backs/set1/red.gif","img/card_backs/set1/yellow.gif","img/card_backs/set2/blue.gif","img/card_backs/set2/orange.gif","img/card_backs/set2/gray.gif","img/card_backs/set2/pink.gif","""event"",""trial"",""time""
""fullscreenenter"",""1"",""4361""
","
","
","""event"",""trial"",""time""
""fullscreenenter"",""1"",""4361""
","
","","null","","null","","fixation","2021-08-11 12:33:12.621","","","","","",""
"card-selection-trial","131","461286","0.0-25.0-1.30","889","false","img/card_backs/set1/green.gif","img/card_backs/set1/purple.gif","img/card_backs/set1/red.gif","img/card_backs/set1/yellow.gif","img/card_backs/set2/blue.gif","img/card_backs/set2/orange.gif","img/card_backs/set2/gray.gif","img/card_backs/set2/pink.gif","""event"",""trial"",""time""
""fullscreenenter"",""1"",""4361""
","
","
","""event"",""trial"",""time""
""fullscreenenter"",""1"",""4361""
","
","","435.19999999995343","","","","real_trial","2021-08-11 12:33:15.064","img/card_backs/set1/green.gif","0","190","1","",""
"casino-fixation","132","461788","0.0-25.0-0.31","889","false","img/card_backs/set1/green.gif","img/card_backs/set1/purple.gif","img/card_backs/set1/red.gif","img/card_backs/set1/yellow.gif","img/card_backs/set2/blue.gif","img/card_backs/set2/orange.gif","img/card_backs/set2/gray.gif","img/card_backs/set2/pink.gif","""event"",""trial"",""time""
""fullscreenenter"",""1"",""4361""
","
","
","""event"",""trial"",""time""
""fullscreenenter"",""1"",""4361""
","
","","null","","null","","fixation","2021-08-11 12:33:15.567","","","","","",""
"card-selection-trial","133","464045","0.0-25.0-1.31","889","false","img/card_backs/set1/green.gif","img/card_backs/set1/purple.gif","img/card_backs/set1/red.gif","img/card_backs/set1/yellow.gif","img/card_backs/set2/blue.gif","img/card_backs/set2/orange.gif","img/card_backs/set2/gray.gif","img/card_backs/set2/pink.gif","""event"",""trial"",""time""
""fullscreenenter"",""1"",""4361""
","
","
","""event"",""trial"",""time""
""fullscreenenter"",""1"",""4361""
","
","","250.69999999995343","","","","real_trial","2021-08-11 12:33:17.823","img/card_backs/set1/green.gif","1","190","1","",""
"casino-fixation","134","464548","0.0-25.0-0.32","889","false","img/card_backs/set1/green.gif","img/card_backs/set1/purple.gif","img/card_backs/set1/red.gif","img/card_backs/set1/yellow.gif","img/card_backs/set2/blue.gif","img/card_backs/set2/orange.gif","img/card_backs/set2/gray.gif","img/card_backs/set2/pink.gif","""event"",""trial"",""time""
""fullscreenenter"",""1"",""4361""
","
","
","""event"",""trial"",""time""
""fullscreenenter"",""1"",""4361""
","
","","null","","null","","fixation","2021-08-11 12:33:18.327","","","","","",""
"card-selection-trial","135","467271","0.0-25.0-1.32","889","false","img/card_backs/set1/green.gif","img/card_backs/set1/purple.gif","img/card_backs/set1/red.gif","img/card_backs/set1/yellow.gif","img/card_backs/set2/blue.gif","img/card_backs/set2/orange.gif","img/card_backs/set2/gray.gif","img/card_backs/set2/pink.gif","""event"",""trial"",""time""
""fullscreenenter"",""1"",""4361""
","
","
","""event"",""trial"",""time""
""fullscreenenter"",""1"",""4361""
","
","","716.5999999999767","","","","real_trial","2021-08-11 12:33:21.049","img/card_backs/set1/green.gif","2","-240","1","",""
"casino-fixation","136","467773","0.0-25.0-0.33","889","false","img/card_backs/set1/green.gif","img/card_backs/set1/purple.gif","img/card_backs/set1/red.gif","img/card_backs/set1/yellow.gif","img/card_backs/set2/blue.gif","img/card_backs/set2/orange.gif","img/card_backs/set2/gray.gif","img/card_backs/set2/pink.gif","""event"",""trial"",""time""
""fullscreenenter"",""1"",""4361""
","
","
","""event"",""trial"",""time""
""fullscreenenter"",""1"",""4361""
","
","","null","","null","","fixation","2021-08-11 12:33:21.551","","","","","",""
"card-selection-trial","137","470879","0.0-25.0-1.33","889","false","img/card_backs/set1/green.gif","img/card_backs/set1/purple.gif","img/card_backs/set1/red.gif","img/card_backs/set1/yellow.gif","img/card_backs/set2/blue.gif","img/card_backs/set2/orange.gif","img/card_backs/set2/gray.gif","img/card_backs/set2/pink.gif","""event"",""trial"",""time""
""fullscreenenter"",""1"",""4361""
","
","
","""event"",""trial"",""time""
""fullscreenenter"",""1"",""4361""
","
","","1084.3000000000466","","","","real_trial","2021-08-11 12:33:24.657","img/card_backs/set1/green.gif","3","-240","1","",""
"casino-fixation","138","471382","0.0-25.0-0.34","889","false","img/card_backs/set1/green.gif","img/card_backs/set1/purple.gif","img/card_backs/set1/red.gif","img/card_backs/set1/yellow.gif","img/card_backs/set2/blue.gif","img/card_backs/set2/orange.gif","img/card_backs/set2/gray.gif","img/card_backs/set2/pink.gif","""event"",""trial"",""time""
""fullscreenenter"",""1"",""4361""
","
","
","""event"",""trial"",""time""
""fullscreenenter"",""1"",""4361""
","
","","null","","null","","fixation","2021-08-11 12:33:25.160","","","","","",""
"card-selection-trial","139","473475","0.0-25.0-1.34","889","false","img/card_backs/set1/green.gif","img/card_backs/set1/purple.gif","img/card_backs/set1/red.gif","img/card_backs/set1/yellow.gif","img/card_backs/set2/blue.gif","img/card_backs/set2/orange.gif","img/card_backs/set2/gray.gif","img/card_backs/set2/pink.gif","""event"",""trial"",""time""
""fullscreenenter"",""1"",""4361""
","
","
","""event"",""trial"",""time""
""fullscreenenter"",""1"",""4361""
","
","","88.69999999995343","","","","real_trial","2021-08-11 12:33:27.253","img/card_backs/set1/purple.gif","1","180","1","",""
"casino-fixation","140","473977","0.0-25.0-0.35","889","false","img/card_backs/set1/green.gif","img/card_backs/set1/purple.gif","img/card_backs/set1/red.gif","img/card_backs/set1/yellow.gif","img/card_backs/set2/blue.gif","img/card_backs/set2/orange.gif","img/card_backs/set2/gray.gif","img/card_backs/set2/pink.gif","""event"",""trial"",""time""
""fullscreenenter"",""1"",""4361""
","
","
","""event"",""trial"",""time""
""fullscreenenter"",""1"",""4361""
","
","","null","","null","","fixation","2021-08-11 12:33:27.755","","","","","",""
"card-selection-trial","141","476695","0.0-25.0-1.35","889","false","img/card_backs/set1/green.gif","img/card_backs/set1/purple.gif","img/card_backs/set1/red.gif","img/card_backs/set1/yellow.gif","img/card_backs/set2/blue.gif","img/card_backs/set2/orange.gif","img/card_backs/set2/gray.gif","img/card_backs/set2/pink.gif","""event"",""trial"",""time""
""fullscreenenter"",""1"",""4361""
","
","
","""event"",""trial"",""time""
""fullscreenenter"",""1"",""4361""
","
","","709.7999999999302","","","","real_trial","2021-08-11 12:33:30.473","img/card_backs/set1/green.gif","0","200","1","",""
"casino-fixation","142","477196","0.0-25.0-0.36","889","false","img/card_backs/set1/green.gif","img/card_backs/set1/purple.gif","img/card_backs/set1/red.gif","img/card_backs/set1/yellow.gif","img/card_backs/set2/blue.gif","img/card_backs/set2/orange.gif","img/card_backs/set2/gray.gif","img/card_backs/set2/pink.gif","""event"",""trial"",""time""
""fullscreenenter"",""1"",""4361""
","
","
","""event"",""trial"",""time""
""fullscreenenter"",""1"",""4361""
","
","","null","","null","","fixation","2021-08-11 12:33:30.974","","","","","",""
"card-selection-trial","143","480295","0.0-25.0-1.36","889","false","img/card_backs/set1/green.gif","img/card_backs/set1/purple.gif","img/card_backs/set1/red.gif","img/card_backs/set1/yellow.gif","img/card_backs/set2/blue.gif","img/card_backs/set2/orange.gif","img/card_backs/set2/gray.gif","img/card_backs/set2/pink.gif","""event"",""trial"",""time""
""fullscreenenter"",""1"",""4361""
","
","
","""event"",""trial"",""time""
""fullscreenenter"",""1"",""4361""
","
","","1081","","","","real_trial","2021-08-11 12:33:34.073","img/card_backs/set1/purple.gif","0","-250","1","",""
"casino-fixation","144","480797","0.0-25.0-0.37","889","false","img/card_backs/set1/green.gif","img/card_backs/set1/purple.gif","img/card_backs/set1/red.gif","img/card_backs/set1/yellow.gif","img/card_backs/set2/blue.gif","img/card_backs/set2/orange.gif","img/card_backs/set2/gray.gif","img/card_backs/set2/pink.gif","""event"",""trial"",""time""
""fullscreenenter"",""1"",""4361""
","
","
","""event"",""trial"",""time""
""fullscreenenter"",""1"",""4361""
","
","","null","","null","","fixation","2021-08-11 12:33:34.575","","","","","",""
"card-selection-trial","145","483601","0.0-25.0-1.37","889","false","img/card_backs/set1/green.gif","img/card_backs/set1/purple.gif","img/card_backs/set1/red.gif","img/card_backs/set1/yellow.gif","img/card_backs/set2/blue.gif","img/card_backs/set2/orange.gif","img/card_backs/set2/gray.gif","img/card_backs/set2/pink.gif","""event"",""trial"",""time""
""fullscreenenter"",""1"",""4361""
","
","
","""event"",""trial"",""time""
""fullscreenenter"",""1"",""4361""
","
","","786.4000000000233","","","","real_trial","2021-08-11 12:33:37.379","img/card_backs/set1/purple.gif","1","-250","1","",""
"casino-fixation","146","484103","0.0-25.0-0.38","889","false","img/card_backs/set1/green.gif","img/card_backs/set1/purple.gif","img/card_backs/set1/red.gif","img/card_backs/set1/yellow.gif","img/card_backs/set2/blue.gif","img/card_backs/set2/orange.gif","img/card_backs/set2/gray.gif","img/card_backs/set2/pink.gif","""event"",""trial"",""time""
""fullscreenenter"",""1"",""4361""
","
","
","""event"",""trial"",""time""
""fullscreenenter"",""1"",""4361""
","
","","null","","null","","fixation","2021-08-11 12:33:37.881","","","","","",""
"card-selection-trial","147","487113","0.0-25.0-1.38","889","false","img/card_backs/set1/green.gif","img/card_backs/set1/purple.gif","img/card_backs/set1/red.gif","img/card_backs/set1/yellow.gif","img/card_backs/set2/blue.gif","img/card_backs/set2/orange.gif","img/card_backs/set2/gray.gif","img/card_backs/set2/pink.gif","""event"",""trial"",""time""
""fullscreenenter"",""1"",""4361""
","
","
","""event"",""trial"",""time""
""fullscreenenter"",""1"",""4361""
","
","","1003.0999999999767","","","","real_trial","2021-08-11 12:33:40.891","img/card_backs/set1/red.gif","2","110","1","",""
"casino-fixation","148","487615","0.0-25.0-0.39","889","false","img/card_backs/set1/green.gif","img/card_backs/set1/purple.gif","img/card_backs/set1/red.gif","img/card_backs/set1/yellow.gif","img/card_backs/set2/blue.gif","img/card_backs/set2/orange.gif","img/card_backs/set2/gray.gif","img/card_backs/set2/pink.gif","""event"",""trial"",""time""
""fullscreenenter"",""1"",""4361""
","
","
","""event"",""trial"",""time""
""fullscreenenter"",""1"",""4361""
","
","","null","","null","","fixation","2021-08-11 12:33:41.393","","","","","",""
"card-selection-trial","149","490260","0.0-25.0-1.39","889","false","img/card_backs/set1/green.gif","img/card_backs/set1/purple.gif","img/card_backs/set1/red.gif","img/card_backs/set1/yellow.gif","img/card_backs/set2/blue.gif","img/card_backs/set2/orange.gif","img/card_backs/set2/gray.gif","img/card_backs/set2/pink.gif","""event"",""trial"",""time""
""fullscreenenter"",""1"",""4361""
","
","
","""event"",""trial"",""time""
""fullscreenenter"",""1"",""4361""
","
","","640.7999999999302","","","","real_trial","2021-08-11 12:33:44.038","img/card_backs/set1/purple.gif","3","-240","1","",""
"casino-fixation","150","490763","0.0-25.0-0.40","889","false","img/card_backs/set1/green.gif","img/card_backs/set1/purple.gif","img/card_backs/set1/red.gif","img/card_backs/set1/yellow.gif","img/card_backs/set2/blue.gif","img/card_backs/set2/orange.gif","img/card_backs/set2/gray.gif","img/card_backs/set2/pink.gif","""event"",""trial"",""time""
""fullscreenenter"",""1"",""4361""
","
","
","""event"",""trial"",""time""
""fullscreenenter"",""1"",""4361""
","
","","null","","null","","fixation","2021-08-11 12:33:44.541","","","","","",""
"card-selection-trial","151","493337","0.0-25.0-1.40","889","false","img/card_backs/set1/green.gif","img/card_backs/set1/purple.gif","img/card_backs/set1/red.gif","img/card_backs/set1/yellow.gif","img/card_backs/set2/blue.gif","img/card_backs/set2/orange.gif","img/card_backs/set2/gray.gif","img/card_backs/set2/pink.gif","""event"",""trial"",""time""
""fullscreenenter"",""1"",""4361""
","
","
","""event"",""trial"",""time""
""fullscreenenter"",""1"",""4361""
","
","","568.3000000000466","","","","real_trial","2021-08-11 12:33:47.115","img/card_backs/set1/red.gif","0","120","1","",""
"casino-fixation","152","493840","0.0-25.0-0.41","889","false","img/card_backs/set1/green.gif","img/card_backs/set1/purple.gif","img/card_backs/set1/red.gif","img/card_backs/set1/yellow.gif","img/card_backs/set2/blue.gif","img/card_backs/set2/orange.gif","img/card_backs/set2/gray.gif","img/card_backs/set2/pink.gif","""event"",""trial"",""time""
""fullscreenenter"",""1"",""4361""
","
","
","""event"",""trial"",""time""
""fullscreenenter"",""1"",""4361""
","
","","null","","null","","fixation","2021-08-11 12:33:47.618","","","","","",""
"card-selection-trial","153","496308","0.0-25.0-1.41","889","false","img/card_backs/set1/green.gif","img/card_backs/set1/purple.gif","img/card_backs/set1/red.gif","img/card_backs/set1/yellow.gif","img/card_backs/set2/blue.gif","img/card_backs/set2/orange.gif","img/card_backs/set2/gray.gif","img/card_backs/set2/pink.gif","""event"",""trial"",""time""
""fullscreenenter"",""1"",""4361""
","
","
","""event"",""trial"",""time""
""fullscreenenter"",""1"",""4361""
","
","","463.0999999999767","","","","real_trial","2021-08-11 12:33:50.087","img/card_backs/set1/yellow.gif","1","100","1","",""
"casino-fixation","154","496812","0.0-25.0-0.42","889","false","img/card_backs/set1/green.gif","img/card_backs/set1/purple.gif","img/card_backs/set1/red.gif","img/card_backs/set1/yellow.gif","img/card_backs/set2/blue.gif","img/card_backs/set2/orange.gif","img/card_backs/set2/gray.gif","img/card_backs/set2/pink.gif","""event"",""trial"",""time""
""fullscreenenter"",""1"",""4361""
","
","
","""event"",""trial"",""time""
""fullscreenenter"",""1"",""4361""
","
","","null","","null","","fixation","2021-08-11 12:33:50.590","","","","","",""
"card-selection-trial","155","500806","0.0-25.0-1.42","889","false","img/card_backs/set1/green.gif","img/card_backs/set1/purple.gif","img/card_backs/set1/red.gif","img/card_backs/set1/yellow.gif","img/card_backs/set2/blue.gif","img/card_backs/set2/orange.gif","img/card_backs/set2/gray.gif","img/card_backs/set2/pink.gif","""event"",""trial"",""time""
""fullscreenenter"",""1"",""4361""
","
","
","""event"",""trial"",""time""
""fullscreenenter"",""1"",""4361""
","
","","1989.2999999999302","","","","real_trial","2021-08-11 12:33:54.584","img/card_backs/set1/red.gif","0","-50","1","",""
"casino-fixation","156","501310","0.0-25.0-0.43","889","false","img/card_backs/set1/green.gif","img/card_backs/set1/purple.gif","img/card_backs/set1/red.gif","img/card_backs/set1/yellow.gif","img/card_backs/set2/blue.gif","img/card_backs/set2/orange.gif","img/card_backs/set2/gray.gif","img/card_backs/set2/pink.gif","""event"",""trial"",""time""
""fullscreenenter"",""1"",""4361""
","
","
","""event"",""trial"",""time""
""fullscreenenter"",""1"",""4361""
","
","","null","","null","","fixation","2021-08-11 12:33:55.088","","","","","",""
"card-selection-trial","157","504130","0.0-25.0-1.43","889","false","img/card_backs/set1/green.gif","img/card_backs/set1/purple.gif","img/card_backs/set1/red.gif","img/card_backs/set1/yellow.gif","img/card_backs/set2/blue.gif","img/card_backs/set2/orange.gif","img/card_backs/set2/gray.gif","img/card_backs/set2/pink.gif","""event"",""trial"",""time""
""fullscreenenter"",""1"",""4361""
","
","
","""event"",""trial"",""time""
""fullscreenenter"",""1"",""4361""
","
","","812.5","","","","real_trial","2021-08-11 12:33:57.908","img/card_backs/set1/green.gif","1","-240","1","",""
"casino-fixation","158","504631","0.0-25.0-0.44","889","false","img/card_backs/set1/green.gif","img/card_backs/set1/purple.gif","img/card_backs/set1/red.gif","img/card_backs/set1/yellow.gif","img/card_backs/set2/blue.gif","img/card_backs/set2/orange.gif","img/card_backs/set2/gray.gif","img/card_backs/set2/pink.gif","""event"",""trial"",""time""
""fullscreenenter"",""1"",""4361""
","
","
","""event"",""trial"",""time""
""fullscreenenter"",""1"",""4361""
","
","","null","","null","","fixation","2021-08-11 12:33:58.409","","","","","",""
"card-selection-trial","159","508036","0.0-25.0-1.44","889","false","img/card_backs/set1/green.gif","img/card_backs/set1/purple.gif","img/card_backs/set1/red.gif","img/card_backs/set1/yellow.gif","img/card_backs/set2/blue.gif","img/card_backs/set2/orange.gif","img/card_backs/set2/gray.gif","img/card_backs/set2/pink.gif","""event"",""trial"",""time""
""fullscreenenter"",""1"",""4361""
","
","
","""event"",""trial"",""time""
""fullscreenenter"",""1"",""4361""
","
","","1385.3000000000466","","","","real_trial","2021-08-11 12:34:01.814","img/card_backs/set1/red.gif","2","100","1","",""
"casino-fixation","160","508540","0.0-25.0-0.45","889","false","img/card_backs/set1/green.gif","img/card_backs/set1/purple.gif","img/card_backs/set1/red.gif","img/card_backs/set1/yellow.gif","img/card_backs/set2/blue.gif","img/card_backs/set2/orange.gif","img/card_backs/set2/gray.gif","img/card_backs/set2/pink.gif","""event"",""trial"",""time""
""fullscreenenter"",""1"",""4361""
","
","
","""event"",""trial"",""time""
""fullscreenenter"",""1"",""4361""
","
","","null","","null","","fixation","2021-08-11 12:34:02.318","","","","","",""
"card-selection-trial","161","511093","0.0-25.0-1.45","889","false","img/card_backs/set1/green.gif","img/card_backs/set1/purple.gif","img/card_backs/set1/red.gif","img/card_backs/set1/yellow.gif","img/card_backs/set2/blue.gif","img/card_backs/set2/orange.gif","img/card_backs/set2/gray.gif","img/card_backs/set2/pink.gif","""event"",""trial"",""time""
""fullscreenenter"",""1"",""4361""
","
","
","""event"",""trial"",""time""
""fullscreenenter"",""1"",""4361""
","
","","547","","","","real_trial","2021-08-11 12:34:04.871","img/card_backs/set1/yellow.gif","3","-70","1","",""
"casino-fixation","162","511595","0.0-25.0-0.46","889","false","img/card_backs/set1/green.gif","img/card_backs/set1/purple.gif","img/card_backs/set1/red.gif","img/card_backs/set1/yellow.gif","img/card_backs/set2/blue.gif","img/card_backs/set2/orange.gif","img/card_backs/set2/gray.gif","img/card_backs/set2/pink.gif","""event"",""trial"",""time""
""fullscreenenter"",""1"",""4361""
","
","
","""event"",""trial"",""time""
""fullscreenenter"",""1"",""4361""
","
","","null","","null","","fixation","2021-08-11 12:34:05.373","","","","","",""
"card-selection-trial","163","514156","0.0-25.0-1.46","889","false","img/card_backs/set1/green.gif","img/card_backs/set1/purple.gif","img/card_backs/set1/red.gif","img/card_backs/set1/yellow.gif","img/card_backs/set2/blue.gif","img/card_backs/set2/orange.gif","img/card_backs/set2/gray.gif","img/card_backs/set2/pink.gif","""event"",""trial"",""time""
""fullscreenenter"",""1"",""4361""
","
","
","""event"",""trial"",""time""
""fullscreenenter"",""1"",""4361""
","
","","552.8000000000466","","","","real_trial","2021-08-11 12:34:07.934","img/card_backs/set1/yellow.gif","3","100","1","",""
"casino-fixation","164","514658","0.0-25.0-0.47","889","false","img/card_backs/set1/green.gif","img/card_backs/set1/purple.gif","img/card_backs/set1/red.gif","img/card_backs/set1/yellow.gif","img/card_backs/set2/blue.gif","img/card_backs/set2/orange.gif","img/card_backs/set2/gray.gif","img/card_backs/set2/pink.gif","""event"",""trial"",""time""
""fullscreenenter"",""1"",""4361""
","
","
","""event"",""trial"",""time""
""fullscreenenter"",""1"",""4361""
","
","","null","","null","","fixation","2021-08-11 12:34:08.436","","","","","",""
"card-selection-trial","165","517394","0.0-25.0-1.47","889","false","img/card_backs/set1/green.gif","img/card_backs/set1/purple.gif","img/card_backs/set1/red.gif","img/card_backs/set1/yellow.gif","img/card_backs/set2/blue.gif","img/card_backs/set2/orange.gif","img/card_backs/set2/gray.gif","img/card_backs/set2/pink.gif","""event"",""trial"",""time""
""fullscreenenter"",""1"",""4361""
","
","
","""event"",""trial"",""time""
""fullscreenenter"",""1"",""4361""
","
","","731.4000000000233","","","","real_trial","2021-08-11 12:34:11.173","img/card_backs/set1/purple.gif","1","190","1","",""
"casino-fixation","166","517896","0.0-25.0-0.48","889","false","img/card_backs/set1/green.gif","img/card_backs/set1/purple.gif","img/card_backs/set1/red.gif","img/card_backs/set1/yellow.gif","img/card_backs/set2/blue.gif","img/card_backs/set2/orange.gif","img/card_backs/set2/gray.gif","img/card_backs/set2/pink.gif","""event"",""trial"",""time""
""fullscreenenter"",""1"",""4361""
","
","
","""event"",""trial"",""time""
""fullscreenenter"",""1"",""4361""
","
","","null","","null","","fixation","2021-08-11 12:34:11.674","","","","","",""
"card-selection-trial","167","520016","0.0-25.0-1.48","889","false","img/card_backs/set1/green.gif","img/card_backs/set1/purple.gif","img/card_backs/set1/red.gif","img/card_backs/set1/yellow.gif","img/card_backs/set2/blue.gif","img/card_backs/set2/orange.gif","img/card_backs/set2/gray.gif","img/card_backs/set2/pink.gif","""event"",""trial"",""time""
""fullscreenenter"",""1"",""4361""
","
","
","""event"",""trial"",""time""
""fullscreenenter"",""1"",""4361""
","
