"trial_type","trial_index","time_elapsed","internal_node_id","sub_id","risk_good_first","block1_A","block1_B","block1_C","block1_D","block2_A","block2_B","block2_C","block2_D","interactions","blur_events","focus_events","fullscreenenter_events","fullscreenexit_events","success","rt","stimulus","key_press","button_pressed","task_part","timestamp","card_choice","choice_position","points_earned","block","correct","response"
"pavlovia","0","11","0.0-0.0","1050","false","img/card_backs/set1/green.gif","img/card_backs/set1/red.gif","img/card_backs/set1/yellow.gif","img/card_backs/set1/purple.gif","img/card_backs/set2/pink.gif","img/card_backs/set2/gray.gif","img/card_backs/set2/orange.gif","img/card_backs/set2/blue.gif","""event"",""trial"",""time""
""fullscreenenter"",""1"",""3808""
","
","
","""event"",""trial"",""time""
""fullscreenenter"",""1"",""3808""
","
","","","","","","","","","","","","",""
"fullscreen","1","4774","0.0-1.0","1050","false","img/card_backs/set1/green.gif","img/card_backs/set1/red.gif","img/card_backs/set1/yellow.gif","img/card_backs/set1/purple.gif","img/card_backs/set2/pink.gif","img/card_backs/set2/gray.gif","img/card_backs/set2/orange.gif","img/card_backs/set2/blue.gif","""event"",""trial"",""time""
""fullscreenenter"",""1"",""3808""
","
","
","""event"",""trial"",""time""
""fullscreenenter"",""1"",""3808""
","
","true","","","","","","","","","","","",""
"audio-keyboard-response","2","8490","0.0-2.0","1050","false","img/card_backs/set1/green.gif","img/card_backs/set1/red.gif","img/card_backs/set1/yellow.gif","img/card_backs/set1/purple.gif","img/card_backs/set2/pink.gif","img/card_backs/set2/gray.gif","img/card_backs/set2/orange.gif","img/card_backs/set2/blue.gif","""event"",""trial"",""time""
""fullscreenenter"",""1"",""3808""
","
","
","""event"",""trial"",""time""
""fullscreenenter"",""1"",""3808""
","
","","3669","audio/beep_loop.wav","32","","","","","","","","",""
"audio-button-response","3","15387","0.0-3.0","1050","false","img/card_backs/set1/green.gif","img/card_backs/set1/red.gif","img/card_backs/set1/yellow.gif","img/card_backs/set1/purple.gif","img/card_backs/set2/pink.gif","img/card_backs/set2/gray.gif","img/card_backs/set2/orange.gif","img/card_backs/set2/blue.gif","""event"",""trial"",""time""
""fullscreenenter"",""1"",""3808""
","
","
","""event"",""trial"",""time""
""fullscreenenter"",""1"",""3808""
","
","","NaN","audio/turtle.mp3","","3","","","","","","","",""
"audio-button-response","4","24769","0.0-4.0","1050","false","img/card_backs/set1/green.gif","img/card_backs/set1/red.gif","img/card_backs/set1/yellow.gif","img/card_backs/set1/purple.gif","img/card_backs/set2/pink.gif","img/card_backs/set2/gray.gif","img/card_backs/set2/orange.gif","img/card_backs/set2/blue.gif","""event"",""trial"",""time""
""fullscreenenter"",""1"",""3808""
","
","
","""event"",""trial"",""time""
""fullscreenenter"",""1"",""3808""
","
","","NaN","audio/shark.mp3","","2","","","","","","","",""
"fullscreen","5","30055","0.0-5.0","1050","false","img/card_backs/set1/green.gif","img/card_backs/set1/red.gif","img/card_backs/set1/yellow.gif","img/card_backs/set1/purple.gif","img/card_backs/set2/pink.gif","img/card_backs/set2/gray.gif","img/card_backs/set2/orange.gif","img/card_backs/set2/blue.gif","""event"",""trial"",""time""
""fullscreenenter"",""1"",""3808""
","
","
","""event"",""trial"",""time""
""fullscreenenter"",""1"",""3808""
","
","true","","","","","","","","","","","",""
"casino-keyboard-response","6","34211","0.0-6.0-0.0","1050","false","img/card_backs/set1/green.gif","img/card_backs/set1/red.gif","img/card_backs/set1/yellow.gif","img/card_backs/set1/purple.gif","img/card_backs/set2/pink.gif","img/card_backs/set2/gray.gif","img/card_backs/set2/orange.gif","img/card_backs/set2/blue.gif","""event"",""trial"",""time""
""fullscreenenter"",""1"",""3808""
","
","
","""event"",""trial"",""time""
""fullscreenenter"",""1"",""3808""
","
","","4148.099999904633","Welcome to the casino!","71","","instructions","2021-08-05 20:14:47.126","","","","","",""
"casino-keyboard-response","7","45769","0.0-6.0-0.1","1050","false","img/card_backs/set1/green.gif","img/card_backs/set1/red.gif","img/card_backs/set1/yellow.gif","img/card_backs/set1/purple.gif","img/card_backs/set2/pink.gif","img/card_backs/set2/gray.gif","img/card_backs/set2/orange.gif","img/card_backs/set2/blue.gif","""event"",""trial"",""time""
""fullscreenenter"",""1"",""3808""
","
","
","""event"",""trial"",""time""
""fullscreenenter"",""1"",""3808""
","
","","11554.099999904633","Today you will be playing a game to earn tokens. </br> At the end of the experiment, you will be paid a bonus based on how many tokens you win. ","69","","instructions","2021-08-05 20:14:58.684","","","","","",""
"casino-keyboard-response","8","54803","0.0-6.0-0.2","1050","false","img/card_backs/set1/green.gif","img/card_backs/set1/red.gif","img/card_backs/set1/yellow.gif","img/card_backs/set1/purple.gif","img/card_backs/set2/pink.gif","img/card_backs/set2/gray.gif","img/card_backs/set2/orange.gif","img/card_backs/set2/blue.gif","""event"",""trial"",""time""
""fullscreenenter"",""1"",""3808""
","
","
","""event"",""trial"",""time""
""fullscreenenter"",""1"",""3808""
","
","","9030.400000095367","On every turn, you will be shown four different decks of cards. </br> You need to select a card from one of the four decks.  ","75","","instructions","2021-08-05 20:15:07.718","","","","","",""
"casino-keyboard-response","9","60893","0.0-6.0-0.3","1050","false","img/card_backs/set1/green.gif","img/card_backs/set1/red.gif","img/card_backs/set1/yellow.gif","img/card_backs/set1/purple.gif","img/card_backs/set2/pink.gif","img/card_backs/set2/gray.gif","img/card_backs/set2/orange.gif","img/card_backs/set2/blue.gif","""event"",""trial"",""time""
""fullscreenenter"",""1"",""3808""
","
","
","""event"",""trial"",""time""
""fullscreenenter"",""1"",""3808""
","
","","6086.5","On the next screen, you will see what the decks will look like. ","66","","instructions","2021-08-05 20:15:13.809","","","","","",""
"card-selection-trial","10","64915","0.0-7.0-0.0","1050","false","img/card_backs/set1/green.gif","img/card_backs/set1/red.gif","img/card_backs/set1/yellow.gif","img/card_backs/set1/purple.gif","img/card_backs/set2/pink.gif","img/card_backs/set2/gray.gif","img/card_backs/set2/orange.gif","img/card_backs/set2/blue.gif","""event"",""trial"",""time""
""fullscreenenter"",""1"",""3808""
","
","
","""event"",""trial"",""time""
""fullscreenenter"",""1"",""3808""
","
","","null","","","","practice","2021-08-05 20:15:17.831","null","null","null","0","",""
"casino-keyboard-response","11","76942","0.0-8.0-0.0","1050","false","img/card_backs/set1/green.gif","img/card_backs/set1/red.gif","img/card_backs/set1/yellow.gif","img/card_backs/set1/purple.gif","img/card_backs/set2/pink.gif","img/card_backs/set2/gray.gif","img/card_backs/set2/orange.gif","img/card_backs/set2/blue.gif","""event"",""trial"",""time""
""fullscreenenter"",""1"",""3808""
","
","
","""event"",""trial"",""time""
""fullscreenenter"",""1"",""3808""
","
","","12023.299999952316","You should pick a card from a deck using the '2', '4', '6', and '8' keys at the top of the keyboard.","85","","instructions","2021-08-05 20:15:29.857","","","","","",""
"casino-keyboard-response","12","84914","0.0-8.0-0.1","1050","false","img/card_backs/set1/green.gif","img/card_backs/set1/red.gif","img/card_backs/set1/yellow.gif","img/card_backs/set1/purple.gif","img/card_backs/set2/pink.gif","img/card_backs/set2/gray.gif","img/card_backs/set2/orange.gif","img/card_backs/set2/blue.gif","""event"",""trial"",""time""
""fullscreenenter"",""1"",""3808""
","
","
","""event"",""trial"",""time""
""fullscreenenter"",""1"",""3808""
","
","","7967.700000047684","Once you select a card, it will turn over and you will see how many tokens you earned.","83","","instructions","2021-08-05 20:15:37.829","","","","","",""
"casino-keyboard-response","13","92120","0.0-8.0-0.2","1050","false","img/card_backs/set1/green.gif","img/card_backs/set1/red.gif","img/card_backs/set1/yellow.gif","img/card_backs/set1/purple.gif","img/card_backs/set2/pink.gif","img/card_backs/set2/gray.gif","img/card_backs/set2/orange.gif","img/card_backs/set2/blue.gif","""event"",""trial"",""time""
""fullscreenenter"",""1"",""3808""
","
","
","""event"",""trial"",""time""
""fullscreenenter"",""1"",""3808""
","
","","7203.100000143051","Let's try practicing that! </br> First, try to put your fingers over the '2', '4', '6', and '8' keys. </br>  You can use whatever fingers are most comfortable for you. Try to find a comfortable position now. ","50","","instructions","2021-08-05 20:15:45.036","","","","","",""
"casino-keyboard-response","14","98907","0.0-8.0-0.3","1050","false","img/card_backs/set1/green.gif","img/card_backs/set1/red.gif","img/card_backs/set1/yellow.gif","img/card_backs/set1/purple.gif","img/card_backs/set2/pink.gif","img/card_backs/set2/gray.gif","img/card_backs/set2/orange.gif","img/card_backs/set2/blue.gif","""event"",""trial"",""time""
""fullscreenenter"",""1"",""3808""
","
","
","""event"",""trial"",""time""
""fullscreenenter"",""1"",""3808""
","
","","6782.700000047684","Okay ready? </br> On the next screen, press '2' to select the left deck. ","50","","instructions","2021-08-05 20:15:51.822","","","","","",""
"card-selection-trial","15","104583","0.0-9.0-0.0","1050","false","img/card_backs/set1/green.gif","img/card_backs/set1/red.gif","img/card_backs/set1/yellow.gif","img/card_backs/set1/purple.gif","img/card_backs/set2/pink.gif","img/card_backs/set2/gray.gif","img/card_backs/set2/orange.gif","img/card_backs/set2/blue.gif","""event"",""trial"",""time""
""fullscreenenter"",""1"",""3808""
","
","
","""event"",""trial"",""time""
""fullscreenenter"",""1"",""3808""
","
","","3644.600000143051","","","","practice_card_selection","2021-08-05 20:15:57.499","img/practice_cards/backs/brown.gif","0","-100","","",""
"casino-keyboard-response","16","110734","0.0-10.0-0.0","1050","false","img/card_backs/set1/green.gif","img/card_backs/set1/red.gif","img/card_backs/set1/yellow.gif","img/card_backs/set1/purple.gif","img/card_backs/set2/pink.gif","img/card_backs/set2/gray.gif","img/card_backs/set2/orange.gif","img/card_backs/set2/blue.gif","""event"",""trial"",""time""
""fullscreenenter"",""1"",""3808""
","
","
","""event"",""trial"",""time""
""fullscreenenter"",""1"",""3808""
","
","","6146.900000095367","Great! Now on the next screen, try pressing '6' to select the third deck.","54","","instructions","2021-08-05 20:16:03.649","","","","","",""
"card-selection-trial","17","115278","0.0-11.0-0.0","1050","false","img/card_backs/set1/green.gif","img/card_backs/set1/red.gif","img/card_backs/set1/yellow.gif","img/card_backs/set1/purple.gif","img/card_backs/set2/pink.gif","img/card_backs/set2/gray.gif","img/card_backs/set2/orange.gif","img/card_backs/set2/blue.gif","""event"",""trial"",""time""
""fullscreenenter"",""1"",""3808""
","
","
","""event"",""trial"",""time""
""fullscreenenter"",""1"",""3808""
","
","","2530.5","","","","practice_card_selection","2021-08-05 20:16:08.194","img/practice_cards/backs/dark_blue.gif","2","-200","","",""
"casino-keyboard-response","18","120739","0.0-12.0-0.0","1050","false","img/card_backs/set1/green.gif","img/card_backs/set1/red.gif","img/card_backs/set1/yellow.gif","img/card_backs/set1/purple.gif","img/card_backs/set2/pink.gif","img/card_backs/set2/gray.gif","img/card_backs/set2/orange.gif","img/card_backs/set2/blue.gif","""event"",""trial"",""time""
""fullscreenenter"",""1"",""3808""
","
","
","""event"",""trial"",""time""
""fullscreenenter"",""1"",""3808""
","
","","5456.200000047684","Now on the next screen, try pressing '4' to select the second deck.","52","","instructions","2021-08-05 20:16:13.654","","","","","",""
"card-selection-trial","19","124308","0.0-13.0-0.0","1050","false","img/card_backs/set1/green.gif","img/card_backs/set1/red.gif","img/card_backs/set1/yellow.gif","img/card_backs/set1/purple.gif","img/card_backs/set2/pink.gif","img/card_backs/set2/gray.gif","img/card_backs/set2/orange.gif","img/card_backs/set2/blue.gif","""event"",""trial"",""time""
""fullscreenenter"",""1"",""3808""
","
","
","""event"",""trial"",""time""
""fullscreenenter"",""1"",""3808""
","
","","1553.7000000476837","","","","practice_card_selection","2021-08-05 20:16:17.223","img/practice_cards/backs/black.gif","1","-100","","",""
"casino-keyboard-response","20","129316","0.0-14.0-0.0","1050","false","img/card_backs/set1/green.gif","img/card_backs/set1/red.gif","img/card_backs/set1/yellow.gif","img/card_backs/set1/purple.gif","img/card_backs/set2/pink.gif","img/card_backs/set2/gray.gif","img/card_backs/set2/orange.gif","img/card_backs/set2/blue.gif","""event"",""trial"",""time""
""fullscreenenter"",""1"",""3808""
","
","
","""event"",""trial"",""time""
""fullscreenenter"",""1"",""3808""
","
","","5004.5","Finally, try pressing '8' to select the deck all the way on the right.","56","","instructions","2021-08-05 20:16:22.232","","","","","",""
"card-selection-trial","21","132901","0.0-15.0-0.0","1050","false","img/card_backs/set1/green.gif","img/card_backs/set1/red.gif","img/card_backs/set1/yellow.gif","img/card_backs/set1/purple.gif","img/card_backs/set2/pink.gif","img/card_backs/set2/gray.gif","img/card_backs/set2/orange.gif","img/card_backs/set2/blue.gif","""event"",""trial"",""time""
""fullscreenenter"",""1"",""3808""
","
","
","""event"",""trial"",""time""
""fullscreenenter"",""1"",""3808""
","
","","1569.4000000953674","","","","practice_card_selection","2021-08-05 20:16:25.817","img/practice_cards/backs/black.gif","3","-100","","",""
"casino-keyboard-response","22","137183","0.0-16.0-0.0","1050","false","img/card_backs/set1/green.gif","img/card_backs/set1/red.gif","img/card_backs/set1/yellow.gif","img/card_backs/set1/purple.gif","img/card_backs/set2/pink.gif","img/card_backs/set2/gray.gif","img/card_backs/set2/orange.gif","img/card_backs/set2/blue.gif","""event"",""trial"",""time""
""fullscreenenter"",""1"",""3808""
","
","
","""event"",""trial"",""time""
""fullscreenenter"",""1"",""3808""
","
","","4278.399999856949","Great! It seems like you are getting the hang of this.","80","","instructions","2021-08-05 20:16:30.098","","","","","",""
"casino-keyboard-response","23","147262","0.0-16.0-0.1","1050","false","img/card_backs/set1/green.gif","img/card_backs/set1/red.gif","img/card_backs/set1/yellow.gif","img/card_backs/set1/purple.gif","img/card_backs/set2/pink.gif","img/card_backs/set2/gray.gif","img/card_backs/set2/orange.gif","img/card_backs/set2/blue.gif","""event"",""trial"",""time""
""fullscreenenter"",""1"",""3808""
","
","
","""event"",""trial"",""time""
""fullscreenenter"",""1"",""3808""
","
","","10075.600000143051","You may have noticed that some cards will cause you to <b> win </b> tokens while other cards will cause you to <b> lose </b>  tokens.","70","","instructions","2021-08-05 20:16:40.178","","","","","",""
"casino-keyboard-response","24","160429","0.0-16.0-0.2","1050","false","img/card_backs/set1/green.gif","img/card_backs/set1/red.gif","img/card_backs/set1/yellow.gif","img/card_backs/set1/purple.gif","img/card_backs/set2/pink.gif","img/card_backs/set2/gray.gif","img/card_backs/set2/orange.gif","img/card_backs/set2/blue.gif","""event"",""trial"",""time""
""fullscreenenter"",""1"",""3808""
","
","
","""event"",""trial"",""time""
""fullscreenenter"",""1"",""3808""
","
","","13162.400000095367","Each deck has a mix of cards that will cause you to win and lose tokens. </br> However, the cards in each colored deck are different.","73","","instructions","2021-08-05 20:16:53.344","","","","","",""
"casino-keyboard-response","25","176283","0.0-16.0-0.3","1050","false","img/card_backs/set1/green.gif","img/card_backs/set1/red.gif","img/card_backs/set1/yellow.gif","img/card_backs/set1/purple.gif","img/card_backs/set2/pink.gif","img/card_backs/set2/gray.gif","img/card_backs/set2/orange.gif","img/card_backs/set2/blue.gif","""event"",""trial"",""time""
""fullscreenenter"",""1"",""3808""
","
","
","""event"",""trial"",""time""
""fullscreenenter"",""1"",""3808""
","
","","15850","Some colored decks are luckier than others. </br> If you choose the lucky decks, you will earn more tokens than if you choose the unlucky decks.","69","","instructions","2021-08-05 20:17:09.198","","","","","",""
"casino-keyboard-response","26","186999","0.0-16.0-0.4","1050","false","img/card_backs/set1/green.gif","img/card_backs/set1/red.gif","img/card_backs/set1/yellow.gif","img/card_backs/set1/purple.gif","img/card_backs/set2/pink.gif","img/card_backs/set2/gray.gif","img/card_backs/set2/orange.gif","img/card_backs/set2/blue.gif","""event"",""trial"",""time""
""fullscreenenter"",""1"",""3808""
","
","
","""event"",""trial"",""time""
""fullscreenenter"",""1"",""3808""
","
","","10712.299999952316","You should try to figure out which decks are lucky. </br> Then, try to choose the lucky decks so you can win the most tokens.","87","","instructions","2021-08-05 20:17:19.915","","","","","",""
"casino-keyboard-response","27","217026","0.0-16.0-0.5","1050","false","img/card_backs/set1/green.gif","img/card_backs/set1/red.gif","img/card_backs/set1/yellow.gif","img/card_backs/set1/purple.gif","img/card_backs/set2/pink.gif","img/card_backs/set2/gray.gif","img/card_backs/set2/orange.gif","img/card_backs/set2/blue.gif","""event"",""trial"",""time""
""fullscreenenter"",""1"",""3808""
","
","
","""event"",""trial"",""time""
""fullscreenenter"",""1"",""3808""
","
","","30023","To make it trickier, the casino dealer will switch the locations of the decks on every turn. </br> The color of the deck determines how lucky it is. The location does not matter.","88","","instructions","2021-08-05 20:17:49.941","","","","","",""
"casino-keyboard-response","28","229203","0.0-16.0-0.6","1050","false","img/card_backs/set1/green.gif","img/card_backs/set1/red.gif","img/card_backs/set1/yellow.gif","img/card_backs/set1/purple.gif","img/card_backs/set2/pink.gif","img/card_backs/set2/gray.gif","img/card_backs/set2/orange.gif","img/card_backs/set2/blue.gif","""event"",""trial"",""time""
""fullscreenenter"",""1"",""3808""
","
","
","""event"",""trial"",""time""
""fullscreenenter"",""1"",""3808""
","
","","12172.799999952316","The mix of cards in each colored deck will stay the same throughout the game. </br> That means that a deck that is lucky early on will stay lucky.","79","","instructions","2021-08-05 20:18:02.118","","","","","",""
"casino-keyboard-response","29","243521","0.0-16.0-0.7","1050","false","img/card_backs/set1/green.gif","img/card_backs/set1/red.gif","img/card_backs/set1/yellow.gif","img/card_backs/set1/purple.gif","img/card_backs/set2/pink.gif","img/card_backs/set2/gray.gif","img/card_backs/set2/orange.gif","img/card_backs/set2/blue.gif","""event"",""trial"",""time""
""fullscreenenter"",""1"",""3808""
","
","
","""event"",""trial"",""time""
""fullscreenenter"",""1"",""3808""
","
","","14314.400000095367","Remember though, all the decks have a <b> mix </b> of both <b> good </b> and <b> bad </b> cards so it may take a couple of turns to figure out if a deck is lucky.","69","","instructions","2021-08-05 20:18:16.436","","","","","",""
"casino-keyboard-response","30","253281","0.0-16.0-0.8","1050","false","img/card_backs/set1/green.gif","img/card_backs/set1/red.gif","img/card_backs/set1/yellow.gif","img/card_backs/set1/purple.gif","img/card_backs/set2/pink.gif","img/card_backs/set2/gray.gif","img/card_backs/set2/orange.gif","img/card_backs/set2/blue.gif","""event"",""trial"",""time""
""fullscreenenter"",""1"",""3808""
","
","
","""event"",""trial"",""time""
""fullscreenenter"",""1"",""3808""
","
","","9756.299999952316","At the end of the game, you will be paid bonus money based on how many tokens you win. </br> If you win more tokens, you will earn more money!","72","","instructions","2021-08-05 20:18:26.196","","","","","",""
"casino-keyboard-response","31","264097","0.0-16.0-0.9","1050","false","img/card_backs/set1/green.gif","img/card_backs/set1/red.gif","img/card_backs/set1/yellow.gif","img/card_backs/set1/purple.gif","img/card_backs/set2/pink.gif","img/card_backs/set2/gray.gif","img/card_backs/set2/orange.gif","img/card_backs/set2/blue.gif","""event"",""trial"",""time""
""fullscreenenter"",""1"",""3808""
","
","
","""event"",""trial"",""time""
""fullscreenenter"",""1"",""3808""
","
","","10812.900000095367","You will never <b> lose </b> money. </br> If you end up with fewer than 0 tokens, you will earn $0 of bonus money, but you will still be paid for playing the game.","83","","instructions","2021-08-05 20:18:37.012","","","","","",""
"casino-keyboard-response","32","269719","0.0-16.0-0.10","1050","false","img/card_backs/set1/green.gif","img/card_backs/set1/red.gif","img/card_backs/set1/yellow.gif","img/card_backs/set1/purple.gif","img/card_backs/set2/pink.gif","img/card_backs/set2/gray.gif","img/card_backs/set2/orange.gif","img/card_backs/set2/blue.gif","""event"",""trial"",""time""
""fullscreenenter"",""1"",""3808""
","
","
","""event"",""trial"",""time""
""fullscreenenter"",""1"",""3808""
","
","","5618.900000095367","You will have 10 seconds to make each choice.","82","","instructions","2021-08-05 20:18:42.634","","","","","",""
"casino-keyboard-response","33","280688","0.0-16.0-0.11","1050","false","img/card_backs/set1/green.gif","img/card_backs/set1/red.gif","img/card_backs/set1/yellow.gif","img/card_backs/set1/purple.gif","img/card_backs/set2/pink.gif","img/card_backs/set2/gray.gif","img/card_backs/set2/orange.gif","img/card_backs/set2/blue.gif","""event"",""trial"",""time""
""fullscreenenter"",""1"",""3808""
","
","
","""event"",""trial"",""time""
""fullscreenenter"",""1"",""3808""
","
","","10960.899999856949","Before you play the game for real, you will play with practice decks. </br> The tokens you earn during practice won't count toward your total.","86","","instructions","2021-08-05 20:18:53.603","","","","","",""
"casino-keyboard-response","34","292308","0.0-16.0-0.12","1050","false","img/card_backs/set1/green.gif","img/card_backs/set1/red.gif","img/card_backs/set1/yellow.gif","img/card_backs/set1/purple.gif","img/card_backs/set2/pink.gif","img/card_backs/set2/gray.gif","img/card_backs/set2/orange.gif","img/card_backs/set2/blue.gif","""event"",""trial"",""time""
""fullscreenenter"",""1"",""3808""
","
","
","""event"",""trial"",""time""
""fullscreenenter"",""1"",""3808""
","
","","11617.299999952316","Ready? Remember, use the '2', '4', '6', and '8' keys to select the decks. </br> Put your fingers on those keys now and then press '2' to begin.","50","","instructions","2021-08-05 20:19:05.224","","","","","",""
"casino-fixation","35","292815","0.0-17.0-0.0","1050","false","img/card_backs/set1/green.gif","img/card_backs/set1/red.gif","img/card_backs/set1/yellow.gif","img/card_backs/set1/purple.gif","img/card_backs/set2/pink.gif","img/card_backs/set2/gray.gif","img/card_backs/set2/orange.gif","img/card_backs/set2/blue.gif","""event"",""trial"",""time""
""fullscreenenter"",""1"",""3808""
","
","
","""event"",""trial"",""time""
""fullscreenenter"",""1"",""3808""
","
","","null","","null","","fixation","2021-08-05 20:19:05.731","","","","","",""
"card-selection-trial","36","296522","0.0-17.0-1.0","1050","false","img/card_backs/set1/green.gif","img/card_backs/set1/red.gif","img/card_backs/set1/yellow.gif","img/card_backs/set1/purple.gif","img/card_backs/set2/pink.gif","img/card_backs/set2/gray.gif","img/card_backs/set2/orange.gif","img/card_backs/set2/blue.gif","""event"",""trial"",""time""
""fullscreenenter"",""1"",""3808""
","
","
","""event"",""trial"",""time""
""fullscreenenter"",""1"",""3808""
","
","","1688.2999999523163","","","","practice","2021-08-05 20:19:09.438","img/practice_cards/backs/dark_green.gif","1","-200","0","",""
"casino-fixation","37","297032","0.0-17.0-0.1","1050","false","img/card_backs/set1/green.gif","img/card_backs/set1/red.gif","img/card_backs/set1/yellow.gif","img/card_backs/set1/purple.gif","img/card_backs/set2/pink.gif","img/card_backs/set2/gray.gif","img/card_backs/set2/orange.gif","img/card_backs/set2/blue.gif","""event"",""trial"",""time""
""fullscreenenter"",""1"",""3808""
","
","
","""event"",""trial"",""time""
""fullscreenenter"",""1"",""3808""
","
","","null","","null","","fixation","2021-08-05 20:19:09.947","","","","","",""
"card-selection-trial","38","300841","0.0-17.0-1.1","1050","false","img/card_backs/set1/green.gif","img/card_backs/set1/red.gif","img/card_backs/set1/yellow.gif","img/card_backs/set1/purple.gif","img/card_backs/set2/pink.gif","img/card_backs/set2/gray.gif","img/card_backs/set2/orange.gif","img/card_backs/set2/blue.gif","""event"",""trial"",""time""
""fullscreenenter"",""1"",""3808""
","
","
","""event"",""trial"",""time""
""fullscreenenter"",""1"",""3808""
","
","","1785.3999998569489","","","","practice","2021-08-05 20:19:13.756","img/practice_cards/backs/dark_blue.gif","3","-200","0","",""
"casino-fixation","39","301356","0.0-17.0-0.2","1050","false","img/card_backs/set1/green.gif","img/card_backs/set1/red.gif","img/card_backs/set1/yellow.gif","img/card_backs/set1/purple.gif","img/card_backs/set2/pink.gif","img/card_backs/set2/gray.gif","img/card_backs/set2/orange.gif","img/card_backs/set2/blue.gif","""event"",""trial"",""time""
""fullscreenenter"",""1"",""3808""
","
","
","""event"",""trial"",""time""
""fullscreenenter"",""1"",""3808""
","
","","null","","null","","fixation","2021-08-05 20:19:14.272","","","","","",""
"card-selection-trial","40","304763","0.0-17.0-1.2","1050","false","img/card_backs/set1/green.gif","img/card_backs/set1/red.gif","img/card_backs/set1/yellow.gif","img/card_backs/set1/purple.gif","img/card_backs/set2/pink.gif","img/card_backs/set2/gray.gif","img/card_backs/set2/orange.gif","img/card_backs/set2/blue.gif","""event"",""trial"",""time""
""fullscreenenter"",""1"",""3808""
","
","
","""event"",""trial"",""time""
""fullscreenenter"",""1"",""3808""
","
","","1389.9000000953674","","","","practice","2021-08-05 20:19:17.678","img/practice_cards/backs/dark_green.gif","0","200","0","",""
"casino-fixation","41","305271","0.0-17.0-0.3","1050","false","img/card_backs/set1/green.gif","img/card_backs/set1/red.gif","img/card_backs/set1/yellow.gif","img/card_backs/set1/purple.gif","img/card_backs/set2/pink.gif","img/card_backs/set2/gray.gif","img/card_backs/set2/orange.gif","img/card_backs/set2/blue.gif","""event"",""trial"",""time""
""fullscreenenter"",""1"",""3808""
","
","
","""event"",""trial"",""time""
""fullscreenenter"",""1"",""3808""
","
","","null","","null","","fixation","2021-08-05 20:19:18.186","","","","","",""
"card-selection-trial","42","307355","0.0-17.0-1.3","1050","false","img/card_backs/set1/green.gif","img/card_backs/set1/red.gif","img/card_backs/set1/yellow.gif","img/card_backs/set1/purple.gif","img/card_backs/set2/pink.gif","img/card_backs/set2/gray.gif","img/card_backs/set2/orange.gif","img/card_backs/set2/blue.gif","""event"",""trial"",""time""
""fullscreenenter"",""1"",""3808""
","
","
","""event"",""trial"",""time""
""fullscreenenter"",""1"",""3808""
","
","","66","","","","practice","2021-08-05 20:19:20.271","img/practice_cards/backs/black.gif","1","100","0","",""
"casino-fixation","43","307865","0.0-17.0-0.4","1050","false","img/card_backs/set1/green.gif","img/card_backs/set1/red.gif","img/card_backs/set1/yellow.gif","img/card_backs/set1/purple.gif","img/card_backs/set2/pink.gif","img/card_backs/set2/gray.gif","img/card_backs/set2/orange.gif","img/card_backs/set2/blue.gif","""event"",""trial"",""time""
""fullscreenenter"",""1"",""3808""
","
","
","""event"",""trial"",""time""
""fullscreenenter"",""1"",""3808""
","
","","null","","null","","fixation","2021-08-05 20:19:20.780","","","","","",""
"card-selection-trial","44","311342","0.0-17.0-1.4","1050","false","img/card_backs/set1/green.gif","img/card_backs/set1/red.gif","img/card_backs/set1/yellow.gif","img/card_backs/set1/purple.gif","img/card_backs/set2/pink.gif","img/card_backs/set2/gray.gif","img/card_backs/set2/orange.gif","img/card_backs/set2/blue.gif","""event"",""trial"",""time""
""fullscreenenter"",""1"",""3808""
","
","
","""event"",""trial"",""time""
""fullscreenenter"",""1"",""3808""
","
","","1460.7000000476837","","","","practice","2021-08-05 20:19:24.257","img/practice_cards/backs/dark_blue.gif","3","200","0","",""
"casino-fixation","45","311858","0.0-17.0-0.5","1050","false","img/card_backs/set1/green.gif","img/card_backs/set1/red.gif","img/card_backs/set1/yellow.gif","img/card_backs/set1/purple.gif","img/card_backs/set2/pink.gif","img/card_backs/set2/gray.gif","img/card_backs/set2/orange.gif","img/card_backs/set2/blue.gif","""event"",""trial"",""time""
""fullscreenenter"",""1"",""3808""
","
","
","""event"",""trial"",""time""
""fullscreenenter"",""1"",""3808""
","
","","null","","null","","fixation","2021-08-05 20:19:24.774","","","","","",""
"card-selection-trial","46","316801","0.0-17.0-1.5","1050","false","img/card_backs/set1/green.gif","img/card_backs/set1/red.gif","img/card_backs/set1/yellow.gif","img/card_backs/set1/purple.gif","img/card_backs/set2/pink.gif","img/card_backs/set2/gray.gif","img/card_backs/set2/orange.gif","img/card_backs/set2/blue.gif","""event"",""trial"",""time""
""fullscreenenter"",""1"",""3808""
","
","
","""event"",""trial"",""time""
""fullscreenenter"",""1"",""3808""
","
","","2925.5","","","","practice","2021-08-05 20:19:29.716","img/practice_cards/backs/dark_green.gif","0","200","0","",""
"casino-fixation","47","317318","0.0-17.0-0.6","1050","false","img/card_backs/set1/green.gif","img/card_backs/set1/red.gif","img/card_backs/set1/yellow.gif","img/card_backs/set1/purple.gif","img/card_backs/set2/pink.gif","img/card_backs/set2/gray.gif","img/card_backs/set2/orange.gif","img/card_backs/set2/blue.gif","""event"",""trial"",""time""
""fullscreenenter"",""1"",""3808""
","
","
","""event"",""trial"",""time""
""fullscreenenter"",""1"",""3808""
","
","","null","","null","","fixation","2021-08-05 20:19:30.234","","","","","",""
"card-selection-trial","48","320199","0.0-17.0-1.6","1050","false","img/card_backs/set1/green.gif","img/card_backs/set1/red.gif","img/card_backs/set1/yellow.gif","img/card_backs/set1/purple.gif","img/card_backs/set2/pink.gif","img/card_backs/set2/gray.gif","img/card_backs/set2/orange.gif","img/card_backs/set2/blue.gif","""event"",""trial"",""time""
""fullscreenenter"",""1"",""3808""
","
","
","""event"",""trial"",""time""
""fullscreenenter"",""1"",""3808""
","
","","864.0999999046326","","","","practice","2021-08-05 20:19:33.114","img/practice_cards/backs/black.gif","1","100","0","",""
"casino-fixation","49","320715","0.0-17.0-0.7","1050","false","img/card_backs/set1/green.gif","img/card_backs/set1/red.gif","img/card_backs/set1/yellow.gif","img/card_backs/set1/purple.gif","img/card_backs/set2/pink.gif","img/card_backs/set2/gray.gif","img/card_backs/set2/orange.gif","img/card_backs/set2/blue.gif","""event"",""trial"",""time""
""fullscreenenter"",""1"",""3808""
","
","
","""event"",""trial"",""time""
""fullscreenenter"",""1"",""3808""
","
","","null","","null","","fixation","2021-08-05 20:19:33.630","","","","","",""
"card-selection-trial","50","323245","0.0-17.0-1.7","1050","false","img/card_backs/set1/green.gif","img/card_backs/set1/red.gif","img/card_backs/set1/yellow.gif","img/card_backs/set1/purple.gif","img/card_backs/set2/pink.gif","img/card_backs/set2/gray.gif","img/card_backs/set2/orange.gif","img/card_backs/set2/blue.gif","""event"",""trial"",""time""
""fullscreenenter"",""1"",""3808""
","
","
","""event"",""trial"",""time""
""fullscreenenter"",""1"",""3808""
","
","","517.2000000476837","","","","practice","2021-08-05 20:19:36.160","img/practice_cards/backs/brown.gif","3","100","0","",""
"casino-fixation","51","323753","0.0-17.0-0.8","1050","false","img/card_backs/set1/green.gif","img/card_backs/set1/red.gif","img/card_backs/set1/yellow.gif","img/card_backs/set1/purple.gif","img/card_backs/set2/pink.gif","img/card_backs/set2/gray.gif","img/card_backs/set2/orange.gif","img/card_backs/set2/blue.gif","""event"",""trial"",""time""
""fullscreenenter"",""1"",""3808""
","
","
","""event"",""trial"",""time""
""fullscreenenter"",""1"",""3808""
","
","","null","","null","","fixation","2021-08-05 20:19:36.668","","","","","",""
"card-selection-trial","52","329800","0.0-17.0-1.8","1050","false","img/card_backs/set1/green.gif","img/card_backs/set1/red.gif","img/card_backs/set1/yellow.gif","img/card_backs/set1/purple.gif","img/card_backs/set2/pink.gif","img/card_backs/set2/gray.gif","img/card_backs/set2/orange.gif","img/card_backs/set2/blue.gif","""event"",""trial"",""time""
""fullscreenenter"",""1"",""3808""
","
","
","""event"",""trial"",""time""
""fullscreenenter"",""1"",""3808""
","
","","4033.899999856949","","","","practice","2021-08-05 20:19:42.715","img/practice_cards/backs/dark_blue.gif","0","200","0","",""
"casino-fixation","53","330308","0.0-17.0-0.9","1050","false","img/card_backs/set1/green.gif","img/card_backs/set1/red.gif","img/card_backs/set1/yellow.gif","img/card_backs/set1/purple.gif","img/card_backs/set2/pink.gif","img/card_backs/set2/gray.gif","img/card_backs/set2/orange.gif","img/card_backs/set2/blue.gif","""event"",""trial"",""time""
""fullscreenenter"",""1"",""3808""
","
","
","""event"",""trial"",""time""
""fullscreenenter"",""1"",""3808""
","
","","null","","null","","fixation","2021-08-05 20:19:43.224","","","","","",""
"card-selection-trial","54","335257","0.0-17.0-1.9","1050","false","img/card_backs/set1/green.gif","img/card_backs/set1/red.gif","img/card_backs/set1/yellow.gif","img/card_backs/set1/purple.gif","img/card_backs/set2/pink.gif","img/card_backs/set2/gray.gif","img/card_backs/set2/orange.gif","img/card_backs/set2/blue.gif","""event"",""trial"",""time""
""fullscreenenter"",""1"",""3808""
","
","
","""event"",""trial"",""time""
""fullscreenenter"",""1"",""3808""
","
","","2931.2999999523163","","","","practice","2021-08-05 20:19:48.172","img/practice_cards/backs/dark_blue.gif","1","-200","0","",""
"casino-keyboard-response","55","345977","0.0-18.0","1050","false","img/card_backs/set1/green.gif","img/card_backs/set1/red.gif","img/card_backs/set1/yellow.gif","img/card_backs/set1/purple.gif","img/card_backs/set2/pink.gif","img/card_backs/set2/gray.gif","img/card_backs/set2/orange.gif","img/card_backs/set2/blue.gif","""event"",""trial"",""time""
""fullscreenenter"",""1"",""3808""
","
","
","""event"",""trial"",""time""
""fullscreenenter"",""1"",""3808""
","
","","10717","You earned 500 tokens during the practice round!","82","","","2021-08-05 20:19:58.893","","","","","",""
"casino-keyboard-response","56","354183","0.0-19.0-0.0","1050","false","img/card_backs/set1/green.gif","img/card_backs/set1/red.gif","img/card_backs/set1/yellow.gif","img/card_backs/set1/purple.gif","img/card_backs/set2/pink.gif","img/card_backs/set2/gray.gif","img/card_backs/set2/orange.gif","img/card_backs/set2/blue.gif","""event"",""trial"",""time""
""fullscreenenter"",""1"",""3808""
","
","
","""event"",""trial"",""time""
""fullscreenenter"",""1"",""3808""
","
","","8201.400000095367","Nice job! You are almost ready to play the real game.","86","","instructions","2021-08-05 20:20:07.098","","","","","",""
"casino-keyboard-response","57","371018","0.0-19.0-0.1","1050","false","img/card_backs/set1/green.gif","img/card_backs/set1/red.gif","img/card_backs/set1/yellow.gif","img/card_backs/set1/purple.gif","img/card_backs/set2/pink.gif","img/card_backs/set2/gray.gif","img/card_backs/set2/orange.gif","img/card_backs/set2/blue.gif","""event"",""trial"",""time""
""fullscreenenter"",""1"",""3808""
","
","
","""event"",""trial"",""time""
""fullscreenenter"",""1"",""3808""
","
","","16831.10000014305","You will play two rounds of the real game. In each round, you will pick 100 cards in total.","73","","instructions","2021-08-05 20:20:23.933","","","","","",""
"casino-keyboard-response","58","378991","0.0-19.0-0.2","1050","false","img/card_backs/set1/green.gif","img/card_backs/set1/red.gif","img/card_backs/set1/yellow.gif","img/card_backs/set1/purple.gif","img/card_backs/set2/pink.gif","img/card_backs/set2/gray.gif","img/card_backs/set2/orange.gif","img/card_backs/set2/blue.gif","""event"",""trial"",""time""
""fullscreenenter"",""1"",""3808""
","
","
","""event"",""trial"",""time""
""fullscreenenter"",""1"",""3808""
","
","","7969.900000095367","We are now going to ask you some questions about how the game works.","66","","instructions","2021-08-05 20:20:31.906","","","","","",""
"casino-keyboard-response","59","395439","0.0-19.0-0.3","1050","false","img/card_backs/set1/green.gif","img/card_backs/set1/red.gif","img/card_backs/set1/yellow.gif","img/card_backs/set1/purple.gif","img/card_backs/set2/pink.gif","img/card_backs/set2/gray.gif","img/card_backs/set2/orange.gif","img/card_backs/set2/blue.gif","""event"",""trial"",""time""
""fullscreenenter"",""1"",""3808""
","
","
","""event"",""trial"",""time""
""fullscreenenter"",""1"",""3808""
","
","","16445.200000047684","Answer carefully. You will not be able to begin the game until you answer them correctly.","67","","instructions","2021-08-05 20:20:48.355","","","","","",""
"casino-comp_q","60","409928","0.0-20.0-0.0","1050","false","img/card_backs/set1/green.gif","img/card_backs/set1/red.gif","img/card_backs/set1/yellow.gif","img/card_backs/set1/purple.gif","img/card_backs/set2/pink.gif","img/card_backs/set2/gray.gif","img/card_backs/set2/orange.gif","img/card_backs/set2/blue.gif","""event"",""trial"",""time""
""fullscreenenter"",""1"",""3808""
","
","
","""event"",""trial"",""time""
""fullscreenenter"",""1"",""3808""
","
","","14483.700000047684","True or False: All the decks have some cards that cause you to win tokens and some cards that cause you to lose tokens.","84","","","2021-08-05 20:21:02.844","","","","","",""
"casino-keyboard-response","61","417453","0.0-20.0-1.0","1050","false","img/card_backs/set1/green.gif","img/card_backs/set1/red.gif","img/card_backs/set1/yellow.gif","img/card_backs/set1/purple.gif","img/card_backs/set2/pink.gif","img/card_backs/set2/gray.gif","img/card_backs/set2/orange.gif","img/card_backs/set2/blue.gif","""event"",""trial"",""time""
""fullscreenenter"",""1"",""3808""
","
","
","""event"",""trial"",""time""
""fullscreenenter"",""1"",""3808""
","
","","7520.599999904633","True is correct! All the decks have a mix of winning and losing cards.","77","","","2021-08-05 20:21:10.369","","","","","true",""
"casino-comp_q","62","426384","0.0-21.0-0.0","1050","false","img/card_backs/set1/green.gif","img/card_backs/set1/red.gif","img/card_backs/set1/yellow.gif","img/card_backs/set1/purple.gif","img/card_backs/set2/pink.gif","img/card_backs/set2/gray.gif","img/card_backs/set2/orange.gif","img/card_backs/set2/blue.gif","""event"",""trial"",""time""
""fullscreenenter"",""1"",""3808""
","
","
","""event"",""trial"",""time""
""fullscreenenter"",""1"",""3808""
","
","","8925.900000095367","True or False: You will have as much time as you want to make your response.","84","","","2021-08-05 20:21:19.299","","","","","",""
"casino-keyboard-response","63","432592","0.0-21.0-1.0","1050","false","img/card_backs/set1/green.gif","img/card_backs/set1/red.gif","img/card_backs/set1/yellow.gif","img/card_backs/set1/purple.gif","img/card_backs/set2/pink.gif","img/card_backs/set2/gray.gif","img/card_backs/set2/orange.gif","img/card_backs/set2/blue.gif","""event"",""trial"",""time""
""fullscreenenter"",""1"",""3808""
","
","
","""event"",""trial"",""time""
""fullscreenenter"",""1"",""3808""
","
","","6201.399999856949","True is incorrect. You will only have 10 seconds to make each choice.","75","","","2021-08-05 20:21:25.507","","","","","false",""
"casino-comp_q","64","438676","0.0-21.1-0.1","1050","false","img/card_backs/set1/green.gif","img/card_backs/set1/red.gif","img/card_backs/set1/yellow.gif","img/card_backs/set1/purple.gif","img/card_backs/set2/pink.gif","img/card_backs/set2/gray.gif","img/card_backs/set2/orange.gif","img/card_backs/set2/blue.gif","""event"",""trial"",""time""
""fullscreenenter"",""1"",""3808""
","
","
","""event"",""trial"",""time""
""fullscreenenter"",""1"",""3808""
","
","","6080.799999952316","True or False: You will have as much time as you want to make your response.","70","","","2021-08-05 20:21:31.592","","","","","",""
"casino-keyboard-response","65","442929","0.0-21.1-1.1","1050","false","img/card_backs/set1/green.gif","img/card_backs/set1/red.gif","img/card_backs/set1/yellow.gif","img/card_backs/set1/purple.gif","img/card_backs/set2/pink.gif","img/card_backs/set2/gray.gif","img/card_backs/set2/orange.gif","img/card_backs/set2/blue.gif","""event"",""trial"",""time""
""fullscreenenter"",""1"",""3808""
","
","
","""event"",""trial"",""time""
""fullscreenenter"",""1"",""3808""
","
","","4249","False is correct! You will only have 10 seconds to make each choice.","75","","","2021-08-05 20:21:35.844","","","","","true",""
"casino-comp_q","66","446591","0.0-22.0-0.0","1050","false","img/card_backs/set1/green.gif","img/card_backs/set1/red.gif","img/card_backs/set1/yellow.gif","img/card_backs/set1/purple.gif","img/card_backs/set2/pink.gif","img/card_backs/set2/gray.gif","img/card_backs/set2/orange.gif","img/card_backs/set2/blue.gif","""event"",""trial"",""time""
""fullscreenenter"",""1"",""3808""
","
","
","""event"",""trial"",""time""
""fullscreenenter"",""1"",""3808""
","
","","3658.399999856949","True or False: The location of the deck determines how lucky it is.","70","","","2021-08-05 20:21:39.506","","","","","",""
"casino-keyboard-response","67","450619","0.0-22.0-1.0","1050","false","img/card_backs/set1/green.gif","img/card_backs/set1/red.gif","img/card_backs/set1/yellow.gif","img/card_backs/set1/purple.gif","img/card_backs/set2/pink.gif","img/card_backs/set2/gray.gif","img/card_backs/set2/orange.gif","img/card_backs/set2/blue.gif","""event"",""trial"",""time""
""fullscreenenter"",""1"",""3808""
","
","
","""event"",""trial"",""time""
""fullscreenenter"",""1"",""3808""
","
","","4024.300000190735","False is correct! The <i>color</i>  of the deck determines how lucky or unlucky it is.","68","","","2021-08-05 20:21:43.535","","","","","true",""
"casino-keyboard-response","68","455822","0.0-23.0-0.0","1050","false","img/card_backs/set1/green.gif","img/card_backs/set1/red.gif","img/card_backs/set1/yellow.gif","img/card_backs/set1/purple.gif","img/card_backs/set2/pink.gif","img/card_backs/set2/gray.gif","img/card_backs/set2/orange.gif","img/card_backs/set2/blue.gif","""event"",""trial"",""time""
""fullscreenenter"",""1"",""3808""
","
","
","""event"",""trial"",""time""
""fullscreenenter"",""1"",""3808""
","
","","5198.700000047684","Great job! Now it's time to start the real game.","82","","instructions","2021-08-05 20:21:48.738","","","","","",""
"casino-keyboard-response","69","462337","0.0-23.0-0.1","1050","false","img/card_backs/set1/green.gif","img/card_backs/set1/red.gif","img/card_backs/set1/yellow.gif","img/card_backs/set1/purple.gif","img/card_backs/set2/pink.gif","img/card_backs/set2/gray.gif","img/card_backs/set2/orange.gif","img/card_backs/set2/blue.gif","""event"",""trial"",""time""
""fullscreenenter"",""1"",""3808""
","
","
","""event"",""trial"",""time""
""fullscreenenter"",""1"",""3808""
","
","","6510.899999856949","Before we start, we're going to head into a new room of the casino.","86","","instructions","2021-08-05 20:21:55.252","","","","","",""
"casino-keyboard-response","70","473769","0.0-24.0-0.0","1050","false","img/card_backs/set1/green.gif","img/card_backs/set1/red.gif","img/card_backs/set1/yellow.gif","img/card_backs/set1/purple.gif","img/card_backs/set2/pink.gif","img/card_backs/set2/gray.gif","img/card_backs/set2/orange.gif","img/card_backs/set2/blue.gif","""event"",""trial"",""time""
""fullscreenenter"",""1"",""3808""
""blur"",""71"",""506914""
""focus"",""71"",""547180""
","""event"",""trial"",""time""
""blur"",""71"",""506914""
","""event"",""trial"",""time""
""focus"",""71"",""547180""
","""event"",""trial"",""time""
""fullscreenenter"",""1"",""3808""
","
","","11429.5","Here we are! The real game will use different cards, but the rules will be the same.","71","","instructions","2021-08-05 20:22:06.684","","","","","",""
"casino-keyboard-response","71","566123","0.0-24.0-0.1","1050","false","img/card_backs/set1/green.gif","img/card_backs/set1/red.gif","img/card_backs/set1/yellow.gif","img/card_backs/set1/purple.gif","img/card_backs/set2/pink.gif","img/card_backs/set2/gray.gif","img/card_backs/set2/orange.gif","img/card_backs/set2/blue.gif","""event"",""trial"",""time""
""fullscreenenter"",""1"",""3808""
""blur"",""71"",""506914""
""focus"",""71"",""547180""
","""event"",""trial"",""time""
""blur"",""71"",""506914""
","""event"",""trial"",""time""
""focus"",""71"",""547180""
","""event"",""trial"",""time""
""fullscreenenter"",""1"",""3808""
","
","","92349.70000004768","Ready? Put your fingers over the '2', '4', 6', and '8' keys so you are ready to play the game. </br> Then press 2 to start.","50","","instructions","2021-08-05 20:23:39.038","","","","","",""
"casino-fixation","72","566634","0.0-25.0-0.0","1050","false","img/card_backs/set1/green.gif","img/card_backs/set1/red.gif","img/card_backs/set1/yellow.gif","img/card_backs/set1/purple.gif","img/card_backs/set2/pink.gif","img/card_backs/set2/gray.gif","img/card_backs/set2/orange.gif","img/card_backs/set2/blue.gif","""event"",""trial"",""time""
""fullscreenenter"",""1"",""3808""
""blur"",""71"",""506914""
""focus"",""71"",""547180""
","""event"",""trial"",""time""
""blur"",""71"",""506914""
","""event"",""trial"",""time""
""focus"",""71"",""547180""
","""event"",""trial"",""time""
""fullscreenenter"",""1"",""3808""
","
","","null","","null","","fixation","2021-08-05 20:23:39.550","","","","","",""
"card-selection-trial","73","569643","0.0-25.0-1.0","1050","false","img/card_backs/set1/green.gif","img/card_backs/set1/red.gif","img/card_backs/set1/yellow.gif","img/card_backs/set1/purple.gif","img/card_backs/set2/pink.gif","img/card_backs/set2/gray.gif","img/card_backs/set2/orange.gif","img/card_backs/set2/blue.gif","""event"",""trial"",""time""
""fullscreenenter"",""1"",""3808""
""blur"",""71"",""506914""
""focus"",""71"",""547180""
","""event"",""trial"",""time""
""blur"",""71"",""506914""
","""event"",""trial"",""time""
""focus"",""71"",""547180""
","""event"",""trial"",""time""
""fullscreenenter"",""1"",""3808""
","
","","992.0999999046326","","","","real_trial","2021-08-05 20:23:42.558","img/card_backs/set1/green.gif","1","-250","1","",""
"casino-fixation","74","570152","0.0-25.0-0.1","1050","false","img/card_backs/set1/green.gif","img/card_backs/set1/red.gif","img/card_backs/set1/yellow.gif","img/card_backs/set1/purple.gif","img/card_backs/set2/pink.gif","img/card_backs/set2/gray.gif","img/card_backs/set2/orange.gif","img/card_backs/set2/blue.gif","""event"",""trial"",""time""
""fullscreenenter"",""1"",""3808""
""blur"",""71"",""506914""
""focus"",""71"",""547180""
","""event"",""trial"",""time""
""blur"",""71"",""506914""
","""event"",""trial"",""time""
""focus"",""71"",""547180""
","""event"",""trial"",""time""
""fullscreenenter"",""1"",""3808""
","
","","null","","null","","fixation","2021-08-05 20:23:43.067","","","","","",""
"card-selection-trial","75","575098","0.0-25.0-1.1","1050","false","img/card_backs/set1/green.gif","img/card_backs/set1/red.gif","img/card_backs/set1/yellow.gif","img/card_backs/set1/purple.gif","img/card_backs/set2/pink.gif","img/card_backs/set2/gray.gif","img/card_backs/set2/orange.gif","img/card_backs/set2/blue.gif","""event"",""trial"",""time""
""fullscreenenter"",""1"",""3808""
""blur"",""71"",""506914""
""focus"",""71"",""547180""
","""event"",""trial"",""time""
""blur"",""71"",""506914""
","""event"",""trial"",""time""
""focus"",""71"",""547180""
","""event"",""trial"",""time""
""fullscreenenter"",""1"",""3808""
","
","","2926.5999999046326","","","","real_trial","2021-08-05 20:23:48.013","img/card_backs/set1/green.gif","2","200","1","",""
"casino-fixation","76","575606","0.0-25.0-0.2","1050","false","img/card_backs/set1/green.gif","img/card_backs/set1/red.gif","img/card_backs/set1/yellow.gif","img/card_backs/set1/purple.gif","img/card_backs/set2/pink.gif","img/card_backs/set2/gray.gif","img/card_backs/set2/orange.gif","img/card_backs/set2/blue.gif","""event"",""trial"",""time""
""fullscreenenter"",""1"",""3808""
""blur"",""71"",""506914""
""focus"",""71"",""547180""
","""event"",""trial"",""time""
""blur"",""71"",""506914""
","""event"",""trial"",""time""
""focus"",""71"",""547180""
","""event"",""trial"",""time""
""fullscreenenter"",""1"",""3808""
","
","","null","","null","","fixation","2021-08-05 20:23:48.521","","","","","",""
"card-selection-trial","77","583185","0.0-25.0-1.2","1050","false","img/card_backs/set1/green.gif","img/card_backs/set1/red.gif","img/card_backs/set1/yellow.gif","img/card_backs/set1/purple.gif","img/card_backs/set2/pink.gif","img/card_backs/set2/gray.gif","img/card_backs/set2/orange.gif","img/card_backs/set2/blue.gif","""event"",""trial"",""time""
""fullscreenenter"",""1"",""3808""
""blur"",""71"",""506914""
""focus"",""71"",""547180""
","""event"",""trial"",""time""
""blur"",""71"",""506914""
","""event"",""trial"",""time""
""focus"",""71"",""547180""
","""event"",""trial"",""time""
""fullscreenenter"",""1"",""3808""
","
","","5566.899999856949","","","","real_trial","2021-08-05 20:23:56.101","img/card_backs/set1/yellow.gif","0","-60","1","",""
"casino-fixation","78","583696","0.0-25.0-0.3","1050","false","img/card_backs/set1/green.gif","img/card_backs/set1/red.gif","img/card_backs/set1/yellow.gif","img/card_backs/set1/purple.gif","img/card_backs/set2/pink.gif","img/card_backs/set2/gray.gif","img/card_backs/set2/orange.gif","img/card_backs/set2/blue.gif","""event"",""trial"",""time""
""fullscreenenter"",""1"",""3808""
""blur"",""71"",""506914""
""focus"",""71"",""547180""
","""event"",""trial"",""time""
""blur"",""71"",""506914""
","""event"",""trial"",""time""
""focus"",""71"",""547180""
","""event"",""trial"",""time""
""fullscreenenter"",""1"",""3808""
","
","","null","","null","","fixation","2021-08-05 20:23:56.611","","","","","",""
"card-selection-trial","79","588999","0.0-25.0-1.3","1050","false","img/card_backs/set1/green.gif","img/card_backs/set1/red.gif","img/card_backs/set1/yellow.gif","img/card_backs/set1/purple.gif","img/card_backs/set2/pink.gif","img/card_backs/set2/gray.gif","img/card_backs/set2/orange.gif","img/card_backs/set2/blue.gif","""event"",""trial"",""time""
""fullscreenenter"",""1"",""3808""
""blur"",""71"",""506914""
""focus"",""71"",""547180""
","""event"",""trial"",""time""
""blur"",""71"",""506914""
","""event"",""trial"",""time""
""focus"",""71"",""547180""
","""event"",""trial"",""time""
""fullscreenenter"",""1"",""3808""
","
","","3291.199999809265","","","","real_trial","2021-08-05 20:24:01.915","img/card_backs/set1/green.gif","3","200","1","",""
"casino-fixation","80","589509","0.0-25.0-0.4","1050","false","img/card_backs/set1/green.gif","img/card_backs/set1/red.gif","img/card_backs/set1/yellow.gif","img/card_backs/set1/purple.gif","img/card_backs/set2/pink.gif","img/card_backs/set2/gray.gif","img/card_backs/set2/orange.gif","img/card_backs/set2/blue.gif","""event"",""trial"",""time""
""fullscreenenter"",""1"",""3808""
""blur"",""71"",""506914""
""focus"",""71"",""547180""
","""event"",""trial"",""time""
""blur"",""71"",""506914""
","""event"",""trial"",""time""
""focus"",""71"",""547180""
","""event"",""trial"",""time""
""fullscreenenter"",""1"",""3808""
","
","","null","","null","","fixation","2021-08-05 20:24:02.424","","","","","",""
"card-selection-trial","81","599060","0.0-25.0-1.4","1050","false","img/card_backs/set1/green.gif","img/card_backs/set1/red.gif","img/card_backs/set1/yellow.gif","img/card_backs/set1/purple.gif","img/card_backs/set2/pink.gif","img/card_backs/set2/gray.gif","img/card_backs/set2/orange.gif","img/card_backs/set2/blue.gif","""event"",""trial"",""time""
""fullscreenenter"",""1"",""3808""
""blur"",""71"",""506914""
""focus"",""71"",""547180""
","""event"",""trial"",""time""
""blur"",""71"",""506914""
","""event"",""trial"",""time""
""focus"",""71"",""547180""
","""event"",""trial"",""time""
""fullscreenenter"",""1"",""3808""
","
","","7534.099999904633","","","","real_trial","2021-08-05 20:24:11.975","img/card_backs/set1/purple.gif","2","-50","1","",""
"casino-fixation","82","599569","0.0-25.0-0.5","1050","false","img/card_backs/set1/green.gif","img/card_backs/set1/red.gif","img/card_backs/set1/yellow.gif","img/card_backs/set1/purple.gif","img/card_backs/set2/pink.gif","img/card_backs/set2/gray.gif","img/card_backs/set2/orange.gif","img/card_backs/set2/blue.gif","""event"",""trial"",""time""
""fullscreenenter"",""1"",""3808""
""blur"",""71"",""506914""
""focus"",""71"",""547180""
","""event"",""trial"",""time""
""blur"",""71"",""506914""
","""event"",""trial"",""time""
""focus"",""71"",""547180""
","""event"",""trial"",""time""
""fullscreenenter"",""1"",""3808""
","
","","null","","null","","fixation","2021-08-05 20:24:12.484","","","","","",""
"card-selection-trial","83","602239","0.0-25.0-1.5","1050","false","img/card_backs/set1/green.gif","img/card_backs/set1/red.gif","img/card_backs/set1/yellow.gif","img/card_backs/set1/purple.gif","img/card_backs/set2/pink.gif","img/card_backs/set2/gray.gif","img/card_backs/set2/orange.gif","img/card_backs/set2/blue.gif","""event"",""trial"",""time""
""fullscreenenter"",""1"",""3808""
""blur"",""71"",""506914""
""focus"",""71"",""547180""
","""event"",""trial"",""time""
""blur"",""71"",""506914""
","""event"",""trial"",""time""
""focus"",""71"",""547180""
","""event"",""trial"",""time""
""fullscreenenter"",""1"",""3808""
","
","","649.9000000953674","","","","real_trial","2021-08-05 20:24:15.154","img/card_backs/set1/yellow.gif","0","-70","1","",""
"casino-fixation","84","602747","0.0-25.0-0.6","1050","false","img/card_backs/set1/green.gif","img/card_backs/set1/red.gif","img/card_backs/set1/yellow.gif","img/card_backs/set1/purple.gif","img/card_backs/set2/pink.gif","img/card_backs/set2/gray.gif","img/card_backs/set2/orange.gif","img/card_backs/set2/blue.gif","""event"",""trial"",""time""
""fullscreenenter"",""1"",""3808""
""blur"",""71"",""506914""
""focus"",""71"",""547180""
","""event"",""trial"",""time""
""blur"",""71"",""506914""
","""event"",""trial"",""time""
""focus"",""71"",""547180""
","""event"",""trial"",""time""
""fullscreenenter"",""1"",""3808""
","
","","null","","null","","fixation","2021-08-05 20:24:15.662","","","","","",""
"card-selection-trial","85","605650","0.0-25.0-1.6","1050","false","img/card_backs/set1/green.gif","img/card_backs/set1/red.gif","img/card_backs/set1/yellow.gif","img/card_backs/set1/purple.gif","img/card_backs/set2/pink.gif","img/card_backs/set2/gray.gif","img/card_backs/set2/orange.gif","img/card_backs/set2/blue.gif","""event"",""trial"",""time""
""fullscreenenter"",""1"",""3808""
""blur"",""71"",""506914""
""focus"",""71"",""547180""
","""event"",""trial"",""time""
""blur"",""71"",""506914""
","""event"",""trial"",""time""
""focus"",""71"",""547180""
","""event"",""trial"",""time""
""fullscreenenter"",""1"",""3808""
","
","","889.7999999523163","","","","real_trial","2021-08-05 20:24:18.565","img/card_backs/set1/yellow.gif","1","-50","1","",""
"casino-fixation","86","606158","0.0-25.0-0.7","1050","false","img/card_backs/set1/green.gif","img/card_backs/set1/red.gif","img/card_backs/set1/yellow.gif","img/card_backs/set1/purple.gif","img/card_backs/set2/pink.gif","img/card_backs/set2/gray.gif","img/card_backs/set2/orange.gif","img/card_backs/set2/blue.gif","""event"",""trial"",""time""
""fullscreenenter"",""1"",""3808""
""blur"",""71"",""506914""
""focus"",""71"",""547180""
","""event"",""trial"",""time""
""blur"",""71"",""506914""
","""event"",""trial"",""time""
""focus"",""71"",""547180""
","""event"",""trial"",""time""
""fullscreenenter"",""1"",""3808""
","
","","null","","null","","fixation","2021-08-05 20:24:19.074","","","","","",""
"card-selection-trial","87","608606","0.0-25.0-1.7","1050","false","img/card_backs/set1/green.gif","img/card_backs/set1/red.gif","img/card_backs/set1/yellow.gif","img/card_backs/set1/purple.gif","img/card_backs/set2/pink.gif","img/card_backs/set2/gray.gif","img/card_backs/set2/orange.gif","img/card_backs/set2/blue.gif","""event"",""trial"",""time""
""fullscreenenter"",""1"",""3808""
""blur"",""71"",""506914""
""focus"",""71"",""547180""
","""event"",""trial"",""time""
""blur"",""71"",""506914""
","""event"",""trial"",""time""
""focus"",""71"",""547180""
","""event"",""trial"",""time""
""fullscreenenter"",""1"",""3808""
","
","","428.2000000476837","","","","real_trial","2021-08-05 20:24:21.521","img/card_backs/set1/purple.gif","2","-60","1","",""
"casino-fixation","88","609114","0.0-25.0-0.8","1050","false","img/card_backs/set1/green.gif","img/card_backs/set1/red.gif","img/card_backs/set1/yellow.gif","img/card_backs/set1/purple.gif","img/card_backs/set2/pink.gif","img/card_backs/set2/gray.gif","img/card_backs/set2/orange.gif","img/card_backs/set2/blue.gif","""event"",""trial"",""time""
""fullscreenenter"",""1"",""3808""
""blur"",""71"",""506914""
""focus"",""71"",""547180""
","""event"",""trial"",""time""
""blur"",""71"",""506914""
","""event"",""trial"",""time""
""focus"",""71"",""547180""
","""event"",""trial"",""time""
""fullscreenenter"",""1"",""3808""
","
","","null","","null","","fixation","2021-08-05 20:24:22.029","","","","","",""
"card-selection-trial","89","611859","0.0-25.0-1.8","1050","false","img/card_backs/set1/green.gif","img/card_backs/set1/red.gif","img/card_backs/set1/yellow.gif","img/card_backs/set1/purple.gif","img/card_backs/set2/pink.gif","img/card_backs/set2/gray.gif","img/card_backs/set2/orange.gif","img/card_backs/set2/blue.gif","""event"",""trial"",""time""
""fullscreenenter"",""1"",""3808""
""blur"",""71"",""506914""
""focus"",""71"",""547180""
","""event"",""trial"",""time""
""blur"",""71"",""506914""
","""event"",""trial"",""time""
""focus"",""71"",""547180""
","""event"",""trial"",""time""
""fullscreenenter"",""1"",""3808""
","
","","732.1000001430511","","","","real_trial","2021-08-05 20:24:24.775","img/card_backs/set1/yellow.gif","3","-60","1","",""
"casino-fixation","90","612368","0.0-25.0-0.9","1050","false","img/card_backs/set1/green.gif","img/card_backs/set1/red.gif","img/card_backs/set1/yellow.gif","img/card_backs/set1/purple.gif","img/card_backs/set2/pink.gif","img/card_backs/set2/gray.gif","img/card_backs/set2/orange.gif","img/card_backs/set2/blue.gif","""event"",""trial"",""time""
""fullscreenenter"",""1"",""3808""
""blur"",""71"",""506914""
""focus"",""71"",""547180""
","""event"",""trial"",""time""
""blur"",""71"",""506914""
","""event"",""trial"",""time""
""focus"",""71"",""547180""
","""event"",""trial"",""time""
""fullscreenenter"",""1"",""3808""
","
","","null","","null","","fixation","2021-08-05 20:24:25.284","","","","","",""
"card-selection-trial","91","614974","0.0-25.0-1.9","1050","false","img/card_backs/set1/green.gif","img/card_backs/set1/red.gif","img/card_backs/set1/yellow.gif","img/card_backs/set1/purple.gif","img/card_backs/set2/pink.gif","img/card_backs/set2/gray.gif","img/card_backs/set2/orange.gif","img/card_backs/set2/blue.gif","""event"",""trial"",""time""
""fullscreenenter"",""1"",""3808""
""blur"",""71"",""506914""
""focus"",""71"",""547180""
","""event"",""trial"",""time""
""blur"",""71"",""506914""
","""event"",""trial"",""time""
""focus"",""71"",""547180""
","""event"",""trial"",""time""
""fullscreenenter"",""1"",""3808""
","
","","588.7999999523163","","","","real_trial","2021-08-05 20:24:27.889","img/card_backs/set1/purple.gif","0","120","1","",""
"casino-fixation","92","615481","0.0-25.0-0.10","1050","false","img/card_backs/set1/green.gif","img/card_backs/set1/red.gif","img/card_backs/set1/yellow.gif","img/card_backs/set1/purple.gif","img/card_backs/set2/pink.gif","img/card_backs/set2/gray.gif","img/card_backs/set2/orange.gif","img/card_backs/set2/blue.gif","""event"",""trial"",""time""
""fullscreenenter"",""1"",""3808""
""blur"",""71"",""506914""
""focus"",""71"",""547180""
","""event"",""trial"",""time""
""blur"",""71"",""506914""
","""event"",""trial"",""time""
""focus"",""71"",""547180""
","""event"",""trial"",""time""
""fullscreenenter"",""1"",""3808""
","
","","null","","null","","fixation","2021-08-05 20:24:28.397","","","","","",""
"card-selection-trial","93","618369","0.0-25.0-1.10","1050","false","img/card_backs/set1/green.gif","img/card_backs/set1/red.gif","img/card_backs/set1/yellow.gif","img/card_backs/set1/purple.gif","img/card_backs/set2/pink.gif","img/card_backs/set2/gray.gif","img/card_backs/set2/orange.gif","img/card_backs/set2/blue.gif","""event"",""trial"",""time""
""fullscreenenter"",""1"",""3808""
""blur"",""71"",""506914""
""focus"",""71"",""547180""
","""event"",""trial"",""time""
""blur"",""71"",""506914""
","""event"",""trial"",""time""
""focus"",""71"",""547180""
","""event"",""trial"",""time""
""fullscreenenter"",""1"",""3808""
","
","","871.3000001907349","","","","real_trial","2021-08-05 20:24:31.284","img/card_backs/set1/purple.gif","0","110","1","",""
"casino-fixation","94","618877","0.0-25.0-0.11","1050","false","img/card_backs/set1/green.gif","img/card_backs/set1/red.gif","img/card_backs/set1/yellow.gif","img/card_backs/set1/purple.gif","img/card_backs/set2/pink.gif","img/card_backs/set2/gray.gif","img/card_backs/set2/orange.gif","img/card_backs/set2/blue.gif","""event"",""trial"",""time""
""fullscreenenter"",""1"",""3808""
""blur"",""71"",""506914""
""focus"",""71"",""547180""
","""event"",""trial"",""time""
""blur"",""71"",""506914""
","""event"",""trial"",""time""
""focus"",""71"",""547180""
","""event"",""trial"",""time""
""fullscreenenter"",""1"",""3808""
","
","","null","","null","","fixation","2021-08-05 20:24:31.793","","","","","",""
"card-selection-trial","95","621565","0.0-25.0-1.11","1050","false","img/card_backs/set1/green.gif","img/card_backs/set1/red.gif","img/card_backs/set1/yellow.gif","img/card_backs/set1/purple.gif","img/card_backs/set2/pink.gif","img/card_backs/set2/gray.gif","img/card_backs/set2/orange.gif","img/card_backs/set2/blue.gif","""event"",""trial"",""time""
""fullscreenenter"",""1"",""3808""
""blur"",""71"",""506914""
""focus"",""71"",""547180""
","""event"",""trial"",""time""
""blur"",""71"",""506914""
","""event"",""trial"",""time""
""focus"",""71"",""547180""
","""event"",""trial"",""time""
""fullscreenenter"",""1"",""3808""
","
","","672.5","","","","real_trial","2021-08-05 20:24:34.480","img/card_backs/set1/yellow.gif","0","-70","1","",""
"casino-fixation","96","622074","0.0-25.0-0.12","1050","false","img/card_backs/set1/green.gif","img/card_backs/set1/red.gif","img/card_backs/set1/yellow.gif","img/card_backs/set1/purple.gif","img/card_backs/set2/pink.gif","img/card_backs/set2/gray.gif","img/card_backs/set2/orange.gif","img/card_backs/set2/blue.gif","""event"",""trial"",""time""
""fullscreenenter"",""1"",""3808""
""blur"",""71"",""506914""
""focus"",""71"",""547180""
","""event"",""trial"",""time""
""blur"",""71"",""506914""
","""event"",""trial"",""time""
""focus"",""71"",""547180""
","""event"",""trial"",""time""
""fullscreenenter"",""1"",""3808""
","
","","null","","null","","fixation","2021-08-05 20:24:34.990","","","","","",""
"card-selection-trial","97","624722","0.0-25.0-1.12","1050","false","img/card_backs/set1/green.gif","img/card_backs/set1/red.gif","img/card_backs/set1/yellow.gif","img/card_backs/set1/purple.gif","img/card_backs/set2/pink.gif","img/card_backs/set2/gray.gif","img/card_backs/set2/orange.gif","img/card_backs/set2/blue.gif","""event"",""trial"",""time""
""fullscreenenter"",""1"",""3808""
""blur"",""71"",""506914""
""focus"",""71"",""547180""
","""event"",""trial"",""time""
""blur"",""71"",""506914""
","""event"",""trial"",""time""
""focus"",""71"",""547180""
","""event"",""trial"",""time""
""fullscreenenter"",""1"",""3808""
","
","","635.2999999523163","","","","real_trial","2021-08-05 20:24:37.637","img/card_backs/set1/red.gif","1","190","1","",""
"casino-fixation","98","625230","0.0-25.0-0.13","1050","false","img/card_backs/set1/green.gif","img/card_backs/set1/red.gif","img/card_backs/set1/yellow.gif","img/card_backs/set1/purple.gif","img/card_backs/set2/pink.gif","img/card_backs/set2/gray.gif","img/card_backs/set2/orange.gif","img/card_backs/set2/blue.gif","""event"",""trial"",""time""
""fullscreenenter"",""1"",""3808""
""blur"",""71"",""506914""
""focus"",""71"",""547180""
","""event"",""trial"",""time""
""blur"",""71"",""506914""
","""event"",""trial"",""time""
""focus"",""71"",""547180""
","""event"",""trial"",""time""
""fullscreenenter"",""1"",""3808""
","
","","null","","null","","fixation","2021-08-05 20:24:38.145","","","","","",""
"card-selection-trial","99","627986","0.0-25.0-1.13","1050","false","img/card_backs/set1/green.gif","img/card_backs/set1/red.gif","img/card_backs/set1/yellow.gif","img/card_backs/set1/purple.gif","img/card_backs/set2/pink.gif","img/card_backs/set2/gray.gif","img/card_backs/set2/orange.gif","img/card_backs/set2/blue.gif","""event"",""trial"",""time""
""fullscreenenter"",""1"",""3808""
""blur"",""71"",""506914""
""focus"",""71"",""547180""
","""event"",""trial"",""time""
""blur"",""71"",""506914""
","""event"",""trial"",""time""
""focus"",""71"",""547180""
","""event"",""trial"",""time""
""fullscreenenter"",""1"",""3808""
","
","","738.5999999046326","","","","real_trial","2021-08-05 20:24:40.901","img/card_backs/set1/purple.gif","1","-70","1","",""
"casino-fixation","100","628494","0.0-25.0-0.14","1050","false","img/card_backs/set1/green.gif","img/card_backs/set1/red.gif","img/card_backs/set1/yellow.gif","img/card_backs/set1/purple.gif","img/card_backs/set2/pink.gif","img/card_backs/set2/gray.gif","img/card_backs/set2/orange.gif","img/card_backs/set2/blue.gif","""event"",""trial"",""time""
""fullscreenenter"",""1"",""3808""
""blur"",""71"",""506914""
""focus"",""71"",""547180""
","""event"",""trial"",""time""
""blur"",""71"",""506914""
","""event"",""trial"",""time""
""focus"",""71"",""547180""
","""event"",""trial"",""time""
""fullscreenenter"",""1"",""3808""
","
","","null","","null","","fixation","2021-08-05 20:24:41.409","","","","","",""
"card-selection-trial","101","632417","0.0-25.0-1.14","1050","false","img/card_backs/set1/green.gif","img/card_backs/set1/red.gif","img/card_backs/set1/yellow.gif","img/card_backs/set1/purple.gif","img/card_backs/set2/pink.gif","img/card_backs/set2/gray.gif","img/card_backs/set2/orange.gif","img/card_backs/set2/blue.gif","""event"",""trial"",""time""
""fullscreenenter"",""1"",""3808""
""blur"",""71"",""506914""
""focus"",""71"",""547180""
","""event"",""trial"",""time""
""blur"",""71"",""506914""
","""event"",""trial"",""time""
""focus"",""71"",""547180""
","""event"",""trial"",""time""
""fullscreenenter"",""1"",""3808""
","
","","1910","","","","real_trial","2021-08-05 20:24:45.332","img/card_backs/set1/red.gif","2","-250","1","",""
"casino-fixation","102","632925","0.0-25.0-0.15","1050","false","img/card_backs/set1/green.gif","img/card_backs/set1/red.gif","img/card_backs/set1/yellow.gif","img/card_backs/set1/purple.gif","img/card_backs/set2/pink.gif","img/card_backs/set2/gray.gif","img/card_backs/set2/orange.gif","img/card_backs/set2/blue.gif","""event"",""trial"",""time""
""fullscreenenter"",""1"",""3808""
""blur"",""71"",""506914""
""focus"",""71"",""547180""
","""event"",""trial"",""time""
""blur"",""71"",""506914""
","""event"",""trial"",""time""
""focus"",""71"",""547180""
","""event"",""trial"",""time""
""fullscreenenter"",""1"",""3808""
","
","","null","","null","","fixation","2021-08-05 20:24:45.840","","","","","",""
"card-selection-trial","103","635688","0.0-25.0-1.15","1050","false","img/card_backs/set1/green.gif","img/card_backs/set1/red.gif","img/card_backs/set1/yellow.gif","img/card_backs/set1/purple.gif","img/card_backs/set2/pink.gif","img/card_backs/set2/gray.gif","img/card_backs/set2/orange.gif","img/card_backs/set2/blue.gif","""event"",""trial"",""time""
""fullscreenenter"",""1"",""3808""
""blur"",""71"",""506914""
""focus"",""71"",""547180""
","""event"",""trial"",""time""
""blur"",""71"",""506914""
","""event"",""trial"",""time""
""focus"",""71"",""547180""
","""event"",""trial"",""time""
""fullscreenenter"",""1"",""3808""
","
","","751.5999999046326","","","","real_trial","2021-08-05 20:24:48.603","img/card_backs/set1/purple.gif","3","-70","1","",""
"casino-fixation","104","636197","0.0-25.0-0.16","1050","false","img/card_backs/set1/green.gif","img/card_backs/set1/red.gif","img/card_backs/set1/yellow.gif","img/card_backs/set1/purple.gif","img/card_backs/set2/pink.gif","img/card_backs/set2/gray.gif","img/card_backs/set2/orange.gif","img/card_backs/set2/blue.gif","""event"",""trial"",""time""
""fullscreenenter"",""1"",""3808""
""blur"",""71"",""506914""
""focus"",""71"",""547180""
","""event"",""trial"",""time""
""blur"",""71"",""506914""
","""event"",""trial"",""time""
""focus"",""71"",""547180""
","""event"",""trial"",""time""
""fullscreenenter"",""1"",""3808""
","
","","null","","null","","fixation","2021-08-05 20:24:49.112","","","","","",""
"card-selection-trial","105","638643","0.0-25.0-1.16","1050","false","img/card_backs/set1/green.gif","img/card_backs/set1/red.gif","img/card_backs/set1/yellow.gif","img/card_backs/set1/purple.gif","img/card_backs/set2/pink.gif","img/card_backs/set2/gray.gif","img/card_backs/set2/orange.gif","img/card_backs/set2/blue.gif","""event"",""trial"",""time""
""fullscreenenter"",""1"",""3808""
""blur"",""71"",""506914""
""focus"",""71"",""547180""
","""event"",""trial"",""time""
""blur"",""71"",""506914""
","""event"",""trial"",""time""
""focus"",""71"",""547180""
","""event"",""trial"",""time""
""fullscreenenter"",""1"",""3808""
","
","","430.5","","","","real_trial","2021-08-05 20:24:51.558","img/card_backs/set1/green.gif","2","-240","1","",""
"casino-fixation","106","639151","0.0-25.0-0.17","1050","false","img/card_backs/set1/green.gif","img/card_backs/set1/red.gif","img/card_backs/set1/yellow.gif","img/card_backs/set1/purple.gif","img/card_backs/set2/pink.gif","img/card_backs/set2/gray.gif","img/card_backs/set2/orange.gif","img/card_backs/set2/blue.gif","""event"",""trial"",""time""
""fullscreenenter"",""1"",""3808""
""blur"",""71"",""506914""
""focus"",""71"",""547180""
","""event"",""trial"",""time""
""blur"",""71"",""506914""
","""event"",""trial"",""time""
""focus"",""71"",""547180""
","""event"",""trial"",""time""
""fullscreenenter"",""1"",""3808""
","
","","null","","null","","fixation","2021-08-05 20:24:52.066","","","","","",""
"card-selection-trial","107","641796","0.0-25.0-1.17","1050","false","img/card_backs/set1/green.gif","img/card_backs/set1/red.gif","img/card_backs/set1/yellow.gif","img/card_backs/set1/purple.gif","img/card_backs/set2/pink.gif","img/card_backs/set2/gray.gif","img/card_backs/set2/orange.gif","img/card_backs/set2/blue.gif","""event"",""trial"",""time""
""fullscreenenter"",""1"",""3808""
""blur"",""71"",""506914""
""focus"",""71"",""547180""
","""event"",""trial"",""time""
""blur"",""71"",""506914""
","""event"",""trial"",""time""
""focus"",""71"",""547180""
","""event"",""trial"",""time""
""fullscreenenter"",""1"",""3808""
","
","","628.1000001430511","","","","real_trial","2021-08-05 20:24:54.711","img/card_backs/set1/yellow.gif","1","-70","1","",""
"casino-fixation","108","642306","0.0-25.0-0.18","1050","false","img/card_backs/set1/green.gif","img/card_backs/set1/red.gif","img/card_backs/set1/yellow.gif","img/card_backs/set1/purple.gif","img/card_backs/set2/pink.gif","img/card_backs/set2/gray.gif","img/card_backs/set2/orange.gif","img/card_backs/set2/blue.gif","""event"",""trial"",""time""
""fullscreenenter"",""1"",""3808""
""blur"",""71"",""506914""
""focus"",""71"",""547180""
","""event"",""trial"",""time""
""blur"",""71"",""506914""
","""event"",""trial"",""time""
""focus"",""71"",""547180""
","""event"",""trial"",""time""
""fullscreenenter"",""1"",""3808""
","
","","null","","null","","fixation","2021-08-05 20:24:55.222","","","","","",""
"card-selection-trial","109","644428","0.0-25.0-1.18","1050","false","img/card_backs/set1/green.gif","img/card_backs/set1/red.gif","img/card_backs/set1/yellow.gif","img/card_backs/set1/purple.gif","img/card_backs/set2/pink.gif","img/card_backs/set2/gray.gif","img/card_backs/set2/orange.gif","img/card_backs/set2/blue.gif","""event"",""trial"",""time""
""fullscreenenter"",""1"",""3808""
""blur"",""71"",""506914""
""focus"",""71"",""547180""
","""event"",""trial"",""time""
""blur"",""71"",""506914""
","""event"",""trial"",""time""
""focus"",""71"",""547180""
","""event"",""trial"",""time""
""fullscreenenter"",""1"",""3808""
","
","","102.59999990463257","","","","real_trial","2021-08-05 20:24:57.343","img/card_backs/set1/green.gif","0","-230","1","",""
"casino-fixation","110","644937","0.0-25.0-0.19","1050","false","img/card_backs/set1/green.gif","img/card_backs/set1/red.gif","img/card_backs/set1/yellow.gif","img/card_backs/set1/purple.gif","img/card_backs/set2/pink.gif","img/card_backs/set2/gray.gif","img/card_backs/set2/orange.gif","img/card_backs/set2/blue.gif","""event"",""trial"",""time""
""fullscreenenter"",""1"",""3808""
""blur"",""71"",""506914""
""focus"",""71"",""547180""
","""event"",""trial"",""time""
""blur"",""71"",""506914""
","""event"",""trial"",""time""
""focus"",""71"",""547180""
","""event"",""trial"",""time""
""fullscreenenter"",""1"",""3808""
","
","","null","","null","","fixation","2021-08-05 20:24:57.853","","","","","",""
"card-selection-trial","111","647832","0.0-25.0-1.19","1050","false","img/card_backs/set1/green.gif","img/card_backs/set1/red.gif","img/card_backs/set1/yellow.gif","img/card_backs/set1/purple.gif","img/card_backs/set2/pink.gif","img/card_backs/set2/gray.gif","img/card_backs/set2/orange.gif","img/card_backs/set2/blue.gif","""event"",""trial"",""time""
""fullscreenenter"",""1"",""3808""
""blur"",""71"",""506914""
""focus"",""71"",""547180""
","""event"",""trial"",""time""
""blur"",""71"",""506914""
","""event"",""trial"",""time""
""focus"",""71"",""547180""
","""event"",""trial"",""time""
""fullscreenenter"",""1"",""3808""
","
","","875.5999999046326","","","","real_trial","2021-08-05 20:25:00.747","img/card_backs/set1/yellow.gif","1","100","1","",""
"casino-fixation","112","648340","0.0-25.0-0.20","1050","false","img/card_backs/set1/green.gif","img/card_backs/set1/red.gif","img/card_backs/set1/yellow.gif","img/card_backs/set1/purple.gif","img/card_backs/set2/pink.gif","img/card_backs/set2/gray.gif","img/card_backs/set2/orange.gif","img/card_backs/set2/blue.gif","""event"",""trial"",""time""
""fullscreenenter"",""1"",""3808""
""blur"",""71"",""506914""
""focus"",""71"",""547180""
","""event"",""trial"",""time""
""blur"",""71"",""506914""
","""event"",""trial"",""time""
""focus"",""71"",""547180""
","""event"",""trial"",""time""
""fullscreenenter"",""1"",""3808""
","
","","null","","null","","fixation","2021-08-05 20:25:01.255","","","","","",""
"card-selection-trial","113","650518","0.0-25.0-1.20","1050","false","img/card_backs/set1/green.gif","img/card_backs/set1/red.gif","img/card_backs/set1/yellow.gif","img/card_backs/set1/purple.gif","img/card_backs/set2/pink.gif","img/card_backs/set2/gray.gif","img/card_backs/set2/orange.gif","img/card_backs/set2/blue.gif","""event"",""trial"",""time""
""fullscreenenter"",""1"",""3808""
""blur"",""71"",""506914""
""focus"",""71"",""547180""
","""event"",""trial"",""time""
""blur"",""71"",""506914""
","""event"",""trial"",""time""
""focus"",""71"",""547180""
","""event"",""trial"",""time""
""fullscreenenter"",""1"",""3808""
","
","","158.60000014305115","","","","real_trial","2021-08-05 20:25:03.434","img/card_backs/set1/red.gif","2","-230","1","",""
"casino-fixation","114","651027","0.0-25.0-0.21","1050","false","img/card_backs/set1/green.gif","img/card_backs/set1/red.gif","img/card_backs/set1/yellow.gif","img/card_backs/set1/purple.gif","img/card_backs/set2/pink.gif","img/card_backs/set2/gray.gif","img/card_backs/set2/orange.gif","img/card_backs/set2/blue.gif","""event"",""trial"",""time""
""fullscreenenter"",""1"",""3808""
""blur"",""71"",""506914""
""focus"",""71"",""547180""
","""event"",""trial"",""time""
""blur"",""71"",""506914""
","""event"",""trial"",""time""
""focus"",""71"",""547180""
","""event"",""trial"",""time""
""fullscreenenter"",""1"",""3808""
","
","","null","","null","","fixation","2021-08-05 20:25:03.942","","","","","",""
"card-selection-trial","115","653413","0.0-25.0-1.21","1050","false","img/card_backs/set1/green.gif","img/card_backs/set1/red.gif","img/card_backs/set1/yellow.gif","img/card_backs/set1/purple.gif","img/card_backs/set2/pink.gif","img/card_backs/set2/gray.gif","img/card_backs/set2/orange.gif","img/card_backs/set2/blue.gif","""event"",""trial"",""time""
""fullscreenenter"",""1"",""3808""
""blur"",""71"",""506914""
""focus"",""71"",""547180""
","""event"",""trial"",""time""
""blur"",""71"",""506914""
","""event"",""trial"",""time""
""focus"",""71"",""547180""
","""event"",""trial"",""time""
""fullscreenenter"",""1"",""3808""
","
","","373.90000009536743","","","","real_trial","2021-08-05 20:25:06.328","img/card_backs/set1/purple.gif","3","120","1","",""
"casino-fixation","116","653921","0.0-25.0-0.22","1050","false","img/card_backs/set1/green.gif","img/card_backs/set1/red.gif","img/card_backs/set1/yellow.gif","img/card_backs/set1/purple.gif","img/card_backs/set2/pink.gif","img/card_backs/set2/gray.gif","img/card_backs/set2/orange.gif","img/card_backs/set2/blue.gif","""event"",""trial"",""time""
""fullscreenenter"",""1"",""3808""
""blur"",""71"",""506914""
""focus"",""71"",""547180""
","""event"",""trial"",""time""
""blur"",""71"",""506914""
","""event"",""trial"",""time""
""focus"",""71"",""547180""
","""event"",""trial"",""time""
""fullscreenenter"",""1"",""3808""
","
","","null","","null","","fixation","2021-08-05 20:25:06.836","","","","","",""
"card-selection-trial","117","657859","0.0-25.0-1.22","1050","false","img/card_backs/set1/green.gif","img/card_backs/set1/red.gif","img/card_backs/set1/yellow.gif","img/card_backs/set1/purple.gif","img/card_backs/set2/pink.gif","img/card_backs/set2/gray.gif","img/card_backs/set2/orange.gif","img/card_backs/set2/blue.gif","""event"",""trial"",""time""
""fullscreenenter"",""1"",""3808""
""blur"",""71"",""506914""
""focus"",""71"",""547180""
","""event"",""trial"",""time""
""blur"",""71"",""506914""
","""event"",""trial"",""time""
""focus"",""71"",""547180""
","""event"",""trial"",""time""
""fullscreenenter"",""1"",""3808""
","
","","1922.7999999523163","","","","real_trial","2021-08-05 20:25:10.775","img/card_backs/set1/green.gif","0","190","1","",""
"casino-fixation","118","658368","0.0-25.0-0.23","1050","false","img/card_backs/set1/green.gif","img/card_backs/set1/red.gif","img/card_backs/set1/yellow.gif","img/card_backs/set1/purple.gif","img/card_backs/set2/pink.gif","img/card_backs/set2/gray.gif","img/card_backs/set2/orange.gif","img/card_backs/set2/blue.gif","""event"",""trial"",""time""
""fullscreenenter"",""1"",""3808""
""blur"",""71"",""506914""
""focus"",""71"",""547180""
","""event"",""trial"",""time""
""blur"",""71"",""506914""
","""event"",""trial"",""time""
""focus"",""71"",""547180""
","""event"",""trial"",""time""
""fullscreenenter"",""1"",""3808""
","
","","null","","null","","fixation","2021-08-05 20:25:11.283","","","","","",""
"card-selection-trial","119","661170","0.0-25.0-1.23","1050","false","img/card_backs/set1/green.gif","img/card_backs/set1/red.gif","img/card_backs/set1/yellow.gif","img/card_backs/set1/purple.gif","img/card_backs/set2/pink.gif","img/card_backs/set2/gray.gif","img/card_backs/set2/orange.gif","img/card_backs/set2/blue.gif","""event"",""trial"",""time""
""fullscreenenter"",""1"",""3808""
""blur"",""71"",""506914""
""focus"",""71"",""547180""
","""event"",""trial"",""time""
""blur"",""71"",""506914""
","""event"",""trial"",""time""
""focus"",""71"",""547180""
","""event"",""trial"",""time""
""fullscreenenter"",""1"",""3808""
","
","","785","","","","real_trial","2021-08-05 20:25:14.085","img/card_backs/set1/yellow.gif","1","-60","1","",""
"casino-fixation","120","661678","0.0-25.0-0.24","1050","false","img/card_backs/set1/green.gif","img/card_backs/set1/red.gif","img/card_backs/set1/yellow.gif","img/card_backs/set1/purple.gif","img/card_backs/set2/pink.gif","img/card_backs/set2/gray.gif","img/card_backs/set2/orange.gif","img/card_backs/set2/blue.gif","""event"",""trial"",""time""
""fullscreenenter"",""1"",""3808""
""blur"",""71"",""506914""
""focus"",""71"",""547180""
","""event"",""trial"",""time""
""blur"",""71"",""506914""
","""event"",""trial"",""time""
""focus"",""71"",""547180""
","""event"",""trial"",""time""
""fullscreenenter"",""1"",""3808""
","
","","null","","null","","fixation","2021-08-05 20:25:14.594","","","","","",""
"card-selection-trial","121","663878","0.0-25.0-1.24","1050","false","img/card_backs/set1/green.gif","img/card_backs/set1/red.gif","img/card_backs/set1/yellow.gif","img/card_backs/set1/purple.gif","img/card_backs/set2/pink.gif","img/card_backs/set2/gray.gif","img/card_backs/set2/orange.gif","img/card_backs/set2/blue.gif","""event"",""trial"",""time""
""fullscreenenter"",""1"",""3808""
""blur"",""71"",""506914""
""focus"",""71"",""547180""
","""event"",""trial"",""time""
""blur"",""71"",""506914""
","""event"",""trial"",""time""
""focus"",""71"",""547180""
","""event"",""trial"",""time""
""fullscreenenter"",""1"",""3808""
","
","","181.40000009536743","","","","real_trial","2021-08-05 20:25:16.793","img/card_backs/set1/red.gif","2","180","1","",""
"casino-fixation","122","664387","0.0-25.0-0.25","1050","false","img/card_backs/set1/green.gif","img/card_backs/set1/red.gif","img/card_backs/set1/yellow.gif","img/card_backs/set1/purple.gif","img/card_backs/set2/pink.gif","img/card_backs/set2/gray.gif","img/card_backs/set2/orange.gif","img/card_backs/set2/blue.gif","""event"",""trial"",""time""
""fullscreenenter"",""1"",""3808""
""blur"",""71"",""506914""
""focus"",""71"",""547180""
","""event"",""trial"",""time""
""blur"",""71"",""506914""
","""event"",""trial"",""time""
""focus"",""71"",""547180""
","""event"",""trial"",""time""
""fullscreenenter"",""1"",""3808""
","
","","null","","null","","fixation","2021-08-05 20:25:17.302","","","","","",""
"card-selection-trial","123","667077","0.0-25.0-1.25","1050","false","img/card_backs/set1/green.gif","img/card_backs/set1/red.gif","img/card_backs/set1/yellow.gif","img/card_backs/set1/purple.gif","img/card_backs/set2/pink.gif","img/card_backs/set2/gray.gif","img/card_backs/set2/orange.gif","img/card_backs/set2/blue.gif","""event"",""trial"",""time""
""fullscreenenter"",""1"",""3808""
""blur"",""71"",""506914""
""focus"",""71"",""547180""
","""event"",""trial"",""time""
""blur"",""71"",""506914""
","""event"",""trial"",""time""
""focus"",""71"",""547180""
","""event"",""trial"",""time""
""fullscreenenter"",""1"",""3808""
","
","","675.5","","","","real_trial","2021-08-05 20:25:19.992","img/card_backs/set1/yellow.gif","3","120","1","",""
"casino-fixation","124","667586","0.0-25.0-0.26","1050","false","img/card_backs/set1/green.gif","img/card_backs/set1/red.gif","img/card_backs/set1/yellow.gif","img/card_backs/set1/purple.gif","img/card_backs/set2/pink.gif","img/card_backs/set2/gray.gif","img/card_backs/set2/orange.gif","img/card_backs/set2/blue.gif","""event"",""trial"",""time""
""fullscreenenter"",""1"",""3808""
""blur"",""71"",""506914""
""focus"",""71"",""547180""
","""event"",""trial"",""time""
""blur"",""71"",""506914""
","""event"",""trial"",""time""
""focus"",""71"",""547180""
","""event"",""trial"",""time""
""fullscreenenter"",""1"",""3808""
","
","","null","","null","","fixation","2021-08-05 20:25:20.501","","","","","",""
"card-selection-trial","125","670709","0.0-25.0-1.26","1050","false","img/card_backs/set1/green.gif","img/card_backs/set1/red.gif","img/card_backs/set1/yellow.gif","img/card_backs/set1/purple.gif","img/card_backs/set2/pink.gif","img/card_backs/set2/gray.gif","img/card_backs/set2/orange.gif","img/card_backs/set2/blue.gif","""event"",""trial"",""time""
""fullscreenenter"",""1"",""3808""
""blur"",""71"",""506914""
""focus"",""71"",""547180""
","""event"",""trial"",""time""
""blur"",""71"",""506914""
","""event"",""trial"",""time""
""focus"",""71"",""547180""
","""event"",""trial"",""time""
""fullscreenenter"",""1"",""3808""
","
","","1101.7000000476837","","","","real_trial","2021-08-05 20:25:23.624","img/card_backs/set1/yellow.gif","2","110","1","",""
"casino-fixation","126","671217","0.0-25.0-0.27","1050","false","img/card_backs/set1/green.gif","img/card_backs/set1/red.gif","img/card_backs/set1/yellow.gif","img/card_backs/set1/purple.gif","img/card_backs/set2/pink.gif","img/card_backs/set2/gray.gif","img/card_backs/set2/orange.gif","img/card_backs/set2/blue.gif","""event"",""trial"",""time""
""fullscreenenter"",""1"",""3808""
""blur"",""71"",""506914""
""focus"",""71"",""547180""
","""event"",""trial"",""time""
""blur"",""71"",""506914""
","""event"",""trial"",""time""
""focus"",""71"",""547180""
","""event"",""trial"",""time""
""fullscreenenter"",""1"",""3808""
","
","","null","","null","","fixation","2021-08-05 20:25:24.133","","","","","",""
"card-selection-trial","127","673973","0.0-25.0-1.27","1050","false","img/card_backs/set1/green.gif","img/card_backs/set1/red.gif","img/card_backs/set1/yellow.gif","img/card_backs/set1/purple.gif","img/card_backs/set2/pink.gif","img/card_backs/set2/gray.gif","img/card_backs/set2/orange.gif","img/card_backs/set2/blue.gif","""event"",""trial"",""time""
""fullscreenenter"",""1"",""3808""
""blur"",""71"",""506914""
""focus"",""71"",""547180""
","""event"",""trial"",""time""
""blur"",""71"",""506914""
","""event"",""trial"",""time""
""focus"",""71"",""547180""
","""event"",""trial"",""time""
""fullscreenenter"",""1"",""3808""
","
","","744.7000000476837","","","","real_trial","2021-08-05 20:25:26.888","img/card_backs/set1/yellow.gif","0","-70","1","",""
"casino-fixation","128","674484","0.0-25.0-0.28","1050","false","img/card_backs/set1/green.gif","img/card_backs/set1/red.gif","img/card_backs/set1/yellow.gif","img/card_backs/set1/purple.gif","img/card_backs/set2/pink.gif","img/card_backs/set2/gray.gif","img/card_backs/set2/orange.gif","img/card_backs/set2/blue.gif","""event"",""trial"",""time""
""fullscreenenter"",""1"",""3808""
""blur"",""71"",""506914""
""focus"",""71"",""547180""
","""event"",""trial"",""time""
""blur"",""71"",""506914""
","""event"",""trial"",""time""
""focus"",""71"",""547180""
","""event"",""trial"",""time""
""fullscreenenter"",""1"",""3808""
","
","","null","","null","","fixation","2021-08-05 20:25:27.399","","","","","",""
"card-selection-trial","129","677539","0.0-25.0-1.28","1050","false","img/card_backs/set1/green.gif","img/card_backs/set1/red.gif","img/card_backs/set1/yellow.gif","img/card_backs/set1/purple.gif","img/card_backs/set2/pink.gif","img/card_backs/set2/gray.gif","img/card_backs/set2/orange.gif","img/card_backs/set2/blue.gif","""event"",""trial"",""time""
""fullscreenenter"",""1"",""3808""
""blur"",""71"",""506914""
""focus"",""71"",""547180""
","""event"",""trial"",""time""
""blur"",""71"",""506914""
","""event"",""trial"",""time""
""focus"",""71"",""547180""
","""event"",""trial"",""time""
""fullscreenenter"",""1"",""3808""
","
","","1035.9000000953674","","","","real_trial","2021-08-05 20:25:30.454","img/card_backs/set1/red.gif","1","190","1","",""
"casino-fixation","130","678049","0.0-25.0-0.29","1050","false","img/card_backs/set1/green.gif","img/card_backs/set1/red.gif","img/card_backs/set1/yellow.gif","img/card_backs/set1/purple.gif","img/card_backs/set2/pink.gif","img/card_backs/set2/gray.gif","img/card_backs/set2/orange.gif","img/card_backs/set2/blue.gif","""event"",""trial"",""time""
""fullscreenenter"",""1"",""3808""
""blur"",""71"",""506914""
""focus"",""71"",""547180""
","""event"",""trial"",""time""
""blur"",""71"",""506914""
","""event"",""trial"",""time""
""focus"",""71"",""547180""
","""event"",""trial"",""time""
""fullscreenenter"",""1"",""3808""
","
","","null","","null","","fixation","2021-08-05 20:25:30.964","","","","","",""
"card-selection-trial","131","681346","0.0-25.0-1.29","1050","false","img/card_backs/set1/green.gif","img/card_backs/set1/red.gif","img/card_backs/set1/yellow.gif","img/card_backs/set1/purple.gif","img/card_backs/set2/pink.gif","img/card_backs/set2/gray.gif","img/card_backs/set2/orange.gif","img/card_backs/set2/blue.gif","""event"",""trial"",""time""
""fullscreenenter"",""1"",""3808""
""blur"",""71"",""506914""
""focus"",""71"",""547180""
","""event"",""trial"",""time""
""blur"",""71"",""506914""
","""event"",""trial"",""time""
""focus"",""71"",""547180""
","""event"",""trial"",""time""
""fullscreenenter"",""1"",""3808""
","
","","1281.9000000953674","","","","real_trial","2021-08-05 20:25:34.261","img/card_backs/set1/red.gif","1","200","1","",""
"casino-fixation","132","681854","0.0-25.0-0.30","1050","false","img/card_backs/set1/green.gif","img/card_backs/set1/red.gif","img/card_backs/set1/yellow.gif","img/card_backs/set1/purple.gif","img/card_backs/set2/pink.gif","img/card_backs/set2/gray.gif","img/card_backs/set2/orange.gif","img/card_backs/set2/blue.gif","""event"",""trial"",""time""
""fullscreenenter"",""1"",""3808""
""blur"",""71"",""506914""
""focus"",""71"",""547180""
","""event"",""trial"",""time""
""blur"",""71"",""506914""
","""event"",""trial"",""time""
""focus"",""71"",""547180""
","""event"",""trial"",""time""
""fullscreenenter"",""1"",""3808""
","
","","null","","null","","fixation","2021-08-05 20:25:34.770","","","","","",""
"card-selection-trial","133","684485","0.0-25.0-1.30","1050","false","img/card_backs/set1/green.gif","img/card_backs/set1/red.gif","img/card_backs/set1/yellow.gif","img/card_backs/set1/purple.gif","img/card_backs/set2/pink.gif","img/card_backs/set2/gray.gif","img/card_backs/set2/orange.gif","img/card_backs/set2/blue.gif","""event"",""trial"",""time""
""fullscreenenter"",""1"",""3808""
""blur"",""71"",""506914""
""focus"",""71"",""547180""
","""event"",""trial"",""time""
""blur"",""71"",""506914""
","""event"",""trial"",""time""
""focus"",""71"",""547180""
","""event"",""trial"",""time""
""fullscreenenter"",""1"",""3808""
","
","","611.9000000953674","","","","real_trial","2021-08-05 20:25:37.400","img/card_backs/set1/purple.gif","1","110","1","",""
"casino-fixation","134","684993","0.0-25.0-0.31","1050","false","img/card_backs/set1/green.gif","img/card_backs/set1/red.gif","img/card_backs/set1/yellow.gif","img/card_backs/set1/purple.gif","img/card_backs/set2/pink.gif","img/card_backs/set2/gray.gif","img/card_backs/set2/orange.gif","img/card_backs/set2/blue.gif","""event"",""trial"",""time""
""fullscreenenter"",""1"",""3808""
""blur"",""71"",""506914""
""focus"",""71"",""547180""
","""event"",""trial"",""time""
""blur"",""71"",""506914""
","""event"",""trial"",""time""
""focus"",""71"",""547180""
","""event"",""trial"",""time""
""fullscreenenter"",""1"",""3808""
","
","","null","","null","","fixation","2021-08-05 20:25:37.908","","","","","",""
"card-selection-trial","135","687190","0.0-25.0-1.31","1050","false","img/card_backs/set1/green.gif","img/card_backs/set1/red.gif","img/card_backs/set1/yellow.gif","img/card_backs/set1/purple.gif","img/card_backs/set2/pink.gif","img/card_backs/set2/gray.gif","img/card_backs/set2/orange.gif","img/card_backs/set2/blue.gif","""event"",""trial"",""time""
""fullscreenenter"",""1"",""3808""
""blur"",""71"",""506914""
""focus"",""71"",""547180""
","""event"",""trial"",""time""
""blur"",""71"",""506914""
","""event"",""trial"",""time""
""focus"",""71"",""547180""
","""event"",""trial"",""time""
""fullscreenenter"",""1"",""3808""
","
","","180.40000009536743","","","","real_trial","2021-08-05 20:25:40.105","img/card_backs/set1/purple.gif","1","100","1","",""
"casino-fixation","136","687698","0.0-25.0-0.32","1050","false","img/card_backs/set1/green.gif","img/card_backs/set1/red.gif","img/card_backs/set1/yellow.gif","img/card_backs/set1/purple.gif","img/card_backs/set2/pink.gif","img/card_backs/set2/gray.gif","img/card_backs/set2/orange.gif","img/card_backs/set2/blue.gif","""event"",""trial"",""time""
""fullscreenenter"",""1"",""3808""
""blur"",""71"",""506914""
""focus"",""71"",""547180""
","""event"",""trial"",""time""
""blur"",""71"",""506914""
","""event"",""trial"",""time""
""focus"",""71"",""547180""
","""event"",""trial"",""time""
""fullscreenenter"",""1"",""3808""
","
","","null","","null","","fixation","2021-08-05 20:25:40.613","","","","","",""
"card-selection-trial","137","690487","0.0-25.0-1.32","1050","false","img/card_backs/set1/green.gif","img/card_backs/set1/red.gif","img/card_backs/set1/yellow.gif","img/card_backs/set1/purple.gif","img/card_backs/set2/pink.gif","img/card_backs/set2/gray.gif","img/card_backs/set2/orange.gif","img/card_backs/set2/blue.gif","""event"",""trial"",""time""
""fullscreenenter"",""1"",""3808""
""blur"",""71"",""506914""
""focus"",""71"",""547180""
","""event"",""trial"",""time""
""blur"",""71"",""506914""
","""event"",""trial"",""time""
""focus"",""71"",""547180""
","""event"",""trial"",""time""
""fullscreenenter"",""1"",""3808""
","
","","777.5","","","","real_trial","2021-08-05 20:25:43.402","img/card_backs/set1/green.gif","1","-240","1","",""
"casino-fixation","138","690996","0.0-25.0-0.33","1050","false","img/card_backs/set1/green.gif","img/card_backs/set1/red.gif","img/card_backs/set1/yellow.gif","img/card_backs/set1/purple.gif","img/card_backs/set2/pink.gif","img/card_backs/set2/gray.gif","img/card_backs/set2/orange.gif","img/card_backs/set2/blue.gif","""event"",""trial"",""time""
""fullscreenenter"",""1"",""3808""
""blur"",""71"",""506914""
""focus"",""71"",""547180""
","""event"",""trial"",""time""
""blur"",""71"",""506914""
","""event"",""trial"",""time""
""focus"",""71"",""547180""
","""event"",""trial"",""time""
""fullscreenenter"",""1"",""3808""
","
","","null","","null","","fixation","2021-08-05 20:25:43.911","","","","","",""
"card-selection-trial","139","693459","0.0-25.0-1.33","1050","false","img/card_backs/set1/green.gif","img/card_backs/set1/red.gif","img/card_backs/set1/yellow.gif","img/card_backs/set1/purple.gif","img/card_backs/set2/pink.gif","img/card_backs/set2/gray.gif","img/card_backs/set2/orange.gif","img/card_backs/set2/blue.gif","""event"",""trial"",""time""
""fullscreenenter"",""1"",""3808""
""blur"",""71"",""506914""
""focus"",""71"",""547180""
","""event"",""trial"",""time""
""blur"",""71"",""506914""
","""event"",""trial"",""time""
""focus"",""71"",""547180""
","""event"",""trial"",""time""
""fullscreenenter"",""1"",""3808""
","
","","444.5","","","","real_trial","2021-08-05 20:25:46.374","img/card_backs/set1/red.gif","2","-240","1","",""
"casino-fixation","140","693967","0.0-25.0-0.34","1050","false","img/card_backs/set1/green.gif","img/card_backs/set1/red.gif","img/card_backs/set1/yellow.gif","img/card_backs/set1/purple.gif","img/card_backs/set2/pink.gif","img/card_backs/set2/gray.gif","img/card_backs/set2/orange.gif","img/card_backs/set2/blue.gif","""event"",""trial"",""time""
""fullscreenenter"",""1"",""3808""
""blur"",""71"",""506914""
""focus"",""71"",""547180""
","""event"",""trial"",""time""
""blur"",""71"",""506914""
","""event"",""trial"",""time""
""focus"",""71"",""547180""
","""event"",""trial"",""time""
""fullscreenenter"",""1"",""3808""
","
","","null","","null","","fixation","2021-08-05 20:25:46.882","","","","","",""
"card-selection-trial","141","696023","0.0-25.0-1.34","1050","false","img/card_backs/set1/green.gif","img/card_backs/set1/red.gif","img/card_backs/set1/yellow.gif","img/card_backs/set1/purple.gif","img/card_backs/set2/pink.gif","img/card_backs/set2/gray.gif","img/card_backs/set2/orange.gif","img/card_backs/set2/blue.gif","""event"",""trial"",""time""
""fullscreenenter"",""1"",""3808""
""blur"",""71"",""506914""
""focus"",""71"",""547180""
","""event"",""trial"",""time""
""blur"",""71"",""506914""
","""event"",""trial"",""time""
""focus"",""71"",""547180""
","""event"",""trial"",""time""
""fullscreenenter"",""1"",""3808""
","
","","43.80000019073486","","","","real_trial","2021-08-05 20:25:48.938","img/card_backs/set1/yellow.gif","3","120","1","",""
"casino-fixation","142","696530","0.0-25.0-0.35","1050","false","img/card_backs/set1/green.gif","img/card_backs/set1/red.gif","img/card_backs/set1/yellow.gif","img/card_backs/set1/purple.gif","img/card_backs/set2/pink.gif","img/card_backs/set2/gray.gif","img/card_backs/set2/orange.gif","img/card_backs/set2/blue.gif","""event"",""trial"",""time""
""fullscreenenter"",""1"",""3808""
""blur"",""71"",""506914""
""focus"",""71"",""547180""
","""event"",""trial"",""time""
""blur"",""71"",""506914""
","""event"",""trial"",""time""
""focus"",""71"",""547180""
","""event"",""trial"",""time""
""fullscreenenter"",""1"",""3808""
","
","","null","","null","","fixation","2021-08-05 20:25:49.446","","","","","",""
"card-selection-trial","143","700268","0.0-25.0-1.35","1050","false","img/card_backs/set1/green.gif","img/card_backs/set1/red.gif","img/card_backs/set1/yellow.gif","img/card_backs/set1/purple.gif","img/card_backs/set2/pink.gif","img/card_backs/set2/gray.gif","img/card_backs/set2/orange.gif","img/card_backs/set2/blue.gif","""event"",""trial"",""time""
""fullscreenenter"",""1"",""3808""
""blur"",""71"",""506914""
""focus"",""71"",""547180""
","""event"",""trial"",""time""
""blur"",""71"",""506914""
","""event"",""trial"",""time""
""focus"",""71"",""547180""
","""event"",""trial"",""time""
""fullscreenenter"",""1"",""3808""
","
","","1724.2000000476837","","","","real_trial","2021-08-05 20:25:53.183","img/card_backs/set1/purple.gif","2","-70","1","",""
"casino-fixation","144","700777","0.0-25.0-0.36","1050","false","img/card_backs/set1/green.gif","img/card_backs/set1/red.gif","img/card_backs/set1/yellow.gif","img/card_backs/set1/purple.gif","img/card_backs/set2/pink.gif","img/card_backs/set2/gray.gif","img/card_backs/set2/orange.gif","img/card_backs/set2/blue.gif","""event"",""trial"",""time""
""fullscreenenter"",""1"",""3808""
""blur"",""71"",""506914""
""focus"",""71"",""547180""
","""event"",""trial"",""time""
""blur"",""71"",""506914""
","""event"",""trial"",""time""
""focus"",""71"",""547180""
","""event"",""trial"",""time""
""fullscreenenter"",""1"",""3808""
","
","","null","","null","","fixation","2021-08-05 20:25:53.692","","","","","",""
