"trial_type","trial_index","time_elapsed","internal_node_id","sub_id","risk_good_first","block1_A","block1_B","block1_C","block1_D","block2_A","block2_B","block2_C","block2_D","interactions","blur_events","focus_events","fullscreenenter_events","fullscreenexit_events","success","rt","stimulus","key_press","button_pressed","task_part","timestamp","card_choice","choice_position","points_earned","block","correct","response"
"pavlovia","0","4","0.0-0.0","A1358","false","img/card_backs/set1/red.gif","img/card_backs/set1/purple.gif","img/card_backs/set1/green.gif","img/card_backs/set1/yellow.gif","img/card_backs/set2/gray.gif","img/card_backs/set2/orange.gif","img/card_backs/set2/pink.gif","img/card_backs/set2/blue.gif","""event"",""trial"",""time""
""focus"",""0"",""0""
""fullscreenenter"",""1"",""2600""
","
","""event"",""trial"",""time""
""focus"",""0"",""0""
","""event"",""trial"",""time""
""fullscreenenter"",""1"",""2600""
","
","","","","","","","","","","","","",""
"fullscreen","1","3406","0.0-1.0","A1358","false","img/card_backs/set1/red.gif","img/card_backs/set1/purple.gif","img/card_backs/set1/green.gif","img/card_backs/set1/yellow.gif","img/card_backs/set2/gray.gif","img/card_backs/set2/orange.gif","img/card_backs/set2/pink.gif","img/card_backs/set2/blue.gif","""event"",""trial"",""time""
""focus"",""0"",""0""
""fullscreenenter"",""1"",""2600""
","
","""event"",""trial"",""time""
""focus"",""0"",""0""
","""event"",""trial"",""time""
""fullscreenenter"",""1"",""2600""
","
","true","","","","","","","","","","","",""
"audio-keyboard-response","2","5425","0.0-2.0","A1358","false","img/card_backs/set1/red.gif","img/card_backs/set1/purple.gif","img/card_backs/set1/green.gif","img/card_backs/set1/yellow.gif","img/card_backs/set2/gray.gif","img/card_backs/set2/orange.gif","img/card_backs/set2/pink.gif","img/card_backs/set2/blue.gif","""event"",""trial"",""time""
""focus"",""0"",""0""
""fullscreenenter"",""1"",""2600""
","
","""event"",""trial"",""time""
""focus"",""0"",""0""
","""event"",""trial"",""time""
""fullscreenenter"",""1"",""2600""
","
","","2019","audio/beep_loop.wav","32","","","","","","","","",""
"audio-button-response","3","7289","0.0-3.0","A1358","false","img/card_backs/set1/red.gif","img/card_backs/set1/purple.gif","img/card_backs/set1/green.gif","img/card_backs/set1/yellow.gif","img/card_backs/set2/gray.gif","img/card_backs/set2/orange.gif","img/card_backs/set2/pink.gif","img/card_backs/set2/blue.gif","""event"",""trial"",""time""
""focus"",""0"",""0""
""fullscreenenter"",""1"",""2600""
","
","""event"",""trial"",""time""
""focus"",""0"",""0""
","""event"",""trial"",""time""
""fullscreenenter"",""1"",""2600""
","
","","NaN","audio/turtle.mp3","","3","","","","","","","",""
"audio-button-response","4","9378","0.0-4.0","A1358","false","img/card_backs/set1/red.gif","img/card_backs/set1/purple.gif","img/card_backs/set1/green.gif","img/card_backs/set1/yellow.gif","img/card_backs/set2/gray.gif","img/card_backs/set2/orange.gif","img/card_backs/set2/pink.gif","img/card_backs/set2/blue.gif","""event"",""trial"",""time""
""focus"",""0"",""0""
""fullscreenenter"",""1"",""2600""
","
","""event"",""trial"",""time""
""focus"",""0"",""0""
","""event"",""trial"",""time""
""fullscreenenter"",""1"",""2600""
","
","","NaN","audio/shark.mp3","","2","","","","","","","",""
"fullscreen","5","12079","0.0-5.0","A1358","false","img/card_backs/set1/red.gif","img/card_backs/set1/purple.gif","img/card_backs/set1/green.gif","img/card_backs/set1/yellow.gif","img/card_backs/set2/gray.gif","img/card_backs/set2/orange.gif","img/card_backs/set2/pink.gif","img/card_backs/set2/blue.gif","""event"",""trial"",""time""
""focus"",""0"",""0""
""fullscreenenter"",""1"",""2600""
","
","""event"",""trial"",""time""
""focus"",""0"",""0""
","""event"",""trial"",""time""
""fullscreenenter"",""1"",""2600""
","
","true","","","","","","","","","","","",""
"casino-keyboard-response","6","15261","0.0-6.0-0.0","A1358","false","img/card_backs/set1/red.gif","img/card_backs/set1/purple.gif","img/card_backs/set1/green.gif","img/card_backs/set1/yellow.gif","img/card_backs/set2/gray.gif","img/card_backs/set2/orange.gif","img/card_backs/set2/pink.gif","img/card_backs/set2/blue.gif","""event"",""trial"",""time""
""focus"",""0"",""0""
""fullscreenenter"",""1"",""2600""
","
","""event"",""trial"",""time""
""focus"",""0"",""0""
","""event"",""trial"",""time""
""fullscreenenter"",""1"",""2600""
","
","","3181","Welcome to the casino!","71","","instructions","2021-07-09 19:58:02.734","","","","","",""
"casino-keyboard-response","7","24591","0.0-6.0-0.1","A1358","false","img/card_backs/set1/red.gif","img/card_backs/set1/purple.gif","img/card_backs/set1/green.gif","img/card_backs/set1/yellow.gif","img/card_backs/set2/gray.gif","img/card_backs/set2/orange.gif","img/card_backs/set2/pink.gif","img/card_backs/set2/blue.gif","""event"",""trial"",""time""
""focus"",""0"",""0""
""fullscreenenter"",""1"",""2600""
","
","""event"",""trial"",""time""
""focus"",""0"",""0""
","""event"",""trial"",""time""
""fullscreenenter"",""1"",""2600""
","
","","9329","Today you will be playing a game to earn tokens. </br> At the end of the experiment, you will be paid a bonus based on how many tokens you win. ","69","","instructions","2021-07-09 19:58:12.064","","","","","",""
"casino-keyboard-response","8","31797","0.0-6.0-0.2","A1358","false","img/card_backs/set1/red.gif","img/card_backs/set1/purple.gif","img/card_backs/set1/green.gif","img/card_backs/set1/yellow.gif","img/card_backs/set2/gray.gif","img/card_backs/set2/orange.gif","img/card_backs/set2/pink.gif","img/card_backs/set2/blue.gif","""event"",""trial"",""time""
""focus"",""0"",""0""
""fullscreenenter"",""1"",""2600""
","
","""event"",""trial"",""time""
""focus"",""0"",""0""
","""event"",""trial"",""time""
""fullscreenenter"",""1"",""2600""
","
","","7205","On every turn, you will be shown four different decks of cards. </br> You need to select a card from one of the four decks.  ","75","","instructions","2021-07-09 19:58:19.270","","","","","",""
"casino-keyboard-response","9","36465","0.0-6.0-0.3","A1358","false","img/card_backs/set1/red.gif","img/card_backs/set1/purple.gif","img/card_backs/set1/green.gif","img/card_backs/set1/yellow.gif","img/card_backs/set2/gray.gif","img/card_backs/set2/orange.gif","img/card_backs/set2/pink.gif","img/card_backs/set2/blue.gif","""event"",""trial"",""time""
""focus"",""0"",""0""
""fullscreenenter"",""1"",""2600""
","
","""event"",""trial"",""time""
""focus"",""0"",""0""
","""event"",""trial"",""time""
""fullscreenenter"",""1"",""2600""
","
","","4666","On the next screen, you will see what the decks will look like. ","66","","instructions","2021-07-09 19:58:23.938","","","","","",""
"card-selection-trial","10","40470","0.0-7.0-0.0","A1358","false","img/card_backs/set1/red.gif","img/card_backs/set1/purple.gif","img/card_backs/set1/green.gif","img/card_backs/set1/yellow.gif","img/card_backs/set2/gray.gif","img/card_backs/set2/orange.gif","img/card_backs/set2/pink.gif","img/card_backs/set2/blue.gif","""event"",""trial"",""time""
""focus"",""0"",""0""
""fullscreenenter"",""1"",""2600""
","
","""event"",""trial"",""time""
""focus"",""0"",""0""
","""event"",""trial"",""time""
""fullscreenenter"",""1"",""2600""
","
","","null","","","","practice","2021-07-09 19:58:27.943","null","null","null","0","",""
"casino-keyboard-response","11","48401","0.0-8.0-0.0","A1358","false","img/card_backs/set1/red.gif","img/card_backs/set1/purple.gif","img/card_backs/set1/green.gif","img/card_backs/set1/yellow.gif","img/card_backs/set2/gray.gif","img/card_backs/set2/orange.gif","img/card_backs/set2/pink.gif","img/card_backs/set2/blue.gif","""event"",""trial"",""time""
""focus"",""0"",""0""
""fullscreenenter"",""1"",""2600""
","
","""event"",""trial"",""time""
""focus"",""0"",""0""
","""event"",""trial"",""time""
""fullscreenenter"",""1"",""2600""
","
","","7930","You should pick a card from a deck using the '2', '4', '6', and '8' keys at the top of the keyboard.","85","","instructions","2021-07-09 19:58:35.874","","","","","",""
"casino-keyboard-response","12","53642","0.0-8.0-0.1","A1358","false","img/card_backs/set1/red.gif","img/card_backs/set1/purple.gif","img/card_backs/set1/green.gif","img/card_backs/set1/yellow.gif","img/card_backs/set2/gray.gif","img/card_backs/set2/orange.gif","img/card_backs/set2/pink.gif","img/card_backs/set2/blue.gif","""event"",""trial"",""time""
""focus"",""0"",""0""
""fullscreenenter"",""1"",""2600""
","
","""event"",""trial"",""time""
""focus"",""0"",""0""
","""event"",""trial"",""time""
""fullscreenenter"",""1"",""2600""
","
","","5239","Once you select a card, it will turn over and you will see how many tokens you earned.","83","","instructions","2021-07-09 19:58:41.115","","","","","",""
"casino-keyboard-response","13","67552","0.0-8.0-0.2","A1358","false","img/card_backs/set1/red.gif","img/card_backs/set1/purple.gif","img/card_backs/set1/green.gif","img/card_backs/set1/yellow.gif","img/card_backs/set2/gray.gif","img/card_backs/set2/orange.gif","img/card_backs/set2/pink.gif","img/card_backs/set2/blue.gif","""event"",""trial"",""time""
""focus"",""0"",""0""
""fullscreenenter"",""1"",""2600""
","
","""event"",""trial"",""time""
""focus"",""0"",""0""
","""event"",""trial"",""time""
""fullscreenenter"",""1"",""2600""
","
","","13910","Let's try practicing that! </br> First, try to put your fingers over the '2', '4', '6', and '8' keys. </br>  You can use whatever fingers are most comfortable for you. Try to find a comfortable position now. ","50","","instructions","2021-07-09 19:58:55.025","","","","","",""
"casino-keyboard-response","14","73221","0.0-8.0-0.3","A1358","false","img/card_backs/set1/red.gif","img/card_backs/set1/purple.gif","img/card_backs/set1/green.gif","img/card_backs/set1/yellow.gif","img/card_backs/set2/gray.gif","img/card_backs/set2/orange.gif","img/card_backs/set2/pink.gif","img/card_backs/set2/blue.gif","""event"",""trial"",""time""
""focus"",""0"",""0""
""fullscreenenter"",""1"",""2600""
","
","""event"",""trial"",""time""
""focus"",""0"",""0""
","""event"",""trial"",""time""
""fullscreenenter"",""1"",""2600""
","
","","5669","Okay ready? </br> On the next screen, press '2' to select the left deck. ","50","","instructions","2021-07-09 19:59:00.695","","","","","",""
"card-selection-trial","15","78940","0.0-9.0-0.0","A1358","false","img/card_backs/set1/red.gif","img/card_backs/set1/purple.gif","img/card_backs/set1/green.gif","img/card_backs/set1/yellow.gif","img/card_backs/set2/gray.gif","img/card_backs/set2/orange.gif","img/card_backs/set2/pink.gif","img/card_backs/set2/blue.gif","""event"",""trial"",""time""
""focus"",""0"",""0""
""fullscreenenter"",""1"",""2600""
","
","""event"",""trial"",""time""
""focus"",""0"",""0""
","""event"",""trial"",""time""
""fullscreenenter"",""1"",""2600""
","
","","3711","","","","practice_card_selection","2021-07-09 19:59:06.413","img/practice_cards/backs/black.gif","0","100","","",""
"casino-keyboard-response","16","84874","0.0-10.0-0.0","A1358","false","img/card_backs/set1/red.gif","img/card_backs/set1/purple.gif","img/card_backs/set1/green.gif","img/card_backs/set1/yellow.gif","img/card_backs/set2/gray.gif","img/card_backs/set2/orange.gif","img/card_backs/set2/pink.gif","img/card_backs/set2/blue.gif","""event"",""trial"",""time""
""focus"",""0"",""0""
""fullscreenenter"",""1"",""2600""
","
","""event"",""trial"",""time""
""focus"",""0"",""0""
","""event"",""trial"",""time""
""fullscreenenter"",""1"",""2600""
","
","","5932","Great! Now on the next screen, try pressing '6' to select the third deck.","54","","instructions","2021-07-09 19:59:12.347","","","","","",""
"card-selection-trial","17","87765","0.0-11.0-0.0","A1358","false","img/card_backs/set1/red.gif","img/card_backs/set1/purple.gif","img/card_backs/set1/green.gif","img/card_backs/set1/yellow.gif","img/card_backs/set2/gray.gif","img/card_backs/set2/orange.gif","img/card_backs/set2/pink.gif","img/card_backs/set2/blue.gif","""event"",""trial"",""time""
""focus"",""0"",""0""
""fullscreenenter"",""1"",""2600""
","
","""event"",""trial"",""time""
""focus"",""0"",""0""
","""event"",""trial"",""time""
""fullscreenenter"",""1"",""2600""
","
","","883","","","","practice_card_selection","2021-07-09 19:59:15.238","img/practice_cards/backs/dark_green.gif","2","-200","","",""
"casino-keyboard-response","18","92348","0.0-12.0-0.0","A1358","false","img/card_backs/set1/red.gif","img/card_backs/set1/purple.gif","img/card_backs/set1/green.gif","img/card_backs/set1/yellow.gif","img/card_backs/set2/gray.gif","img/card_backs/set2/orange.gif","img/card_backs/set2/pink.gif","img/card_backs/set2/blue.gif","""event"",""trial"",""time""
""focus"",""0"",""0""
""fullscreenenter"",""1"",""2600""
","
","""event"",""trial"",""time""
""focus"",""0"",""0""
","""event"",""trial"",""time""
""fullscreenenter"",""1"",""2600""
","
","","4582","Now on the next screen, try pressing '4' to select the second deck.","52","","instructions","2021-07-09 19:59:19.822","","","","","",""
"card-selection-trial","19","94908","0.0-13.0-0.0","A1358","false","img/card_backs/set1/red.gif","img/card_backs/set1/purple.gif","img/card_backs/set1/green.gif","img/card_backs/set1/yellow.gif","img/card_backs/set2/gray.gif","img/card_backs/set2/orange.gif","img/card_backs/set2/pink.gif","img/card_backs/set2/blue.gif","""event"",""trial"",""time""
""focus"",""0"",""0""
""fullscreenenter"",""1"",""2600""
","
","""event"",""trial"",""time""
""focus"",""0"",""0""
","""event"",""trial"",""time""
""fullscreenenter"",""1"",""2600""
","
","","544","","","","practice_card_selection","2021-07-09 19:59:22.381","img/practice_cards/backs/dark_blue.gif","1","-200","","",""
"casino-keyboard-response","20","98861","0.0-14.0-0.0","A1358","false","img/card_backs/set1/red.gif","img/card_backs/set1/purple.gif","img/card_backs/set1/green.gif","img/card_backs/set1/yellow.gif","img/card_backs/set2/gray.gif","img/card_backs/set2/orange.gif","img/card_backs/set2/pink.gif","img/card_backs/set2/blue.gif","""event"",""trial"",""time""
""focus"",""0"",""0""
""fullscreenenter"",""1"",""2600""
","
","""event"",""trial"",""time""
""focus"",""0"",""0""
","""event"",""trial"",""time""
""fullscreenenter"",""1"",""2600""
","
","","3953","Finally, try pressing '8' to select the deck all the way on the right.","56","","instructions","2021-07-09 19:59:26.334","","","","","",""
"card-selection-trial","21","101391","0.0-15.0-0.0","A1358","false","img/card_backs/set1/red.gif","img/card_backs/set1/purple.gif","img/card_backs/set1/green.gif","img/card_backs/set1/yellow.gif","img/card_backs/set2/gray.gif","img/card_backs/set2/orange.gif","img/card_backs/set2/pink.gif","img/card_backs/set2/blue.gif","""event"",""trial"",""time""
""focus"",""0"",""0""
""fullscreenenter"",""1"",""2600""
","
","""event"",""trial"",""time""
""focus"",""0"",""0""
","""event"",""trial"",""time""
""fullscreenenter"",""1"",""2600""
","
","","524","","","","practice_card_selection","2021-07-09 19:59:28.864","img/practice_cards/backs/dark_blue.gif","3","-200","","",""
"casino-keyboard-response","22","106907","0.0-16.0-0.0","A1358","false","img/card_backs/set1/red.gif","img/card_backs/set1/purple.gif","img/card_backs/set1/green.gif","img/card_backs/set1/yellow.gif","img/card_backs/set2/gray.gif","img/card_backs/set2/orange.gif","img/card_backs/set2/pink.gif","img/card_backs/set2/blue.gif","""event"",""trial"",""time""
""focus"",""0"",""0""
""fullscreenenter"",""1"",""2600""
","
","""event"",""trial"",""time""
""focus"",""0"",""0""
","""event"",""trial"",""time""
""fullscreenenter"",""1"",""2600""
","
","","5513","Great! It seems like you are getting the hang of this.","80","","instructions","2021-07-09 19:59:34.380","","","","","",""
"casino-keyboard-response","23","114098","0.0-16.0-0.1","A1358","false","img/card_backs/set1/red.gif","img/card_backs/set1/purple.gif","img/card_backs/set1/green.gif","img/card_backs/set1/yellow.gif","img/card_backs/set2/gray.gif","img/card_backs/set2/orange.gif","img/card_backs/set2/pink.gif","img/card_backs/set2/blue.gif","""event"",""trial"",""time""
""focus"",""0"",""0""
""fullscreenenter"",""1"",""2600""
","
","""event"",""trial"",""time""
""focus"",""0"",""0""
","""event"",""trial"",""time""
""fullscreenenter"",""1"",""2600""
","
","","7189","You may have noticed that some cards will cause you to <b> win </b> tokens while other cards will cause you to <b> lose </b>  tokens.","70","","instructions","2021-07-09 19:59:41.571","","","","","",""
"casino-keyboard-response","24","125540","0.0-16.0-0.2","A1358","false","img/card_backs/set1/red.gif","img/card_backs/set1/purple.gif","img/card_backs/set1/green.gif","img/card_backs/set1/yellow.gif","img/card_backs/set2/gray.gif","img/card_backs/set2/orange.gif","img/card_backs/set2/pink.gif","img/card_backs/set2/blue.gif","""event"",""trial"",""time""
""focus"",""0"",""0""
""fullscreenenter"",""1"",""2600""
","
","""event"",""trial"",""time""
""focus"",""0"",""0""
","""event"",""trial"",""time""
""fullscreenenter"",""1"",""2600""
","
","","11441","Each deck has a mix of cards that will cause you to win and lose tokens. </br> However, the cards in each colored deck are different.","73","","instructions","2021-07-09 19:59:53.013","","","","","",""
"casino-keyboard-response","25","133843","0.0-16.0-0.3","A1358","false","img/card_backs/set1/red.gif","img/card_backs/set1/purple.gif","img/card_backs/set1/green.gif","img/card_backs/set1/yellow.gif","img/card_backs/set2/gray.gif","img/card_backs/set2/orange.gif","img/card_backs/set2/pink.gif","img/card_backs/set2/blue.gif","""event"",""trial"",""time""
""focus"",""0"",""0""
""fullscreenenter"",""1"",""2600""
","
","""event"",""trial"",""time""
""focus"",""0"",""0""
","""event"",""trial"",""time""
""fullscreenenter"",""1"",""2600""
","
","","8304","Some colored decks are luckier than others. </br> If you choose the lucky decks, you will earn more tokens than if you choose the unlucky decks.","69","","instructions","2021-07-09 20:00:01.316","","","","","",""
"casino-keyboard-response","26","141051","0.0-16.0-0.4","A1358","false","img/card_backs/set1/red.gif","img/card_backs/set1/purple.gif","img/card_backs/set1/green.gif","img/card_backs/set1/yellow.gif","img/card_backs/set2/gray.gif","img/card_backs/set2/orange.gif","img/card_backs/set2/pink.gif","img/card_backs/set2/blue.gif","""event"",""trial"",""time""
""focus"",""0"",""0""
""fullscreenenter"",""1"",""2600""
","
","""event"",""trial"",""time""
""focus"",""0"",""0""
","""event"",""trial"",""time""
""fullscreenenter"",""1"",""2600""
","
","","7206","You should try to figure out which decks are lucky. </br> Then, try to choose the lucky decks so you can win the most tokens.","87","","instructions","2021-07-09 20:00:08.524","","","","","",""
"casino-keyboard-response","27","152211","0.0-16.0-0.5","A1358","false","img/card_backs/set1/red.gif","img/card_backs/set1/purple.gif","img/card_backs/set1/green.gif","img/card_backs/set1/yellow.gif","img/card_backs/set2/gray.gif","img/card_backs/set2/orange.gif","img/card_backs/set2/pink.gif","img/card_backs/set2/blue.gif","""event"",""trial"",""time""
""focus"",""0"",""0""
""fullscreenenter"",""1"",""2600""
","
","""event"",""trial"",""time""
""focus"",""0"",""0""
","""event"",""trial"",""time""
""fullscreenenter"",""1"",""2600""
","
","","11159","To make it trickier, the casino dealer will switch the locations of the decks on every turn. </br> The color of the deck determines how lucky it is. The location does not matter.","88","","instructions","2021-07-09 20:00:19.684","","","","","",""
"casino-keyboard-response","28","161662","0.0-16.0-0.6","A1358","false","img/card_backs/set1/red.gif","img/card_backs/set1/purple.gif","img/card_backs/set1/green.gif","img/card_backs/set1/yellow.gif","img/card_backs/set2/gray.gif","img/card_backs/set2/orange.gif","img/card_backs/set2/pink.gif","img/card_backs/set2/blue.gif","""event"",""trial"",""time""
""focus"",""0"",""0""
""fullscreenenter"",""1"",""2600""
","
","""event"",""trial"",""time""
""focus"",""0"",""0""
","""event"",""trial"",""time""
""fullscreenenter"",""1"",""2600""
","
","","9452","The mix of cards in each colored deck will stay the same throughout the game. </br> That means that a deck that is lucky early on will stay lucky.","79","","instructions","2021-07-09 20:00:29.135","","","","","",""
"casino-keyboard-response","29","170002","0.0-16.0-0.7","A1358","false","img/card_backs/set1/red.gif","img/card_backs/set1/purple.gif","img/card_backs/set1/green.gif","img/card_backs/set1/yellow.gif","img/card_backs/set2/gray.gif","img/card_backs/set2/orange.gif","img/card_backs/set2/pink.gif","img/card_backs/set2/blue.gif","""event"",""trial"",""time""
""focus"",""0"",""0""
""fullscreenenter"",""1"",""2600""
","
","""event"",""trial"",""time""
""focus"",""0"",""0""
","""event"",""trial"",""time""
""fullscreenenter"",""1"",""2600""
","
","","8340","Remember though, all the decks have a <b> mix </b> of both <b> good </b> and <b> bad </b> cards so it may take a couple of turns to figure out if a deck is lucky.","69","","instructions","2021-07-09 20:00:37.475","","","","","",""
"casino-keyboard-response","30","178290","0.0-16.0-0.8","A1358","false","img/card_backs/set1/red.gif","img/card_backs/set1/purple.gif","img/card_backs/set1/green.gif","img/card_backs/set1/yellow.gif","img/card_backs/set2/gray.gif","img/card_backs/set2/orange.gif","img/card_backs/set2/pink.gif","img/card_backs/set2/blue.gif","""event"",""trial"",""time""
""focus"",""0"",""0""
""fullscreenenter"",""1"",""2600""
","
","""event"",""trial"",""time""
""focus"",""0"",""0""
","""event"",""trial"",""time""
""fullscreenenter"",""1"",""2600""
","
","","8287","At the end of the game, you will be paid bonus money based on how many tokens you win. </br> If you win more tokens, you will earn more money!","72","","instructions","2021-07-09 20:00:45.763","","","","","",""
"casino-keyboard-response","31","188264","0.0-16.0-0.9","A1358","false","img/card_backs/set1/red.gif","img/card_backs/set1/purple.gif","img/card_backs/set1/green.gif","img/card_backs/set1/yellow.gif","img/card_backs/set2/gray.gif","img/card_backs/set2/orange.gif","img/card_backs/set2/pink.gif","img/card_backs/set2/blue.gif","""event"",""trial"",""time""
""focus"",""0"",""0""
""fullscreenenter"",""1"",""2600""
","
","""event"",""trial"",""time""
""focus"",""0"",""0""
","""event"",""trial"",""time""
""fullscreenenter"",""1"",""2600""
","
","","9973","You will never <b> lose </b> money. </br> If you end up with fewer than 0 tokens, you will earn $0 of bonus money, but you will still be paid for playing the game.","83","","instructions","2021-07-09 20:00:55.737","","","","","",""
"casino-keyboard-response","32","192599","0.0-16.0-0.10","A1358","false","img/card_backs/set1/red.gif","img/card_backs/set1/purple.gif","img/card_backs/set1/green.gif","img/card_backs/set1/yellow.gif","img/card_backs/set2/gray.gif","img/card_backs/set2/orange.gif","img/card_backs/set2/pink.gif","img/card_backs/set2/blue.gif","""event"",""trial"",""time""
""focus"",""0"",""0""
""fullscreenenter"",""1"",""2600""
","
","""event"",""trial"",""time""
""focus"",""0"",""0""
","""event"",""trial"",""time""
""fullscreenenter"",""1"",""2600""
","
","","4334","You will have 10 seconds to make each choice.","82","","instructions","2021-07-09 20:01:00.072","","","","","",""
"casino-keyboard-response","33","200589","0.0-16.0-0.11","A1358","false","img/card_backs/set1/red.gif","img/card_backs/set1/purple.gif","img/card_backs/set1/green.gif","img/card_backs/set1/yellow.gif","img/card_backs/set2/gray.gif","img/card_backs/set2/orange.gif","img/card_backs/set2/pink.gif","img/card_backs/set2/blue.gif","""event"",""trial"",""time""
""focus"",""0"",""0""
""fullscreenenter"",""1"",""2600""
","
","""event"",""trial"",""time""
""focus"",""0"",""0""
","""event"",""trial"",""time""
""fullscreenenter"",""1"",""2600""
","
","","7988","Before you play the game for real, you will play with practice decks. </br> The tokens you earn during practice won't count toward your total.","86","","instructions","2021-07-09 20:01:08.062","","","","","",""
"casino-keyboard-response","34","212701","0.0-16.0-0.12","A1358","false","img/card_backs/set1/red.gif","img/card_backs/set1/purple.gif","img/card_backs/set1/green.gif","img/card_backs/set1/yellow.gif","img/card_backs/set2/gray.gif","img/card_backs/set2/orange.gif","img/card_backs/set2/pink.gif","img/card_backs/set2/blue.gif","""event"",""trial"",""time""
""focus"",""0"",""0""
""fullscreenenter"",""1"",""2600""
","
","""event"",""trial"",""time""
""focus"",""0"",""0""
","""event"",""trial"",""time""
""fullscreenenter"",""1"",""2600""
","
","","12110","Ready? Remember, use the '2', '4', '6', and '8' keys to select the decks. </br> Put your fingers on those keys now and then press '2' to begin.","50","","instructions","2021-07-09 20:01:20.174","","","","","",""
"casino-fixation","35","213202","0.0-17.0-0.0","A1358","false","img/card_backs/set1/red.gif","img/card_backs/set1/purple.gif","img/card_backs/set1/green.gif","img/card_backs/set1/yellow.gif","img/card_backs/set2/gray.gif","img/card_backs/set2/orange.gif","img/card_backs/set2/pink.gif","img/card_backs/set2/blue.gif","""event"",""trial"",""time""
""focus"",""0"",""0""
""fullscreenenter"",""1"",""2600""
","
","""event"",""trial"",""time""
""focus"",""0"",""0""
","""event"",""trial"",""time""
""fullscreenenter"",""1"",""2600""
","
","","null","","null","","fixation","2021-07-09 20:01:20.675","","","","","",""
"card-selection-trial","36","216060","0.0-17.0-1.0","A1358","false","img/card_backs/set1/red.gif","img/card_backs/set1/purple.gif","img/card_backs/set1/green.gif","img/card_backs/set1/yellow.gif","img/card_backs/set2/gray.gif","img/card_backs/set2/orange.gif","img/card_backs/set2/pink.gif","img/card_backs/set2/blue.gif","""event"",""trial"",""time""
""focus"",""0"",""0""
""fullscreenenter"",""1"",""2600""
","
","""event"",""trial"",""time""
""focus"",""0"",""0""
","""event"",""trial"",""time""
""fullscreenenter"",""1"",""2600""
","
","","846","","","","practice","2021-07-09 20:01:23.533","img/practice_cards/backs/black.gif","0","-100","0","",""
"casino-fixation","37","216564","0.0-17.0-0.1","A1358","false","img/card_backs/set1/red.gif","img/card_backs/set1/purple.gif","img/card_backs/set1/green.gif","img/card_backs/set1/yellow.gif","img/card_backs/set2/gray.gif","img/card_backs/set2/orange.gif","img/card_backs/set2/pink.gif","img/card_backs/set2/blue.gif","""event"",""trial"",""time""
""focus"",""0"",""0""
""fullscreenenter"",""1"",""2600""
","
","""event"",""trial"",""time""
""focus"",""0"",""0""
","""event"",""trial"",""time""
""fullscreenenter"",""1"",""2600""
","
","","null","","null","","fixation","2021-07-09 20:01:24.038","","","","","",""
"card-selection-trial","38","219015","0.0-17.0-1.1","A1358","false","img/card_backs/set1/red.gif","img/card_backs/set1/purple.gif","img/card_backs/set1/green.gif","img/card_backs/set1/yellow.gif","img/card_backs/set2/gray.gif","img/card_backs/set2/orange.gif","img/card_backs/set2/pink.gif","img/card_backs/set2/blue.gif","""event"",""trial"",""time""
""focus"",""0"",""0""
""fullscreenenter"",""1"",""2600""
","
","""event"",""trial"",""time""
""focus"",""0"",""0""
","""event"",""trial"",""time""
""fullscreenenter"",""1"",""2600""
","
","","438","","","","practice","2021-07-09 20:01:26.488","img/practice_cards/backs/brown.gif","0","100","0","",""
"casino-fixation","39","219517","0.0-17.0-0.2","A1358","false","img/card_backs/set1/red.gif","img/card_backs/set1/purple.gif","img/card_backs/set1/green.gif","img/card_backs/set1/yellow.gif","img/card_backs/set2/gray.gif","img/card_backs/set2/orange.gif","img/card_backs/set2/pink.gif","img/card_backs/set2/blue.gif","""event"",""trial"",""time""
""focus"",""0"",""0""
""fullscreenenter"",""1"",""2600""
","
","""event"",""trial"",""time""
""focus"",""0"",""0""
","""event"",""trial"",""time""
""fullscreenenter"",""1"",""2600""
","
","","null","","null","","fixation","2021-07-09 20:01:26.990","","","","","",""
"card-selection-trial","40","221859","0.0-17.0-1.2","A1358","false","img/card_backs/set1/red.gif","img/card_backs/set1/purple.gif","img/card_backs/set1/green.gif","img/card_backs/set1/yellow.gif","img/card_backs/set2/gray.gif","img/card_backs/set2/orange.gif","img/card_backs/set2/pink.gif","img/card_backs/set2/blue.gif","""event"",""trial"",""time""
""focus"",""0"",""0""
""fullscreenenter"",""1"",""2600""
","
","""event"",""trial"",""time""
""focus"",""0"",""0""
","""event"",""trial"",""time""
""fullscreenenter"",""1"",""2600""
","
","","333","","","","practice","2021-07-09 20:01:29.332","img/practice_cards/backs/black.gif","0","-100","0","",""
"casino-fixation","41","222374","0.0-17.0-0.3","A1358","false","img/card_backs/set1/red.gif","img/card_backs/set1/purple.gif","img/card_backs/set1/green.gif","img/card_backs/set1/yellow.gif","img/card_backs/set2/gray.gif","img/card_backs/set2/orange.gif","img/card_backs/set2/pink.gif","img/card_backs/set2/blue.gif","""event"",""trial"",""time""
""focus"",""0"",""0""
""fullscreenenter"",""1"",""2600""
","
","""event"",""trial"",""time""
""focus"",""0"",""0""
","""event"",""trial"",""time""
""fullscreenenter"",""1"",""2600""
","
","","null","","null","","fixation","2021-07-09 20:01:29.847","","","","","",""
"card-selection-trial","42","224870","0.0-17.0-1.3","A1358","false","img/card_backs/set1/red.gif","img/card_backs/set1/purple.gif","img/card_backs/set1/green.gif","img/card_backs/set1/yellow.gif","img/card_backs/set2/gray.gif","img/card_backs/set2/orange.gif","img/card_backs/set2/pink.gif","img/card_backs/set2/blue.gif","""event"",""trial"",""time""
""focus"",""0"",""0""
""fullscreenenter"",""1"",""2600""
","
","""event"",""trial"",""time""
""focus"",""0"",""0""
","""event"",""trial"",""time""
""fullscreenenter"",""1"",""2600""
","
","","480","","","","practice","2021-07-09 20:01:32.343","img/practice_cards/backs/black.gif","0","-100","0","",""
"casino-fixation","43","225375","0.0-17.0-0.4","A1358","false","img/card_backs/set1/red.gif","img/card_backs/set1/purple.gif","img/card_backs/set1/green.gif","img/card_backs/set1/yellow.gif","img/card_backs/set2/gray.gif","img/card_backs/set2/orange.gif","img/card_backs/set2/pink.gif","img/card_backs/set2/blue.gif","""event"",""trial"",""time""
""focus"",""0"",""0""
""fullscreenenter"",""1"",""2600""
","
","""event"",""trial"",""time""
""focus"",""0"",""0""
","""event"",""trial"",""time""
""fullscreenenter"",""1"",""2600""
","
","","null","","null","","fixation","2021-07-09 20:01:32.848","","","","","",""
"card-selection-trial","44","227875","0.0-17.0-1.4","A1358","false","img/card_backs/set1/red.gif","img/card_backs/set1/purple.gif","img/card_backs/set1/green.gif","img/card_backs/set1/yellow.gif","img/card_backs/set2/gray.gif","img/card_backs/set2/orange.gif","img/card_backs/set2/pink.gif","img/card_backs/set2/blue.gif","""event"",""trial"",""time""
""focus"",""0"",""0""
""fullscreenenter"",""1"",""2600""
","
","""event"",""trial"",""time""
""focus"",""0"",""0""
","""event"",""trial"",""time""
""fullscreenenter"",""1"",""2600""
","
","","487","","","","practice","2021-07-09 20:01:35.348","img/practice_cards/backs/dark_blue.gif","1","-200","0","",""
"casino-fixation","45","228385","0.0-17.0-0.5","A1358","false","img/card_backs/set1/red.gif","img/card_backs/set1/purple.gif","img/card_backs/set1/green.gif","img/card_backs/set1/yellow.gif","img/card_backs/set2/gray.gif","img/card_backs/set2/orange.gif","img/card_backs/set2/pink.gif","img/card_backs/set2/blue.gif","""event"",""trial"",""time""
""focus"",""0"",""0""
""fullscreenenter"",""1"",""2600""
","
","""event"",""trial"",""time""
""focus"",""0"",""0""
","""event"",""trial"",""time""
""fullscreenenter"",""1"",""2600""
","
","","null","","null","","fixation","2021-07-09 20:01:35.858","","","","","",""
"card-selection-trial","46","230626","0.0-17.0-1.5","A1358","false","img/card_backs/set1/red.gif","img/card_backs/set1/purple.gif","img/card_backs/set1/green.gif","img/card_backs/set1/yellow.gif","img/card_backs/set2/gray.gif","img/card_backs/set2/orange.gif","img/card_backs/set2/pink.gif","img/card_backs/set2/blue.gif","""event"",""trial"",""time""
""focus"",""0"",""0""
""fullscreenenter"",""1"",""2600""
","
","""event"",""trial"",""time""
""focus"",""0"",""0""
","""event"",""trial"",""time""
""fullscreenenter"",""1"",""2600""
","
","","235","","","","practice","2021-07-09 20:01:38.100","img/practice_cards/backs/black.gif","1","-100","0","",""
"casino-fixation","47","231140","0.0-17.0-0.6","A1358","false","img/card_backs/set1/red.gif","img/card_backs/set1/purple.gif","img/card_backs/set1/green.gif","img/card_backs/set1/yellow.gif","img/card_backs/set2/gray.gif","img/card_backs/set2/orange.gif","img/card_backs/set2/pink.gif","img/card_backs/set2/blue.gif","""event"",""trial"",""time""
""focus"",""0"",""0""
""fullscreenenter"",""1"",""2600""
","
","""event"",""trial"",""time""
""focus"",""0"",""0""
","""event"",""trial"",""time""
""fullscreenenter"",""1"",""2600""
","
","","null","","null","","fixation","2021-07-09 20:01:38.613","","","","","",""
"card-selection-trial","48","233342","0.0-17.0-1.6","A1358","false","img/card_backs/set1/red.gif","img/card_backs/set1/purple.gif","img/card_backs/set1/green.gif","img/card_backs/set1/yellow.gif","img/card_backs/set2/gray.gif","img/card_backs/set2/orange.gif","img/card_backs/set2/pink.gif","img/card_backs/set2/blue.gif","""event"",""trial"",""time""
""focus"",""0"",""0""
""fullscreenenter"",""1"",""2600""
","
","""event"",""trial"",""time""
""focus"",""0"",""0""
","""event"",""trial"",""time""
""fullscreenenter"",""1"",""2600""
","
","","198","","","","practice","2021-07-09 20:01:40.815","img/practice_cards/backs/brown.gif","2","100","0","",""
"casino-fixation","49","233854","0.0-17.0-0.7","A1358","false","img/card_backs/set1/red.gif","img/card_backs/set1/purple.gif","img/card_backs/set1/green.gif","img/card_backs/set1/yellow.gif","img/card_backs/set2/gray.gif","img/card_backs/set2/orange.gif","img/card_backs/set2/pink.gif","img/card_backs/set2/blue.gif","""event"",""trial"",""time""
""focus"",""0"",""0""
""fullscreenenter"",""1"",""2600""
","
","""event"",""trial"",""time""
""focus"",""0"",""0""
","""event"",""trial"",""time""
""fullscreenenter"",""1"",""2600""
","
","","null","","null","","fixation","2021-07-09 20:01:41.327","","","","","",""
"card-selection-trial","50","236079","0.0-17.0-1.7","A1358","false","img/card_backs/set1/red.gif","img/card_backs/set1/purple.gif","img/card_backs/set1/green.gif","img/card_backs/set1/yellow.gif","img/card_backs/set2/gray.gif","img/card_backs/set2/orange.gif","img/card_backs/set2/pink.gif","img/card_backs/set2/blue.gif","""event"",""trial"",""time""
""focus"",""0"",""0""
""fullscreenenter"",""1"",""2600""
","
","""event"",""trial"",""time""
""focus"",""0"",""0""
","""event"",""trial"",""time""
""fullscreenenter"",""1"",""2600""
","
","","218","","","","practice","2021-07-09 20:01:43.552","img/practice_cards/backs/black.gif","2","100","0","",""
"casino-fixation","51","236595","0.0-17.0-0.8","A1358","false","img/card_backs/set1/red.gif","img/card_backs/set1/purple.gif","img/card_backs/set1/green.gif","img/card_backs/set1/yellow.gif","img/card_backs/set2/gray.gif","img/card_backs/set2/orange.gif","img/card_backs/set2/pink.gif","img/card_backs/set2/blue.gif","""event"",""trial"",""time""
""focus"",""0"",""0""
""fullscreenenter"",""1"",""2600""
","
","""event"",""trial"",""time""
""focus"",""0"",""0""
","""event"",""trial"",""time""
""fullscreenenter"",""1"",""2600""
","
","","null","","null","","fixation","2021-07-09 20:01:44.068","","","","","",""
"card-selection-trial","52","238812","0.0-17.0-1.8","A1358","false","img/card_backs/set1/red.gif","img/card_backs/set1/purple.gif","img/card_backs/set1/green.gif","img/card_backs/set1/yellow.gif","img/card_backs/set2/gray.gif","img/card_backs/set2/orange.gif","img/card_backs/set2/pink.gif","img/card_backs/set2/blue.gif","""event"",""trial"",""time""
""focus"",""0"",""0""
""fullscreenenter"",""1"",""2600""
","
","""event"",""trial"",""time""
""focus"",""0"",""0""
","""event"",""trial"",""time""
""fullscreenenter"",""1"",""2600""
","
","","200","","","","practice","2021-07-09 20:01:46.285","img/practice_cards/backs/black.gif","2","100","0","",""
"casino-fixation","53","239315","0.0-17.0-0.9","A1358","false","img/card_backs/set1/red.gif","img/card_backs/set1/purple.gif","img/card_backs/set1/green.gif","img/card_backs/set1/yellow.gif","img/card_backs/set2/gray.gif","img/card_backs/set2/orange.gif","img/card_backs/set2/pink.gif","img/card_backs/set2/blue.gif","""event"",""trial"",""time""
""focus"",""0"",""0""
""fullscreenenter"",""1"",""2600""
","
","""event"",""trial"",""time""
""focus"",""0"",""0""
","""event"",""trial"",""time""
""fullscreenenter"",""1"",""2600""
","
","","null","","null","","fixation","2021-07-09 20:01:46.788","","","","","",""
"card-selection-trial","54","241516","0.0-17.0-1.9","A1358","false","img/card_backs/set1/red.gif","img/card_backs/set1/purple.gif","img/card_backs/set1/green.gif","img/card_backs/set1/yellow.gif","img/card_backs/set2/gray.gif","img/card_backs/set2/orange.gif","img/card_backs/set2/pink.gif","img/card_backs/set2/blue.gif","""event"",""trial"",""time""
""focus"",""0"",""0""
""fullscreenenter"",""1"",""2600""
","
","""event"",""trial"",""time""
""focus"",""0"",""0""
","""event"",""trial"",""time""
""fullscreenenter"",""1"",""2600""
","
","","187","","","","practice","2021-07-09 20:01:48.990","img/practice_cards/backs/brown.gif","2","100","0","",""
"casino-keyboard-response","55","244343","0.0-18.0","A1358","false","img/card_backs/set1/red.gif","img/card_backs/set1/purple.gif","img/card_backs/set1/green.gif","img/card_backs/set1/yellow.gif","img/card_backs/set2/gray.gif","img/card_backs/set2/orange.gif","img/card_backs/set2/pink.gif","img/card_backs/set2/blue.gif","""event"",""trial"",""time""
""focus"",""0"",""0""
""fullscreenenter"",""1"",""2600""
","
","""event"",""trial"",""time""
""focus"",""0"",""0""
","""event"",""trial"",""time""
""fullscreenenter"",""1"",""2600""
","
","","2826","You earned -100 tokens during the practice round!","82","","","2021-07-09 20:01:51.816","","","","","",""
"casino-keyboard-response","56","249172","0.0-19.0-0.0","A1358","false","img/card_backs/set1/red.gif","img/card_backs/set1/purple.gif","img/card_backs/set1/green.gif","img/card_backs/set1/yellow.gif","img/card_backs/set2/gray.gif","img/card_backs/set2/orange.gif","img/card_backs/set2/pink.gif","img/card_backs/set2/blue.gif","""event"",""trial"",""time""
""focus"",""0"",""0""
""fullscreenenter"",""1"",""2600""
","
","""event"",""trial"",""time""
""focus"",""0"",""0""
","""event"",""trial"",""time""
""fullscreenenter"",""1"",""2600""
","
","","4829","Nice job! You are almost ready to play the real game.","86","","instructions","2021-07-09 20:01:56.645","","","","","",""
"casino-keyboard-response","57","255590","0.0-19.0-0.1","A1358","false","img/card_backs/set1/red.gif","img/card_backs/set1/purple.gif","img/card_backs/set1/green.gif","img/card_backs/set1/yellow.gif","img/card_backs/set2/gray.gif","img/card_backs/set2/orange.gif","img/card_backs/set2/pink.gif","img/card_backs/set2/blue.gif","""event"",""trial"",""time""
""focus"",""0"",""0""
""fullscreenenter"",""1"",""2600""
","
","""event"",""trial"",""time""
""focus"",""0"",""0""
","""event"",""trial"",""time""
""fullscreenenter"",""1"",""2600""
","
","","6418","You will play two rounds of the real game. In each round, you will pick 100 cards in total.","73","","instructions","2021-07-09 20:02:03.063","","","","","",""
"casino-keyboard-response","58","259721","0.0-19.0-0.2","A1358","false","img/card_backs/set1/red.gif","img/card_backs/set1/purple.gif","img/card_backs/set1/green.gif","img/card_backs/set1/yellow.gif","img/card_backs/set2/gray.gif","img/card_backs/set2/orange.gif","img/card_backs/set2/pink.gif","img/card_backs/set2/blue.gif","""event"",""trial"",""time""
""focus"",""0"",""0""
""fullscreenenter"",""1"",""2600""
","
","""event"",""trial"",""time""
""focus"",""0"",""0""
","""event"",""trial"",""time""
""fullscreenenter"",""1"",""2600""
","
","","4131","We are now going to ask you some questions about how the game works.","66","","instructions","2021-07-09 20:02:07.194","","","","","",""
"casino-keyboard-response","59","265958","0.0-19.0-0.3","A1358","false","img/card_backs/set1/red.gif","img/card_backs/set1/purple.gif","img/card_backs/set1/green.gif","img/card_backs/set1/yellow.gif","img/card_backs/set2/gray.gif","img/card_backs/set2/orange.gif","img/card_backs/set2/pink.gif","img/card_backs/set2/blue.gif","""event"",""trial"",""time""
""focus"",""0"",""0""
""fullscreenenter"",""1"",""2600""
","
","""event"",""trial"",""time""
""focus"",""0"",""0""
","""event"",""trial"",""time""
""fullscreenenter"",""1"",""2600""
","
","","6236","Answer carefully. You will not be able to begin the game until you answer them correctly.","67","","instructions","2021-07-09 20:02:13.431","","","","","",""
"casino-comp_q","60","272874","0.0-20.0-0.0","A1358","false","img/card_backs/set1/red.gif","img/card_backs/set1/purple.gif","img/card_backs/set1/green.gif","img/card_backs/set1/yellow.gif","img/card_backs/set2/gray.gif","img/card_backs/set2/orange.gif","img/card_backs/set2/pink.gif","img/card_backs/set2/blue.gif","""event"",""trial"",""time""
""focus"",""0"",""0""
""fullscreenenter"",""1"",""2600""
","
","""event"",""trial"",""time""
""focus"",""0"",""0""
","""event"",""trial"",""time""
""fullscreenenter"",""1"",""2600""
","
","","6916","True or False: All the decks have some cards that cause you to win tokens and some cards that cause you to lose tokens.","84","","","2021-07-09 20:02:20.347","","","","","",""
"casino-keyboard-response","61","277280","0.0-20.0-1.0","A1358","false","img/card_backs/set1/red.gif","img/card_backs/set1/purple.gif","img/card_backs/set1/green.gif","img/card_backs/set1/yellow.gif","img/card_backs/set2/gray.gif","img/card_backs/set2/orange.gif","img/card_backs/set2/pink.gif","img/card_backs/set2/blue.gif","""event"",""trial"",""time""
""focus"",""0"",""0""
""fullscreenenter"",""1"",""2600""
","
","""event"",""trial"",""time""
""focus"",""0"",""0""
","""event"",""trial"",""time""
""fullscreenenter"",""1"",""2600""
","
","","4405","True is correct! All the decks have a mix of winning and losing cards.","77","","","2021-07-09 20:02:24.753","","","","","true",""
"casino-comp_q","62","280121","0.0-21.0-0.0","A1358","false","img/card_backs/set1/red.gif","img/card_backs/set1/purple.gif","img/card_backs/set1/green.gif","img/card_backs/set1/yellow.gif","img/card_backs/set2/gray.gif","img/card_backs/set2/orange.gif","img/card_backs/set2/pink.gif","img/card_backs/set2/blue.gif","""event"",""trial"",""time""
""focus"",""0"",""0""
""fullscreenenter"",""1"",""2600""
","
","""event"",""trial"",""time""
""focus"",""0"",""0""
","""event"",""trial"",""time""
""fullscreenenter"",""1"",""2600""
","
","","2840","True or False: You will have as much time as you want to make your response.","70","","","2021-07-09 20:02:27.594","","","","","",""
"casino-keyboard-response","63","283457","0.0-21.0-1.0","A1358","false","img/card_backs/set1/red.gif","img/card_backs/set1/purple.gif","img/card_backs/set1/green.gif","img/card_backs/set1/yellow.gif","img/card_backs/set2/gray.gif","img/card_backs/set2/orange.gif","img/card_backs/set2/pink.gif","img/card_backs/set2/blue.gif","""event"",""trial"",""time""
""focus"",""0"",""0""
""fullscreenenter"",""1"",""2600""
","
","""event"",""trial"",""time""
""focus"",""0"",""0""
","""event"",""trial"",""time""
""fullscreenenter"",""1"",""2600""
","
","","3336","False is correct! You will only have 10 seconds to make each choice.","75","","","2021-07-09 20:02:30.930","","","","","true",""
"casino-comp_q","64","286022","0.0-22.0-0.0","A1358","false","img/card_backs/set1/red.gif","img/card_backs/set1/purple.gif","img/card_backs/set1/green.gif","img/card_backs/set1/yellow.gif","img/card_backs/set2/gray.gif","img/card_backs/set2/orange.gif","img/card_backs/set2/pink.gif","img/card_backs/set2/blue.gif","""event"",""trial"",""time""
""focus"",""0"",""0""
""fullscreenenter"",""1"",""2600""
","
","""event"",""trial"",""time""
""focus"",""0"",""0""
","""event"",""trial"",""time""
""fullscreenenter"",""1"",""2600""
","
","","2564","True or False: The location of the deck determines how lucky it is.","70","","","2021-07-09 20:02:33.495","","","","","",""
"casino-keyboard-response","65","288565","0.0-22.0-1.0","A1358","false","img/card_backs/set1/red.gif","img/card_backs/set1/purple.gif","img/card_backs/set1/green.gif","img/card_backs/set1/yellow.gif","img/card_backs/set2/gray.gif","img/card_backs/set2/orange.gif","img/card_backs/set2/pink.gif","img/card_backs/set2/blue.gif","""event"",""trial"",""time""
""focus"",""0"",""0""
""fullscreenenter"",""1"",""2600""
","
","""event"",""trial"",""time""
""focus"",""0"",""0""
","""event"",""trial"",""time""
""fullscreenenter"",""1"",""2600""
","
","","2543","False is correct! The <i>color</i>  of the deck determines how lucky or unlucky it is.","68","","","2021-07-09 20:02:36.038","","","","","true",""
"casino-keyboard-response","66","292566","0.0-23.0-0.0","A1358","false","img/card_backs/set1/red.gif","img/card_backs/set1/purple.gif","img/card_backs/set1/green.gif","img/card_backs/set1/yellow.gif","img/card_backs/set2/gray.gif","img/card_backs/set2/orange.gif","img/card_backs/set2/pink.gif","img/card_backs/set2/blue.gif","""event"",""trial"",""time""
""focus"",""0"",""0""
""fullscreenenter"",""1"",""2600""
","
","""event"",""trial"",""time""
""focus"",""0"",""0""
","""event"",""trial"",""time""
""fullscreenenter"",""1"",""2600""
","
","","3999","Great job! Now it's time to start the real game.","82","","instructions","2021-07-09 20:02:40.039","","","","","",""
"casino-keyboard-response","67","297596","0.0-23.0-0.1","A1358","false","img/card_backs/set1/red.gif","img/card_backs/set1/purple.gif","img/card_backs/set1/green.gif","img/card_backs/set1/yellow.gif","img/card_backs/set2/gray.gif","img/card_backs/set2/orange.gif","img/card_backs/set2/pink.gif","img/card_backs/set2/blue.gif","""event"",""trial"",""time""
""focus"",""0"",""0""
""fullscreenenter"",""1"",""2600""
","
","""event"",""trial"",""time""
""focus"",""0"",""0""
","""event"",""trial"",""time""
""fullscreenenter"",""1"",""2600""
","
","","5030","Before we start, we're going to head into a new room of the casino.","86","","instructions","2021-07-09 20:02:45.070","","","","","",""
"casino-keyboard-response","68","303577","0.0-24.0-0.0","A1358","false","img/card_backs/set1/red.gif","img/card_backs/set1/purple.gif","img/card_backs/set1/green.gif","img/card_backs/set1/yellow.gif","img/card_backs/set2/gray.gif","img/card_backs/set2/orange.gif","img/card_backs/set2/pink.gif","img/card_backs/set2/blue.gif","""event"",""trial"",""time""
""focus"",""0"",""0""
""fullscreenenter"",""1"",""2600""
","
","""event"",""trial"",""time""
""focus"",""0"",""0""
","""event"",""trial"",""time""
""fullscreenenter"",""1"",""2600""
","
","","5980","Here we are! The real game will use different cards, but the rules will be the same.","71","","instructions","2021-07-09 20:02:51.050","","","","","",""
"casino-keyboard-response","69","307052","0.0-24.0-0.1","A1358","false","img/card_backs/set1/red.gif","img/card_backs/set1/purple.gif","img/card_backs/set1/green.gif","img/card_backs/set1/yellow.gif","img/card_backs/set2/gray.gif","img/card_backs/set2/orange.gif","img/card_backs/set2/pink.gif","img/card_backs/set2/blue.gif","""event"",""trial"",""time""
""focus"",""0"",""0""
""fullscreenenter"",""1"",""2600""
","
","""event"",""trial"",""time""
""focus"",""0"",""0""
","""event"",""trial"",""time""
""fullscreenenter"",""1"",""2600""
","
","","3473","Ready? Put your fingers over the '2', '4', 6', and '8' keys so you are ready to play the game. </br> Then press 2 to start.","50","","instructions","2021-07-09 20:02:54.525","","","","","",""
"casino-fixation","70","307562","0.0-25.0-0.0","A1358","false","img/card_backs/set1/red.gif","img/card_backs/set1/purple.gif","img/card_backs/set1/green.gif","img/card_backs/set1/yellow.gif","img/card_backs/set2/gray.gif","img/card_backs/set2/orange.gif","img/card_backs/set2/pink.gif","img/card_backs/set2/blue.gif","""event"",""trial"",""time""
""focus"",""0"",""0""
""fullscreenenter"",""1"",""2600""
","
","""event"",""trial"",""time""
""focus"",""0"",""0""
","""event"",""trial"",""time""
""fullscreenenter"",""1"",""2600""
","
","","null","","null","","fixation","2021-07-09 20:02:55.035","","","","","",""
"card-selection-trial","71","310436","0.0-25.0-1.0","A1358","false","img/card_backs/set1/red.gif","img/card_backs/set1/purple.gif","img/card_backs/set1/green.gif","img/card_backs/set1/yellow.gif","img/card_backs/set2/gray.gif","img/card_backs/set2/orange.gif","img/card_backs/set2/pink.gif","img/card_backs/set2/blue.gif","""event"",""trial"",""time""
""focus"",""0"",""0""
""fullscreenenter"",""1"",""2600""
","
","""event"",""trial"",""time""
""focus"",""0"",""0""
","""event"",""trial"",""time""
""fullscreenenter"",""1"",""2600""
","
","","857","","","","real_trial","2021-07-09 20:02:57.909","img/card_backs/set1/purple.gif","0","180","1","",""
"casino-fixation","72","310939","0.0-25.0-0.1","A1358","false","img/card_backs/set1/red.gif","img/card_backs/set1/purple.gif","img/card_backs/set1/green.gif","img/card_backs/set1/yellow.gif","img/card_backs/set2/gray.gif","img/card_backs/set2/orange.gif","img/card_backs/set2/pink.gif","img/card_backs/set2/blue.gif","""event"",""trial"",""time""
""focus"",""0"",""0""
""fullscreenenter"",""1"",""2600""
","
","""event"",""trial"",""time""
""focus"",""0"",""0""
","""event"",""trial"",""time""
""fullscreenenter"",""1"",""2600""
","
","","null","","null","","fixation","2021-07-09 20:02:58.412","","","","","",""
"card-selection-trial","73","313189","0.0-25.0-1.1","A1358","false","img/card_backs/set1/red.gif","img/card_backs/set1/purple.gif","img/card_backs/set1/green.gif","img/card_backs/set1/yellow.gif","img/card_backs/set2/gray.gif","img/card_backs/set2/orange.gif","img/card_backs/set2/pink.gif","img/card_backs/set2/blue.gif","""event"",""trial"",""time""
""focus"",""0"",""0""
""fullscreenenter"",""1"",""2600""
","
","""event"",""trial"",""time""
""focus"",""0"",""0""
","""event"",""trial"",""time""
""fullscreenenter"",""1"",""2600""
","
","","234","","","","real_trial","2021-07-09 20:03:00.662","img/card_backs/set1/purple.gif","0","200","1","",""
"casino-fixation","74","313702","0.0-25.0-0.2","A1358","false","img/card_backs/set1/red.gif","img/card_backs/set1/purple.gif","img/card_backs/set1/green.gif","img/card_backs/set1/yellow.gif","img/card_backs/set2/gray.gif","img/card_backs/set2/orange.gif","img/card_backs/set2/pink.gif","img/card_backs/set2/blue.gif","""event"",""trial"",""time""
""focus"",""0"",""0""
""fullscreenenter"",""1"",""2600""
","
","""event"",""trial"",""time""
""focus"",""0"",""0""
","""event"",""trial"",""time""
""fullscreenenter"",""1"",""2600""
","
","","null","","null","","fixation","2021-07-09 20:03:01.175","","","","","",""
"card-selection-trial","75","315935","0.0-25.0-1.2","A1358","false","img/card_backs/set1/red.gif","img/card_backs/set1/purple.gif","img/card_backs/set1/green.gif","img/card_backs/set1/yellow.gif","img/card_backs/set2/gray.gif","img/card_backs/set2/orange.gif","img/card_backs/set2/pink.gif","img/card_backs/set2/blue.gif","""event"",""trial"",""time""
""focus"",""0"",""0""
""fullscreenenter"",""1"",""2600""
","
","""event"",""trial"",""time""
""focus"",""0"",""0""
","""event"",""trial"",""time""
""fullscreenenter"",""1"",""2600""
","
","","224","","","","real_trial","2021-07-09 20:03:03.408","img/card_backs/set1/yellow.gif","0","120","1","",""
"casino-fixation","76","316438","0.0-25.0-0.3","A1358","false","img/card_backs/set1/red.gif","img/card_backs/set1/purple.gif","img/card_backs/set1/green.gif","img/card_backs/set1/yellow.gif","img/card_backs/set2/gray.gif","img/card_backs/set2/orange.gif","img/card_backs/set2/pink.gif","img/card_backs/set2/blue.gif","""event"",""trial"",""time""
""focus"",""0"",""0""
""fullscreenenter"",""1"",""2600""
","
","""event"",""trial"",""time""
""focus"",""0"",""0""
","""event"",""trial"",""time""
""fullscreenenter"",""1"",""2600""
","
","","null","","null","","fixation","2021-07-09 20:03:03.911","","","","","",""
"card-selection-trial","77","318626","0.0-25.0-1.3","A1358","false","img/card_backs/set1/red.gif","img/card_backs/set1/purple.gif","img/card_backs/set1/green.gif","img/card_backs/set1/yellow.gif","img/card_backs/set2/gray.gif","img/card_backs/set2/orange.gif","img/card_backs/set2/pink.gif","img/card_backs/set2/blue.gif","""event"",""trial"",""time""
""focus"",""0"",""0""
""fullscreenenter"",""1"",""2600""
","
","""event"",""trial"",""time""
""focus"",""0"",""0""
","""event"",""trial"",""time""
""fullscreenenter"",""1"",""2600""
","
","","182","","","","real_trial","2021-07-09 20:03:06.099","img/card_backs/set1/red.gif","0","-250","1","",""
"casino-fixation","78","319126","0.0-25.0-0.4","A1358","false","img/card_backs/set1/red.gif","img/card_backs/set1/purple.gif","img/card_backs/set1/green.gif","img/card_backs/set1/yellow.gif","img/card_backs/set2/gray.gif","img/card_backs/set2/orange.gif","img/card_backs/set2/pink.gif","img/card_backs/set2/blue.gif","""event"",""trial"",""time""
""focus"",""0"",""0""
""fullscreenenter"",""1"",""2600""
","
","""event"",""trial"",""time""
""focus"",""0"",""0""
","""event"",""trial"",""time""
""fullscreenenter"",""1"",""2600""
","
","","null","","null","","fixation","2021-07-09 20:03:06.599","","","","","",""
"card-selection-trial","79","321469","0.0-25.0-1.4","A1358","false","img/card_backs/set1/red.gif","img/card_backs/set1/purple.gif","img/card_backs/set1/green.gif","img/card_backs/set1/yellow.gif","img/card_backs/set2/gray.gif","img/card_backs/set2/orange.gif","img/card_backs/set2/pink.gif","img/card_backs/set2/blue.gif","""event"",""trial"",""time""
""focus"",""0"",""0""
""fullscreenenter"",""1"",""2600""
","
","""event"",""trial"",""time""
""focus"",""0"",""0""
","""event"",""trial"",""time""
""fullscreenenter"",""1"",""2600""
","
","","335","","","","real_trial","2021-07-09 20:03:08.942","img/card_backs/set1/purple.gif","0","-240","1","",""
"casino-fixation","80","321971","0.0-25.0-0.5","A1358","false","img/card_backs/set1/red.gif","img/card_backs/set1/purple.gif","img/card_backs/set1/green.gif","img/card_backs/set1/yellow.gif","img/card_backs/set2/gray.gif","img/card_backs/set2/orange.gif","img/card_backs/set2/pink.gif","img/card_backs/set2/blue.gif","""event"",""trial"",""time""
""focus"",""0"",""0""
""fullscreenenter"",""1"",""2600""
","
","""event"",""trial"",""time""
""focus"",""0"",""0""
","""event"",""trial"",""time""
""fullscreenenter"",""1"",""2600""
","
","","null","","null","","fixation","2021-07-09 20:03:09.444","","","","","",""
"card-selection-trial","81","324079","0.0-25.0-1.5","A1358","false","img/card_backs/set1/red.gif","img/card_backs/set1/purple.gif","img/card_backs/set1/green.gif","img/card_backs/set1/yellow.gif","img/card_backs/set2/gray.gif","img/card_backs/set2/orange.gif","img/card_backs/set2/pink.gif","img/card_backs/set2/blue.gif","""event"",""trial"",""time""
""focus"",""0"",""0""
""fullscreenenter"",""1"",""2600""
","
","""event"",""trial"",""time""
""focus"",""0"",""0""
","""event"",""trial"",""time""
""fullscreenenter"",""1"",""2600""
","
","","102","","","","real_trial","2021-07-09 20:03:11.552","img/card_backs/set1/yellow.gif","3","120","1","",""
"casino-fixation","82","324579","0.0-25.0-0.6","A1358","false","img/card_backs/set1/red.gif","img/card_backs/set1/purple.gif","img/card_backs/set1/green.gif","img/card_backs/set1/yellow.gif","img/card_backs/set2/gray.gif","img/card_backs/set2/orange.gif","img/card_backs/set2/pink.gif","img/card_backs/set2/blue.gif","""event"",""trial"",""time""
""focus"",""0"",""0""
""fullscreenenter"",""1"",""2600""
","
","""event"",""trial"",""time""
""focus"",""0"",""0""
","""event"",""trial"",""time""
""fullscreenenter"",""1"",""2600""
","
","","null","","null","","fixation","2021-07-09 20:03:12.052","","","","","",""
"card-selection-trial","83","326829","0.0-25.0-1.6","A1358","false","img/card_backs/set1/red.gif","img/card_backs/set1/purple.gif","img/card_backs/set1/green.gif","img/card_backs/set1/yellow.gif","img/card_backs/set2/gray.gif","img/card_backs/set2/orange.gif","img/card_backs/set2/pink.gif","img/card_backs/set2/blue.gif","""event"",""trial"",""time""
""focus"",""0"",""0""
""fullscreenenter"",""1"",""2600""
","
","""event"",""trial"",""time""
""focus"",""0"",""0""
","""event"",""trial"",""time""
""fullscreenenter"",""1"",""2600""
","
","","247","","","","real_trial","2021-07-09 20:03:14.302","img/card_backs/set1/green.gif","3","-50","1","",""
"casino-fixation","84","327344","0.0-25.0-0.7","A1358","false","img/card_backs/set1/red.gif","img/card_backs/set1/purple.gif","img/card_backs/set1/green.gif","img/card_backs/set1/yellow.gif","img/card_backs/set2/gray.gif","img/card_backs/set2/orange.gif","img/card_backs/set2/pink.gif","img/card_backs/set2/blue.gif","""event"",""trial"",""time""
""focus"",""0"",""0""
""fullscreenenter"",""1"",""2600""
","
","""event"",""trial"",""time""
""focus"",""0"",""0""
","""event"",""trial"",""time""
""fullscreenenter"",""1"",""2600""
","
","","null","","null","","fixation","2021-07-09 20:03:14.817","","","","","",""
"card-selection-trial","85","329534","0.0-25.0-1.7","A1358","false","img/card_backs/set1/red.gif","img/card_backs/set1/purple.gif","img/card_backs/set1/green.gif","img/card_backs/set1/yellow.gif","img/card_backs/set2/gray.gif","img/card_backs/set2/orange.gif","img/card_backs/set2/pink.gif","img/card_backs/set2/blue.gif","""event"",""trial"",""time""
""focus"",""0"",""0""
""fullscreenenter"",""1"",""2600""
","
","""event"",""trial"",""time""
""focus"",""0"",""0""
","""event"",""trial"",""time""
""fullscreenenter"",""1"",""2600""
","
","","186","","","","real_trial","2021-07-09 20:03:17.007","img/card_backs/set1/green.gif","3","-70","1","",""
"casino-fixation","86","330047","0.0-25.0-0.8","A1358","false","img/card_backs/set1/red.gif","img/card_backs/set1/purple.gif","img/card_backs/set1/green.gif","img/card_backs/set1/yellow.gif","img/card_backs/set2/gray.gif","img/card_backs/set2/orange.gif","img/card_backs/set2/pink.gif","img/card_backs/set2/blue.gif","""event"",""trial"",""time""
""focus"",""0"",""0""
""fullscreenenter"",""1"",""2600""
","
","""event"",""trial"",""time""
""focus"",""0"",""0""
","""event"",""trial"",""time""
""fullscreenenter"",""1"",""2600""
","
","","null","","null","","fixation","2021-07-09 20:03:17.520","","","","","",""
"card-selection-trial","87","332265","0.0-25.0-1.8","A1358","false","img/card_backs/set1/red.gif","img/card_backs/set1/purple.gif","img/card_backs/set1/green.gif","img/card_backs/set1/yellow.gif","img/card_backs/set2/gray.gif","img/card_backs/set2/orange.gif","img/card_backs/set2/pink.gif","img/card_backs/set2/blue.gif","""event"",""trial"",""time""
""focus"",""0"",""0""
""fullscreenenter"",""1"",""2600""
","
","""event"",""trial"",""time""
""focus"",""0"",""0""
","""event"",""trial"",""time""
""fullscreenenter"",""1"",""2600""
","
","","206","","","","real_trial","2021-07-09 20:03:19.738","img/card_backs/set1/red.gif","3","-240","1","",""
"casino-fixation","88","332766","0.0-25.0-0.9","A1358","false","img/card_backs/set1/red.gif","img/card_backs/set1/purple.gif","img/card_backs/set1/green.gif","img/card_backs/set1/yellow.gif","img/card_backs/set2/gray.gif","img/card_backs/set2/orange.gif","img/card_backs/set2/pink.gif","img/card_backs/set2/blue.gif","""event"",""trial"",""time""
""focus"",""0"",""0""
""fullscreenenter"",""1"",""2600""
","
","""event"",""trial"",""time""
""focus"",""0"",""0""
","""event"",""trial"",""time""
""fullscreenenter"",""1"",""2600""
","
","","null","","null","","fixation","2021-07-09 20:03:20.239","","","","","",""
"card-selection-trial","89","334969","0.0-25.0-1.9","A1358","false","img/card_backs/set1/red.gif","img/card_backs/set1/purple.gif","img/card_backs/set1/green.gif","img/card_backs/set1/yellow.gif","img/card_backs/set2/gray.gif","img/card_backs/set2/orange.gif","img/card_backs/set2/pink.gif","img/card_backs/set2/blue.gif","""event"",""trial"",""time""
""focus"",""0"",""0""
""fullscreenenter"",""1"",""2600""
","
","""event"",""trial"",""time""
""focus"",""0"",""0""
","""event"",""trial"",""time""
""fullscreenenter"",""1"",""2600""
","
","","200","","","","real_trial","2021-07-09 20:03:22.442","img/card_backs/set1/yellow.gif","2","-60","1","",""
"casino-fixation","90","335483","0.0-25.0-0.10","A1358","false","img/card_backs/set1/red.gif","img/card_backs/set1/purple.gif","img/card_backs/set1/green.gif","img/card_backs/set1/yellow.gif","img/card_backs/set2/gray.gif","img/card_backs/set2/orange.gif","img/card_backs/set2/pink.gif","img/card_backs/set2/blue.gif","""event"",""trial"",""time""
""focus"",""0"",""0""
""fullscreenenter"",""1"",""2600""
","
","""event"",""trial"",""time""
""focus"",""0"",""0""
","""event"",""trial"",""time""
""fullscreenenter"",""1"",""2600""
","
","","null","","null","","fixation","2021-07-09 20:03:22.956","","","","","",""
"card-selection-trial","91","337875","0.0-25.0-1.10","A1358","false","img/card_backs/set1/red.gif","img/card_backs/set1/purple.gif","img/card_backs/set1/green.gif","img/card_backs/set1/yellow.gif","img/card_backs/set2/gray.gif","img/card_backs/set2/orange.gif","img/card_backs/set2/pink.gif","img/card_backs/set2/blue.gif","""event"",""trial"",""time""
""focus"",""0"",""0""
""fullscreenenter"",""1"",""2600""
","
","""event"",""trial"",""time""
""focus"",""0"",""0""
","""event"",""trial"",""time""
""fullscreenenter"",""1"",""2600""
","
","","374","","","","real_trial","2021-07-09 20:03:25.348","img/card_backs/set1/yellow.gif","2","100","1","",""
"casino-fixation","92","338389","0.0-25.0-0.11","A1358","false","img/card_backs/set1/red.gif","img/card_backs/set1/purple.gif","img/card_backs/set1/green.gif","img/card_backs/set1/yellow.gif","img/card_backs/set2/gray.gif","img/card_backs/set2/orange.gif","img/card_backs/set2/pink.gif","img/card_backs/set2/blue.gif","""event"",""trial"",""time""
""focus"",""0"",""0""
""fullscreenenter"",""1"",""2600""
","
","""event"",""trial"",""time""
""focus"",""0"",""0""
","""event"",""trial"",""time""
""fullscreenenter"",""1"",""2600""
","
","","null","","null","","fixation","2021-07-09 20:03:25.862","","","","","",""
"card-selection-trial","93","341171","0.0-25.0-1.11","A1358","false","img/card_backs/set1/red.gif","img/card_backs/set1/purple.gif","img/card_backs/set1/green.gif","img/card_backs/set1/yellow.gif","img/card_backs/set2/gray.gif","img/card_backs/set2/orange.gif","img/card_backs/set2/pink.gif","img/card_backs/set2/blue.gif","""event"",""trial"",""time""
""focus"",""0"",""0""
""fullscreenenter"",""1"",""2600""
","
","""event"",""trial"",""time""
""focus"",""0"",""0""
","""event"",""trial"",""time""
""fullscreenenter"",""1"",""2600""
","
","","781","","","","real_trial","2021-07-09 20:03:28.644","img/card_backs/set1/yellow.gif","1","-50","1","",""
"casino-fixation","94","341672","0.0-25.0-0.12","A1358","false","img/card_backs/set1/red.gif","img/card_backs/set1/purple.gif","img/card_backs/set1/green.gif","img/card_backs/set1/yellow.gif","img/card_backs/set2/gray.gif","img/card_backs/set2/orange.gif","img/card_backs/set2/pink.gif","img/card_backs/set2/blue.gif","""event"",""trial"",""time""
""focus"",""0"",""0""
""fullscreenenter"",""1"",""2600""
","
","""event"",""trial"",""time""
""focus"",""0"",""0""
","""event"",""trial"",""time""
""fullscreenenter"",""1"",""2600""
","
","","null","","null","","fixation","2021-07-09 20:03:29.145","","","","","",""
"card-selection-trial","95","344328","0.0-25.0-1.12","A1358","false","img/card_backs/set1/red.gif","img/card_backs/set1/purple.gif","img/card_backs/set1/green.gif","img/card_backs/set1/yellow.gif","img/card_backs/set2/gray.gif","img/card_backs/set2/orange.gif","img/card_backs/set2/pink.gif","img/card_backs/set2/blue.gif","""event"",""trial"",""time""
""focus"",""0"",""0""
""fullscreenenter"",""1"",""2600""
","
","""event"",""trial"",""time""
""focus"",""0"",""0""
","""event"",""trial"",""time""
""fullscreenenter"",""1"",""2600""
","
","","655","","","","real_trial","2021-07-09 20:03:31.801","img/card_backs/set1/yellow.gif","0","-50","1","",""
"casino-fixation","96","344843","0.0-25.0-0.13","A1358","false","img/card_backs/set1/red.gif","img/card_backs/set1/purple.gif","img/card_backs/set1/green.gif","img/card_backs/set1/yellow.gif","img/card_backs/set2/gray.gif","img/card_backs/set2/orange.gif","img/card_backs/set2/pink.gif","img/card_backs/set2/blue.gif","""event"",""trial"",""time""
""focus"",""0"",""0""
""fullscreenenter"",""1"",""2600""
","
","""event"",""trial"",""time""
""focus"",""0"",""0""
","""event"",""trial"",""time""
""fullscreenenter"",""1"",""2600""
","
","","null","","null","","fixation","2021-07-09 20:03:32.316","","","","","",""
"card-selection-trial","97","347654","0.0-25.0-1.13","A1358","false","img/card_backs/set1/red.gif","img/card_backs/set1/purple.gif","img/card_backs/set1/green.gif","img/card_backs/set1/yellow.gif","img/card_backs/set2/gray.gif","img/card_backs/set2/orange.gif","img/card_backs/set2/pink.gif","img/card_backs/set2/blue.gif","""event"",""trial"",""time""
""focus"",""0"",""0""
""fullscreenenter"",""1"",""2600""
","
","""event"",""trial"",""time""
""focus"",""0"",""0""
","""event"",""trial"",""time""
""fullscreenenter"",""1"",""2600""
","
","","802","","","","real_trial","2021-07-09 20:03:35.128","img/card_backs/set1/purple.gif","1","-230","1","",""
"casino-fixation","98","348157","0.0-25.0-0.14","A1358","false","img/card_backs/set1/red.gif","img/card_backs/set1/purple.gif","img/card_backs/set1/green.gif","img/card_backs/set1/yellow.gif","img/card_backs/set2/gray.gif","img/card_backs/set2/orange.gif","img/card_backs/set2/pink.gif","img/card_backs/set2/blue.gif","""event"",""trial"",""time""
""focus"",""0"",""0""
""fullscreenenter"",""1"",""2600""
","
","""event"",""trial"",""time""
""focus"",""0"",""0""
","""event"",""trial"",""time""
""fullscreenenter"",""1"",""2600""
","
","","null","","null","","fixation","2021-07-09 20:03:35.630","","","","","",""
"card-selection-trial","99","350703","0.0-25.0-1.14","A1358","false","img/card_backs/set1/red.gif","img/card_backs/set1/purple.gif","img/card_backs/set1/green.gif","img/card_backs/set1/yellow.gif","img/card_backs/set2/gray.gif","img/card_backs/set2/orange.gif","img/card_backs/set2/pink.gif","img/card_backs/set2/blue.gif","""event"",""trial"",""time""
""focus"",""0"",""0""
""fullscreenenter"",""1"",""2600""
","
","""event"",""trial"",""time""
""focus"",""0"",""0""
","""event"",""trial"",""time""
""fullscreenenter"",""1"",""2600""
","
","","532","","","","real_trial","2021-07-09 20:03:38.176","img/card_backs/set1/purple.gif","1","180","1","",""
"casino-fixation","100","351205","0.0-25.0-0.15","A1358","false","img/card_backs/set1/red.gif","img/card_backs/set1/purple.gif","img/card_backs/set1/green.gif","img/card_backs/set1/yellow.gif","img/card_backs/set2/gray.gif","img/card_backs/set2/orange.gif","img/card_backs/set2/pink.gif","img/card_backs/set2/blue.gif","""event"",""trial"",""time""
""focus"",""0"",""0""
""fullscreenenter"",""1"",""2600""
","
","""event"",""trial"",""time""
""focus"",""0"",""0""
","""event"",""trial"",""time""
""fullscreenenter"",""1"",""2600""
","
","","null","","null","","fixation","2021-07-09 20:03:38.678","","","","","",""
"card-selection-trial","101","353995","0.0-25.0-1.15","A1358","false","img/card_backs/set1/red.gif","img/card_backs/set1/purple.gif","img/card_backs/set1/green.gif","img/card_backs/set1/yellow.gif","img/card_backs/set2/gray.gif","img/card_backs/set2/orange.gif","img/card_backs/set2/pink.gif","img/card_backs/set2/blue.gif","""event"",""trial"",""time""
""focus"",""0"",""0""
""fullscreenenter"",""1"",""2600""
","
","""event"",""trial"",""time""
""focus"",""0"",""0""
","""event"",""trial"",""time""
""fullscreenenter"",""1"",""2600""
","
","","785","","","","real_trial","2021-07-09 20:03:41.468","img/card_backs/set1/purple.gif","0","200","1","",""
"casino-fixation","102","354500","0.0-25.0-0.16","A1358","false","img/card_backs/set1/red.gif","img/card_backs/set1/purple.gif","img/card_backs/set1/green.gif","img/card_backs/set1/yellow.gif","img/card_backs/set2/gray.gif","img/card_backs/set2/orange.gif","img/card_backs/set2/pink.gif","img/card_backs/set2/blue.gif","""event"",""trial"",""time""
""focus"",""0"",""0""
""fullscreenenter"",""1"",""2600""
","
","""event"",""trial"",""time""
""focus"",""0"",""0""
","""event"",""trial"",""time""
""fullscreenenter"",""1"",""2600""
","
","","null","","null","","fixation","2021-07-09 20:03:41.973","","","","","",""
"card-selection-trial","103","356924","0.0-25.0-1.16","A1358","false","img/card_backs/set1/red.gif","img/card_backs/set1/purple.gif","img/card_backs/set1/green.gif","img/card_backs/set1/yellow.gif","img/card_backs/set2/gray.gif","img/card_backs/set2/orange.gif","img/card_backs/set2/pink.gif","img/card_backs/set2/blue.gif","""event"",""trial"",""time""
""focus"",""0"",""0""
""fullscreenenter"",""1"",""2600""
","
","""event"",""trial"",""time""
""focus"",""0"",""0""
","""event"",""trial"",""time""
""fullscreenenter"",""1"",""2600""
","
","","414","","","","real_trial","2021-07-09 20:03:44.397","img/card_backs/set1/purple.gif","0","-250","1","",""
"casino-fixation","104","357436","0.0-25.0-0.17","A1358","false","img/card_backs/set1/red.gif","img/card_backs/set1/purple.gif","img/card_backs/set1/green.gif","img/card_backs/set1/yellow.gif","img/card_backs/set2/gray.gif","img/card_backs/set2/orange.gif","img/card_backs/set2/pink.gif","img/card_backs/set2/blue.gif","""event"",""trial"",""time""
""focus"",""0"",""0""
""fullscreenenter"",""1"",""2600""
","
","""event"",""trial"",""time""
""focus"",""0"",""0""
","""event"",""trial"",""time""
""fullscreenenter"",""1"",""2600""
","
","","null","","null","","fixation","2021-07-09 20:03:44.909","","","","","",""
"card-selection-trial","105","359828","0.0-25.0-1.17","A1358","false","img/card_backs/set1/red.gif","img/card_backs/set1/purple.gif","img/card_backs/set1/green.gif","img/card_backs/set1/yellow.gif","img/card_backs/set2/gray.gif","img/card_backs/set2/orange.gif","img/card_backs/set2/pink.gif","img/card_backs/set2/blue.gif","""event"",""trial"",""time""
""focus"",""0"",""0""
""fullscreenenter"",""1"",""2600""
","
","""event"",""trial"",""time""
""focus"",""0"",""0""
","""event"",""trial"",""time""
""fullscreenenter"",""1"",""2600""
","
","","386","","","","real_trial","2021-07-09 20:03:47.301","img/card_backs/set1/yellow.gif","0","-50","1","",""
"casino-fixation","106","360330","0.0-25.0-0.18","A1358","false","img/card_backs/set1/red.gif","img/card_backs/set1/purple.gif","img/card_backs/set1/green.gif","img/card_backs/set1/yellow.gif","img/card_backs/set2/gray.gif","img/card_backs/set2/orange.gif","img/card_backs/set2/pink.gif","img/card_backs/set2/blue.gif","""event"",""trial"",""time""
""focus"",""0"",""0""
""fullscreenenter"",""1"",""2600""
","
","""event"",""trial"",""time""
""focus"",""0"",""0""
","""event"",""trial"",""time""
""fullscreenenter"",""1"",""2600""
","
","","null","","null","","fixation","2021-07-09 20:03:47.803","","","","","",""
"card-selection-trial","107","363001","0.0-25.0-1.18","A1358","false","img/card_backs/set1/red.gif","img/card_backs/set1/purple.gif","img/card_backs/set1/green.gif","img/card_backs/set1/yellow.gif","img/card_backs/set2/gray.gif","img/card_backs/set2/orange.gif","img/card_backs/set2/pink.gif","img/card_backs/set2/blue.gif","""event"",""trial"",""time""
""focus"",""0"",""0""
""fullscreenenter"",""1"",""2600""
","
","""event"",""trial"",""time""
""focus"",""0"",""0""
","""event"",""trial"",""time""
""fullscreenenter"",""1"",""2600""
","
","","666","","","","real_trial","2021-07-09 20:03:50.474","img/card_backs/set1/purple.gif","2","-250","1","",""
"casino-fixation","108","363501","0.0-25.0-0.19","A1358","false","img/card_backs/set1/red.gif","img/card_backs/set1/purple.gif","img/card_backs/set1/green.gif","img/card_backs/set1/yellow.gif","img/card_backs/set2/gray.gif","img/card_backs/set2/orange.gif","img/card_backs/set2/pink.gif","img/card_backs/set2/blue.gif","""event"",""trial"",""time""
""focus"",""0"",""0""
""fullscreenenter"",""1"",""2600""
","
","""event"",""trial"",""time""
""focus"",""0"",""0""
","""event"",""trial"",""time""
""fullscreenenter"",""1"",""2600""
","
","","null","","null","","fixation","2021-07-09 20:03:50.974","","","","","",""
"card-selection-trial","109","366203","0.0-25.0-1.19","A1358","false","img/card_backs/set1/red.gif","img/card_backs/set1/purple.gif","img/card_backs/set1/green.gif","img/card_backs/set1/yellow.gif","img/card_backs/set2/gray.gif","img/card_backs/set2/orange.gif","img/card_backs/set2/pink.gif","img/card_backs/set2/blue.gif","""event"",""trial"",""time""
""focus"",""0"",""0""
""fullscreenenter"",""1"",""2600""
","
","""event"",""trial"",""time""
""focus"",""0"",""0""
","""event"",""trial"",""time""
""fullscreenenter"",""1"",""2600""
","
","","691","","","","real_trial","2021-07-09 20:03:53.676","img/card_backs/set1/red.gif","1","-230","1","",""
"casino-fixation","110","366719","0.0-25.0-0.20","A1358","false","img/card_backs/set1/red.gif","img/card_backs/set1/purple.gif","img/card_backs/set1/green.gif","img/card_backs/set1/yellow.gif","img/card_backs/set2/gray.gif","img/card_backs/set2/orange.gif","img/card_backs/set2/pink.gif","img/card_backs/set2/blue.gif","""event"",""trial"",""time""
""focus"",""0"",""0""
""fullscreenenter"",""1"",""2600""
","
","""event"",""trial"",""time""
""focus"",""0"",""0""
","""event"",""trial"",""time""
""fullscreenenter"",""1"",""2600""
","
","","null","","null","","fixation","2021-07-09 20:03:54.192","","","","","",""
"card-selection-trial","111","369296","0.0-25.0-1.20","A1358","false","img/card_backs/set1/red.gif","img/card_backs/set1/purple.gif","img/card_backs/set1/green.gif","img/card_backs/set1/yellow.gif","img/card_backs/set2/gray.gif","img/card_backs/set2/orange.gif","img/card_backs/set2/pink.gif","img/card_backs/set2/blue.gif","""event"",""trial"",""time""
""focus"",""0"",""0""
""fullscreenenter"",""1"",""2600""
","
","""event"",""trial"",""time""
""focus"",""0"",""0""
","""event"",""trial"",""time""
""fullscreenenter"",""1"",""2600""
","
","","573","","","","real_trial","2021-07-09 20:03:56.769","img/card_backs/set1/red.gif","0","180","1","",""
"casino-fixation","112","369796","0.0-25.0-0.21","A1358","false","img/card_backs/set1/red.gif","img/card_backs/set1/purple.gif","img/card_backs/set1/green.gif","img/card_backs/set1/yellow.gif","img/card_backs/set2/gray.gif","img/card_backs/set2/orange.gif","img/card_backs/set2/pink.gif","img/card_backs/set2/blue.gif","""event"",""trial"",""time""
""focus"",""0"",""0""
""fullscreenenter"",""1"",""2600""
","
","""event"",""trial"",""time""
""focus"",""0"",""0""
","""event"",""trial"",""time""
""fullscreenenter"",""1"",""2600""
","
","","null","","null","","fixation","2021-07-09 20:03:57.269","","","","","",""
"card-selection-trial","113","372188","0.0-25.0-1.21","A1358","false","img/card_backs/set1/red.gif","img/card_backs/set1/purple.gif","img/card_backs/set1/green.gif","img/card_backs/set1/yellow.gif","img/card_backs/set2/gray.gif","img/card_backs/set2/orange.gif","img/card_backs/set2/pink.gif","img/card_backs/set2/blue.gif","""event"",""trial"",""time""
""focus"",""0"",""0""
""fullscreenenter"",""1"",""2600""
","
","""event"",""trial"",""time""
""focus"",""0"",""0""
","""event"",""trial"",""time""
""fullscreenenter"",""1"",""2600""
","
","","383","","","","real_trial","2021-07-09 20:03:59.661","img/card_backs/set1/red.gif","0","-240","1","",""
"casino-fixation","114","372701","0.0-25.0-0.22","A1358","false","img/card_backs/set1/red.gif","img/card_backs/set1/purple.gif","img/card_backs/set1/green.gif","img/card_backs/set1/yellow.gif","img/card_backs/set2/gray.gif","img/card_backs/set2/orange.gif","img/card_backs/set2/pink.gif","img/card_backs/set2/blue.gif","""event"",""trial"",""time""
""focus"",""0"",""0""
""fullscreenenter"",""1"",""2600""
","
","""event"",""trial"",""time""
""focus"",""0"",""0""
","""event"",""trial"",""time""
""fullscreenenter"",""1"",""2600""
","
","","null","","null","","fixation","2021-07-09 20:04:00.174","","","","","",""
"card-selection-trial","115","376422","0.0-25.0-1.22","A1358","false","img/card_backs/set1/red.gif","img/card_backs/set1/purple.gif","img/card_backs/set1/green.gif","img/card_backs/set1/yellow.gif","img/card_backs/set2/gray.gif","img/card_backs/set2/orange.gif","img/card_backs/set2/pink.gif","img/card_backs/set2/blue.gif","""event"",""trial"",""time""
""focus"",""0"",""0""
""fullscreenenter"",""1"",""2600""
","
","""event"",""trial"",""time""
""focus"",""0"",""0""
","""event"",""trial"",""time""
""fullscreenenter"",""1"",""2600""
","
","","1714","","","","real_trial","2021-07-09 20:04:03.895","img/card_backs/set1/green.gif","3","110","1","",""
"casino-fixation","116","376935","0.0-25.0-0.23","A1358","false","img/card_backs/set1/red.gif","img/card_backs/set1/purple.gif","img/card_backs/set1/green.gif","img/card_backs/set1/yellow.gif","img/card_backs/set2/gray.gif","img/card_backs/set2/orange.gif","img/card_backs/set2/pink.gif","img/card_backs/set2/blue.gif","""event"",""trial"",""time""
""focus"",""0"",""0""
""fullscreenenter"",""1"",""2600""
","
","""event"",""trial"",""time""
""focus"",""0"",""0""
","""event"",""trial"",""time""
""fullscreenenter"",""1"",""2600""
","
","","null","","null","","fixation","2021-07-09 20:04:04.408","","","","","",""
"card-selection-trial","117","379579","0.0-25.0-1.23","A1358","false","img/card_backs/set1/red.gif","img/card_backs/set1/purple.gif","img/card_backs/set1/green.gif","img/card_backs/set1/yellow.gif","img/card_backs/set2/gray.gif","img/card_backs/set2/orange.gif","img/card_backs/set2/pink.gif","img/card_backs/set2/blue.gif","""event"",""trial"",""time""
""focus"",""0"",""0""
""fullscreenenter"",""1"",""2600""
","
","""event"",""trial"",""time""
""focus"",""0"",""0""
","""event"",""trial"",""time""
""fullscreenenter"",""1"",""2600""
","
","","632","","","","real_trial","2021-07-09 20:04:07.052","img/card_backs/set1/green.gif","2","-70","1","",""
"casino-fixation","118","380094","0.0-25.0-0.24","A1358","false","img/card_backs/set1/red.gif","img/card_backs/set1/purple.gif","img/card_backs/set1/green.gif","img/card_backs/set1/yellow.gif","img/card_backs/set2/gray.gif","img/card_backs/set2/orange.gif","img/card_backs/set2/pink.gif","img/card_backs/set2/blue.gif","""event"",""trial"",""time""
""focus"",""0"",""0""
""fullscreenenter"",""1"",""2600""
","
","""event"",""trial"",""time""
""focus"",""0"",""0""
","""event"",""trial"",""time""
""fullscreenenter"",""1"",""2600""
","
","","null","","null","","fixation","2021-07-09 20:04:07.567","","","","","",""
"card-selection-trial","119","382595","0.0-25.0-1.24","A1358","false","img/card_backs/set1/red.gif","img/card_backs/set1/purple.gif","img/card_backs/set1/green.gif","img/card_backs/set1/yellow.gif","img/card_backs/set2/gray.gif","img/card_backs/set2/orange.gif","img/card_backs/set2/pink.gif","img/card_backs/set2/blue.gif","""event"",""trial"",""time""
""focus"",""0"",""0""
""fullscreenenter"",""1"",""2600""
","
","""event"",""trial"",""time""
""focus"",""0"",""0""
","""event"",""trial"",""time""
""fullscreenenter"",""1"",""2600""
","
","","490","","","","real_trial","2021-07-09 20:04:10.068","img/card_backs/set1/green.gif","3","100","1","",""
"casino-fixation","120","383100","0.0-25.0-0.25","A1358","false","img/card_backs/set1/red.gif","img/card_backs/set1/purple.gif","img/card_backs/set1/green.gif","img/card_backs/set1/yellow.gif","img/card_backs/set2/gray.gif","img/card_backs/set2/orange.gif","img/card_backs/set2/pink.gif","img/card_backs/set2/blue.gif","""event"",""trial"",""time""
""focus"",""0"",""0""
""fullscreenenter"",""1"",""2600""
","
","""event"",""trial"",""time""
""focus"",""0"",""0""
","""event"",""trial"",""time""
""fullscreenenter"",""1"",""2600""
","
","","null","","null","","fixation","2021-07-09 20:04:10.573","","","","","",""
"card-selection-trial","121","385810","0.0-25.0-1.25","A1358","false","img/card_backs/set1/red.gif","img/card_backs/set1/purple.gif","img/card_backs/set1/green.gif","img/card_backs/set1/yellow.gif","img/card_backs/set2/gray.gif","img/card_backs/set2/orange.gif","img/card_backs/set2/pink.gif","img/card_backs/set2/blue.gif","""event"",""trial"",""time""
""focus"",""0"",""0""
""fullscreenenter"",""1"",""2600""
","
","""event"",""trial"",""time""
""focus"",""0"",""0""
","""event"",""trial"",""time""
""fullscreenenter"",""1"",""2600""
","
","","695","","","","real_trial","2021-07-09 20:04:13.283","img/card_backs/set1/green.gif","1","110","1","",""
"casino-fixation","122","386313","0.0-25.0-0.26","A1358","false","img/card_backs/set1/red.gif","img/card_backs/set1/purple.gif","img/card_backs/set1/green.gif","img/card_backs/set1/yellow.gif","img/card_backs/set2/gray.gif","img/card_backs/set2/orange.gif","img/card_backs/set2/pink.gif","img/card_backs/set2/blue.gif","""event"",""trial"",""time""
""focus"",""0"",""0""
""fullscreenenter"",""1"",""2600""
","
","""event"",""trial"",""time""
""focus"",""0"",""0""
","""event"",""trial"",""time""
""fullscreenenter"",""1"",""2600""
","
","","null","","null","","fixation","2021-07-09 20:04:13.786","","","","","",""
"card-selection-trial","123","388812","0.0-25.0-1.26","A1358","false","img/card_backs/set1/red.gif","img/card_backs/set1/purple.gif","img/card_backs/set1/green.gif","img/card_backs/set1/yellow.gif","img/card_backs/set2/gray.gif","img/card_backs/set2/orange.gif","img/card_backs/set2/pink.gif","img/card_backs/set2/blue.gif","""event"",""trial"",""time""
""focus"",""0"",""0""
""fullscreenenter"",""1"",""2600""
","
","""event"",""trial"",""time""
""focus"",""0"",""0""
","""event"",""trial"",""time""
""fullscreenenter"",""1"",""2600""
","
","","493","","","","real_trial","2021-07-09 20:04:16.285","img/card_backs/set1/green.gif","2","-50","1","",""
"casino-fixation","124","389315","0.0-25.0-0.27","A1358","false","img/card_backs/set1/red.gif","img/card_backs/set1/purple.gif","img/card_backs/set1/green.gif","img/card_backs/set1/yellow.gif","img/card_backs/set2/gray.gif","img/card_backs/set2/orange.gif","img/card_backs/set2/pink.gif","img/card_backs/set2/blue.gif","""event"",""trial"",""time""
""focus"",""0"",""0""
""fullscreenenter"",""1"",""2600""
","
","""event"",""trial"",""time""
""focus"",""0"",""0""
","""event"",""trial"",""time""
""fullscreenenter"",""1"",""2600""
","
","","null","","null","","fixation","2021-07-09 20:04:16.788","","","","","",""
"card-selection-trial","125","391844","0.0-25.0-1.27","A1358","false","img/card_backs/set1/red.gif","img/card_backs/set1/purple.gif","img/card_backs/set1/green.gif","img/card_backs/set1/yellow.gif","img/card_backs/set2/gray.gif","img/card_backs/set2/orange.gif","img/card_backs/set2/pink.gif","img/card_backs/set2/blue.gif","""event"",""trial"",""time""
""focus"",""0"",""0""
""fullscreenenter"",""1"",""2600""
","
","""event"",""trial"",""time""
""focus"",""0"",""0""
","""event"",""trial"",""time""
""fullscreenenter"",""1"",""2600""
","
","","526","","","","real_trial","2021-07-09 20:04:19.317","img/card_backs/set1/green.gif","0","120","1","",""
"casino-fixation","126","392360","0.0-25.0-0.28","A1358","false","img/card_backs/set1/red.gif","img/card_backs/set1/purple.gif","img/card_backs/set1/green.gif","img/card_backs/set1/yellow.gif","img/card_backs/set2/gray.gif","img/card_backs/set2/orange.gif","img/card_backs/set2/pink.gif","img/card_backs/set2/blue.gif","""event"",""trial"",""time""
""focus"",""0"",""0""
""fullscreenenter"",""1"",""2600""
","
","""event"",""trial"",""time""
""focus"",""0"",""0""
","""event"",""trial"",""time""
""fullscreenenter"",""1"",""2600""
","
","","null","","null","","fixation","2021-07-09 20:04:19.833","","","","","",""
"card-selection-trial","127","394861","0.0-25.0-1.28","A1358","false","img/card_backs/set1/red.gif","img/card_backs/set1/purple.gif","img/card_backs/set1/green.gif","img/card_backs/set1/yellow.gif","img/card_backs/set2/gray.gif","img/card_backs/set2/orange.gif","img/card_backs/set2/pink.gif","img/card_backs/set2/blue.gif","""event"",""trial"",""time""
""focus"",""0"",""0""
""fullscreenenter"",""1"",""2600""
","
","""event"",""trial"",""time""
""focus"",""0"",""0""
","""event"",""trial"",""time""
""fullscreenenter"",""1"",""2600""
","
","","483","","","","real_trial","2021-07-09 20:04:22.334","img/card_backs/set1/green.gif","2","-60","1","",""
"casino-fixation","128","395375","0.0-25.0-0.29","A1358","false","img/card_backs/set1/red.gif","img/card_backs/set1/purple.gif","img/card_backs/set1/green.gif","img/card_backs/set1/yellow.gif","img/card_backs/set2/gray.gif","img/card_backs/set2/orange.gif","img/card_backs/set2/pink.gif","img/card_backs/set2/blue.gif","""event"",""trial"",""time""
""focus"",""0"",""0""
""fullscreenenter"",""1"",""2600""
","
","""event"",""trial"",""time""
""focus"",""0"",""0""
","""event"",""trial"",""time""
""fullscreenenter"",""1"",""2600""
","
","","null","","null","","fixation","2021-07-09 20:04:22.848","","","","","",""
"card-selection-trial","129","397799","0.0-25.0-1.29","A1358","false","img/card_backs/set1/red.gif","img/card_backs/set1/purple.gif","img/card_backs/set1/green.gif","img/card_backs/set1/yellow.gif","img/card_backs/set2/gray.gif","img/card_backs/set2/orange.gif","img/card_backs/set2/pink.gif","img/card_backs/set2/blue.gif","""event"",""trial"",""time""
""focus"",""0"",""0""
""fullscreenenter"",""1"",""2600""
","
","""event"",""trial"",""time""
""focus"",""0"",""0""
","""event"",""trial"",""time""
""fullscreenenter"",""1"",""2600""
","
","","421","","","","real_trial","2021-07-09 20:04:25.272","img/card_backs/set1/green.gif","2","-50","1","",""
"casino-fixation","130","398312","0.0-25.0-0.30","A1358","false","img/card_backs/set1/red.gif","img/card_backs/set1/purple.gif","img/card_backs/set1/green.gif","img/card_backs/set1/yellow.gif","img/card_backs/set2/gray.gif","img/card_backs/set2/orange.gif","img/card_backs/set2/pink.gif","img/card_backs/set2/blue.gif","""event"",""trial"",""time""
""focus"",""0"",""0""
""fullscreenenter"",""1"",""2600""
","
","""event"",""trial"",""time""
""focus"",""0"",""0""
","""event"",""trial"",""time""
""fullscreenenter"",""1"",""2600""
","
","","null","","null","","fixation","2021-07-09 20:04:25.785","","","","","",""
"card-selection-trial","131","400734","0.0-25.0-1.30","A1358","false","img/card_backs/set1/red.gif","img/card_backs/set1/purple.gif","img/card_backs/set1/green.gif","img/card_backs/set1/yellow.gif","img/card_backs/set2/gray.gif","img/card_backs/set2/orange.gif","img/card_backs/set2/pink.gif","img/card_backs/set2/blue.gif","""event"",""trial"",""time""
""focus"",""0"",""0""
""fullscreenenter"",""1"",""2600""
","
","""event"",""trial"",""time""
""focus"",""0"",""0""
","""event"",""trial"",""time""
""fullscreenenter"",""1"",""2600""
","
","","409","","","","real_trial","2021-07-09 20:04:28.207","img/card_backs/set1/green.gif","3","100","1","",""
"casino-fixation","132","401249","0.0-25.0-0.31","A1358","false","img/card_backs/set1/red.gif","img/card_backs/set1/purple.gif","img/card_backs/set1/green.gif","img/card_backs/set1/yellow.gif","img/card_backs/set2/gray.gif","img/card_backs/set2/orange.gif","img/card_backs/set2/pink.gif","img/card_backs/set2/blue.gif","""event"",""trial"",""time""
""focus"",""0"",""0""
""fullscreenenter"",""1"",""2600""
","
","""event"",""trial"",""time""
""focus"",""0"",""0""
","""event"",""trial"",""time""
""fullscreenenter"",""1"",""2600""
","
","","null","","null","","fixation","2021-07-09 20:04:28.722","","","","","",""
"card-selection-trial","133","403736","0.0-25.0-1.31","A1358","false","img/card_backs/set1/red.gif","img/card_backs/set1/purple.gif","img/card_backs/set1/green.gif","img/card_backs/set1/yellow.gif","img/card_backs/set2/gray.gif","img/card_backs/set2/orange.gif","img/card_backs/set2/pink.gif","img/card_backs/set2/blue.gif","""event"",""trial"",""time""
""focus"",""0"",""0""
""fullscreenenter"",""1"",""2600""
","
","""event"",""trial"",""time""
""focus"",""0"",""0""
","""event"",""trial"",""time""
""fullscreenenter"",""1"",""2600""
","
","","477","","","","real_trial","2021-07-09 20:04:31.209","img/card_backs/set1/green.gif","2","120","1","",""
"casino-fixation","134","404248","0.0-25.0-0.32","A1358","false","img/card_backs/set1/red.gif","img/card_backs/set1/purple.gif","img/card_backs/set1/green.gif","img/card_backs/set1/yellow.gif","img/card_backs/set2/gray.gif","img/card_backs/set2/orange.gif","img/card_backs/set2/pink.gif","img/card_backs/set2/blue.gif","""event"",""trial"",""time""
""focus"",""0"",""0""
""fullscreenenter"",""1"",""2600""
","
","""event"",""trial"",""time""
""focus"",""0"",""0""
","""event"",""trial"",""time""
""fullscreenenter"",""1"",""2600""
","
","","null","","null","","fixation","2021-07-09 20:04:31.722","","","","","",""
"card-selection-trial","135","406749","0.0-25.0-1.32","A1358","false","img/card_backs/set1/red.gif","img/card_backs/set1/purple.gif","img/card_backs/set1/green.gif","img/card_backs/set1/yellow.gif","img/card_backs/set2/gray.gif","img/card_backs/set2/orange.gif","img/card_backs/set2/pink.gif","img/card_backs/set2/blue.gif","""event"",""trial"",""time""
""focus"",""0"",""0""
""fullscreenenter"",""1"",""2600""
","
","""event"",""trial"",""time""
""focus"",""0"",""0""
","""event"",""trial"",""time""
""fullscreenenter"",""1"",""2600""
","
","","494","","","","real_trial","2021-07-09 20:04:34.222","img/card_backs/set1/green.gif","3","110","1","",""
"casino-fixation","136","407249","0.0-25.0-0.33","A1358","false","img/card_backs/set1/red.gif","img/card_backs/set1/purple.gif","img/card_backs/set1/green.gif","img/card_backs/set1/yellow.gif","img/card_backs/set2/gray.gif","img/card_backs/set2/orange.gif","img/card_backs/set2/pink.gif","img/card_backs/set2/blue.gif","""event"",""trial"",""time""
""focus"",""0"",""0""
""fullscreenenter"",""1"",""2600""
","
","""event"",""trial"",""time""
""focus"",""0"",""0""
","""event"",""trial"",""time""
""fullscreenenter"",""1"",""2600""
","
","","null","","null","","fixation","2021-07-09 20:04:34.722","","","","","",""
"card-selection-trial","137","409748","0.0-25.0-1.33","A1358","false","img/card_backs/set1/red.gif","img/card_backs/set1/purple.gif","img/card_backs/set1/green.gif","img/card_backs/set1/yellow.gif","img/card_backs/set2/gray.gif","img/card_backs/set2/orange.gif","img/card_backs/set2/pink.gif","img/card_backs/set2/blue.gif","""event"",""trial"",""time""
""focus"",""0"",""0""
""fullscreenenter"",""1"",""2600""
","
","""event"",""trial"",""time""
""focus"",""0"",""0""
","""event"",""trial"",""time""
""fullscreenenter"",""1"",""2600""
","
","","486","","","","real_trial","2021-07-09 20:04:37.221","img/card_backs/set1/green.gif","1","120","1","",""
"casino-fixation","138","410250","0.0-25.0-0.34","A1358","false","img/card_backs/set1/red.gif","img/card_backs/set1/purple.gif","img/card_backs/set1/green.gif","img/card_backs/set1/yellow.gif","img/card_backs/set2/gray.gif","img/card_backs/set2/orange.gif","img/card_backs/set2/pink.gif","img/card_backs/set2/blue.gif","""event"",""trial"",""time""
""focus"",""0"",""0""
""fullscreenenter"",""1"",""2600""
","
","""event"",""trial"",""time""
""focus"",""0"",""0""
","""event"",""trial"",""time""
""fullscreenenter"",""1"",""2600""
","
","","null","","null","","fixation","2021-07-09 20:04:37.723","","","","","",""
"card-selection-trial","139","412750","0.0-25.0-1.34","A1358","false","img/card_backs/set1/red.gif","img/card_backs/set1/purple.gif","img/card_backs/set1/green.gif","img/card_backs/set1/yellow.gif","img/card_backs/set2/gray.gif","img/card_backs/set2/orange.gif","img/card_backs/set2/pink.gif","img/card_backs/set2/blue.gif","""event"",""trial"",""time""
""focus"",""0"",""0""
""fullscreenenter"",""1"",""2600""
","
","""event"",""trial"",""time""
""focus"",""0"",""0""
","""event"",""trial"",""time""
""fullscreenenter"",""1"",""2600""
","
","","484","","","","real_trial","2021-07-09 20:04:40.223","img/card_backs/set1/green.gif","0","110","1","",""
"casino-fixation","140","413251","0.0-25.0-0.35","A1358","false","img/card_backs/set1/red.gif","img/card_backs/set1/purple.gif","img/card_backs/set1/green.gif","img/card_backs/set1/yellow.gif","img/card_backs/set2/gray.gif","img/card_backs/set2/orange.gif","img/card_backs/set2/pink.gif","img/card_backs/set2/blue.gif","""event"",""trial"",""time""
""focus"",""0"",""0""
""fullscreenenter"",""1"",""2600""
","
","""event"",""trial"",""time""
""focus"",""0"",""0""
","""event"",""trial"",""time""
""fullscreenenter"",""1"",""2600""
","
","","null","","null","","fixation","2021-07-09 20:04:40.725","","","","","",""
"card-selection-trial","141","415733","0.0-25.0-1.35","A1358","false","img/card_backs/set1/red.gif","img/card_backs/set1/purple.gif","img/card_backs/set1/green.gif","img/card_backs/set1/yellow.gif","img/card_backs/set2/gray.gif","img/card_backs/set2/orange.gif","img/card_backs/set2/pink.gif","img/card_backs/set2/blue.gif","""event"",""trial"",""time""
""focus"",""0"",""0""
""fullscreenenter"",""1"",""2600""
","
","""event"",""trial"",""time""
""focus"",""0"",""0""
","""event"",""trial"",""time""
""fullscreenenter"",""1"",""2600""
","
","","466","","","","real_trial","2021-07-09 20:04:43.206","img/card_backs/set1/green.gif","2","110","1","",""
"casino-fixation","142","416234","0.0-25.0-0.36","A1358","false","img/card_backs/set1/red.gif","img/card_backs/set1/purple.gif","img/card_backs/set1/green.gif","img/card_backs/set1/yellow.gif","img/card_backs/set2/gray.gif","img/card_backs/set2/orange.gif","img/card_backs/set2/pink.gif","img/card_backs/set2/blue.gif","""event"",""trial"",""time""
""focus"",""0"",""0""
""fullscreenenter"",""1"",""2600""
","
","""event"",""trial"",""time""
""focus"",""0"",""0""
","""event"",""trial"",""time""
""fullscreenenter"",""1"",""2600""
","
","","null","","null","","fixation","2021-07-09 20:04:43.707","","","","","",""
"card-selection-trial","143","418813","0.0-25.0-1.36","A1358","false","img/card_backs/set1/red.gif","img/card_backs/set1/purple.gif","img/card_backs/set1/green.gif","img/card_backs/set1/yellow.gif","img/card_backs/set2/gray.gif","img/card_backs/set2/orange.gif","img/card_backs/set2/pink.gif","img/card_backs/set2/blue.gif","""event"",""trial"",""time""
""focus"",""0"",""0""
""fullscreenenter"",""1"",""2600""
","
","""event"",""trial"",""time""
""focus"",""0"",""0""
","""event"",""trial"",""time""
""fullscreenenter"",""1"",""2600""
","
","","576","","","","real_trial","2021-07-09 20:04:46.286","img/card_backs/set1/green.gif","3","-70","1","",""
"casino-fixation","144","419323","0.0-25.0-0.37","A1358","false","img/card_backs/set1/red.gif","img/card_backs/set1/purple.gif","img/card_backs/set1/green.gif","img/card_backs/set1/yellow.gif","img/card_backs/set2/gray.gif","img/card_backs/set2/orange.gif","img/card_backs/set2/pink.gif","img/card_backs/set2/blue.gif","""event"",""trial"",""time""
""focus"",""0"",""0""
""fullscreenenter"",""1"",""2600""
","
","""event"",""trial"",""time""
""focus"",""0"",""0""
","""event"",""trial"",""time""
""fullscreenenter"",""1"",""2600""
","
","","null","","null","","fixation","2021-07-09 20:04:46.796","","","","","",""
"card-selection-trial","145","421720","0.0-25.0-1.37","A1358","false","img/card_backs/set1/red.gif","img/card_backs/set1/purple.gif","img/card_backs/set1/green.gif","img/card_backs/set1/yellow.gif","img/card_backs/set2/gray.gif","img/card_backs/set2/orange.gif","img/card_backs/set2/pink.gif","img/card_backs/set2/blue.gif","""event"",""trial"",""time""
""focus"",""0"",""0""
""fullscreenenter"",""1"",""2600""
","
","""event"",""trial"",""time""
""focus"",""0"",""0""
","""event"",""trial"",""time""
""fullscreenenter"",""1"",""2600""
","
","","380","","","","real_trial","2021-07-09 20:04:49.193","img/card_backs/set1/green.gif","2","-60","1","",""
"casino-fixation","146","422234","0.0-25.0-0.38","A1358","false","img/card_backs/set1/red.gif","img/card_backs/set1/purple.gif","img/card_backs/set1/green.gif","img/card_backs/set1/yellow.gif","img/card_backs/set2/gray.gif","img/card_backs/set2/orange.gif","img/card_backs/set2/pink.gif","img/card_backs/set2/blue.gif","""event"",""trial"",""time""
""focus"",""0"",""0""
""fullscreenenter"",""1"",""2600""
","
","""event"",""trial"",""time""
""focus"",""0"",""0""
","""event"",""trial"",""time""
""fullscreenenter"",""1"",""2600""
","
","","null","","null","","fixation","2021-07-09 20:04:49.707","","","","","",""
"card-selection-trial","147","424769","0.0-25.0-1.38","A1358","false","img/card_backs/set1/red.gif","img/card_backs/set1/purple.gif","img/card_backs/set1/green.gif","img/card_backs/set1/yellow.gif","img/card_backs/set2/gray.gif","img/card_backs/set2/orange.gif","img/card_backs/set2/pink.gif","img/card_backs/set2/blue.gif","""event"",""trial"",""time""
""focus"",""0"",""0""
""fullscreenenter"",""1"",""2600""
","
","""event"",""trial"",""time""
""focus"",""0"",""0""
","""event"",""trial"",""time""
""fullscreenenter"",""1"",""2600""
","
","","519","","","","real_trial","2021-07-09 20:04:52.242","img/card_backs/set1/green.gif","1","-60","1","",""
"casino-fixation","148","425280","0.0-25.0-0.39","A1358","false","img/card_backs/set1/red.gif","img/card_backs/set1/purple.gif","img/card_backs/set1/green.gif","img/card_backs/set1/yellow.gif","img/card_backs/set2/gray.gif","img/card_backs/set2/orange.gif","img/card_backs/set2/pink.gif","img/card_backs/set2/blue.gif","""event"",""trial"",""time""
""focus"",""0"",""0""
""fullscreenenter"",""1"",""2600""
","
","""event"",""trial"",""time""
""focus"",""0"",""0""
","""event"",""trial"",""time""
""fullscreenenter"",""1"",""2600""
","
","","null","","null","","fixation","2021-07-09 20:04:52.753","","","","","",""
"card-selection-trial","149","427656","0.0-25.0-1.39","A1358","false","img/card_backs/set1/red.gif","img/card_backs/set1/purple.gif","img/card_backs/set1/green.gif","img/card_backs/set1/yellow.gif","img/card_backs/set2/gray.gif","img/card_backs/set2/orange.gif","img/card_backs/set2/pink.gif","img/card_backs/set2/blue.gif","""event"",""trial"",""time""
""focus"",""0"",""0""
""fullscreenenter"",""1"",""2600""
","
","""event"",""trial"",""time""
""focus"",""0"",""0""
","""event"",""trial"",""time""
""fullscreenenter"",""1"",""2600""
","
