"trial_type","trial_index","time_elapsed","internal_node_id","sub_id","risk_good_first","block1_A","block1_B","block1_C","block1_D","block2_A","block2_B","block2_C","block2_D","interactions","blur_events","focus_events","fullscreenenter_events","fullscreenexit_events","success","rt","stimulus","key_press","button_pressed","task_part","timestamp","card_choice","choice_position","points_earned","block","correct","response"
"pavlovia","0","3","0.0-0.0","914","false","img/card_backs/set1/red.gif","img/card_backs/set1/purple.gif","img/card_backs/set1/yellow.gif","img/card_backs/set1/green.gif","img/card_backs/set2/blue.gif","img/card_backs/set2/orange.gif","img/card_backs/set2/gray.gif","img/card_backs/set2/pink.gif","""event"",""trial"",""time""
""fullscreenenter"",""1"",""3513""
","
","
","""event"",""trial"",""time""
""fullscreenenter"",""1"",""3513""
","
","","","","","","","","","","","","",""
"fullscreen","1","4502","0.0-1.0","914","false","img/card_backs/set1/red.gif","img/card_backs/set1/purple.gif","img/card_backs/set1/yellow.gif","img/card_backs/set1/green.gif","img/card_backs/set2/blue.gif","img/card_backs/set2/orange.gif","img/card_backs/set2/gray.gif","img/card_backs/set2/pink.gif","""event"",""trial"",""time""
""fullscreenenter"",""1"",""3513""
","
","
","""event"",""trial"",""time""
""fullscreenenter"",""1"",""3513""
","
","true","","","","","","","","","","","",""
"audio-keyboard-response","2","7365","0.0-2.0","914","false","img/card_backs/set1/red.gif","img/card_backs/set1/purple.gif","img/card_backs/set1/yellow.gif","img/card_backs/set1/green.gif","img/card_backs/set2/blue.gif","img/card_backs/set2/orange.gif","img/card_backs/set2/gray.gif","img/card_backs/set2/pink.gif","""event"",""trial"",""time""
""fullscreenenter"",""1"",""3513""
","
","
","""event"",""trial"",""time""
""fullscreenenter"",""1"",""3513""
","
","","2611","audio/beep_loop.wav","32","","","","","","","","",""
"audio-button-response","3","10659","0.0-3.0","914","false","img/card_backs/set1/red.gif","img/card_backs/set1/purple.gif","img/card_backs/set1/yellow.gif","img/card_backs/set1/green.gif","img/card_backs/set2/blue.gif","img/card_backs/set2/orange.gif","img/card_backs/set2/gray.gif","img/card_backs/set2/pink.gif","""event"",""trial"",""time""
""fullscreenenter"",""1"",""3513""
","
","
","""event"",""trial"",""time""
""fullscreenenter"",""1"",""3513""
","
","","NaN","audio/turtle.mp3","","3","","","","","","","",""
"audio-button-response","4","12771","0.0-4.0","914","false","img/card_backs/set1/red.gif","img/card_backs/set1/purple.gif","img/card_backs/set1/yellow.gif","img/card_backs/set1/green.gif","img/card_backs/set2/blue.gif","img/card_backs/set2/orange.gif","img/card_backs/set2/gray.gif","img/card_backs/set2/pink.gif","""event"",""trial"",""time""
""fullscreenenter"",""1"",""3513""
","
","
","""event"",""trial"",""time""
""fullscreenenter"",""1"",""3513""
","
","","NaN","audio/shark.mp3","","2","","","","","","","",""
"fullscreen","5","16081","0.0-5.0","914","false","img/card_backs/set1/red.gif","img/card_backs/set1/purple.gif","img/card_backs/set1/yellow.gif","img/card_backs/set1/green.gif","img/card_backs/set2/blue.gif","img/card_backs/set2/orange.gif","img/card_backs/set2/gray.gif","img/card_backs/set2/pink.gif","""event"",""trial"",""time""
""fullscreenenter"",""1"",""3513""
","
","
","""event"",""trial"",""time""
""fullscreenenter"",""1"",""3513""
","
","true","","","","","","","","","","","",""
"casino-keyboard-response","6","19647","0.0-6.0-0.0","914","false","img/card_backs/set1/red.gif","img/card_backs/set1/purple.gif","img/card_backs/set1/yellow.gif","img/card_backs/set1/green.gif","img/card_backs/set2/blue.gif","img/card_backs/set2/orange.gif","img/card_backs/set2/gray.gif","img/card_backs/set2/pink.gif","""event"",""trial"",""time""
""fullscreenenter"",""1"",""3513""
","
","
","""event"",""trial"",""time""
""fullscreenenter"",""1"",""3513""
","
","","3562.43500020355","Welcome to the casino!","71","","instructions","2021-06-24 15:01:14.547","","","","","",""
"casino-keyboard-response","7","29400","0.0-6.0-0.1","914","false","img/card_backs/set1/red.gif","img/card_backs/set1/purple.gif","img/card_backs/set1/yellow.gif","img/card_backs/set1/green.gif","img/card_backs/set2/blue.gif","img/card_backs/set2/orange.gif","img/card_backs/set2/gray.gif","img/card_backs/set2/pink.gif","""event"",""trial"",""time""
""fullscreenenter"",""1"",""3513""
","
","
","""event"",""trial"",""time""
""fullscreenenter"",""1"",""3513""
","
","","9750.585000030696","Today you will be playing a game to earn tokens. </br> At the end of the experiment, you will be paid a bonus based on how many tokens you win. ","69","","instructions","2021-06-24 15:01:24.300","","","","","",""
"casino-keyboard-response","8","38158","0.0-6.0-0.2","914","false","img/card_backs/set1/red.gif","img/card_backs/set1/purple.gif","img/card_backs/set1/yellow.gif","img/card_backs/set1/green.gif","img/card_backs/set2/blue.gif","img/card_backs/set2/orange.gif","img/card_backs/set2/gray.gif","img/card_backs/set2/pink.gif","""event"",""trial"",""time""
""fullscreenenter"",""1"",""3513""
","
","
","""event"",""trial"",""time""
""fullscreenenter"",""1"",""3513""
","
","","8756.470000371337","On every turn, you will be shown four different decks of cards. </br> You need to select a card from one of the four decks.  ","75","","instructions","2021-06-24 15:01:33.058","","","","","",""
"casino-keyboard-response","9","43804","0.0-6.0-0.3","914","false","img/card_backs/set1/red.gif","img/card_backs/set1/purple.gif","img/card_backs/set1/yellow.gif","img/card_backs/set1/green.gif","img/card_backs/set2/blue.gif","img/card_backs/set2/orange.gif","img/card_backs/set2/gray.gif","img/card_backs/set2/pink.gif","""event"",""trial"",""time""
""fullscreenenter"",""1"",""3513""
","
","
","""event"",""trial"",""time""
""fullscreenenter"",""1"",""3513""
","
","","5644.295000005513","On the next screen, you will see what the decks will look like. ","66","","instructions","2021-06-24 15:01:38.704","","","","","",""
"card-selection-trial","10","47816","0.0-7.0-0.0","914","false","img/card_backs/set1/red.gif","img/card_backs/set1/purple.gif","img/card_backs/set1/yellow.gif","img/card_backs/set1/green.gif","img/card_backs/set2/blue.gif","img/card_backs/set2/orange.gif","img/card_backs/set2/gray.gif","img/card_backs/set2/pink.gif","""event"",""trial"",""time""
""fullscreenenter"",""1"",""3513""
","
","
","""event"",""trial"",""time""
""fullscreenenter"",""1"",""3513""
","
","","null","","","","practice","2021-06-24 15:01:42.716","null","null","null","0","",""
"casino-keyboard-response","11","56035","0.0-8.0-0.0","914","false","img/card_backs/set1/red.gif","img/card_backs/set1/purple.gif","img/card_backs/set1/yellow.gif","img/card_backs/set1/green.gif","img/card_backs/set2/blue.gif","img/card_backs/set2/orange.gif","img/card_backs/set2/gray.gif","img/card_backs/set2/pink.gif","""event"",""trial"",""time""
""fullscreenenter"",""1"",""3513""
","
","
","""event"",""trial"",""time""
""fullscreenenter"",""1"",""3513""
","
","","8217.424999922514","You should pick a card from a deck using the '2', '4', '6', and '8' keys at the top of the keyboard.","85","","instructions","2021-06-24 15:01:50.935","","","","","",""
"casino-keyboard-response","12","61668","0.0-8.0-0.1","914","false","img/card_backs/set1/red.gif","img/card_backs/set1/purple.gif","img/card_backs/set1/yellow.gif","img/card_backs/set1/green.gif","img/card_backs/set2/blue.gif","img/card_backs/set2/orange.gif","img/card_backs/set2/gray.gif","img/card_backs/set2/pink.gif","""event"",""trial"",""time""
""fullscreenenter"",""1"",""3513""
","
","
","""event"",""trial"",""time""
""fullscreenenter"",""1"",""3513""
","
","","5631.335000041872","Once you select a card, it will turn over and you will see how many tokens you earned.","83","","instructions","2021-06-24 15:01:56.568","","","","","",""
"casino-keyboard-response","13","76333","0.0-8.0-0.2","914","false","img/card_backs/set1/red.gif","img/card_backs/set1/purple.gif","img/card_backs/set1/yellow.gif","img/card_backs/set1/green.gif","img/card_backs/set2/blue.gif","img/card_backs/set2/orange.gif","img/card_backs/set2/gray.gif","img/card_backs/set2/pink.gif","""event"",""trial"",""time""
""fullscreenenter"",""1"",""3513""
","
","
","""event"",""trial"",""time""
""fullscreenenter"",""1"",""3513""
","
","","14663.635000120848","Let's try practicing that! </br> First, try to put your fingers over the '2', '4', '6', and '8' keys. </br>  You can use whatever fingers are most comfortable for you. Try to find a comfortable position now. ","50","","instructions","2021-06-24 15:02:11.233","","","","","",""
"casino-keyboard-response","14","82895","0.0-8.0-0.3","914","false","img/card_backs/set1/red.gif","img/card_backs/set1/purple.gif","img/card_backs/set1/yellow.gif","img/card_backs/set1/green.gif","img/card_backs/set2/blue.gif","img/card_backs/set2/orange.gif","img/card_backs/set2/gray.gif","img/card_backs/set2/pink.gif","""event"",""trial"",""time""
""fullscreenenter"",""1"",""3513""
","
","
","""event"",""trial"",""time""
""fullscreenenter"",""1"",""3513""
","
","","6559.869999997318","Okay ready? </br> On the next screen, press '2' to select the left deck. ","50","","instructions","2021-06-24 15:02:17.795","","","","","",""
"card-selection-trial","15","86897","0.0-9.0-0.0","914","false","img/card_backs/set1/red.gif","img/card_backs/set1/purple.gif","img/card_backs/set1/yellow.gif","img/card_backs/set1/green.gif","img/card_backs/set2/blue.gif","img/card_backs/set2/orange.gif","img/card_backs/set2/gray.gif","img/card_backs/set2/pink.gif","""event"",""trial"",""time""
""fullscreenenter"",""1"",""3513""
","
","
","""event"",""trial"",""time""
""fullscreenenter"",""1"",""3513""
","
","","1981.5049995668232","","","","practice_card_selection","2021-06-24 15:02:21.797","img/practice_cards/backs/dark_blue.gif","0","-200","","",""
"casino-keyboard-response","16","92947","0.0-10.0-0.0","914","false","img/card_backs/set1/red.gif","img/card_backs/set1/purple.gif","img/card_backs/set1/yellow.gif","img/card_backs/set1/green.gif","img/card_backs/set2/blue.gif","img/card_backs/set2/orange.gif","img/card_backs/set2/gray.gif","img/card_backs/set2/pink.gif","""event"",""trial"",""time""
""fullscreenenter"",""1"",""3513""
","
","
","""event"",""trial"",""time""
""fullscreenenter"",""1"",""3513""
","
","","6048.219999764115","Great! Now on the next screen, try pressing '6' to select the third deck.","54","","instructions","2021-06-24 15:02:27.847","","","","","",""
"card-selection-trial","17","95739","0.0-11.0-0.0","914","false","img/card_backs/set1/red.gif","img/card_backs/set1/purple.gif","img/card_backs/set1/yellow.gif","img/card_backs/set1/green.gif","img/card_backs/set2/blue.gif","img/card_backs/set2/orange.gif","img/card_backs/set2/gray.gif","img/card_backs/set2/pink.gif","""event"",""trial"",""time""
""fullscreenenter"",""1"",""3513""
","
","
","""event"",""trial"",""time""
""fullscreenenter"",""1"",""3513""
","
","","778.759999666363","","","","practice_card_selection","2021-06-24 15:02:30.640","img/practice_cards/backs/black.gif","2","100","","",""
"casino-keyboard-response","18","100755","0.0-12.0-0.0","914","false","img/card_backs/set1/red.gif","img/card_backs/set1/purple.gif","img/card_backs/set1/yellow.gif","img/card_backs/set1/green.gif","img/card_backs/set2/blue.gif","img/card_backs/set2/orange.gif","img/card_backs/set2/gray.gif","img/card_backs/set2/pink.gif","""event"",""trial"",""time""
""fullscreenenter"",""1"",""3513""
","
","
","""event"",""trial"",""time""
""fullscreenenter"",""1"",""3513""
","
","","5014.595000073314","Now on the next screen, try pressing '4' to select the second deck.","52","","instructions","2021-06-24 15:02:35.655","","","","","",""
"card-selection-trial","19","103389","0.0-13.0-0.0","914","false","img/card_backs/set1/red.gif","img/card_backs/set1/purple.gif","img/card_backs/set1/yellow.gif","img/card_backs/set1/green.gif","img/card_backs/set2/blue.gif","img/card_backs/set2/orange.gif","img/card_backs/set2/gray.gif","img/card_backs/set2/pink.gif","""event"",""trial"",""time""
""fullscreenenter"",""1"",""3513""
","
","
","""event"",""trial"",""time""
""fullscreenenter"",""1"",""3513""
","
","","621.29499996081","","","","practice_card_selection","2021-06-24 15:02:38.289","img/practice_cards/backs/dark_blue.gif","1","-200","","",""
"casino-keyboard-response","20","107746","0.0-14.0-0.0","914","false","img/card_backs/set1/red.gif","img/card_backs/set1/purple.gif","img/card_backs/set1/yellow.gif","img/card_backs/set1/green.gif","img/card_backs/set2/blue.gif","img/card_backs/set2/orange.gif","img/card_backs/set2/gray.gif","img/card_backs/set2/pink.gif","""event"",""trial"",""time""
""fullscreenenter"",""1"",""3513""
","
","
","""event"",""trial"",""time""
""fullscreenenter"",""1"",""3513""
","
","","4355.315000284463","Finally, try pressing '8' to select the deck all the way on the right.","56","","instructions","2021-06-24 15:02:42.646","","","","","",""
"card-selection-trial","21","110328","0.0-15.0-0.0","914","false","img/card_backs/set1/red.gif","img/card_backs/set1/purple.gif","img/card_backs/set1/yellow.gif","img/card_backs/set1/green.gif","img/card_backs/set2/blue.gif","img/card_backs/set2/orange.gif","img/card_backs/set2/gray.gif","img/card_backs/set2/pink.gif","""event"",""trial"",""time""
""fullscreenenter"",""1"",""3513""
","
","
","""event"",""trial"",""time""
""fullscreenenter"",""1"",""3513""
","
","","558.6450002156198","","","","practice_card_selection","2021-06-24 15:02:45.228","img/practice_cards/backs/dark_green.gif","3","-200","","",""
"casino-keyboard-response","22","114711","0.0-16.0-0.0","914","false","img/card_backs/set1/red.gif","img/card_backs/set1/purple.gif","img/card_backs/set1/yellow.gif","img/card_backs/set1/green.gif","img/card_backs/set2/blue.gif","img/card_backs/set2/orange.gif","img/card_backs/set2/gray.gif","img/card_backs/set2/pink.gif","""event"",""trial"",""time""
""fullscreenenter"",""1"",""3513""
","
","
","""event"",""trial"",""time""
""fullscreenenter"",""1"",""3513""
","
","","4382.710000034422","Great! It seems like you are getting the hang of this.","80","","instructions","2021-06-24 15:02:49.611","","","","","",""
"casino-keyboard-response","23","123409","0.0-16.0-0.1","914","false","img/card_backs/set1/red.gif","img/card_backs/set1/purple.gif","img/card_backs/set1/yellow.gif","img/card_backs/set1/green.gif","img/card_backs/set2/blue.gif","img/card_backs/set2/orange.gif","img/card_backs/set2/gray.gif","img/card_backs/set2/pink.gif","""event"",""trial"",""time""
""fullscreenenter"",""1"",""3513""
","
","
","""event"",""trial"",""time""
""fullscreenenter"",""1"",""3513""
","
","","8695.435000117868","You may have noticed that some cards will cause you to <b> win </b> tokens while other cards will cause you to <b> lose </b>  tokens.","70","","instructions","2021-06-24 15:02:58.309","","","","","",""
"casino-keyboard-response","24","131827","0.0-16.0-0.2","914","false","img/card_backs/set1/red.gif","img/card_backs/set1/purple.gif","img/card_backs/set1/yellow.gif","img/card_backs/set1/green.gif","img/card_backs/set2/blue.gif","img/card_backs/set2/orange.gif","img/card_backs/set2/gray.gif","img/card_backs/set2/pink.gif","""event"",""trial"",""time""
""fullscreenenter"",""1"",""3513""
","
","
","""event"",""trial"",""time""
""fullscreenenter"",""1"",""3513""
","
","","8416.77499981597","Each deck has a mix of cards that will cause you to win and lose tokens. </br> However, the cards in each colored deck are different.","73","","instructions","2021-06-24 15:03:06.727","","","","","",""
"casino-keyboard-response","25","141318","0.0-16.0-0.3","914","false","img/card_backs/set1/red.gif","img/card_backs/set1/purple.gif","img/card_backs/set1/yellow.gif","img/card_backs/set1/green.gif","img/card_backs/set2/blue.gif","img/card_backs/set2/orange.gif","img/card_backs/set2/gray.gif","img/card_backs/set2/pink.gif","""event"",""trial"",""time""
""fullscreenenter"",""1"",""3513""
","
","
","""event"",""trial"",""time""
""fullscreenenter"",""1"",""3513""
","
","","9489.724999759346","Some colored decks are luckier than others. </br> If you choose the lucky decks, you will earn more tokens than if you choose the unlucky decks.","69","","instructions","2021-06-24 15:03:16.218","","","","","",""
"casino-keyboard-response","26","148723","0.0-16.0-0.4","914","false","img/card_backs/set1/red.gif","img/card_backs/set1/purple.gif","img/card_backs/set1/yellow.gif","img/card_backs/set1/green.gif","img/card_backs/set2/blue.gif","img/card_backs/set2/orange.gif","img/card_backs/set2/gray.gif","img/card_backs/set2/pink.gif","""event"",""trial"",""time""
""fullscreenenter"",""1"",""3513""
","
","
","""event"",""trial"",""time""
""fullscreenenter"",""1"",""3513""
","
","","7403.189999982715","You should try to figure out which decks are lucky. </br> Then, try to choose the lucky decks so you can win the most tokens.","87","","instructions","2021-06-24 15:03:23.623","","","","","",""
"casino-keyboard-response","27","160451","0.0-16.0-0.5","914","false","img/card_backs/set1/red.gif","img/card_backs/set1/purple.gif","img/card_backs/set1/yellow.gif","img/card_backs/set1/green.gif","img/card_backs/set2/blue.gif","img/card_backs/set2/orange.gif","img/card_backs/set2/gray.gif","img/card_backs/set2/pink.gif","""event"",""trial"",""time""
""fullscreenenter"",""1"",""3513""
","
","
","""event"",""trial"",""time""
""fullscreenenter"",""1"",""3513""
","
","","11726.495000068098","To make it trickier, the casino dealer will switch the locations of the decks on every turn. </br> The color of the deck determines how lucky it is. The location does not matter.","88","","instructions","2021-06-24 15:03:35.351","","","","","",""
"casino-keyboard-response","28","170431","0.0-16.0-0.6","914","false","img/card_backs/set1/red.gif","img/card_backs/set1/purple.gif","img/card_backs/set1/yellow.gif","img/card_backs/set1/green.gif","img/card_backs/set2/blue.gif","img/card_backs/set2/orange.gif","img/card_backs/set2/gray.gif","img/card_backs/set2/pink.gif","""event"",""trial"",""time""
""fullscreenenter"",""1"",""3513""
","
","
","""event"",""trial"",""time""
""fullscreenenter"",""1"",""3513""
","
","","9977.949999738485","The mix of cards in each colored deck will stay the same throughout the game. </br> That means that a deck that is lucky early on will stay lucky.","79","","instructions","2021-06-24 15:03:45.331","","","","","",""
"casino-keyboard-response","29","179626","0.0-16.0-0.7","914","false","img/card_backs/set1/red.gif","img/card_backs/set1/purple.gif","img/card_backs/set1/yellow.gif","img/card_backs/set1/green.gif","img/card_backs/set2/blue.gif","img/card_backs/set2/orange.gif","img/card_backs/set2/gray.gif","img/card_backs/set2/pink.gif","""event"",""trial"",""time""
""fullscreenenter"",""1"",""3513""
","
","
","""event"",""trial"",""time""
""fullscreenenter"",""1"",""3513""
","
","","9193.070000037551","Remember though, all the decks have a <b> mix </b> of both <b> good </b> and <b> bad </b> cards so it may take a couple of turns to figure out if a deck is lucky.","69","","instructions","2021-06-24 15:03:54.526","","","","","",""
"casino-keyboard-response","30","188181","0.0-16.0-0.8","914","false","img/card_backs/set1/red.gif","img/card_backs/set1/purple.gif","img/card_backs/set1/yellow.gif","img/card_backs/set1/green.gif","img/card_backs/set2/blue.gif","img/card_backs/set2/orange.gif","img/card_backs/set2/gray.gif","img/card_backs/set2/pink.gif","""event"",""trial"",""time""
""fullscreenenter"",""1"",""3513""
","
","
","""event"",""trial"",""time""
""fullscreenenter"",""1"",""3513""
","
","","8553.679999895394","At the end of the game, you will be paid bonus money based on how many tokens you win. </br> If you win more tokens, you will earn more money!","72","","instructions","2021-06-24 15:04:03.081","","","","","",""
"casino-keyboard-response","31","198979","0.0-16.0-0.9","914","false","img/card_backs/set1/red.gif","img/card_backs/set1/purple.gif","img/card_backs/set1/yellow.gif","img/card_backs/set1/green.gif","img/card_backs/set2/blue.gif","img/card_backs/set2/orange.gif","img/card_backs/set2/gray.gif","img/card_backs/set2/pink.gif","""event"",""trial"",""time""
""fullscreenenter"",""1"",""3513""
","
","
","""event"",""trial"",""time""
""fullscreenenter"",""1"",""3513""
","
","","10795.609999913722","You will never <b> lose </b> money. </br> If you end up with fewer than 0 tokens, you will earn $0 of bonus money, but you will still be paid for playing the game.","83","","instructions","2021-06-24 15:04:13.879","","","","","",""
"casino-keyboard-response","32","203695","0.0-16.0-0.10","914","false","img/card_backs/set1/red.gif","img/card_backs/set1/purple.gif","img/card_backs/set1/yellow.gif","img/card_backs/set1/green.gif","img/card_backs/set2/blue.gif","img/card_backs/set2/orange.gif","img/card_backs/set2/gray.gif","img/card_backs/set2/pink.gif","""event"",""trial"",""time""
""fullscreenenter"",""1"",""3513""
","
","
","""event"",""trial"",""time""
""fullscreenenter"",""1"",""3513""
","
","","4714.935000054538","You will have 10 seconds to make each choice.","82","","instructions","2021-06-24 15:04:18.595","","","","","",""
"casino-keyboard-response","33","212428","0.0-16.0-0.11","914","false","img/card_backs/set1/red.gif","img/card_backs/set1/purple.gif","img/card_backs/set1/yellow.gif","img/card_backs/set1/green.gif","img/card_backs/set2/blue.gif","img/card_backs/set2/orange.gif","img/card_backs/set2/gray.gif","img/card_backs/set2/pink.gif","""event"",""trial"",""time""
""fullscreenenter"",""1"",""3513""
","
","
","""event"",""trial"",""time""
""fullscreenenter"",""1"",""3513""
","
","","8729.619999881834","Before you play the game for real, you will play with practice decks. </br> The tokens you earn during practice won't count toward your total.","86","","instructions","2021-06-24 15:04:27.328","","","","","",""
"casino-keyboard-response","34","217564","0.0-16.0-0.12","914","false","img/card_backs/set1/red.gif","img/card_backs/set1/purple.gif","img/card_backs/set1/yellow.gif","img/card_backs/set1/green.gif","img/card_backs/set2/blue.gif","img/card_backs/set2/orange.gif","img/card_backs/set2/gray.gif","img/card_backs/set2/pink.gif","""event"",""trial"",""time""
""fullscreenenter"",""1"",""3513""
","
","
","""event"",""trial"",""time""
""fullscreenenter"",""1"",""3513""
","
","","5134.205000009388","Ready? Remember, use the '2', '4', '6', and '8' keys to select the decks. </br> Put your fingers on those keys now and then press '2' to begin.","50","","instructions","2021-06-24 15:04:32.464","","","","","",""
"casino-fixation","35","218068","0.0-17.0-0.0","914","false","img/card_backs/set1/red.gif","img/card_backs/set1/purple.gif","img/card_backs/set1/yellow.gif","img/card_backs/set1/green.gif","img/card_backs/set2/blue.gif","img/card_backs/set2/orange.gif","img/card_backs/set2/gray.gif","img/card_backs/set2/pink.gif","""event"",""trial"",""time""
""fullscreenenter"",""1"",""3513""
","
","
","""event"",""trial"",""time""
""fullscreenenter"",""1"",""3513""
","
","","null","","null","","fixation","2021-06-24 15:04:32.969","","","","","",""
"card-selection-trial","36","221409","0.0-17.0-1.0","914","false","img/card_backs/set1/red.gif","img/card_backs/set1/purple.gif","img/card_backs/set1/yellow.gif","img/card_backs/set1/green.gif","img/card_backs/set2/blue.gif","img/card_backs/set2/orange.gif","img/card_backs/set2/gray.gif","img/card_backs/set2/pink.gif","""event"",""trial"",""time""
""fullscreenenter"",""1"",""3513""
","
","
","""event"",""trial"",""time""
""fullscreenenter"",""1"",""3513""
","
","","1319.9800001457334","","","","practice","2021-06-24 15:04:36.309","img/practice_cards/backs/dark_green.gif","0","200","0","",""
"casino-fixation","37","221918","0.0-17.0-0.1","914","false","img/card_backs/set1/red.gif","img/card_backs/set1/purple.gif","img/card_backs/set1/yellow.gif","img/card_backs/set1/green.gif","img/card_backs/set2/blue.gif","img/card_backs/set2/orange.gif","img/card_backs/set2/gray.gif","img/card_backs/set2/pink.gif","""event"",""trial"",""time""
""fullscreenenter"",""1"",""3513""
","
","
","""event"",""trial"",""time""
""fullscreenenter"",""1"",""3513""
","
","","null","","null","","fixation","2021-06-24 15:04:36.819","","","","","",""
"card-selection-trial","38","224759","0.0-17.0-1.1","914","false","img/card_backs/set1/red.gif","img/card_backs/set1/purple.gif","img/card_backs/set1/yellow.gif","img/card_backs/set1/green.gif","img/card_backs/set2/blue.gif","img/card_backs/set2/orange.gif","img/card_backs/set2/gray.gif","img/card_backs/set2/pink.gif","""event"",""trial"",""time""
""fullscreenenter"",""1"",""3513""
","
","
","""event"",""trial"",""time""
""fullscreenenter"",""1"",""3513""
","
","","817.540000192821","","","","practice","2021-06-24 15:04:39.659","img/practice_cards/backs/dark_blue.gif","1","-200","0","",""
"casino-fixation","39","225268","0.0-17.0-0.2","914","false","img/card_backs/set1/red.gif","img/card_backs/set1/purple.gif","img/card_backs/set1/yellow.gif","img/card_backs/set1/green.gif","img/card_backs/set2/blue.gif","img/card_backs/set2/orange.gif","img/card_backs/set2/gray.gif","img/card_backs/set2/pink.gif","""event"",""trial"",""time""
""fullscreenenter"",""1"",""3513""
","
","
","""event"",""trial"",""time""
""fullscreenenter"",""1"",""3513""
","
","","null","","null","","fixation","2021-06-24 15:04:40.168","","","","","",""
"card-selection-trial","40","227746","0.0-17.0-1.2","914","false","img/card_backs/set1/red.gif","img/card_backs/set1/purple.gif","img/card_backs/set1/yellow.gif","img/card_backs/set1/green.gif","img/card_backs/set2/blue.gif","img/card_backs/set2/orange.gif","img/card_backs/set2/gray.gif","img/card_backs/set2/pink.gif","""event"",""trial"",""time""
""fullscreenenter"",""1"",""3513""
","
","
","""event"",""trial"",""time""
""fullscreenenter"",""1"",""3513""
","
","","471.25000040978193","","","","practice","2021-06-24 15:04:42.646","img/practice_cards/backs/dark_green.gif","0","200","0","",""
"casino-fixation","41","228254","0.0-17.0-0.3","914","false","img/card_backs/set1/red.gif","img/card_backs/set1/purple.gif","img/card_backs/set1/yellow.gif","img/card_backs/set1/green.gif","img/card_backs/set2/blue.gif","img/card_backs/set2/orange.gif","img/card_backs/set2/gray.gif","img/card_backs/set2/pink.gif","""event"",""trial"",""time""
""fullscreenenter"",""1"",""3513""
","
","
","""event"",""trial"",""time""
""fullscreenenter"",""1"",""3513""
","
","","null","","null","","fixation","2021-06-24 15:04:43.154","","","","","",""
"card-selection-trial","42","230834","0.0-17.0-1.3","914","false","img/card_backs/set1/red.gif","img/card_backs/set1/purple.gif","img/card_backs/set1/yellow.gif","img/card_backs/set1/green.gif","img/card_backs/set2/blue.gif","img/card_backs/set2/orange.gif","img/card_backs/set2/gray.gif","img/card_backs/set2/pink.gif","""event"",""trial"",""time""
""fullscreenenter"",""1"",""3513""
","
","
","""event"",""trial"",""time""
""fullscreenenter"",""1"",""3513""
","
","","574.5749999769032","","","","practice","2021-06-24 15:04:45.734","img/practice_cards/backs/dark_blue.gif","0","200","0","",""
"casino-fixation","43","231337","0.0-17.0-0.4","914","false","img/card_backs/set1/red.gif","img/card_backs/set1/purple.gif","img/card_backs/set1/yellow.gif","img/card_backs/set1/green.gif","img/card_backs/set2/blue.gif","img/card_backs/set2/orange.gif","img/card_backs/set2/gray.gif","img/card_backs/set2/pink.gif","""event"",""trial"",""time""
""fullscreenenter"",""1"",""3513""
","
","
","""event"",""trial"",""time""
""fullscreenenter"",""1"",""3513""
","
","","null","","null","","fixation","2021-06-24 15:04:46.237","","","","","",""
"card-selection-trial","44","233709","0.0-17.0-1.4","914","false","img/card_backs/set1/red.gif","img/card_backs/set1/purple.gif","img/card_backs/set1/yellow.gif","img/card_backs/set1/green.gif","img/card_backs/set2/blue.gif","img/card_backs/set2/orange.gif","img/card_backs/set2/gray.gif","img/card_backs/set2/pink.gif","""event"",""trial"",""time""
""fullscreenenter"",""1"",""3513""
","
","
","""event"",""trial"",""time""
""fullscreenenter"",""1"",""3513""
","
","","354.89000007510185","","","","practice","2021-06-24 15:04:48.609","img/practice_cards/backs/black.gif","0","100","0","",""
"casino-fixation","45","234219","0.0-17.0-0.5","914","false","img/card_backs/set1/red.gif","img/card_backs/set1/purple.gif","img/card_backs/set1/yellow.gif","img/card_backs/set1/green.gif","img/card_backs/set2/blue.gif","img/card_backs/set2/orange.gif","img/card_backs/set2/gray.gif","img/card_backs/set2/pink.gif","""event"",""trial"",""time""
""fullscreenenter"",""1"",""3513""
","
","
","""event"",""trial"",""time""
""fullscreenenter"",""1"",""3513""
","
","","null","","null","","fixation","2021-06-24 15:04:49.119","","","","","",""
"card-selection-trial","46","236985","0.0-17.0-1.5","914","false","img/card_backs/set1/red.gif","img/card_backs/set1/purple.gif","img/card_backs/set1/yellow.gif","img/card_backs/set1/green.gif","img/card_backs/set2/blue.gif","img/card_backs/set2/orange.gif","img/card_backs/set2/gray.gif","img/card_backs/set2/pink.gif","""event"",""trial"",""time""
""fullscreenenter"",""1"",""3513""
","
","
","""event"",""trial"",""time""
""fullscreenenter"",""1"",""3513""
","
","","757.4649997986853","","","","practice","2021-06-24 15:04:51.885","img/practice_cards/backs/dark_green.gif","0","200","0","",""
"casino-fixation","47","237501","0.0-17.0-0.6","914","false","img/card_backs/set1/red.gif","img/card_backs/set1/purple.gif","img/card_backs/set1/yellow.gif","img/card_backs/set1/green.gif","img/card_backs/set2/blue.gif","img/card_backs/set2/orange.gif","img/card_backs/set2/gray.gif","img/card_backs/set2/pink.gif","""event"",""trial"",""time""
""fullscreenenter"",""1"",""3513""
","
","
","""event"",""trial"",""time""
""fullscreenenter"",""1"",""3513""
","
","","null","","null","","fixation","2021-06-24 15:04:52.401","","","","","",""
"card-selection-trial","48","240114","0.0-17.0-1.6","914","false","img/card_backs/set1/red.gif","img/card_backs/set1/purple.gif","img/card_backs/set1/yellow.gif","img/card_backs/set1/green.gif","img/card_backs/set2/blue.gif","img/card_backs/set2/orange.gif","img/card_backs/set2/gray.gif","img/card_backs/set2/pink.gif","""event"",""trial"",""time""
""fullscreenenter"",""1"",""3513""
","
","
","""event"",""trial"",""time""
""fullscreenenter"",""1"",""3513""
","
","","603.6749999038875","","","","practice","2021-06-24 15:04:55.014","img/practice_cards/backs/dark_green.gif","0","200","0","",""
"casino-fixation","49","240629","0.0-17.0-0.7","914","false","img/card_backs/set1/red.gif","img/card_backs/set1/purple.gif","img/card_backs/set1/yellow.gif","img/card_backs/set1/green.gif","img/card_backs/set2/blue.gif","img/card_backs/set2/orange.gif","img/card_backs/set2/gray.gif","img/card_backs/set2/pink.gif","""event"",""trial"",""time""
""fullscreenenter"",""1"",""3513""
","
","
","""event"",""trial"",""time""
""fullscreenenter"",""1"",""3513""
","
","","null","","null","","fixation","2021-06-24 15:04:55.529","","","","","",""
"card-selection-trial","50","243924","0.0-17.0-1.7","914","false","img/card_backs/set1/red.gif","img/card_backs/set1/purple.gif","img/card_backs/set1/yellow.gif","img/card_backs/set1/green.gif","img/card_backs/set2/blue.gif","img/card_backs/set2/orange.gif","img/card_backs/set2/gray.gif","img/card_backs/set2/pink.gif","""event"",""trial"",""time""
""fullscreenenter"",""1"",""3513""
","
","
","""event"",""trial"",""time""
""fullscreenenter"",""1"",""3513""
","
","","1282.850000075996","","","","practice","2021-06-24 15:04:58.824","img/practice_cards/backs/dark_green.gif","0","200","0","",""
"casino-fixation","51","244437","0.0-17.0-0.8","914","false","img/card_backs/set1/red.gif","img/card_backs/set1/purple.gif","img/card_backs/set1/yellow.gif","img/card_backs/set1/green.gif","img/card_backs/set2/blue.gif","img/card_backs/set2/orange.gif","img/card_backs/set2/gray.gif","img/card_backs/set2/pink.gif","""event"",""trial"",""time""
""fullscreenenter"",""1"",""3513""
","
","
","""event"",""trial"",""time""
""fullscreenenter"",""1"",""3513""
","
","","null","","null","","fixation","2021-06-24 15:04:59.337","","","","","",""
"card-selection-trial","52","247959","0.0-17.0-1.8","914","false","img/card_backs/set1/red.gif","img/card_backs/set1/purple.gif","img/card_backs/set1/yellow.gif","img/card_backs/set1/green.gif","img/card_backs/set2/blue.gif","img/card_backs/set2/orange.gif","img/card_backs/set2/gray.gif","img/card_backs/set2/pink.gif","""event"",""trial"",""time""
""fullscreenenter"",""1"",""3513""
","
","
","""event"",""trial"",""time""
""fullscreenenter"",""1"",""3513""
","
","","1513.8949998654425","","","","practice","2021-06-24 15:05:02.859","img/practice_cards/backs/dark_green.gif","3","200","0","",""
"casino-fixation","53","248468","0.0-17.0-0.9","914","false","img/card_backs/set1/red.gif","img/card_backs/set1/purple.gif","img/card_backs/set1/yellow.gif","img/card_backs/set1/green.gif","img/card_backs/set2/blue.gif","img/card_backs/set2/orange.gif","img/card_backs/set2/gray.gif","img/card_backs/set2/pink.gif","""event"",""trial"",""time""
""fullscreenenter"",""1"",""3513""
","
","
","""event"",""trial"",""time""
""fullscreenenter"",""1"",""3513""
","
","","null","","null","","fixation","2021-06-24 15:05:03.368","","","","","",""
"card-selection-trial","54","251620","0.0-17.0-1.9","914","false","img/card_backs/set1/red.gif","img/card_backs/set1/purple.gif","img/card_backs/set1/yellow.gif","img/card_backs/set1/green.gif","img/card_backs/set2/blue.gif","img/card_backs/set2/orange.gif","img/card_backs/set2/gray.gif","img/card_backs/set2/pink.gif","""event"",""trial"",""time""
""fullscreenenter"",""1"",""3513""
","
","
","""event"",""trial"",""time""
""fullscreenenter"",""1"",""3513""
","
","","1142.394999973476","","","","practice","2021-06-24 15:05:06.520","img/practice_cards/backs/dark_green.gif","0","-200","0","",""
"casino-keyboard-response","55","255290","0.0-18.0","914","false","img/card_backs/set1/red.gif","img/card_backs/set1/purple.gif","img/card_backs/set1/yellow.gif","img/card_backs/set1/green.gif","img/card_backs/set2/blue.gif","img/card_backs/set2/orange.gif","img/card_backs/set2/gray.gif","img/card_backs/set2/pink.gif","""event"",""trial"",""time""
""fullscreenenter"",""1"",""3513""
","
","
","""event"",""trial"",""time""
""fullscreenenter"",""1"",""3513""
","
","","3668.44499995932","You earned 1100 tokens during the practice round!","82","","","2021-06-24 15:05:10.190","","","","","",""
"casino-keyboard-response","56","260001","0.0-19.0-0.0","914","false","img/card_backs/set1/red.gif","img/card_backs/set1/purple.gif","img/card_backs/set1/yellow.gif","img/card_backs/set1/green.gif","img/card_backs/set2/blue.gif","img/card_backs/set2/orange.gif","img/card_backs/set2/gray.gif","img/card_backs/set2/pink.gif","""event"",""trial"",""time""
""fullscreenenter"",""1"",""3513""
","
","
","""event"",""trial"",""time""
""fullscreenenter"",""1"",""3513""
","
","","4708.779999986291","Nice job! You are almost ready to play the real game.","86","","instructions","2021-06-24 15:05:14.901","","","","","",""
"casino-keyboard-response","57","267086","0.0-19.0-0.1","914","false","img/card_backs/set1/red.gif","img/card_backs/set1/purple.gif","img/card_backs/set1/yellow.gif","img/card_backs/set1/green.gif","img/card_backs/set2/blue.gif","img/card_backs/set2/orange.gif","img/card_backs/set2/gray.gif","img/card_backs/set2/pink.gif","""event"",""trial"",""time""
""fullscreenenter"",""1"",""3513""
","
","
","""event"",""trial"",""time""
""fullscreenenter"",""1"",""3513""
","
","","7084.294999949634","You will play two rounds of the real game. In each round, you will pick 100 cards in total.","73","","instructions","2021-06-24 15:05:21.986","","","","","",""
"casino-keyboard-response","58","272006","0.0-19.0-0.2","914","false","img/card_backs/set1/red.gif","img/card_backs/set1/purple.gif","img/card_backs/set1/yellow.gif","img/card_backs/set1/green.gif","img/card_backs/set2/blue.gif","img/card_backs/set2/orange.gif","img/card_backs/set2/gray.gif","img/card_backs/set2/pink.gif","""event"",""trial"",""time""
""fullscreenenter"",""1"",""3513""
","
","
","""event"",""trial"",""time""
""fullscreenenter"",""1"",""3513""
","
","","4918.120000045747","We are now going to ask you some questions about how the game works.","66","","instructions","2021-06-24 15:05:26.906","","","","","",""
"casino-keyboard-response","59","278689","0.0-19.0-0.3","914","false","img/card_backs/set1/red.gif","img/card_backs/set1/purple.gif","img/card_backs/set1/yellow.gif","img/card_backs/set1/green.gif","img/card_backs/set2/blue.gif","img/card_backs/set2/orange.gif","img/card_backs/set2/gray.gif","img/card_backs/set2/pink.gif","""event"",""trial"",""time""
""fullscreenenter"",""1"",""3513""
","
","
","""event"",""trial"",""time""
""fullscreenenter"",""1"",""3513""
","
","","6682.330000214279","Answer carefully. You will not be able to begin the game until you answer them correctly.","67","","instructions","2021-06-24 15:05:33.590","","","","","",""
"casino-comp_q","60","284179","0.0-20.0-0.0","914","false","img/card_backs/set1/red.gif","img/card_backs/set1/purple.gif","img/card_backs/set1/yellow.gif","img/card_backs/set1/green.gif","img/card_backs/set2/blue.gif","img/card_backs/set2/orange.gif","img/card_backs/set2/gray.gif","img/card_backs/set2/pink.gif","""event"",""trial"",""time""
""fullscreenenter"",""1"",""3513""
","
","
","""event"",""trial"",""time""
""fullscreenenter"",""1"",""3513""
","
","","5487.094999756664","True or False: All the decks have some cards that cause you to win tokens and some cards that cause you to lose tokens.","84","","","2021-06-24 15:05:39.079","","","","","",""
"casino-keyboard-response","61","287205","0.0-20.0-1.0","914","false","img/card_backs/set1/red.gif","img/card_backs/set1/purple.gif","img/card_backs/set1/yellow.gif","img/card_backs/set1/green.gif","img/card_backs/set2/blue.gif","img/card_backs/set2/orange.gif","img/card_backs/set2/gray.gif","img/card_backs/set2/pink.gif","""event"",""trial"",""time""
""fullscreenenter"",""1"",""3513""
","
","
","""event"",""trial"",""time""
""fullscreenenter"",""1"",""3513""
","
","","3024.879999924451","True is correct! All the decks have a mix of winning and losing cards.","77","","","2021-06-24 15:05:42.105","","","","","true",""
"casino-comp_q","62","292625","0.0-21.0-0.0","914","false","img/card_backs/set1/red.gif","img/card_backs/set1/purple.gif","img/card_backs/set1/yellow.gif","img/card_backs/set1/green.gif","img/card_backs/set2/blue.gif","img/card_backs/set2/orange.gif","img/card_backs/set2/gray.gif","img/card_backs/set2/pink.gif","""event"",""trial"",""time""
""fullscreenenter"",""1"",""3513""
","
","
","""event"",""trial"",""time""
""fullscreenenter"",""1"",""3513""
","
","","5418.839999940246","True or False: You will have as much time as you want to make your response.","70","","","2021-06-24 15:05:47.525","","","","","",""
"casino-keyboard-response","63","296736","0.0-21.0-1.0","914","false","img/card_backs/set1/red.gif","img/card_backs/set1/purple.gif","img/card_backs/set1/yellow.gif","img/card_backs/set1/green.gif","img/card_backs/set2/blue.gif","img/card_backs/set2/orange.gif","img/card_backs/set2/gray.gif","img/card_backs/set2/pink.gif","""event"",""trial"",""time""
""fullscreenenter"",""1"",""3513""
","
","
","""event"",""trial"",""time""
""fullscreenenter"",""1"",""3513""
","
","","4106.879999861121","False is correct! You will only have 10 seconds to make each choice.","75","","","2021-06-24 15:05:51.636","","","","","true",""
"casino-comp_q","64","300906","0.0-22.0-0.0","914","false","img/card_backs/set1/red.gif","img/card_backs/set1/purple.gif","img/card_backs/set1/yellow.gif","img/card_backs/set1/green.gif","img/card_backs/set2/blue.gif","img/card_backs/set2/orange.gif","img/card_backs/set2/gray.gif","img/card_backs/set2/pink.gif","""event"",""trial"",""time""
""fullscreenenter"",""1"",""3513""
","
","
","""event"",""trial"",""time""
""fullscreenenter"",""1"",""3513""
","
","","4168.9049997366965","True or False: The location of the deck determines how lucky it is.","70","","","2021-06-24 15:05:55.806","","","","","",""
"casino-keyboard-response","65","303996","0.0-22.0-1.0","914","false","img/card_backs/set1/red.gif","img/card_backs/set1/purple.gif","img/card_backs/set1/yellow.gif","img/card_backs/set1/green.gif","img/card_backs/set2/blue.gif","img/card_backs/set2/orange.gif","img/card_backs/set2/gray.gif","img/card_backs/set2/pink.gif","""event"",""trial"",""time""
""fullscreenenter"",""1"",""3513""
","
","
","""event"",""trial"",""time""
""fullscreenenter"",""1"",""3513""
","
","","3088.9300000853837","False is correct! The <i>color</i>  of the deck determines how lucky or unlucky it is.","68","","","2021-06-24 15:05:58.897","","","","","true",""
"casino-keyboard-response","66","314444","0.0-23.0-0.0","914","false","img/card_backs/set1/red.gif","img/card_backs/set1/purple.gif","img/card_backs/set1/yellow.gif","img/card_backs/set1/green.gif","img/card_backs/set2/blue.gif","img/card_backs/set2/orange.gif","img/card_backs/set2/gray.gif","img/card_backs/set2/pink.gif","""event"",""trial"",""time""
""fullscreenenter"",""1"",""3513""
","
","
","""event"",""trial"",""time""
""fullscreenenter"",""1"",""3513""
","
","","10446.485000196844","Great job! Now it's time to start the real game.","82","","instructions","2021-06-24 15:06:09.345","","","","","",""
"casino-keyboard-response","67","320069","0.0-23.0-0.1","914","false","img/card_backs/set1/red.gif","img/card_backs/set1/purple.gif","img/card_backs/set1/yellow.gif","img/card_backs/set1/green.gif","img/card_backs/set2/blue.gif","img/card_backs/set2/orange.gif","img/card_backs/set2/gray.gif","img/card_backs/set2/pink.gif","""event"",""trial"",""time""
""fullscreenenter"",""1"",""3513""
","
","
","""event"",""trial"",""time""
""fullscreenenter"",""1"",""3513""
","
","","5623.360000085086","Before we start, we're going to head into a new room of the casino.","86","","instructions","2021-06-24 15:06:14.969","","","","","",""
"casino-keyboard-response","68","327632","0.0-24.0-0.0","914","false","img/card_backs/set1/red.gif","img/card_backs/set1/purple.gif","img/card_backs/set1/yellow.gif","img/card_backs/set1/green.gif","img/card_backs/set2/blue.gif","img/card_backs/set2/orange.gif","img/card_backs/set2/gray.gif","img/card_backs/set2/pink.gif","""event"",""trial"",""time""
""fullscreenenter"",""1"",""3513""
","
","
","""event"",""trial"",""time""
""fullscreenenter"",""1"",""3513""
","
","","7560.850000008941","Here we are! The real game will use different cards, but the rules will be the same.","71","","instructions","2021-06-24 15:06:22.532","","","","","",""
"casino-keyboard-response","69","331265","0.0-24.0-0.1","914","false","img/card_backs/set1/red.gif","img/card_backs/set1/purple.gif","img/card_backs/set1/yellow.gif","img/card_backs/set1/green.gif","img/card_backs/set2/blue.gif","img/card_backs/set2/orange.gif","img/card_backs/set2/gray.gif","img/card_backs/set2/pink.gif","""event"",""trial"",""time""
""fullscreenenter"",""1"",""3513""
","
","
","""event"",""trial"",""time""
""fullscreenenter"",""1"",""3513""
","
","","3631.905000191182","Ready? Put your fingers over the '2', '4', 6', and '8' keys so you are ready to play the game. </br> Then press 2 to start.","50","","instructions","2021-06-24 15:06:26.165","","","","","",""
"casino-fixation","70","331775","0.0-25.0-0.0","914","false","img/card_backs/set1/red.gif","img/card_backs/set1/purple.gif","img/card_backs/set1/yellow.gif","img/card_backs/set1/green.gif","img/card_backs/set2/blue.gif","img/card_backs/set2/orange.gif","img/card_backs/set2/gray.gif","img/card_backs/set2/pink.gif","""event"",""trial"",""time""
""fullscreenenter"",""1"",""3513""
","
","
","""event"",""trial"",""time""
""fullscreenenter"",""1"",""3513""
","
","","null","","null","","fixation","2021-06-24 15:06:26.675","","","","","",""
"card-selection-trial","71","334679","0.0-25.0-1.0","914","false","img/card_backs/set1/red.gif","img/card_backs/set1/purple.gif","img/card_backs/set1/yellow.gif","img/card_backs/set1/green.gif","img/card_backs/set2/blue.gif","img/card_backs/set2/orange.gif","img/card_backs/set2/gray.gif","img/card_backs/set2/pink.gif","""event"",""trial"",""time""
""fullscreenenter"",""1"",""3513""
","
","
","""event"",""trial"",""time""
""fullscreenenter"",""1"",""3513""
","
","","895.4900000244379","","","","real_trial","2021-06-24 15:06:29.579","img/card_backs/set1/green.gif","0","120","1","",""
"casino-fixation","72","335199","0.0-25.0-0.1","914","false","img/card_backs/set1/red.gif","img/card_backs/set1/purple.gif","img/card_backs/set1/yellow.gif","img/card_backs/set1/green.gif","img/card_backs/set2/blue.gif","img/card_backs/set2/orange.gif","img/card_backs/set2/gray.gif","img/card_backs/set2/pink.gif","""event"",""trial"",""time""
""fullscreenenter"",""1"",""3513""
","
","
","""event"",""trial"",""time""
""fullscreenenter"",""1"",""3513""
","
","","null","","null","","fixation","2021-06-24 15:06:30.099","","","","","",""
"card-selection-trial","73","338559","0.0-25.0-1.1","914","false","img/card_backs/set1/red.gif","img/card_backs/set1/purple.gif","img/card_backs/set1/yellow.gif","img/card_backs/set1/green.gif","img/card_backs/set2/blue.gif","img/card_backs/set2/orange.gif","img/card_backs/set2/gray.gif","img/card_backs/set2/pink.gif","""event"",""trial"",""time""
""fullscreenenter"",""1"",""3513""
","
","
","""event"",""trial"",""time""
""fullscreenenter"",""1"",""3513""
","
","","1334.4700001180172","","","","real_trial","2021-06-24 15:06:33.459","img/card_backs/set1/green.gif","2","110","1","",""
"casino-fixation","74","339069","0.0-25.0-0.2","914","false","img/card_backs/set1/red.gif","img/card_backs/set1/purple.gif","img/card_backs/set1/yellow.gif","img/card_backs/set1/green.gif","img/card_backs/set2/blue.gif","img/card_backs/set2/orange.gif","img/card_backs/set2/gray.gif","img/card_backs/set2/pink.gif","""event"",""trial"",""time""
""fullscreenenter"",""1"",""3513""
","
","
","""event"",""trial"",""time""
""fullscreenenter"",""1"",""3513""
","
","","null","","null","","fixation","2021-06-24 15:06:33.969","","","","","",""
"card-selection-trial","75","342291","0.0-25.0-1.2","914","false","img/card_backs/set1/red.gif","img/card_backs/set1/purple.gif","img/card_backs/set1/yellow.gif","img/card_backs/set1/green.gif","img/card_backs/set2/blue.gif","img/card_backs/set2/orange.gif","img/card_backs/set2/gray.gif","img/card_backs/set2/pink.gif","""event"",""trial"",""time""
""fullscreenenter"",""1"",""3513""
","
","
","""event"",""trial"",""time""
""fullscreenenter"",""1"",""3513""
","
","","1209.5150002278388","","","","real_trial","2021-06-24 15:06:37.191","img/card_backs/set1/green.gif","1","-60","1","",""
"casino-fixation","76","342806","0.0-25.0-0.3","914","false","img/card_backs/set1/red.gif","img/card_backs/set1/purple.gif","img/card_backs/set1/yellow.gif","img/card_backs/set1/green.gif","img/card_backs/set2/blue.gif","img/card_backs/set2/orange.gif","img/card_backs/set2/gray.gif","img/card_backs/set2/pink.gif","""event"",""trial"",""time""
""fullscreenenter"",""1"",""3513""
","
","
","""event"",""trial"",""time""
""fullscreenenter"",""1"",""3513""
","
","","null","","null","","fixation","2021-06-24 15:06:37.706","","","","","",""
"card-selection-trial","77","346099","0.0-25.0-1.3","914","false","img/card_backs/set1/red.gif","img/card_backs/set1/purple.gif","img/card_backs/set1/yellow.gif","img/card_backs/set1/green.gif","img/card_backs/set2/blue.gif","img/card_backs/set2/orange.gif","img/card_backs/set2/gray.gif","img/card_backs/set2/pink.gif","""event"",""trial"",""time""
""fullscreenenter"",""1"",""3513""
","
","
","""event"",""trial"",""time""
""fullscreenenter"",""1"",""3513""
","
","","1281.224999576807","","","","real_trial","2021-06-24 15:06:40.999","img/card_backs/set1/green.gif","2","110","1","",""
"casino-fixation","78","346610","0.0-25.0-0.4","914","false","img/card_backs/set1/red.gif","img/card_backs/set1/purple.gif","img/card_backs/set1/yellow.gif","img/card_backs/set1/green.gif","img/card_backs/set2/blue.gif","img/card_backs/set2/orange.gif","img/card_backs/set2/gray.gif","img/card_backs/set2/pink.gif","""event"",""trial"",""time""
""fullscreenenter"",""1"",""3513""
","
","
","""event"",""trial"",""time""
""fullscreenenter"",""1"",""3513""
","
","","null","","null","","fixation","2021-06-24 15:06:41.510","","","","","",""
"card-selection-trial","79","350269","0.0-25.0-1.4","914","false","img/card_backs/set1/red.gif","img/card_backs/set1/purple.gif","img/card_backs/set1/yellow.gif","img/card_backs/set1/green.gif","img/card_backs/set2/blue.gif","img/card_backs/set2/orange.gif","img/card_backs/set2/gray.gif","img/card_backs/set2/pink.gif","""event"",""trial"",""time""
""fullscreenenter"",""1"",""3513""
","
","
","""event"",""trial"",""time""
""fullscreenenter"",""1"",""3513""
","
","","1639.475000090897","","","","real_trial","2021-06-24 15:06:45.169","img/card_backs/set1/green.gif","3","-50","1","",""
"casino-fixation","80","350779","0.0-25.0-0.5","914","false","img/card_backs/set1/red.gif","img/card_backs/set1/purple.gif","img/card_backs/set1/yellow.gif","img/card_backs/set1/green.gif","img/card_backs/set2/blue.gif","img/card_backs/set2/orange.gif","img/card_backs/set2/gray.gif","img/card_backs/set2/pink.gif","""event"",""trial"",""time""
""fullscreenenter"",""1"",""3513""
","
","
","""event"",""trial"",""time""
""fullscreenenter"",""1"",""3513""
","
","","null","","null","","fixation","2021-06-24 15:06:45.679","","","","","",""
"card-selection-trial","81","353839","0.0-25.0-1.5","914","false","img/card_backs/set1/red.gif","img/card_backs/set1/purple.gif","img/card_backs/set1/yellow.gif","img/card_backs/set1/green.gif","img/card_backs/set2/blue.gif","img/card_backs/set2/orange.gif","img/card_backs/set2/gray.gif","img/card_backs/set2/pink.gif","""event"",""trial"",""time""
""fullscreenenter"",""1"",""3513""
","
","
","""event"",""trial"",""time""
""fullscreenenter"",""1"",""3513""
","
","","1042.7600000984967","","","","real_trial","2021-06-24 15:06:48.739","img/card_backs/set1/green.gif","2","-50","1","",""
"casino-fixation","82","354359","0.0-25.0-0.6","914","false","img/card_backs/set1/red.gif","img/card_backs/set1/purple.gif","img/card_backs/set1/yellow.gif","img/card_backs/set1/green.gif","img/card_backs/set2/blue.gif","img/card_backs/set2/orange.gif","img/card_backs/set2/gray.gif","img/card_backs/set2/pink.gif","""event"",""trial"",""time""
""fullscreenenter"",""1"",""3513""
","
","
","""event"",""trial"",""time""
""fullscreenenter"",""1"",""3513""
","
","","null","","null","","fixation","2021-06-24 15:06:49.259","","","","","",""
"card-selection-trial","83","357669","0.0-25.0-1.6","914","false","img/card_backs/set1/red.gif","img/card_backs/set1/purple.gif","img/card_backs/set1/yellow.gif","img/card_backs/set1/green.gif","img/card_backs/set2/blue.gif","img/card_backs/set2/orange.gif","img/card_backs/set2/gray.gif","img/card_backs/set2/pink.gif","""event"",""trial"",""time""
""fullscreenenter"",""1"",""3513""
","
","
","""event"",""trial"",""time""
""fullscreenenter"",""1"",""3513""
","
","","1294.1900002770126","","","","real_trial","2021-06-24 15:06:52.569","img/card_backs/set1/green.gif","1","-70","1","",""
"casino-fixation","84","358184","0.0-25.0-0.7","914","false","img/card_backs/set1/red.gif","img/card_backs/set1/purple.gif","img/card_backs/set1/yellow.gif","img/card_backs/set1/green.gif","img/card_backs/set2/blue.gif","img/card_backs/set2/orange.gif","img/card_backs/set2/gray.gif","img/card_backs/set2/pink.gif","""event"",""trial"",""time""
""fullscreenenter"",""1"",""3513""
","
","
","""event"",""trial"",""time""
""fullscreenenter"",""1"",""3513""
","
","","null","","null","","fixation","2021-06-24 15:06:53.084","","","","","",""
"card-selection-trial","85","361567","0.0-25.0-1.7","914","false","img/card_backs/set1/red.gif","img/card_backs/set1/purple.gif","img/card_backs/set1/yellow.gif","img/card_backs/set1/green.gif","img/card_backs/set2/blue.gif","img/card_backs/set2/orange.gif","img/card_backs/set2/gray.gif","img/card_backs/set2/pink.gif","""event"",""trial"",""time""
""fullscreenenter"",""1"",""3513""
","
","
","""event"",""trial"",""time""
""fullscreenenter"",""1"",""3513""
","
","","1373.769999947399","","","","real_trial","2021-06-24 15:06:56.467","img/card_backs/set1/green.gif","2","-70","1","",""
"casino-fixation","86","362077","0.0-25.0-0.8","914","false","img/card_backs/set1/red.gif","img/card_backs/set1/purple.gif","img/card_backs/set1/yellow.gif","img/card_backs/set1/green.gif","img/card_backs/set2/blue.gif","img/card_backs/set2/orange.gif","img/card_backs/set2/gray.gif","img/card_backs/set2/pink.gif","""event"",""trial"",""time""
""fullscreenenter"",""1"",""3513""
","
","
","""event"",""trial"",""time""
""fullscreenenter"",""1"",""3513""
","
","","null","","null","","fixation","2021-06-24 15:06:56.977","","","","","",""
"card-selection-trial","87","365298","0.0-25.0-1.8","914","false","img/card_backs/set1/red.gif","img/card_backs/set1/purple.gif","img/card_backs/set1/yellow.gif","img/card_backs/set1/green.gif","img/card_backs/set2/blue.gif","img/card_backs/set2/orange.gif","img/card_backs/set2/gray.gif","img/card_backs/set2/pink.gif","""event"",""trial"",""time""
""fullscreenenter"",""1"",""3513""
","
","
","""event"",""trial"",""time""
""fullscreenenter"",""1"",""3513""
","
","","1211.1949999816716","","","","real_trial","2021-06-24 15:07:00.198","img/card_backs/set1/yellow.gif","3","110","1","",""
"casino-fixation","88","365802","0.0-25.0-0.9","914","false","img/card_backs/set1/red.gif","img/card_backs/set1/purple.gif","img/card_backs/set1/yellow.gif","img/card_backs/set1/green.gif","img/card_backs/set2/blue.gif","img/card_backs/set2/orange.gif","img/card_backs/set2/gray.gif","img/card_backs/set2/pink.gif","""event"",""trial"",""time""
""fullscreenenter"",""1"",""3513""
","
","
","""event"",""trial"",""time""
""fullscreenenter"",""1"",""3513""
","
","","null","","null","","fixation","2021-06-24 15:07:00.702","","","","","",""
"card-selection-trial","89","369142","0.0-25.0-1.9","914","false","img/card_backs/set1/red.gif","img/card_backs/set1/purple.gif","img/card_backs/set1/yellow.gif","img/card_backs/set1/green.gif","img/card_backs/set2/blue.gif","img/card_backs/set2/orange.gif","img/card_backs/set2/gray.gif","img/card_backs/set2/pink.gif","""event"",""trial"",""time""
""fullscreenenter"",""1"",""3513""
","
","
","""event"",""trial"",""time""
""fullscreenenter"",""1"",""3513""
","
","","1333.3749999292195","","","","real_trial","2021-06-24 15:07:04.042","img/card_backs/set1/yellow.gif","1","-60","1","",""
"casino-fixation","90","369645","0.0-25.0-0.10","914","false","img/card_backs/set1/red.gif","img/card_backs/set1/purple.gif","img/card_backs/set1/yellow.gif","img/card_backs/set1/green.gif","img/card_backs/set2/blue.gif","img/card_backs/set2/orange.gif","img/card_backs/set2/gray.gif","img/card_backs/set2/pink.gif","""event"",""trial"",""time""
""fullscreenenter"",""1"",""3513""
","
","
","""event"",""trial"",""time""
""fullscreenenter"",""1"",""3513""
","
","","null","","null","","fixation","2021-06-24 15:07:04.545","","","","","",""
"card-selection-trial","91","372771","0.0-25.0-1.10","914","false","img/card_backs/set1/red.gif","img/card_backs/set1/purple.gif","img/card_backs/set1/yellow.gif","img/card_backs/set1/green.gif","img/card_backs/set2/blue.gif","img/card_backs/set2/orange.gif","img/card_backs/set2/gray.gif","img/card_backs/set2/pink.gif","""event"",""trial"",""time""
""fullscreenenter"",""1"",""3513""
","
","
","""event"",""trial"",""time""
""fullscreenenter"",""1"",""3513""
","
","","1113.6000002734363","","","","real_trial","2021-06-24 15:07:07.672","img/card_backs/set1/yellow.gif","2","-70","1","",""
"casino-fixation","92","373277","0.0-25.0-0.11","914","false","img/card_backs/set1/red.gif","img/card_backs/set1/purple.gif","img/card_backs/set1/yellow.gif","img/card_backs/set1/green.gif","img/card_backs/set2/blue.gif","img/card_backs/set2/orange.gif","img/card_backs/set2/gray.gif","img/card_backs/set2/pink.gif","""event"",""trial"",""time""
""fullscreenenter"",""1"",""3513""
","
","
","""event"",""trial"",""time""
""fullscreenenter"",""1"",""3513""
","
","","null","","null","","fixation","2021-06-24 15:07:08.177","","","","","",""
"card-selection-trial","93","376219","0.0-25.0-1.11","914","false","img/card_backs/set1/red.gif","img/card_backs/set1/purple.gif","img/card_backs/set1/yellow.gif","img/card_backs/set1/green.gif","img/card_backs/set2/blue.gif","img/card_backs/set2/orange.gif","img/card_backs/set2/gray.gif","img/card_backs/set2/pink.gif","""event"",""trial"",""time""
""fullscreenenter"",""1"",""3513""
","
","
","""event"",""trial"",""time""
""fullscreenenter"",""1"",""3513""
","
","","929.0100000798702","","","","real_trial","2021-06-24 15:07:11.119","img/card_backs/set1/yellow.gif","1","-60","1","",""
"casino-fixation","94","376723","0.0-25.0-0.12","914","false","img/card_backs/set1/red.gif","img/card_backs/set1/purple.gif","img/card_backs/set1/yellow.gif","img/card_backs/set1/green.gif","img/card_backs/set2/blue.gif","img/card_backs/set2/orange.gif","img/card_backs/set2/gray.gif","img/card_backs/set2/pink.gif","""event"",""trial"",""time""
""fullscreenenter"",""1"",""3513""
","
","
","""event"",""trial"",""time""
""fullscreenenter"",""1"",""3513""
","
","","null","","null","","fixation","2021-06-24 15:07:11.623","","","","","",""
"card-selection-trial","95","379707","0.0-25.0-1.12","914","false","img/card_backs/set1/red.gif","img/card_backs/set1/purple.gif","img/card_backs/set1/yellow.gif","img/card_backs/set1/green.gif","img/card_backs/set2/blue.gif","img/card_backs/set2/orange.gif","img/card_backs/set2/gray.gif","img/card_backs/set2/pink.gif","""event"",""trial"",""time""
""fullscreenenter"",""1"",""3513""
","
","
","""event"",""trial"",""time""
""fullscreenenter"",""1"",""3513""
","
","","964.7050001658499","","","","real_trial","2021-06-24 15:07:14.607","img/card_backs/set1/purple.gif","1","200","1","",""
"casino-fixation","96","380214","0.0-25.0-0.13","914","false","img/card_backs/set1/red.gif","img/card_backs/set1/purple.gif","img/card_backs/set1/yellow.gif","img/card_backs/set1/green.gif","img/card_backs/set2/blue.gif","img/card_backs/set2/orange.gif","img/card_backs/set2/gray.gif","img/card_backs/set2/pink.gif","""event"",""trial"",""time""
""fullscreenenter"",""1"",""3513""
","
","
","""event"",""trial"",""time""
""fullscreenenter"",""1"",""3513""
","
","","null","","null","","fixation","2021-06-24 15:07:15.114","","","","","",""
"card-selection-trial","97","383083","0.0-25.0-1.13","914","false","img/card_backs/set1/red.gif","img/card_backs/set1/purple.gif","img/card_backs/set1/yellow.gif","img/card_backs/set1/green.gif","img/card_backs/set2/blue.gif","img/card_backs/set2/orange.gif","img/card_backs/set2/gray.gif","img/card_backs/set2/pink.gif","""event"",""trial"",""time""
""fullscreenenter"",""1"",""3513""
","
","
","""event"",""trial"",""time""
""fullscreenenter"",""1"",""3513""
","
","","863.0450000055134","","","","real_trial","2021-06-24 15:07:17.983","img/card_backs/set1/purple.gif","0","190","1","",""
"casino-fixation","98","383586","0.0-25.0-0.14","914","false","img/card_backs/set1/red.gif","img/card_backs/set1/purple.gif","img/card_backs/set1/yellow.gif","img/card_backs/set1/green.gif","img/card_backs/set2/blue.gif","img/card_backs/set2/orange.gif","img/card_backs/set2/gray.gif","img/card_backs/set2/pink.gif","""event"",""trial"",""time""
""fullscreenenter"",""1"",""3513""
","
","
","""event"",""trial"",""time""
""fullscreenenter"",""1"",""3513""
","
","","null","","null","","fixation","2021-06-24 15:07:18.486","","","","","",""
"card-selection-trial","99","386505","0.0-25.0-1.14","914","false","img/card_backs/set1/red.gif","img/card_backs/set1/purple.gif","img/card_backs/set1/yellow.gif","img/card_backs/set1/green.gif","img/card_backs/set2/blue.gif","img/card_backs/set2/orange.gif","img/card_backs/set2/gray.gif","img/card_backs/set2/pink.gif","""event"",""trial"",""time""
""fullscreenenter"",""1"",""3513""
","
","
","""event"",""trial"",""time""
""fullscreenenter"",""1"",""3513""
","
","","908.2700000144541","","","","real_trial","2021-06-24 15:07:21.405","img/card_backs/set1/purple.gif","3","180","1","",""
"casino-fixation","100","387010","0.0-25.0-0.15","914","false","img/card_backs/set1/red.gif","img/card_backs/set1/purple.gif","img/card_backs/set1/yellow.gif","img/card_backs/set1/green.gif","img/card_backs/set2/blue.gif","img/card_backs/set2/orange.gif","img/card_backs/set2/gray.gif","img/card_backs/set2/pink.gif","""event"",""trial"",""time""
""fullscreenenter"",""1"",""3513""
","
","
","""event"",""trial"",""time""
""fullscreenenter"",""1"",""3513""
","
","","null","","null","","fixation","2021-06-24 15:07:21.910","","","","","",""
"card-selection-trial","101","389700","0.0-25.0-1.15","914","false","img/card_backs/set1/red.gif","img/card_backs/set1/purple.gif","img/card_backs/set1/yellow.gif","img/card_backs/set1/green.gif","img/card_backs/set2/blue.gif","img/card_backs/set2/orange.gif","img/card_backs/set2/gray.gif","img/card_backs/set2/pink.gif","""event"",""trial"",""time""
""fullscreenenter"",""1"",""3513""
","
","
","""event"",""trial"",""time""
""fullscreenenter"",""1"",""3513""
","
","","675.5499998107553","","","","real_trial","2021-06-24 15:07:24.601","img/card_backs/set1/purple.gif","0","-240","1","",""
"casino-fixation","102","390205","0.0-25.0-0.16","914","false","img/card_backs/set1/red.gif","img/card_backs/set1/purple.gif","img/card_backs/set1/yellow.gif","img/card_backs/set1/green.gif","img/card_backs/set2/blue.gif","img/card_backs/set2/orange.gif","img/card_backs/set2/gray.gif","img/card_backs/set2/pink.gif","""event"",""trial"",""time""
""fullscreenenter"",""1"",""3513""
","
","
","""event"",""trial"",""time""
""fullscreenenter"",""1"",""3513""
","
","","null","","null","","fixation","2021-06-24 15:07:25.105","","","","","",""
"card-selection-trial","103","392941","0.0-25.0-1.16","914","false","img/card_backs/set1/red.gif","img/card_backs/set1/purple.gif","img/card_backs/set1/yellow.gif","img/card_backs/set1/green.gif","img/card_backs/set2/blue.gif","img/card_backs/set2/orange.gif","img/card_backs/set2/gray.gif","img/card_backs/set2/pink.gif","""event"",""trial"",""time""
""fullscreenenter"",""1"",""3513""
","
","
","""event"",""trial"",""time""
""fullscreenenter"",""1"",""3513""
","
","","724.6199999935925","","","","real_trial","2021-06-24 15:07:27.841","img/card_backs/set1/purple.gif","0","-250","1","",""
"casino-fixation","104","393448","0.0-25.0-0.17","914","false","img/card_backs/set1/red.gif","img/card_backs/set1/purple.gif","img/card_backs/set1/yellow.gif","img/card_backs/set1/green.gif","img/card_backs/set2/blue.gif","img/card_backs/set2/orange.gif","img/card_backs/set2/gray.gif","img/card_backs/set2/pink.gif","""event"",""trial"",""time""
""fullscreenenter"",""1"",""3513""
","
","
","""event"",""trial"",""time""
""fullscreenenter"",""1"",""3513""
","
","","null","","null","","fixation","2021-06-24 15:07:28.348","","","","","",""
"card-selection-trial","105","396948","0.0-25.0-1.17","914","false","img/card_backs/set1/red.gif","img/card_backs/set1/purple.gif","img/card_backs/set1/yellow.gif","img/card_backs/set1/green.gif","img/card_backs/set2/blue.gif","img/card_backs/set2/orange.gif","img/card_backs/set2/gray.gif","img/card_backs/set2/pink.gif","""event"",""trial"",""time""
""fullscreenenter"",""1"",""3513""
","
","
","""event"",""trial"",""time""
""fullscreenenter"",""1"",""3513""
","
","","1493.0650000460446","","","","real_trial","2021-06-24 15:07:31.848","img/card_backs/set1/red.gif","2","180","1","",""
"casino-fixation","106","397451","0.0-25.0-0.18","914","false","img/card_backs/set1/red.gif","img/card_backs/set1/purple.gif","img/card_backs/set1/yellow.gif","img/card_backs/set1/green.gif","img/card_backs/set2/blue.gif","img/card_backs/set2/orange.gif","img/card_backs/set2/gray.gif","img/card_backs/set2/pink.gif","""event"",""trial"",""time""
""fullscreenenter"",""1"",""3513""
","
","
","""event"",""trial"",""time""
""fullscreenenter"",""1"",""3513""
","
","","null","","null","","fixation","2021-06-24 15:07:32.351","","","","","",""
"card-selection-trial","107","400426","0.0-25.0-1.18","914","false","img/card_backs/set1/red.gif","img/card_backs/set1/purple.gif","img/card_backs/set1/yellow.gif","img/card_backs/set1/green.gif","img/card_backs/set2/blue.gif","img/card_backs/set2/orange.gif","img/card_backs/set2/gray.gif","img/card_backs/set2/pink.gif","""event"",""trial"",""time""
""fullscreenenter"",""1"",""3513""
","
","
","""event"",""trial"",""time""
""fullscreenenter"",""1"",""3513""
","
","","967.5750001333654","","","","real_trial","2021-06-24 15:07:35.326","img/card_backs/set1/red.gif","0","180","1","",""
"casino-fixation","108","400936","0.0-25.0-0.19","914","false","img/card_backs/set1/red.gif","img/card_backs/set1/purple.gif","img/card_backs/set1/yellow.gif","img/card_backs/set1/green.gif","img/card_backs/set2/blue.gif","img/card_backs/set2/orange.gif","img/card_backs/set2/gray.gif","img/card_backs/set2/pink.gif","""event"",""trial"",""time""
""fullscreenenter"",""1"",""3513""
","
","
","""event"",""trial"",""time""
""fullscreenenter"",""1"",""3513""
","
","","null","","null","","fixation","2021-06-24 15:07:35.836","","","","","",""
"card-selection-trial","109","403647","0.0-25.0-1.19","914","false","img/card_backs/set1/red.gif","img/card_backs/set1/purple.gif","img/card_backs/set1/yellow.gif","img/card_backs/set1/green.gif","img/card_backs/set2/blue.gif","img/card_backs/set2/orange.gif","img/card_backs/set2/gray.gif","img/card_backs/set2/pink.gif","""event"",""trial"",""time""
""fullscreenenter"",""1"",""3513""
","
","
","""event"",""trial"",""time""
""fullscreenenter"",""1"",""3513""
","
","","702.3550001904368","","","","real_trial","2021-06-24 15:07:38.547","img/card_backs/set1/red.gif","0","200","1","",""
"casino-fixation","110","404155","0.0-25.0-0.20","914","false","img/card_backs/set1/red.gif","img/card_backs/set1/purple.gif","img/card_backs/set1/yellow.gif","img/card_backs/set1/green.gif","img/card_backs/set2/blue.gif","img/card_backs/set2/orange.gif","img/card_backs/set2/gray.gif","img/card_backs/set2/pink.gif","""event"",""trial"",""time""
""fullscreenenter"",""1"",""3513""
","
","
","""event"",""trial"",""time""
""fullscreenenter"",""1"",""3513""
","
","","null","","null","","fixation","2021-06-24 15:07:39.055","","","","","",""
"card-selection-trial","111","407014","0.0-25.0-1.20","914","false","img/card_backs/set1/red.gif","img/card_backs/set1/purple.gif","img/card_backs/set1/yellow.gif","img/card_backs/set1/green.gif","img/card_backs/set2/blue.gif","img/card_backs/set2/orange.gif","img/card_backs/set2/gray.gif","img/card_backs/set2/pink.gif","""event"",""trial"",""time""
""fullscreenenter"",""1"",""3513""
","
","
","""event"",""trial"",""time""
""fullscreenenter"",""1"",""3513""
","
","","847.550000064075","","","","real_trial","2021-06-24 15:07:41.915","img/card_backs/set1/red.gif","1","-230","1","",""
"casino-fixation","112","407517","0.0-25.0-0.21","914","false","img/card_backs/set1/red.gif","img/card_backs/set1/purple.gif","img/card_backs/set1/yellow.gif","img/card_backs/set1/green.gif","img/card_backs/set2/blue.gif","img/card_backs/set2/orange.gif","img/card_backs/set2/gray.gif","img/card_backs/set2/pink.gif","""event"",""trial"",""time""
""fullscreenenter"",""1"",""3513""
","
","
","""event"",""trial"",""time""
""fullscreenenter"",""1"",""3513""
","
","","null","","null","","fixation","2021-06-24 15:07:42.417","","","","","",""
"card-selection-trial","113","410584","0.0-25.0-1.21","914","false","img/card_backs/set1/red.gif","img/card_backs/set1/purple.gif","img/card_backs/set1/yellow.gif","img/card_backs/set1/green.gif","img/card_backs/set2/blue.gif","img/card_backs/set2/orange.gif","img/card_backs/set2/gray.gif","img/card_backs/set2/pink.gif","""event"",""trial"",""time""
""fullscreenenter"",""1"",""3513""
","
","
","""event"",""trial"",""time""
""fullscreenenter"",""1"",""3513""
","
","","1062.6849997788668","","","","real_trial","2021-06-24 15:07:45.484","img/card_backs/set1/red.gif","3","180","1","",""
"casino-fixation","114","411095","0.0-25.0-0.22","914","false","img/card_backs/set1/red.gif","img/card_backs/set1/purple.gif","img/card_backs/set1/yellow.gif","img/card_backs/set1/green.gif","img/card_backs/set2/blue.gif","img/card_backs/set2/orange.gif","img/card_backs/set2/gray.gif","img/card_backs/set2/pink.gif","""event"",""trial"",""time""
""fullscreenenter"",""1"",""3513""
","
","
","""event"",""trial"",""time""
""fullscreenenter"",""1"",""3513""
","
","","null","","null","","fixation","2021-06-24 15:07:45.995","","","","","",""
"card-selection-trial","115","414056","0.0-25.0-1.22","914","false","img/card_backs/set1/red.gif","img/card_backs/set1/purple.gif","img/card_backs/set1/yellow.gif","img/card_backs/set1/green.gif","img/card_backs/set2/blue.gif","img/card_backs/set2/orange.gif","img/card_backs/set2/gray.gif","img/card_backs/set2/pink.gif","""event"",""trial"",""time""
""fullscreenenter"",""1"",""3513""
","
","
","""event"",""trial"",""time""
""fullscreenenter"",""1"",""3513""
","
","","953.1450001522899","","","","real_trial","2021-06-24 15:07:48.957","img/card_backs/set1/red.gif","2","200","1","",""
"casino-fixation","116","414563","0.0-25.0-0.23","914","false","img/card_backs/set1/red.gif","img/card_backs/set1/purple.gif","img/card_backs/set1/yellow.gif","img/card_backs/set1/green.gif","img/card_backs/set2/blue.gif","img/card_backs/set2/orange.gif","img/card_backs/set2/gray.gif","img/card_backs/set2/pink.gif","""event"",""trial"",""time""
""fullscreenenter"",""1"",""3513""
","
","
","""event"",""trial"",""time""
""fullscreenenter"",""1"",""3513""
","
","","null","","null","","fixation","2021-06-24 15:07:49.463","","","","","",""
"card-selection-trial","117","417347","0.0-25.0-1.23","914","false","img/card_backs/set1/red.gif","img/card_backs/set1/purple.gif","img/card_backs/set1/yellow.gif","img/card_backs/set1/green.gif","img/card_backs/set2/blue.gif","img/card_backs/set2/orange.gif","img/card_backs/set2/gray.gif","img/card_backs/set2/pink.gif","""event"",""trial"",""time""
""fullscreenenter"",""1"",""3513""
","
","
","""event"",""trial"",""time""
""fullscreenenter"",""1"",""3513""
","
","","776.0650003328919","","","","real_trial","2021-06-24 15:07:52.247","img/card_backs/set1/red.gif","2","-250","1","",""
"casino-fixation","118","417857","0.0-25.0-0.24","914","false","img/card_backs/set1/red.gif","img/card_backs/set1/purple.gif","img/card_backs/set1/yellow.gif","img/card_backs/set1/green.gif","img/card_backs/set2/blue.gif","img/card_backs/set2/orange.gif","img/card_backs/set2/gray.gif","img/card_backs/set2/pink.gif","""event"",""trial"",""time""
""fullscreenenter"",""1"",""3513""
","
","
","""event"",""trial"",""time""
""fullscreenenter"",""1"",""3513""
","
","","null","","null","","fixation","2021-06-24 15:07:52.757","","","","","",""
"card-selection-trial","119","420877","0.0-25.0-1.24","914","false","img/card_backs/set1/red.gif","img/card_backs/set1/purple.gif","img/card_backs/set1/yellow.gif","img/card_backs/set1/green.gif","img/card_backs/set2/blue.gif","img/card_backs/set2/orange.gif","img/card_backs/set2/gray.gif","img/card_backs/set2/pink.gif","""event"",""trial"",""time""
""fullscreenenter"",""1"",""3513""
","
","
","""event"",""trial"",""time""
""fullscreenenter"",""1"",""3513""
","
","","1010.9949996694922","","","","real_trial","2021-06-24 15:07:55.777","img/card_backs/set1/red.gif","2","-240","1","",""
"casino-fixation","120","421388","0.0-25.0-0.25","914","false","img/card_backs/set1/red.gif","img/card_backs/set1/purple.gif","img/card_backs/set1/yellow.gif","img/card_backs/set1/green.gif","img/card_backs/set2/blue.gif","img/card_backs/set2/orange.gif","img/card_backs/set2/gray.gif","img/card_backs/set2/pink.gif","""event"",""trial"",""time""
""fullscreenenter"",""1"",""3513""
","
","
","""event"",""trial"",""time""
""fullscreenenter"",""1"",""3513""
","
","","null","","null","","fixation","2021-06-24 15:07:56.288","","","","","",""
"card-selection-trial","121","424396","0.0-25.0-1.25","914","false","img/card_backs/set1/red.gif","img/card_backs/set1/purple.gif","img/card_backs/set1/yellow.gif","img/card_backs/set1/green.gif","img/card_backs/set2/blue.gif","img/card_backs/set2/orange.gif","img/card_backs/set2/gray.gif","img/card_backs/set2/pink.gif","""event"",""trial"",""time""
""fullscreenenter"",""1"",""3513""
","
","
","""event"",""trial"",""time""
""fullscreenenter"",""1"",""3513""
","
","","998.4999997541308","","","","real_trial","2021-06-24 15:07:59.296","img/card_backs/set1/red.gif","1","-240","1","",""
"casino-fixation","122","424903","0.0-25.0-0.26","914","false","img/card_backs/set1/red.gif","img/card_backs/set1/purple.gif","img/card_backs/set1/yellow.gif","img/card_backs/set1/green.gif","img/card_backs/set2/blue.gif","img/card_backs/set2/orange.gif","img/card_backs/set2/gray.gif","img/card_backs/set2/pink.gif","""event"",""trial"",""time""
""fullscreenenter"",""1"",""3513""
","
","
","""event"",""trial"",""time""
""fullscreenenter"",""1"",""3513""
","
","","null","","null","","fixation","2021-06-24 15:07:59.803","","","","","",""
"card-selection-trial","123","428643","0.0-25.0-1.26","914","false","img/card_backs/set1/red.gif","img/card_backs/set1/purple.gif","img/card_backs/set1/yellow.gif","img/card_backs/set1/green.gif","img/card_backs/set2/blue.gif","img/card_backs/set2/orange.gif","img/card_backs/set2/gray.gif","img/card_backs/set2/pink.gif","""event"",""trial"",""time""
""fullscreenenter"",""1"",""3513""
","
","
","""event"",""trial"",""time""
""fullscreenenter"",""1"",""3513""
","
","","1733.6900001391768","","","","real_trial","2021-06-24 15:08:03.543","img/card_backs/set1/yellow.gif","3","110","1","",""
"casino-fixation","124","429151","0.0-25.0-0.27","914","false","img/card_backs/set1/red.gif","img/card_backs/set1/purple.gif","img/card_backs/set1/yellow.gif","img/card_backs/set1/green.gif","img/card_backs/set2/blue.gif","img/card_backs/set2/orange.gif","img/card_backs/set2/gray.gif","img/card_backs/set2/pink.gif","""event"",""trial"",""time""
""fullscreenenter"",""1"",""3513""
","
","
","""event"",""trial"",""time""
""fullscreenenter"",""1"",""3513""
","
","","null","","null","","fixation","2021-06-24 15:08:04.052","","","","","",""
"card-selection-trial","125","432182","0.0-25.0-1.27","914","false","img/card_backs/set1/red.gif","img/card_backs/set1/purple.gif","img/card_backs/set1/yellow.gif","img/card_backs/set1/green.gif","img/card_backs/set2/blue.gif","img/card_backs/set2/orange.gif","img/card_backs/set2/gray.gif","img/card_backs/set2/pink.gif","""event"",""trial"",""time""
""fullscreenenter"",""1"",""3513""
","
","
","""event"",""trial"",""time""
""fullscreenenter"",""1"",""3513""
","
","","1018.3949996717274","","","","real_trial","2021-06-24 15:08:07.082","img/card_backs/set1/red.gif","2","-250","1","",""
"casino-fixation","126","432691","0.0-25.0-0.28","914","false","img/card_backs/set1/red.gif","img/card_backs/set1/purple.gif","img/card_backs/set1/yellow.gif","img/card_backs/set1/green.gif","img/card_backs/set2/blue.gif","img/card_backs/set2/orange.gif","img/card_backs/set2/gray.gif","img/card_backs/set2/pink.gif","""event"",""trial"",""time""
""fullscreenenter"",""1"",""3513""
","
","
","""event"",""trial"",""time""
""fullscreenenter"",""1"",""3513""
","
","","null","","null","","fixation","2021-06-24 15:08:07.591","","","","","",""
"card-selection-trial","127","435991","0.0-25.0-1.28","914","false","img/card_backs/set1/red.gif","img/card_backs/set1/purple.gif","img/card_backs/set1/yellow.gif","img/card_backs/set1/green.gif","img/card_backs/set2/blue.gif","img/card_backs/set2/orange.gif","img/card_backs/set2/gray.gif","img/card_backs/set2/pink.gif","""event"",""trial"",""time""
""fullscreenenter"",""1"",""3513""
","
","
","""event"",""trial"",""time""
""fullscreenenter"",""1"",""3513""
","
","","1290.419999975711","","","","real_trial","2021-06-24 15:08:10.891","img/card_backs/set1/yellow.gif","1","-60","1","",""
"casino-fixation","128","436501","0.0-25.0-0.29","914","false","img/card_backs/set1/red.gif","img/card_backs/set1/purple.gif","img/card_backs/set1/yellow.gif","img/card_backs/set1/green.gif","img/card_backs/set2/blue.gif","img/card_backs/set2/orange.gif","img/card_backs/set2/gray.gif","img/card_backs/set2/pink.gif","""event"",""trial"",""time""
""fullscreenenter"",""1"",""3513""
","
","
","""event"",""trial"",""time""
""fullscreenenter"",""1"",""3513""
","
","","null","","null","","fixation","2021-06-24 15:08:11.401","","","","","",""
"card-selection-trial","129","439846","0.0-25.0-1.29","914","false","img/card_backs/set1/red.gif","img/card_backs/set1/purple.gif","img/card_backs/set1/yellow.gif","img/card_backs/set1/green.gif","img/card_backs/set2/blue.gif","img/card_backs/set2/orange.gif","img/card_backs/set2/gray.gif","img/card_backs/set2/pink.gif","""event"",""trial"",""time""
""fullscreenenter"",""1"",""3513""
","
","
","""event"",""trial"",""time""
""fullscreenenter"",""1"",""3513""
","
","","1335.2349996566772","","","","real_trial","2021-06-24 15:08:14.747","img/card_backs/set1/green.gif","0","100","1","",""
"casino-fixation","130","440355","0.0-25.0-0.30","914","false","img/card_backs/set1/red.gif","img/card_backs/set1/purple.gif","img/card_backs/set1/yellow.gif","img/card_backs/set1/green.gif","img/card_backs/set2/blue.gif","img/card_backs/set2/orange.gif","img/card_backs/set2/gray.gif","img/card_backs/set2/pink.gif","""event"",""trial"",""time""
""fullscreenenter"",""1"",""3513""
","
","
","""event"",""trial"",""time""
""fullscreenenter"",""1"",""3513""
","
","","null","","null","","fixation","2021-06-24 15:08:15.255","","","","","",""
"card-selection-trial","131","444082","0.0-25.0-1.30","914","false","img/card_backs/set1/red.gif","img/card_backs/set1/purple.gif","img/card_backs/set1/yellow.gif","img/card_backs/set1/green.gif","img/card_backs/set2/blue.gif","img/card_backs/set2/orange.gif","img/card_backs/set2/gray.gif","img/card_backs/set2/pink.gif","""event"",""trial"",""time""
""fullscreenenter"",""1"",""3513""
","
","
","""event"",""trial"",""time""
""fullscreenenter"",""1"",""3513""
","
","","1719.10999994725","","","","real_trial","2021-06-24 15:08:18.982","img/card_backs/set1/green.gif","1","100","1","",""
"casino-fixation","132","444589","0.0-25.0-0.31","914","false","img/card_backs/set1/red.gif","img/card_backs/set1/purple.gif","img/card_backs/set1/yellow.gif","img/card_backs/set1/green.gif","img/card_backs/set2/blue.gif","img/card_backs/set2/orange.gif","img/card_backs/set2/gray.gif","img/card_backs/set2/pink.gif","""event"",""trial"",""time""
""fullscreenenter"",""1"",""3513""
","
","
","""event"",""trial"",""time""
""fullscreenenter"",""1"",""3513""
","
","","null","","null","","fixation","2021-06-24 15:08:19.489","","","","","",""
"card-selection-trial","133","447791","0.0-25.0-1.31","914","false","img/card_backs/set1/red.gif","img/card_backs/set1/purple.gif","img/card_backs/set1/yellow.gif","img/card_backs/set1/green.gif","img/card_backs/set2/blue.gif","img/card_backs/set2/orange.gif","img/card_backs/set2/gray.gif","img/card_backs/set2/pink.gif","""event"",""trial"",""time""
""fullscreenenter"",""1"",""3513""
","
","
","""event"",""trial"",""time""
""fullscreenenter"",""1"",""3513""
","
","","1195.365000050515","","","","real_trial","2021-06-24 15:08:22.691","img/card_backs/set1/red.gif","2","180","1","",""
"casino-fixation","134","448296","0.0-25.0-0.32","914","false","img/card_backs/set1/red.gif","img/card_backs/set1/purple.gif","img/card_backs/set1/yellow.gif","img/card_backs/set1/green.gif","img/card_backs/set2/blue.gif","img/card_backs/set2/orange.gif","img/card_backs/set2/gray.gif","img/card_backs/set2/pink.gif","""event"",""trial"",""time""
""fullscreenenter"",""1"",""3513""
","
","
","""event"",""trial"",""time""
""fullscreenenter"",""1"",""3513""
","
","","null","","null","","fixation","2021-06-24 15:08:23.196","","","","","",""
"card-selection-trial","135","451253","0.0-25.0-1.32","914","false","img/card_backs/set1/red.gif","img/card_backs/set1/purple.gif","img/card_backs/set1/yellow.gif","img/card_backs/set1/green.gif","img/card_backs/set2/blue.gif","img/card_backs/set2/orange.gif","img/card_backs/set2/gray.gif","img/card_backs/set2/pink.gif","""event"",""trial"",""time""
""fullscreenenter"",""1"",""3513""
","
","
","""event"",""trial"",""time""
""fullscreenenter"",""1"",""3513""
","
","","942.9949996992946","","","","real_trial","2021-06-24 15:08:26.153","img/card_backs/set1/green.gif","1","120","1","",""
"casino-fixation","136","451760","0.0-25.0-0.33","914","false","img/card_backs/set1/red.gif","img/card_backs/set1/purple.gif","img/card_backs/set1/yellow.gif","img/card_backs/set1/green.gif","img/card_backs/set2/blue.gif","img/card_backs/set2/orange.gif","img/card_backs/set2/gray.gif","img/card_backs/set2/pink.gif","""event"",""trial"",""time""
""fullscreenenter"",""1"",""3513""
","
","
","""event"",""trial"",""time""
""fullscreenenter"",""1"",""3513""
","
","","null","","null","","fixation","2021-06-24 15:08:26.660","","","","","",""
"card-selection-trial","137","454215","0.0-25.0-1.33","914","false","img/card_backs/set1/red.gif","img/card_backs/set1/purple.gif","img/card_backs/set1/yellow.gif","img/card_backs/set1/green.gif","img/card_backs/set2/blue.gif","img/card_backs/set2/orange.gif","img/card_backs/set2/gray.gif","img/card_backs/set2/pink.gif","""event"",""trial"",""time""
""fullscreenenter"",""1"",""3513""
","
","
","""event"",""trial"",""time""
""fullscreenenter"",""1"",""3513""
","
","","449.3800001218915","","","","real_trial","2021-06-24 15:08:29.115","img/card_backs/set1/red.gif","3","190","1","",""
"casino-fixation","138","454717","0.0-25.0-0.34","914","false","img/card_backs/set1/red.gif","img/card_backs/set1/purple.gif","img/card_backs/set1/yellow.gif","img/card_backs/set1/green.gif","img/card_backs/set2/blue.gif","img/card_backs/set2/orange.gif","img/card_backs/set2/gray.gif","img/card_backs/set2/pink.gif","""event"",""trial"",""time""
""fullscreenenter"",""1"",""3513""
","
","
","""event"",""trial"",""time""
""fullscreenenter"",""1"",""3513""
","
","","null","","null","","fixation","2021-06-24 15:08:29.617","","","","","",""
"card-selection-trial","139","457225","0.0-25.0-1.34","914","false","img/card_backs/set1/red.gif","img/card_backs/set1/purple.gif","img/card_backs/set1/yellow.gif","img/card_backs/set1/green.gif","img/card_backs/set2/blue.gif","img/card_backs/set2/orange.gif","img/card_backs/set2/gray.gif","img/card_backs/set2/pink.gif","""event"",""trial"",""time""
""fullscreenenter"",""1"",""3513""
","
","
","""event"",""trial"",""time""
""fullscreenenter"",""1"",""3513""
","
","","495.2449998818338","","","","real_trial","2021-06-24 15:08:32.125","img/card_backs/set1/purple.gif","0","-250","1","",""
"casino-fixation","140","457734","0.0-25.0-0.35","914","false","img/card_backs/set1/red.gif","img/card_backs/set1/purple.gif","img/card_backs/set1/yellow.gif","img/card_backs/set1/green.gif","img/card_backs/set2/blue.gif","img/card_backs/set2/orange.gif","img/card_backs/set2/gray.gif","img/card_backs/set2/pink.gif","""event"",""trial"",""time""
""fullscreenenter"",""1"",""3513""
","
","
","""event"",""trial"",""time""
""fullscreenenter"",""1"",""3513""
","
","","null","","null","","fixation","2021-06-24 15:08:32.634","","","","","",""
"card-selection-trial","141","460117","0.0-25.0-1.35","914","false","img/card_backs/set1/red.gif","img/card_backs/set1/purple.gif","img/card_backs/set1/yellow.gif","img/card_backs/set1/green.gif","img/card_backs/set2/blue.gif","img/card_backs/set2/orange.gif","img/card_backs/set2/gray.gif","img/card_backs/set2/pink.gif","""event"",""trial"",""time""
""fullscreenenter"",""1"",""3513""
","
","
","""event"",""trial"",""time""
""fullscreenenter"",""1"",""3513""
","
","","364.9949999526143","","","","real_trial","2021-06-24 15:08:35.017","img/card_backs/set1/yellow.gif","1","-60","1","",""
"casino-fixation","142","460635","0.0-25.0-0.36","914","false","img/card_backs/set1/red.gif","img/card_backs/set1/purple.gif","img/card_backs/set1/yellow.gif","img/card_backs/set1/green.gif","img/card_backs/set2/blue.gif","img/card_backs/set2/orange.gif","img/card_backs/set2/gray.gif","img/card_backs/set2/pink.gif","""event"",""trial"",""time""
""fullscreenenter"",""1"",""3513""
","
","
","""event"",""trial"",""time""
""fullscreenenter"",""1"",""3513""
","
","","null","","null","","fixation","2021-06-24 15:08:35.535","","","","","",""
"card-selection-trial","143","462974","0.0-25.0-1.36","914","false","img/card_backs/set1/red.gif","img/card_backs/set1/purple.gif","img/card_backs/set1/yellow.gif","img/card_backs/set1/green.gif","img/card_backs/set2/blue.gif","img/card_backs/set2/orange.gif","img/card_backs/set2/gray.gif","img/card_backs/set2/pink.gif","""event"",""trial"",""time""
""fullscreenenter"",""1"",""3513""
","
","
","""event"",""trial"",""time""
""fullscreenenter"",""1"",""3513""
","
","","329.2099996469915","","","","real_trial","2021-06-24 15:08:37.874","img/card_backs/set1/green.gif","2","-70","1","",""
"casino-fixation","144","463479","0.0-25.0-0.37","914","false","img/card_backs/set1/red.gif","img/card_backs/set1/purple.gif","img/card_backs/set1/yellow.gif","img/card_backs/set1/green.gif","img/card_backs/set2/blue.gif","img/card_backs/set2/orange.gif","img/card_backs/set2/gray.gif","img/card_backs/set2/pink.gif","""event"",""trial"",""time""
""fullscreenenter"",""1"",""3513""
","
","
","""event"",""trial"",""time""
""fullscreenenter"",""1"",""3513""
","
","","null","","null","","fixation","2021-06-24 15:08:38.380","","","","","",""
"card-selection-trial","145","465892","0.0-25.0-1.37","914","false","img/card_backs/set1/red.gif","img/card_backs/set1/purple.gif","img/card_backs/set1/yellow.gif","img/card_backs/set1/green.gif","img/card_backs/set2/blue.gif","img/card_backs/set2/orange.gif","img/card_backs/set2/gray.gif","img/card_backs/set2/pink.gif","""event"",""trial"",""time""
""fullscreenenter"",""1"",""3513""
","
","
","""event"",""trial"",""time""
""fullscreenenter"",""1"",""3513""
","
","","399.210000410676","","","","real_trial","2021-06-24 15:08:40.792","img/card_backs/set1/purple.gif","3","-250","1","",""
"casino-fixation","146","466394","0.0-25.0-0.38","914","false","img/card_backs/set1/red.gif","img/card_backs/set1/purple.gif","img/card_backs/set1/yellow.gif","img/card_backs/set1/green.gif","img/card_backs/set2/blue.gif","img/card_backs/set2/orange.gif","img/card_backs/set2/gray.gif","img/card_backs/set2/pink.gif","""event"",""trial"",""time""
""fullscreenenter"",""1"",""3513""
","
","
","""event"",""trial"",""time""
""fullscreenenter"",""1"",""3513""
","
","","null","","null","","fixation","2021-06-24 15:08:41.294","","","","","",""
"card-selection-trial","147","468764","0.0-25.0-1.38","914","false","img/card_backs/set1/red.gif","img/card_backs/set1/purple.gif","img/card_backs/set1/yellow.gif","img/card_backs/set1/green.gif","img/card_backs/set2/blue.gif","img/card_backs/set2/orange.gif","img/card_backs/set2/gray.gif","img/card_backs/set2/pink.gif","""event"",""trial"",""time""
""fullscreenenter"",""1"",""3513""
","
","
","""event"",""trial"",""time""
""fullscreenenter"",""1"",""3513""
","
","","359.20000029727817","","","","real_trial","2021-06-24 15:08:43.664","img/card_backs/set1/purple.gif","2","-250","1","",""
"casino-fixation","148","469273","0.0-25.0-0.39","914","false","img/card_backs/set1/red.gif","img/card_backs/set1/purple.gif","img/card_backs/set1/yellow.gif","img/card_backs/set1/green.gif","img/card_backs/set2/blue.gif","img/card_backs/set2/orange.gif","img/card_backs/set2/gray.gif","img/card_backs/set2/pink.gif","""event"",""trial"",""time""
""fullscreenenter"",""1"",""3513""
","
","
","""event"",""trial"",""time""
""fullscreenenter"",""1"",""3513""
","
","","null","","null","","fixation","2021-06-24 15:08:44.173","","","","","",""
"card-selection-trial","149","471604","0.0-25.0-1.39","914","false","img/card_backs/set1/red.gif","img/card_backs/set1/purple.gif","img/card_backs/set1/yellow.gif","img/card_backs/set1/green.gif","img/card_backs/set2/blue.gif","img/card_backs/set2/orange.gif","img/card_backs/set2/gray.gif","img/card_backs/set2/pink.gif","""event"",""trial"",""time""
""fullscreenenter"",""1"",""3513""
","
","
","""event"",""trial"",""time""
""fullscreenenter"",""1"",""3513""
","
","","322.74000020697713","","","","real_trial","2021-06-24 15:08:46.504","img/card_backs/set1/red.gif","0","180","1","",""
"casino-fixation","150","472107","0.0-25.0-0.40","914","false","img/card_backs/set1/red.gif","img/card_backs/set1/purple.gif","img/card_backs/set1/yellow.gif","img/card_backs/set1/green.gif","img/card_backs/set2/blue.gif","img/card_backs/set2/orange.gif","img/card_backs/set2/gray.gif","img/card_backs/set2/pink.gif","""event"",""trial"",""time""
""fullscreenenter"",""1"",""3513""
","
","
","""event"",""trial"",""time""
""fullscreenenter"",""1"",""3513""
","
","","null","","null","","fixation","2021-06-24 15:08:47.007","","","","","",""
"card-selection-trial","151","474446","0.0-25.0-1.40","914","false","img/card_backs/set1/red.gif","img/card_backs/set1/purple.gif","img/card_backs/set1/yellow.gif","img/card_backs/set1/green.gif","img/card_backs/set2/blue.gif","img/card_backs/set2/orange.gif","img/card_backs/set2/gray.gif","img/card_backs/set2/pink.gif","""event"",""trial"",""time""
""fullscreenenter"",""1"",""3513""
","
","
","""event"",""trial"",""time""
""fullscreenenter"",""1"",""3513""
","
","","328.1900002621114","","","","real_trial","2021-06-24 15:08:49.346","img/card_backs/set1/purple.gif","1","-240","1","",""
"casino-fixation","152","474949","0.0-25.0-0.41","914","false","img/card_backs/set1/red.gif","img/card_backs/set1/purple.gif","img/card_backs/set1/yellow.gif","img/card_backs/set1/green.gif","img/card_backs/set2/blue.gif","img/card_backs/set2/orange.gif","img/card_backs/set2/gray.gif","img/card_backs/set2/pink.gif","""event"",""trial"",""time""
""fullscreenenter"",""1"",""3513""
","
","
","""event"",""trial"",""time""
""fullscreenenter"",""1"",""3513""
","
","","null","","null","","fixation","2021-06-24 15:08:49.849","","","","","",""
"card-selection-trial","153","478144","0.0-25.0-1.41","914","false","img/card_backs/set1/red.gif","img/card_backs/set1/purple.gif","img/card_backs/set1/yellow.gif","img/card_backs/set1/green.gif","img/card_backs/set2/blue.gif","img/card_backs/set2/orange.gif","img/card_backs/set2/gray.gif","img/card_backs/set2/pink.gif","""event"",""trial"",""time""
""fullscreenenter"",""1"",""3513""
","
","
","""event"",""trial"",""time""
""fullscreenenter"",""1"",""3513""
","
","","1185.6799996457994","","","","real_trial","2021-06-24 15:08:53.044","img/card_backs/set1/yellow.gif","1","120","1","",""
"casino-fixation","154","478650","0.0-25.0-0.42","914","false","img/card_backs/set1/red.gif","img/card_backs/set1/purple.gif","img/card_backs/set1/yellow.gif","img/card_backs/set1/green.gif","img/card_backs/set2/blue.gif","img/card_backs/set2/orange.gif","img/card_backs/set2/gray.gif","img/card_backs/set2/pink.gif","""event"",""trial"",""time""
""fullscreenenter"",""1"",""3513""
","
","
","""event"",""trial"",""time""
""fullscreenenter"",""1"",""3513""
","
","","null","","null","","fixation","2021-06-24 15:08:53.550","","","","","",""
"card-selection-trial","155","481661","0.0-25.0-1.42","914","false","img/card_backs/set1/red.gif","img/card_backs/set1/purple.gif","img/card_backs/set1/yellow.gif","img/card_backs/set1/green.gif","img/card_backs/set2/blue.gif","img/card_backs/set2/orange.gif","img/card_backs/set2/gray.gif","img/card_backs/set2/pink.gif","""event"",""trial"",""time""
""fullscreenenter"",""1"",""3513""
","
","
","""event"",""trial"",""time""
""fullscreenenter"",""1"",""3513""
","
","","1000.7800003513694","","","","real_trial","2021-06-24 15:08:56.561","img/card_backs/set1/yellow.gif","2","120","1","",""
"casino-fixation","156","482165","0.0-25.0-0.43","914","false","img/card_backs/set1/red.gif","img/card_backs/set1/purple.gif","img/card_backs/set1/yellow.gif","img/card_backs/set1/green.gif","img/card_backs/set2/blue.gif","img/card_backs/set2/orange.gif","img/card_backs/set2/gray.gif","img/card_backs/set2/pink.gif","""event"",""trial"",""time""
""fullscreenenter"",""1"",""3513""
","
","
","""event"",""trial"",""time""
""fullscreenenter"",""1"",""3513""
","
","","null","","null","","fixation","2021-06-24 15:08:57.065","","","","","",""
"card-selection-trial","157","484931","0.0-25.0-1.43","914","false","img/card_backs/set1/red.gif","img/card_backs/set1/purple.gif","img/card_backs/set1/yellow.gif","img/card_backs/set1/green.gif","img/card_backs/set2/blue.gif","img/card_backs/set2/orange.gif","img/card_backs/set2/gray.gif","img/card_backs/set2/pink.gif","""event"",""trial"",""time""
""fullscreenenter"",""1"",""3513""
","
","
","""event"",""trial"",""time""
""fullscreenenter"",""1"",""3513""
","
","","750.7500001229346","","","","real_trial","2021-06-24 15:08:59.831","img/card_backs/set1/yellow.gif","3","110","1","",""
"casino-fixation","158","485447","0.0-25.0-0.44","914","false","img/card_backs/set1/red.gif","img/card_backs/set1/purple.gif","img/card_backs/set1/yellow.gif","img/card_backs/set1/green.gif","img/card_backs/set2/blue.gif","img/card_backs/set2/orange.gif","img/card_backs/set2/gray.gif","img/card_backs/set2/pink.gif","""event"",""trial"",""time""
""fullscreenenter"",""1"",""3513""
","
","
","""event"",""trial"",""time""
""fullscreenenter"",""1"",""3513""
","
","","null","","null","","fixation","2021-06-24 15:09:00.347","","","","","",""
"card-selection-trial","159","488343","0.0-25.0-1.44","914","false","img/card_backs/set1/red.gif","img/card_backs/set1/purple.gif","img/card_backs/set1/yellow.gif","img/card_backs/set1/green.gif","img/card_backs/set2/blue.gif","img/card_backs/set2/orange.gif","img/card_backs/set2/gray.gif","img/card_backs/set2/pink.gif","""event"",""trial"",""time""
""fullscreenenter"",""1"",""3513""
","
","
","""event"",""trial"",""time""
""fullscreenenter"",""1"",""3513""
","
","","883.5899997502565","","","","real_trial","2021-06-24 15:09:03.243","img/card_backs/set1/yellow.gif","3","-50","1","",""
"casino-fixation","160","488850","0.0-25.0-0.45","914","false","img/card_backs/set1/red.gif","img/card_backs/set1/purple.gif","img/card_backs/set1/yellow.gif","img/card_backs/set1/green.gif","img/card_backs/set2/blue.gif","img/card_backs/set2/orange.gif","img/card_backs/set2/gray.gif","img/card_backs/set2/pink.gif","""event"",""trial"",""time""
""fullscreenenter"",""1"",""3513""
","
","
","""event"",""trial"",""time""
""fullscreenenter"",""1"",""3513""
","
","","null","","null","","fixation","2021-06-24 15:09:03.750","","","","","",""
"card-selection-trial","161","491727","0.0-25.0-1.45","914","false","img/card_backs/set1/red.gif","img/card_backs/set1/purple.gif","img/card_backs/set1/yellow.gif","img/card_backs/set1/green.gif","img/card_backs/set2/blue.gif","img/card_backs/set2/orange.gif","img/card_backs/set2/gray.gif","img/card_backs/set2/pink.gif","""event"",""trial"",""time""
""fullscreenenter"",""1"",""3513""
","
","
","""event"",""trial"",""time""
""fullscreenenter"",""1"",""3513""
","
","","864.5600001327693","","","","real_trial","2021-06-24 15:09:06.627","img/card_backs/set1/yellow.gif","3","-50","1","",""
"casino-fixation","162","492234","0.0-25.0-0.46","914","false","img/card_backs/set1/red.gif","img/card_backs/set1/purple.gif","img/card_backs/set1/yellow.gif","img/card_backs/set1/green.gif","img/card_backs/set2/blue.gif","img/card_backs/set2/orange.gif","img/card_backs/set2/gray.gif","img/card_backs/set2/pink.gif","""event"",""trial"",""time""
""fullscreenenter"",""1"",""3513""
","
","
","""event"",""trial"",""time""
""fullscreenenter"",""1"",""3513""
","
","","null","","null","","fixation","2021-06-24 15:09:07.134","","","","","",""
"card-selection-trial","163","494717","0.0-25.0-1.46","914","false","img/card_backs/set1/red.gif","img/card_backs/set1/purple.gif","img/card_backs/set1/yellow.gif","img/card_backs/set1/green.gif","img/card_backs/set2/blue.gif","img/card_backs/set2/orange.gif","img/card_backs/set2/gray.gif","img/card_backs/set2/pink.gif","""event"",""trial"",""time""
""fullscreenenter"",""1"",""3513""
","
","
","""event"",""trial"",""time""
""fullscreenenter"",""1"",""3513""
","
","","474.21499993652105","","","","real_trial","2021-06-24 15:09:09.617","img/card_backs/set1/yellow.gif","3","120","1","",""
"casino-fixation","164","495222","0.0-25.0-0.47","914","false","img/card_backs/set1/red.gif","img/card_backs/set1/purple.gif","img/card_backs/set1/yellow.gif","img/card_backs/set1/green.gif","img/card_backs/set2/blue.gif","img/card_backs/set2/orange.gif","img/card_backs/set2/gray.gif","img/card_backs/set2/pink.gif","""event"",""trial"",""time""
""fullscreenenter"",""1"",""3513""
","
","
","""event"",""trial"",""time""
""fullscreenenter"",""1"",""3513""
","
","","null","","null","","fixation","2021-06-24 15:09:10.122","","","","","",""
"card-selection-trial","165","498015","0.0-25.0-1.47","914","false","img/card_backs/set1/red.gif","img/card_backs/set1/purple.gif","img/card_backs/set1/yellow.gif","img/card_backs/set1/green.gif","img/card_backs/set2/blue.gif","img/card_backs/set2/orange.gif","img/card_backs/set2/gray.gif","img/card_backs/set2/pink.gif","""event"",""trial"",""time""
""fullscreenenter"",""1"",""3513""
","
","
","""event"",""trial"",""time""
""fullscreenenter"",""1"",""3513""
","
","","785.755000077188","","","","real_trial","2021-06-24 15:09:12.915","img/card_backs/set1/yellow.gif","2","-50","1","",""
"casino-fixation","166","498521","0.0-25.0-0.48","914","false","img/card_backs/set1/red.gif","img/card_backs/set1/purple.gif","img/card_backs/set1/yellow.gif","img/card_backs/set1/green.gif","img/card_backs/set2/blue.gif","img/card_backs/set2/orange.gif","img/card_backs/set2/gray.gif","img/card_backs/set2/pink.gif","""event"",""trial"",""time""
""fullscreenenter"",""1"",""3513""
","
","
","""event"",""trial"",""time""
""fullscreenenter"",""1"",""3513""
","
","","null","","null","","fixation","2021-06-24 15:09:13.421","","","","","",""
