"trial_type","trial_index","time_elapsed","internal_node_id","sub_id","risk_good_first","block1_A","block1_B","block1_C","block1_D","block2_A","block2_B","block2_C","block2_D","interactions","blur_events","focus_events","fullscreenenter_events","fullscreenexit_events","success","rt","stimulus","key_press","button_pressed","task_part","timestamp","card_choice","choice_position","points_earned","block","correct","response"
"pavlovia","0","5","0.0-0.0","976","false","img/card_backs/set1/yellow.gif","img/card_backs/set1/red.gif","img/card_backs/set1/green.gif","img/card_backs/set1/purple.gif","img/card_backs/set2/orange.gif","img/card_backs/set2/gray.gif","img/card_backs/set2/pink.gif","img/card_backs/set2/blue.gif","""event"",""trial"",""time""
""focus"",""0"",""0""
""fullscreenenter"",""1"",""3823""
","
","""event"",""trial"",""time""
""focus"",""0"",""0""
","""event"",""trial"",""time""
""fullscreenenter"",""1"",""3823""
","
","","","","","","","","","","","","",""
"fullscreen","1","4604","0.0-1.0","976","false","img/card_backs/set1/yellow.gif","img/card_backs/set1/red.gif","img/card_backs/set1/green.gif","img/card_backs/set1/purple.gif","img/card_backs/set2/orange.gif","img/card_backs/set2/gray.gif","img/card_backs/set2/pink.gif","img/card_backs/set2/blue.gif","""event"",""trial"",""time""
""focus"",""0"",""0""
""fullscreenenter"",""1"",""3823""
","
","""event"",""trial"",""time""
""focus"",""0"",""0""
","""event"",""trial"",""time""
""fullscreenenter"",""1"",""3823""
","
","true","","","","","","","","","","","",""
"audio-keyboard-response","2","6528","0.0-2.0","976","false","img/card_backs/set1/yellow.gif","img/card_backs/set1/red.gif","img/card_backs/set1/green.gif","img/card_backs/set1/purple.gif","img/card_backs/set2/orange.gif","img/card_backs/set2/gray.gif","img/card_backs/set2/pink.gif","img/card_backs/set2/blue.gif","""event"",""trial"",""time""
""focus"",""0"",""0""
""fullscreenenter"",""1"",""3823""
","
","""event"",""trial"",""time""
""focus"",""0"",""0""
","""event"",""trial"",""time""
""fullscreenenter"",""1"",""3823""
","
","","1928","audio/beep_loop.wav","32","","","","","","","","",""
"audio-button-response","3","11385","0.0-3.0","976","false","img/card_backs/set1/yellow.gif","img/card_backs/set1/red.gif","img/card_backs/set1/green.gif","img/card_backs/set1/purple.gif","img/card_backs/set2/orange.gif","img/card_backs/set2/gray.gif","img/card_backs/set2/pink.gif","img/card_backs/set2/blue.gif","""event"",""trial"",""time""
""focus"",""0"",""0""
""fullscreenenter"",""1"",""3823""
","
","""event"",""trial"",""time""
""focus"",""0"",""0""
","""event"",""trial"",""time""
""fullscreenenter"",""1"",""3823""
","
","","NaN","audio/turtle.mp3","","3","","","","","","","",""
"audio-button-response","4","14208","0.0-4.0","976","false","img/card_backs/set1/yellow.gif","img/card_backs/set1/red.gif","img/card_backs/set1/green.gif","img/card_backs/set1/purple.gif","img/card_backs/set2/orange.gif","img/card_backs/set2/gray.gif","img/card_backs/set2/pink.gif","img/card_backs/set2/blue.gif","""event"",""trial"",""time""
""focus"",""0"",""0""
""fullscreenenter"",""1"",""3823""
","
","""event"",""trial"",""time""
""focus"",""0"",""0""
","""event"",""trial"",""time""
""fullscreenenter"",""1"",""3823""
","
","","NaN","audio/shark.mp3","","2","","","","","","","",""
"fullscreen","5","17775","0.0-5.0","976","false","img/card_backs/set1/yellow.gif","img/card_backs/set1/red.gif","img/card_backs/set1/green.gif","img/card_backs/set1/purple.gif","img/card_backs/set2/orange.gif","img/card_backs/set2/gray.gif","img/card_backs/set2/pink.gif","img/card_backs/set2/blue.gif","""event"",""trial"",""time""
""focus"",""0"",""0""
""fullscreenenter"",""1"",""3823""
","
","""event"",""trial"",""time""
""focus"",""0"",""0""
","""event"",""trial"",""time""
""fullscreenenter"",""1"",""3823""
","
","true","","","","","","","","","","","",""
"casino-keyboard-response","6","23063","0.0-6.0-0.0","976","false","img/card_backs/set1/yellow.gif","img/card_backs/set1/red.gif","img/card_backs/set1/green.gif","img/card_backs/set1/purple.gif","img/card_backs/set2/orange.gif","img/card_backs/set2/gray.gif","img/card_backs/set2/pink.gif","img/card_backs/set2/blue.gif","""event"",""trial"",""time""
""focus"",""0"",""0""
""fullscreenenter"",""1"",""3823""
","
","""event"",""trial"",""time""
""focus"",""0"",""0""
","""event"",""trial"",""time""
""fullscreenenter"",""1"",""3823""
","
","","5286","Welcome to the casino!","71","","instructions","2021-08-07 21:42:48.549","","","","","",""
"casino-keyboard-response","7","32989","0.0-6.0-0.1","976","false","img/card_backs/set1/yellow.gif","img/card_backs/set1/red.gif","img/card_backs/set1/green.gif","img/card_backs/set1/purple.gif","img/card_backs/set2/orange.gif","img/card_backs/set2/gray.gif","img/card_backs/set2/pink.gif","img/card_backs/set2/blue.gif","""event"",""trial"",""time""
""focus"",""0"",""0""
""fullscreenenter"",""1"",""3823""
","
","""event"",""trial"",""time""
""focus"",""0"",""0""
","""event"",""trial"",""time""
""fullscreenenter"",""1"",""3823""
","
","","9925","Today you will be playing a game to earn tokens. </br> At the end of the experiment, you will be paid a bonus based on how many tokens you win. ","69","","instructions","2021-08-07 21:42:58.476","","","","","",""
"casino-keyboard-response","8","40487","0.0-6.0-0.2","976","false","img/card_backs/set1/yellow.gif","img/card_backs/set1/red.gif","img/card_backs/set1/green.gif","img/card_backs/set1/purple.gif","img/card_backs/set2/orange.gif","img/card_backs/set2/gray.gif","img/card_backs/set2/pink.gif","img/card_backs/set2/blue.gif","""event"",""trial"",""time""
""focus"",""0"",""0""
""fullscreenenter"",""1"",""3823""
","
","""event"",""trial"",""time""
""focus"",""0"",""0""
","""event"",""trial"",""time""
""fullscreenenter"",""1"",""3823""
","
","","7495","On every turn, you will be shown four different decks of cards. </br> You need to select a card from one of the four decks.  ","75","","instructions","2021-08-07 21:43:05.974","","","","","",""
"casino-keyboard-response","9","45231","0.0-6.0-0.3","976","false","img/card_backs/set1/yellow.gif","img/card_backs/set1/red.gif","img/card_backs/set1/green.gif","img/card_backs/set1/purple.gif","img/card_backs/set2/orange.gif","img/card_backs/set2/gray.gif","img/card_backs/set2/pink.gif","img/card_backs/set2/blue.gif","""event"",""trial"",""time""
""focus"",""0"",""0""
""fullscreenenter"",""1"",""3823""
","
","""event"",""trial"",""time""
""focus"",""0"",""0""
","""event"",""trial"",""time""
""fullscreenenter"",""1"",""3823""
","
","","4743","On the next screen, you will see what the decks will look like. ","66","","instructions","2021-08-07 21:43:10.718","","","","","",""
"card-selection-trial","10","49255","0.0-7.0-0.0","976","false","img/card_backs/set1/yellow.gif","img/card_backs/set1/red.gif","img/card_backs/set1/green.gif","img/card_backs/set1/purple.gif","img/card_backs/set2/orange.gif","img/card_backs/set2/gray.gif","img/card_backs/set2/pink.gif","img/card_backs/set2/blue.gif","""event"",""trial"",""time""
""focus"",""0"",""0""
""fullscreenenter"",""1"",""3823""
","
","""event"",""trial"",""time""
""focus"",""0"",""0""
","""event"",""trial"",""time""
""fullscreenenter"",""1"",""3823""
","
","","null","","","","practice","2021-08-07 21:43:14.741","null","null","null","0","",""
"casino-keyboard-response","11","57169","0.0-8.0-0.0","976","false","img/card_backs/set1/yellow.gif","img/card_backs/set1/red.gif","img/card_backs/set1/green.gif","img/card_backs/set1/purple.gif","img/card_backs/set2/orange.gif","img/card_backs/set2/gray.gif","img/card_backs/set2/pink.gif","img/card_backs/set2/blue.gif","""event"",""trial"",""time""
""focus"",""0"",""0""
""fullscreenenter"",""1"",""3823""
","
","""event"",""trial"",""time""
""focus"",""0"",""0""
","""event"",""trial"",""time""
""fullscreenenter"",""1"",""3823""
","
","","7913","You should pick a card from a deck using the '2', '4', '6', and '8' keys at the top of the keyboard.","85","","instructions","2021-08-07 21:43:22.655","","","","","",""
"casino-keyboard-response","12","62779","0.0-8.0-0.1","976","false","img/card_backs/set1/yellow.gif","img/card_backs/set1/red.gif","img/card_backs/set1/green.gif","img/card_backs/set1/purple.gif","img/card_backs/set2/orange.gif","img/card_backs/set2/gray.gif","img/card_backs/set2/pink.gif","img/card_backs/set2/blue.gif","""event"",""trial"",""time""
""focus"",""0"",""0""
""fullscreenenter"",""1"",""3823""
","
","""event"",""trial"",""time""
""focus"",""0"",""0""
","""event"",""trial"",""time""
""fullscreenenter"",""1"",""3823""
","
","","5609","Once you select a card, it will turn over and you will see how many tokens you earned.","83","","instructions","2021-08-07 21:43:28.265","","","","","",""
"casino-keyboard-response","13","77356","0.0-8.0-0.2","976","false","img/card_backs/set1/yellow.gif","img/card_backs/set1/red.gif","img/card_backs/set1/green.gif","img/card_backs/set1/purple.gif","img/card_backs/set2/orange.gif","img/card_backs/set2/gray.gif","img/card_backs/set2/pink.gif","img/card_backs/set2/blue.gif","""event"",""trial"",""time""
""focus"",""0"",""0""
""fullscreenenter"",""1"",""3823""
","
","""event"",""trial"",""time""
""focus"",""0"",""0""
","""event"",""trial"",""time""
""fullscreenenter"",""1"",""3823""
","
","","14575","Let's try practicing that! </br> First, try to put your fingers over the '2', '4', '6', and '8' keys. </br>  You can use whatever fingers are most comfortable for you. Try to find a comfortable position now. ","50","","instructions","2021-08-07 21:43:42.842","","","","","",""
"casino-keyboard-response","14","83286","0.0-8.0-0.3","976","false","img/card_backs/set1/yellow.gif","img/card_backs/set1/red.gif","img/card_backs/set1/green.gif","img/card_backs/set1/purple.gif","img/card_backs/set2/orange.gif","img/card_backs/set2/gray.gif","img/card_backs/set2/pink.gif","img/card_backs/set2/blue.gif","""event"",""trial"",""time""
""focus"",""0"",""0""
""fullscreenenter"",""1"",""3823""
","
","""event"",""trial"",""time""
""focus"",""0"",""0""
","""event"",""trial"",""time""
""fullscreenenter"",""1"",""3823""
","
","","5929","Okay ready? </br> On the next screen, press '2' to select the left deck. ","50","","instructions","2021-08-07 21:43:48.772","","","","","",""
"card-selection-trial","15","86458","0.0-9.0-0.0","976","false","img/card_backs/set1/yellow.gif","img/card_backs/set1/red.gif","img/card_backs/set1/green.gif","img/card_backs/set1/purple.gif","img/card_backs/set2/orange.gif","img/card_backs/set2/gray.gif","img/card_backs/set2/pink.gif","img/card_backs/set2/blue.gif","""event"",""trial"",""time""
""focus"",""0"",""0""
""fullscreenenter"",""1"",""3823""
","
","""event"",""trial"",""time""
""focus"",""0"",""0""
","""event"",""trial"",""time""
""fullscreenenter"",""1"",""3823""
","
","","1150","","","","practice_card_selection","2021-08-07 21:43:51.944","img/practice_cards/backs/brown.gif","0","100","","",""
"casino-keyboard-response","16","92557","0.0-10.0-0.0","976","false","img/card_backs/set1/yellow.gif","img/card_backs/set1/red.gif","img/card_backs/set1/green.gif","img/card_backs/set1/purple.gif","img/card_backs/set2/orange.gif","img/card_backs/set2/gray.gif","img/card_backs/set2/pink.gif","img/card_backs/set2/blue.gif","""event"",""trial"",""time""
""focus"",""0"",""0""
""fullscreenenter"",""1"",""3823""
","
","""event"",""trial"",""time""
""focus"",""0"",""0""
","""event"",""trial"",""time""
""fullscreenenter"",""1"",""3823""
","
","","6098","Great! Now on the next screen, try pressing '6' to select the third deck.","54","","instructions","2021-08-07 21:43:58.043","","","","","",""
"card-selection-trial","17","95242","0.0-11.0-0.0","976","false","img/card_backs/set1/yellow.gif","img/card_backs/set1/red.gif","img/card_backs/set1/green.gif","img/card_backs/set1/purple.gif","img/card_backs/set2/orange.gif","img/card_backs/set2/gray.gif","img/card_backs/set2/pink.gif","img/card_backs/set2/blue.gif","""event"",""trial"",""time""
""focus"",""0"",""0""
""fullscreenenter"",""1"",""3823""
","
","""event"",""trial"",""time""
""focus"",""0"",""0""
","""event"",""trial"",""time""
""fullscreenenter"",""1"",""3823""
","
","","666","","","","practice_card_selection","2021-08-07 21:44:00.728","img/practice_cards/backs/dark_green.gif","2","-200","","",""
"casino-keyboard-response","18","99752","0.0-12.0-0.0","976","false","img/card_backs/set1/yellow.gif","img/card_backs/set1/red.gif","img/card_backs/set1/green.gif","img/card_backs/set1/purple.gif","img/card_backs/set2/orange.gif","img/card_backs/set2/gray.gif","img/card_backs/set2/pink.gif","img/card_backs/set2/blue.gif","""event"",""trial"",""time""
""focus"",""0"",""0""
""fullscreenenter"",""1"",""3823""
","
","""event"",""trial"",""time""
""focus"",""0"",""0""
","""event"",""trial"",""time""
""fullscreenenter"",""1"",""3823""
","
","","4509","Now on the next screen, try pressing '4' to select the second deck.","52","","instructions","2021-08-07 21:44:05.238","","","","","",""
"card-selection-trial","19","102447","0.0-13.0-0.0","976","false","img/card_backs/set1/yellow.gif","img/card_backs/set1/red.gif","img/card_backs/set1/green.gif","img/card_backs/set1/purple.gif","img/card_backs/set2/orange.gif","img/card_backs/set2/gray.gif","img/card_backs/set2/pink.gif","img/card_backs/set2/blue.gif","""event"",""trial"",""time""
""focus"",""0"",""0""
""fullscreenenter"",""1"",""3823""
","
","""event"",""trial"",""time""
""focus"",""0"",""0""
","""event"",""trial"",""time""
""fullscreenenter"",""1"",""3823""
","
","","692","","","","practice_card_selection","2021-08-07 21:44:07.934","img/practice_cards/backs/brown.gif","1","-100","","",""
"casino-keyboard-response","20","107278","0.0-14.0-0.0","976","false","img/card_backs/set1/yellow.gif","img/card_backs/set1/red.gif","img/card_backs/set1/green.gif","img/card_backs/set1/purple.gif","img/card_backs/set2/orange.gif","img/card_backs/set2/gray.gif","img/card_backs/set2/pink.gif","img/card_backs/set2/blue.gif","""event"",""trial"",""time""
""focus"",""0"",""0""
""fullscreenenter"",""1"",""3823""
","
","""event"",""trial"",""time""
""focus"",""0"",""0""
","""event"",""trial"",""time""
""fullscreenenter"",""1"",""3823""
","
","","4828","Finally, try pressing '8' to select the deck all the way on the right.","56","","instructions","2021-08-07 21:44:12.764","","","","","",""
"card-selection-trial","21","109917","0.0-15.0-0.0","976","false","img/card_backs/set1/yellow.gif","img/card_backs/set1/red.gif","img/card_backs/set1/green.gif","img/card_backs/set1/purple.gif","img/card_backs/set2/orange.gif","img/card_backs/set2/gray.gif","img/card_backs/set2/pink.gif","img/card_backs/set2/blue.gif","""event"",""trial"",""time""
""focus"",""0"",""0""
""fullscreenenter"",""1"",""3823""
","
","""event"",""trial"",""time""
""focus"",""0"",""0""
","""event"",""trial"",""time""
""fullscreenenter"",""1"",""3823""
","
","","631","","","","practice_card_selection","2021-08-07 21:44:15.403","img/practice_cards/backs/brown.gif","3","100","","",""
"casino-keyboard-response","22","113597","0.0-16.0-0.0","976","false","img/card_backs/set1/yellow.gif","img/card_backs/set1/red.gif","img/card_backs/set1/green.gif","img/card_backs/set1/purple.gif","img/card_backs/set2/orange.gif","img/card_backs/set2/gray.gif","img/card_backs/set2/pink.gif","img/card_backs/set2/blue.gif","""event"",""trial"",""time""
""focus"",""0"",""0""
""fullscreenenter"",""1"",""3823""
","
","""event"",""trial"",""time""
""focus"",""0"",""0""
","""event"",""trial"",""time""
""fullscreenenter"",""1"",""3823""
","
","","3679","Great! It seems like you are getting the hang of this.","80","","instructions","2021-08-07 21:44:19.083","","","","","",""
"casino-keyboard-response","23","121693","0.0-16.0-0.1","976","false","img/card_backs/set1/yellow.gif","img/card_backs/set1/red.gif","img/card_backs/set1/green.gif","img/card_backs/set1/purple.gif","img/card_backs/set2/orange.gif","img/card_backs/set2/gray.gif","img/card_backs/set2/pink.gif","img/card_backs/set2/blue.gif","""event"",""trial"",""time""
""focus"",""0"",""0""
""fullscreenenter"",""1"",""3823""
","
","""event"",""trial"",""time""
""focus"",""0"",""0""
","""event"",""trial"",""time""
""fullscreenenter"",""1"",""3823""
","
","","8094","You may have noticed that some cards will cause you to <b> win </b> tokens while other cards will cause you to <b> lose </b>  tokens.","70","","instructions","2021-08-07 21:44:27.179","","","","","",""
"casino-keyboard-response","24","130010","0.0-16.0-0.2","976","false","img/card_backs/set1/yellow.gif","img/card_backs/set1/red.gif","img/card_backs/set1/green.gif","img/card_backs/set1/purple.gif","img/card_backs/set2/orange.gif","img/card_backs/set2/gray.gif","img/card_backs/set2/pink.gif","img/card_backs/set2/blue.gif","""event"",""trial"",""time""
""focus"",""0"",""0""
""fullscreenenter"",""1"",""3823""
","
","""event"",""trial"",""time""
""focus"",""0"",""0""
","""event"",""trial"",""time""
""fullscreenenter"",""1"",""3823""
","
","","8318","Each deck has a mix of cards that will cause you to win and lose tokens. </br> However, the cards in each colored deck are different.","73","","instructions","2021-08-07 21:44:35.496","","","","","",""
"casino-keyboard-response","25","138325","0.0-16.0-0.3","976","false","img/card_backs/set1/yellow.gif","img/card_backs/set1/red.gif","img/card_backs/set1/green.gif","img/card_backs/set1/purple.gif","img/card_backs/set2/orange.gif","img/card_backs/set2/gray.gif","img/card_backs/set2/pink.gif","img/card_backs/set2/blue.gif","""event"",""trial"",""time""
""focus"",""0"",""0""
""fullscreenenter"",""1"",""3823""
","
","""event"",""trial"",""time""
""focus"",""0"",""0""
","""event"",""trial"",""time""
""fullscreenenter"",""1"",""3823""
","
","","8315","Some colored decks are luckier than others. </br> If you choose the lucky decks, you will earn more tokens than if you choose the unlucky decks.","69","","instructions","2021-08-07 21:44:43.812","","","","","",""
"casino-keyboard-response","26","145540","0.0-16.0-0.4","976","false","img/card_backs/set1/yellow.gif","img/card_backs/set1/red.gif","img/card_backs/set1/green.gif","img/card_backs/set1/purple.gif","img/card_backs/set2/orange.gif","img/card_backs/set2/gray.gif","img/card_backs/set2/pink.gif","img/card_backs/set2/blue.gif","""event"",""trial"",""time""
""focus"",""0"",""0""
""fullscreenenter"",""1"",""3823""
","
","""event"",""trial"",""time""
""focus"",""0"",""0""
","""event"",""trial"",""time""
""fullscreenenter"",""1"",""3823""
","
","","7213","You should try to figure out which decks are lucky. </br> Then, try to choose the lucky decks so you can win the most tokens.","87","","instructions","2021-08-07 21:44:51.026","","","","","",""
"casino-keyboard-response","27","157065","0.0-16.0-0.5","976","false","img/card_backs/set1/yellow.gif","img/card_backs/set1/red.gif","img/card_backs/set1/green.gif","img/card_backs/set1/purple.gif","img/card_backs/set2/orange.gif","img/card_backs/set2/gray.gif","img/card_backs/set2/pink.gif","img/card_backs/set2/blue.gif","""event"",""trial"",""time""
""focus"",""0"",""0""
""fullscreenenter"",""1"",""3823""
","
","""event"",""trial"",""time""
""focus"",""0"",""0""
","""event"",""trial"",""time""
""fullscreenenter"",""1"",""3823""
","
","","11524","To make it trickier, the casino dealer will switch the locations of the decks on every turn. </br> The color of the deck determines how lucky it is. The location does not matter.","88","","instructions","2021-08-07 21:45:02.551","","","","","",""
"casino-keyboard-response","28","169362","0.0-16.0-0.6","976","false","img/card_backs/set1/yellow.gif","img/card_backs/set1/red.gif","img/card_backs/set1/green.gif","img/card_backs/set1/purple.gif","img/card_backs/set2/orange.gif","img/card_backs/set2/gray.gif","img/card_backs/set2/pink.gif","img/card_backs/set2/blue.gif","""event"",""trial"",""time""
""focus"",""0"",""0""
""fullscreenenter"",""1"",""3823""
","
","""event"",""trial"",""time""
""focus"",""0"",""0""
","""event"",""trial"",""time""
""fullscreenenter"",""1"",""3823""
","
","","12296","The mix of cards in each colored deck will stay the same throughout the game. </br> That means that a deck that is lucky early on will stay lucky.","79","","instructions","2021-08-07 21:45:14.848","","","","","",""
"casino-keyboard-response","29","178027","0.0-16.0-0.7","976","false","img/card_backs/set1/yellow.gif","img/card_backs/set1/red.gif","img/card_backs/set1/green.gif","img/card_backs/set1/purple.gif","img/card_backs/set2/orange.gif","img/card_backs/set2/gray.gif","img/card_backs/set2/pink.gif","img/card_backs/set2/blue.gif","""event"",""trial"",""time""
""focus"",""0"",""0""
""fullscreenenter"",""1"",""3823""
","
","""event"",""trial"",""time""
""focus"",""0"",""0""
","""event"",""trial"",""time""
""fullscreenenter"",""1"",""3823""
","
","","8663","Remember though, all the decks have a <b> mix </b> of both <b> good </b> and <b> bad </b> cards so it may take a couple of turns to figure out if a deck is lucky.","69","","instructions","2021-08-07 21:45:23.513","","","","","",""
"casino-keyboard-response","30","186435","0.0-16.0-0.8","976","false","img/card_backs/set1/yellow.gif","img/card_backs/set1/red.gif","img/card_backs/set1/green.gif","img/card_backs/set1/purple.gif","img/card_backs/set2/orange.gif","img/card_backs/set2/gray.gif","img/card_backs/set2/pink.gif","img/card_backs/set2/blue.gif","""event"",""trial"",""time""
""focus"",""0"",""0""
""fullscreenenter"",""1"",""3823""
","
","""event"",""trial"",""time""
""focus"",""0"",""0""
","""event"",""trial"",""time""
""fullscreenenter"",""1"",""3823""
","
","","8406","At the end of the game, you will be paid bonus money based on how many tokens you win. </br> If you win more tokens, you will earn more money!","72","","instructions","2021-08-07 21:45:31.921","","","","","",""
"casino-keyboard-response","31","196748","0.0-16.0-0.9","976","false","img/card_backs/set1/yellow.gif","img/card_backs/set1/red.gif","img/card_backs/set1/green.gif","img/card_backs/set1/purple.gif","img/card_backs/set2/orange.gif","img/card_backs/set2/gray.gif","img/card_backs/set2/pink.gif","img/card_backs/set2/blue.gif","""event"",""trial"",""time""
""focus"",""0"",""0""
""fullscreenenter"",""1"",""3823""
","
","""event"",""trial"",""time""
""focus"",""0"",""0""
","""event"",""trial"",""time""
""fullscreenenter"",""1"",""3823""
","
","","10312","You will never <b> lose </b> money. </br> If you end up with fewer than 0 tokens, you will earn $0 of bonus money, but you will still be paid for playing the game.","83","","instructions","2021-08-07 21:45:42.234","","","","","",""
"casino-keyboard-response","32","200949","0.0-16.0-0.10","976","false","img/card_backs/set1/yellow.gif","img/card_backs/set1/red.gif","img/card_backs/set1/green.gif","img/card_backs/set1/purple.gif","img/card_backs/set2/orange.gif","img/card_backs/set2/gray.gif","img/card_backs/set2/pink.gif","img/card_backs/set2/blue.gif","""event"",""trial"",""time""
""focus"",""0"",""0""
""fullscreenenter"",""1"",""3823""
","
","""event"",""trial"",""time""
""focus"",""0"",""0""
","""event"",""trial"",""time""
""fullscreenenter"",""1"",""3823""
","
","","4200","You will have 10 seconds to make each choice.","82","","instructions","2021-08-07 21:45:46.435","","","","","",""
"casino-keyboard-response","33","209462","0.0-16.0-0.11","976","false","img/card_backs/set1/yellow.gif","img/card_backs/set1/red.gif","img/card_backs/set1/green.gif","img/card_backs/set1/purple.gif","img/card_backs/set2/orange.gif","img/card_backs/set2/gray.gif","img/card_backs/set2/pink.gif","img/card_backs/set2/blue.gif","""event"",""trial"",""time""
""focus"",""0"",""0""
""fullscreenenter"",""1"",""3823""
","
","""event"",""trial"",""time""
""focus"",""0"",""0""
","""event"",""trial"",""time""
""fullscreenenter"",""1"",""3823""
","
","","8513","Before you play the game for real, you will play with practice decks. </br> The tokens you earn during practice won't count toward your total.","86","","instructions","2021-08-07 21:45:54.948","","","","","",""
"casino-keyboard-response","34","220950","0.0-16.0-0.12","976","false","img/card_backs/set1/yellow.gif","img/card_backs/set1/red.gif","img/card_backs/set1/green.gif","img/card_backs/set1/purple.gif","img/card_backs/set2/orange.gif","img/card_backs/set2/gray.gif","img/card_backs/set2/pink.gif","img/card_backs/set2/blue.gif","""event"",""trial"",""time""
""focus"",""0"",""0""
""fullscreenenter"",""1"",""3823""
","
","""event"",""trial"",""time""
""focus"",""0"",""0""
","""event"",""trial"",""time""
""fullscreenenter"",""1"",""3823""
","
","","11487","Ready? Remember, use the '2', '4', '6', and '8' keys to select the decks. </br> Put your fingers on those keys now and then press '2' to begin.","50","","instructions","2021-08-07 21:46:06.436","","","","","",""
"casino-fixation","35","221455","0.0-17.0-0.0","976","false","img/card_backs/set1/yellow.gif","img/card_backs/set1/red.gif","img/card_backs/set1/green.gif","img/card_backs/set1/purple.gif","img/card_backs/set2/orange.gif","img/card_backs/set2/gray.gif","img/card_backs/set2/pink.gif","img/card_backs/set2/blue.gif","""event"",""trial"",""time""
""focus"",""0"",""0""
""fullscreenenter"",""1"",""3823""
","
","""event"",""trial"",""time""
""focus"",""0"",""0""
","""event"",""trial"",""time""
""fullscreenenter"",""1"",""3823""
","
","","null","","null","","fixation","2021-08-07 21:46:06.941","","","","","",""
"card-selection-trial","36","228684","0.0-17.0-1.0","976","false","img/card_backs/set1/yellow.gif","img/card_backs/set1/red.gif","img/card_backs/set1/green.gif","img/card_backs/set1/purple.gif","img/card_backs/set2/orange.gif","img/card_backs/set2/gray.gif","img/card_backs/set2/pink.gif","img/card_backs/set2/blue.gif","""event"",""trial"",""time""
""focus"",""0"",""0""
""fullscreenenter"",""1"",""3823""
","
","""event"",""trial"",""time""
""focus"",""0"",""0""
","""event"",""trial"",""time""
""fullscreenenter"",""1"",""3823""
","
","","5197","","","","practice","2021-08-07 21:46:14.170","img/practice_cards/backs/black.gif","3","100","0","",""
"casino-fixation","37","229199","0.0-17.0-0.1","976","false","img/card_backs/set1/yellow.gif","img/card_backs/set1/red.gif","img/card_backs/set1/green.gif","img/card_backs/set1/purple.gif","img/card_backs/set2/orange.gif","img/card_backs/set2/gray.gif","img/card_backs/set2/pink.gif","img/card_backs/set2/blue.gif","""event"",""trial"",""time""
""focus"",""0"",""0""
""fullscreenenter"",""1"",""3823""
","
","""event"",""trial"",""time""
""focus"",""0"",""0""
","""event"",""trial"",""time""
""fullscreenenter"",""1"",""3823""
","
","","null","","null","","fixation","2021-08-07 21:46:14.685","","","","","",""
"card-selection-trial","38","235139","0.0-17.0-1.1","976","false","img/card_backs/set1/yellow.gif","img/card_backs/set1/red.gif","img/card_backs/set1/green.gif","img/card_backs/set1/purple.gif","img/card_backs/set2/orange.gif","img/card_backs/set2/gray.gif","img/card_backs/set2/pink.gif","img/card_backs/set2/blue.gif","""event"",""trial"",""time""
""focus"",""0"",""0""
""fullscreenenter"",""1"",""3823""
","
","""event"",""trial"",""time""
""focus"",""0"",""0""
","""event"",""trial"",""time""
""fullscreenenter"",""1"",""3823""
","
","","3921","","","","practice","2021-08-07 21:46:20.625","img/practice_cards/backs/black.gif","1","-100","0","",""
"casino-fixation","39","235641","0.0-17.0-0.2","976","false","img/card_backs/set1/yellow.gif","img/card_backs/set1/red.gif","img/card_backs/set1/green.gif","img/card_backs/set1/purple.gif","img/card_backs/set2/orange.gif","img/card_backs/set2/gray.gif","img/card_backs/set2/pink.gif","img/card_backs/set2/blue.gif","""event"",""trial"",""time""
""focus"",""0"",""0""
""fullscreenenter"",""1"",""3823""
","
","""event"",""trial"",""time""
""focus"",""0"",""0""
","""event"",""trial"",""time""
""fullscreenenter"",""1"",""3823""
","
","","null","","null","","fixation","2021-08-07 21:46:21.127","","","","","",""
"card-selection-trial","40","244495","0.0-17.0-1.2","976","false","img/card_backs/set1/yellow.gif","img/card_backs/set1/red.gif","img/card_backs/set1/green.gif","img/card_backs/set1/purple.gif","img/card_backs/set2/orange.gif","img/card_backs/set2/gray.gif","img/card_backs/set2/pink.gif","img/card_backs/set2/blue.gif","""event"",""trial"",""time""
""focus"",""0"",""0""
""fullscreenenter"",""1"",""3823""
","
","""event"",""trial"",""time""
""focus"",""0"",""0""
","""event"",""trial"",""time""
""fullscreenenter"",""1"",""3823""
","
","","6840","","","","practice","2021-08-07 21:46:29.981","img/practice_cards/backs/dark_blue.gif","3","-200","0","",""
"casino-fixation","41","245011","0.0-17.0-0.3","976","false","img/card_backs/set1/yellow.gif","img/card_backs/set1/red.gif","img/card_backs/set1/green.gif","img/card_backs/set1/purple.gif","img/card_backs/set2/orange.gif","img/card_backs/set2/gray.gif","img/card_backs/set2/pink.gif","img/card_backs/set2/blue.gif","""event"",""trial"",""time""
""focus"",""0"",""0""
""fullscreenenter"",""1"",""3823""
","
","""event"",""trial"",""time""
""focus"",""0"",""0""
","""event"",""trial"",""time""
""fullscreenenter"",""1"",""3823""
","
","","null","","null","","fixation","2021-08-07 21:46:30.497","","","","","",""
"card-selection-trial","42","250262","0.0-17.0-1.3","976","false","img/card_backs/set1/yellow.gif","img/card_backs/set1/red.gif","img/card_backs/set1/green.gif","img/card_backs/set1/purple.gif","img/card_backs/set2/orange.gif","img/card_backs/set2/gray.gif","img/card_backs/set2/pink.gif","img/card_backs/set2/blue.gif","""event"",""trial"",""time""
""focus"",""0"",""0""
""fullscreenenter"",""1"",""3823""
","
","""event"",""trial"",""time""
""focus"",""0"",""0""
","""event"",""trial"",""time""
""fullscreenenter"",""1"",""3823""
","
","","3239","","","","practice","2021-08-07 21:46:35.748","img/practice_cards/backs/brown.gif","2","100","0","",""
"casino-fixation","43","250775","0.0-17.0-0.4","976","false","img/card_backs/set1/yellow.gif","img/card_backs/set1/red.gif","img/card_backs/set1/green.gif","img/card_backs/set1/purple.gif","img/card_backs/set2/orange.gif","img/card_backs/set2/gray.gif","img/card_backs/set2/pink.gif","img/card_backs/set2/blue.gif","""event"",""trial"",""time""
""focus"",""0"",""0""
""fullscreenenter"",""1"",""3823""
","
","""event"",""trial"",""time""
""focus"",""0"",""0""
","""event"",""trial"",""time""
""fullscreenenter"",""1"",""3823""
","
","","null","","null","","fixation","2021-08-07 21:46:36.261","","","","","",""
"card-selection-trial","44","254154","0.0-17.0-1.4","976","false","img/card_backs/set1/yellow.gif","img/card_backs/set1/red.gif","img/card_backs/set1/green.gif","img/card_backs/set1/purple.gif","img/card_backs/set2/orange.gif","img/card_backs/set2/gray.gif","img/card_backs/set2/pink.gif","img/card_backs/set2/blue.gif","""event"",""trial"",""time""
""focus"",""0"",""0""
""fullscreenenter"",""1"",""3823""
","
","""event"",""trial"",""time""
""focus"",""0"",""0""
","""event"",""trial"",""time""
""fullscreenenter"",""1"",""3823""
","
","","1360","","","","practice","2021-08-07 21:46:39.640","img/practice_cards/backs/brown.gif","0","100","0","",""
"casino-fixation","45","254659","0.0-17.0-0.5","976","false","img/card_backs/set1/yellow.gif","img/card_backs/set1/red.gif","img/card_backs/set1/green.gif","img/card_backs/set1/purple.gif","img/card_backs/set2/orange.gif","img/card_backs/set2/gray.gif","img/card_backs/set2/pink.gif","img/card_backs/set2/blue.gif","""event"",""trial"",""time""
""focus"",""0"",""0""
""fullscreenenter"",""1"",""3823""
","
","""event"",""trial"",""time""
""focus"",""0"",""0""
","""event"",""trial"",""time""
""fullscreenenter"",""1"",""3823""
","
","","null","","null","","fixation","2021-08-07 21:46:40.145","","","","","",""
"card-selection-trial","46","258967","0.0-17.0-1.5","976","false","img/card_backs/set1/yellow.gif","img/card_backs/set1/red.gif","img/card_backs/set1/green.gif","img/card_backs/set1/purple.gif","img/card_backs/set2/orange.gif","img/card_backs/set2/gray.gif","img/card_backs/set2/pink.gif","img/card_backs/set2/blue.gif","""event"",""trial"",""time""
""focus"",""0"",""0""
""fullscreenenter"",""1"",""3823""
","
","""event"",""trial"",""time""
""focus"",""0"",""0""
","""event"",""trial"",""time""
""fullscreenenter"",""1"",""3823""
","
","","2290","","","","practice","2021-08-07 21:46:44.453","img/practice_cards/backs/dark_green.gif","3","200","0","",""
"casino-fixation","47","259470","0.0-17.0-0.6","976","false","img/card_backs/set1/yellow.gif","img/card_backs/set1/red.gif","img/card_backs/set1/green.gif","img/card_backs/set1/purple.gif","img/card_backs/set2/orange.gif","img/card_backs/set2/gray.gif","img/card_backs/set2/pink.gif","img/card_backs/set2/blue.gif","""event"",""trial"",""time""
""focus"",""0"",""0""
""fullscreenenter"",""1"",""3823""
","
","""event"",""trial"",""time""
""focus"",""0"",""0""
","""event"",""trial"",""time""
""fullscreenenter"",""1"",""3823""
","
","","null","","null","","fixation","2021-08-07 21:46:44.956","","","","","",""
"card-selection-trial","48","262570","0.0-17.0-1.6","976","false","img/card_backs/set1/yellow.gif","img/card_backs/set1/red.gif","img/card_backs/set1/green.gif","img/card_backs/set1/purple.gif","img/card_backs/set2/orange.gif","img/card_backs/set2/gray.gif","img/card_backs/set2/pink.gif","img/card_backs/set2/blue.gif","""event"",""trial"",""time""
""focus"",""0"",""0""
""fullscreenenter"",""1"",""3823""
","
","""event"",""trial"",""time""
""focus"",""0"",""0""
","""event"",""trial"",""time""
""fullscreenenter"",""1"",""3823""
","
","","1078","","","","practice","2021-08-07 21:46:48.057","img/practice_cards/backs/dark_green.gif","1","-200","0","",""
"casino-fixation","49","263087","0.0-17.0-0.7","976","false","img/card_backs/set1/yellow.gif","img/card_backs/set1/red.gif","img/card_backs/set1/green.gif","img/card_backs/set1/purple.gif","img/card_backs/set2/orange.gif","img/card_backs/set2/gray.gif","img/card_backs/set2/pink.gif","img/card_backs/set2/blue.gif","""event"",""trial"",""time""
""focus"",""0"",""0""
""fullscreenenter"",""1"",""3823""
","
","""event"",""trial"",""time""
""focus"",""0"",""0""
","""event"",""trial"",""time""
""fullscreenenter"",""1"",""3823""
","
","","null","","null","","fixation","2021-08-07 21:46:48.573","","","","","",""
"card-selection-trial","50","268408","0.0-17.0-1.7","976","false","img/card_backs/set1/yellow.gif","img/card_backs/set1/red.gif","img/card_backs/set1/green.gif","img/card_backs/set1/purple.gif","img/card_backs/set2/orange.gif","img/card_backs/set2/gray.gif","img/card_backs/set2/pink.gif","img/card_backs/set2/blue.gif","""event"",""trial"",""time""
""focus"",""0"",""0""
""fullscreenenter"",""1"",""3823""
","
","""event"",""trial"",""time""
""focus"",""0"",""0""
","""event"",""trial"",""time""
""fullscreenenter"",""1"",""3823""
","
","","3315","","","","practice","2021-08-07 21:46:53.894","img/practice_cards/backs/brown.gif","3","100","0","",""
"casino-fixation","51","268909","0.0-17.0-0.8","976","false","img/card_backs/set1/yellow.gif","img/card_backs/set1/red.gif","img/card_backs/set1/green.gif","img/card_backs/set1/purple.gif","img/card_backs/set2/orange.gif","img/card_backs/set2/gray.gif","img/card_backs/set2/pink.gif","img/card_backs/set2/blue.gif","""event"",""trial"",""time""
""focus"",""0"",""0""
""fullscreenenter"",""1"",""3823""
","
","""event"",""trial"",""time""
""focus"",""0"",""0""
","""event"",""trial"",""time""
""fullscreenenter"",""1"",""3823""
","
","","null","","null","","fixation","2021-08-07 21:46:54.395","","","","","",""
"card-selection-trial","52","271734","0.0-17.0-1.8","976","false","img/card_backs/set1/yellow.gif","img/card_backs/set1/red.gif","img/card_backs/set1/green.gif","img/card_backs/set1/purple.gif","img/card_backs/set2/orange.gif","img/card_backs/set2/gray.gif","img/card_backs/set2/pink.gif","img/card_backs/set2/blue.gif","""event"",""trial"",""time""
""focus"",""0"",""0""
""fullscreenenter"",""1"",""3823""
","
","""event"",""trial"",""time""
""focus"",""0"",""0""
","""event"",""trial"",""time""
""fullscreenenter"",""1"",""3823""
","
","","815","","","","practice","2021-08-07 21:46:57.220","img/practice_cards/backs/brown.gif","3","-100","0","",""
"casino-fixation","53","272249","0.0-17.0-0.9","976","false","img/card_backs/set1/yellow.gif","img/card_backs/set1/red.gif","img/card_backs/set1/green.gif","img/card_backs/set1/purple.gif","img/card_backs/set2/orange.gif","img/card_backs/set2/gray.gif","img/card_backs/set2/pink.gif","img/card_backs/set2/blue.gif","""event"",""trial"",""time""
""focus"",""0"",""0""
""fullscreenenter"",""1"",""3823""
","
","""event"",""trial"",""time""
""focus"",""0"",""0""
","""event"",""trial"",""time""
""fullscreenenter"",""1"",""3823""
","
","","null","","null","","fixation","2021-08-07 21:46:57.735","","","","","",""
"card-selection-trial","54","275758","0.0-17.0-1.9","976","false","img/card_backs/set1/yellow.gif","img/card_backs/set1/red.gif","img/card_backs/set1/green.gif","img/card_backs/set1/purple.gif","img/card_backs/set2/orange.gif","img/card_backs/set2/gray.gif","img/card_backs/set2/pink.gif","img/card_backs/set2/blue.gif","""event"",""trial"",""time""
""focus"",""0"",""0""
""fullscreenenter"",""1"",""3823""
","
","""event"",""trial"",""time""
""focus"",""0"",""0""
","""event"",""trial"",""time""
""fullscreenenter"",""1"",""3823""
","
","","1498","","","","practice","2021-08-07 21:47:01.244","img/practice_cards/backs/dark_green.gif","2","-200","0","",""
"casino-keyboard-response","55","278914","0.0-18.0","976","false","img/card_backs/set1/yellow.gif","img/card_backs/set1/red.gif","img/card_backs/set1/green.gif","img/card_backs/set1/purple.gif","img/card_backs/set2/orange.gif","img/card_backs/set2/gray.gif","img/card_backs/set2/pink.gif","img/card_backs/set2/blue.gif","""event"",""trial"",""time""
""focus"",""0"",""0""
""fullscreenenter"",""1"",""3823""
","
","""event"",""trial"",""time""
""focus"",""0"",""0""
","""event"",""trial"",""time""
""fullscreenenter"",""1"",""3823""
","
","","3155","You earned -200 tokens during the practice round!","82","","","2021-08-07 21:47:04.400","","","","","",""
"casino-keyboard-response","56","283291","0.0-19.0-0.0","976","false","img/card_backs/set1/yellow.gif","img/card_backs/set1/red.gif","img/card_backs/set1/green.gif","img/card_backs/set1/purple.gif","img/card_backs/set2/orange.gif","img/card_backs/set2/gray.gif","img/card_backs/set2/pink.gif","img/card_backs/set2/blue.gif","""event"",""trial"",""time""
""focus"",""0"",""0""
""fullscreenenter"",""1"",""3823""
","
","""event"",""trial"",""time""
""focus"",""0"",""0""
","""event"",""trial"",""time""
""fullscreenenter"",""1"",""3823""
","
","","4376","Nice job! You are almost ready to play the real game.","86","","instructions","2021-08-07 21:47:08.777","","","","","",""
"casino-keyboard-response","57","290043","0.0-19.0-0.1","976","false","img/card_backs/set1/yellow.gif","img/card_backs/set1/red.gif","img/card_backs/set1/green.gif","img/card_backs/set1/purple.gif","img/card_backs/set2/orange.gif","img/card_backs/set2/gray.gif","img/card_backs/set2/pink.gif","img/card_backs/set2/blue.gif","""event"",""trial"",""time""
""focus"",""0"",""0""
""fullscreenenter"",""1"",""3823""
","
","""event"",""trial"",""time""
""focus"",""0"",""0""
","""event"",""trial"",""time""
""fullscreenenter"",""1"",""3823""
","
","","6751","You will play two rounds of the real game. In each round, you will pick 100 cards in total.","73","","instructions","2021-08-07 21:47:15.529","","","","","",""
"casino-keyboard-response","58","294117","0.0-19.0-0.2","976","false","img/card_backs/set1/yellow.gif","img/card_backs/set1/red.gif","img/card_backs/set1/green.gif","img/card_backs/set1/purple.gif","img/card_backs/set2/orange.gif","img/card_backs/set2/gray.gif","img/card_backs/set2/pink.gif","img/card_backs/set2/blue.gif","""event"",""trial"",""time""
""focus"",""0"",""0""
""fullscreenenter"",""1"",""3823""
","
","""event"",""trial"",""time""
""focus"",""0"",""0""
","""event"",""trial"",""time""
""fullscreenenter"",""1"",""3823""
","
","","4072","We are now going to ask you some questions about how the game works.","66","","instructions","2021-08-07 21:47:19.603","","","","","",""
"casino-keyboard-response","59","300350","0.0-19.0-0.3","976","false","img/card_backs/set1/yellow.gif","img/card_backs/set1/red.gif","img/card_backs/set1/green.gif","img/card_backs/set1/purple.gif","img/card_backs/set2/orange.gif","img/card_backs/set2/gray.gif","img/card_backs/set2/pink.gif","img/card_backs/set2/blue.gif","""event"",""trial"",""time""
""focus"",""0"",""0""
""fullscreenenter"",""1"",""3823""
","
","""event"",""trial"",""time""
""focus"",""0"",""0""
","""event"",""trial"",""time""
""fullscreenenter"",""1"",""3823""
","
","","6231","Answer carefully. You will not be able to begin the game until you answer them correctly.","67","","instructions","2021-08-07 21:47:25.837","","","","","",""
"casino-comp_q","60","307391","0.0-20.0-0.0","976","false","img/card_backs/set1/yellow.gif","img/card_backs/set1/red.gif","img/card_backs/set1/green.gif","img/card_backs/set1/purple.gif","img/card_backs/set2/orange.gif","img/card_backs/set2/gray.gif","img/card_backs/set2/pink.gif","img/card_backs/set2/blue.gif","""event"",""trial"",""time""
""focus"",""0"",""0""
""fullscreenenter"",""1"",""3823""
","
","""event"",""trial"",""time""
""focus"",""0"",""0""
","""event"",""trial"",""time""
""fullscreenenter"",""1"",""3823""
","
","","7040","True or False: All the decks have some cards that cause you to win tokens and some cards that cause you to lose tokens.","84","","","2021-08-07 21:47:32.878","","","","","",""
"casino-keyboard-response","61","311369","0.0-20.0-1.0","976","false","img/card_backs/set1/yellow.gif","img/card_backs/set1/red.gif","img/card_backs/set1/green.gif","img/card_backs/set1/purple.gif","img/card_backs/set2/orange.gif","img/card_backs/set2/gray.gif","img/card_backs/set2/pink.gif","img/card_backs/set2/blue.gif","""event"",""trial"",""time""
""focus"",""0"",""0""
""fullscreenenter"",""1"",""3823""
","
","""event"",""trial"",""time""
""focus"",""0"",""0""
","""event"",""trial"",""time""
""fullscreenenter"",""1"",""3823""
","
","","3977","True is correct! All the decks have a mix of winning and losing cards.","77","","","2021-08-07 21:47:36.855","","","","","true",""
"casino-comp_q","62","316641","0.0-21.0-0.0","976","false","img/card_backs/set1/yellow.gif","img/card_backs/set1/red.gif","img/card_backs/set1/green.gif","img/card_backs/set1/purple.gif","img/card_backs/set2/orange.gif","img/card_backs/set2/gray.gif","img/card_backs/set2/pink.gif","img/card_backs/set2/blue.gif","""event"",""trial"",""time""
""focus"",""0"",""0""
""fullscreenenter"",""1"",""3823""
","
","""event"",""trial"",""time""
""focus"",""0"",""0""
","""event"",""trial"",""time""
""fullscreenenter"",""1"",""3823""
","
","","5270","True or False: You will have as much time as you want to make your response.","70","","","2021-08-07 21:47:42.127","","","","","",""
"casino-keyboard-response","63","319742","0.0-21.0-1.0","976","false","img/card_backs/set1/yellow.gif","img/card_backs/set1/red.gif","img/card_backs/set1/green.gif","img/card_backs/set1/purple.gif","img/card_backs/set2/orange.gif","img/card_backs/set2/gray.gif","img/card_backs/set2/pink.gif","img/card_backs/set2/blue.gif","""event"",""trial"",""time""
""focus"",""0"",""0""
""fullscreenenter"",""1"",""3823""
","
","""event"",""trial"",""time""
""focus"",""0"",""0""
","""event"",""trial"",""time""
""fullscreenenter"",""1"",""3823""
","
","","3101","False is correct! You will only have 10 seconds to make each choice.","75","","","2021-08-07 21:47:45.228","","","","","true",""
"casino-comp_q","64","324743","0.0-22.0-0.0","976","false","img/card_backs/set1/yellow.gif","img/card_backs/set1/red.gif","img/card_backs/set1/green.gif","img/card_backs/set1/purple.gif","img/card_backs/set2/orange.gif","img/card_backs/set2/gray.gif","img/card_backs/set2/pink.gif","img/card_backs/set2/blue.gif","""event"",""trial"",""time""
""focus"",""0"",""0""
""fullscreenenter"",""1"",""3823""
","
","""event"",""trial"",""time""
""focus"",""0"",""0""
","""event"",""trial"",""time""
""fullscreenenter"",""1"",""3823""
","
","","5000","True or False: The location of the deck determines how lucky it is.","70","","","2021-08-07 21:47:50.229","","","","","",""
"casino-keyboard-response","65","327434","0.0-22.0-1.0","976","false","img/card_backs/set1/yellow.gif","img/card_backs/set1/red.gif","img/card_backs/set1/green.gif","img/card_backs/set1/purple.gif","img/card_backs/set2/orange.gif","img/card_backs/set2/gray.gif","img/card_backs/set2/pink.gif","img/card_backs/set2/blue.gif","""event"",""trial"",""time""
""focus"",""0"",""0""
""fullscreenenter"",""1"",""3823""
","
","""event"",""trial"",""time""
""focus"",""0"",""0""
","""event"",""trial"",""time""
""fullscreenenter"",""1"",""3823""
","
","","2690","False is correct! The <i>color</i>  of the deck determines how lucky or unlucky it is.","68","","","2021-08-07 21:47:52.920","","","","","true",""
"casino-keyboard-response","66","332362","0.0-23.0-0.0","976","false","img/card_backs/set1/yellow.gif","img/card_backs/set1/red.gif","img/card_backs/set1/green.gif","img/card_backs/set1/purple.gif","img/card_backs/set2/orange.gif","img/card_backs/set2/gray.gif","img/card_backs/set2/pink.gif","img/card_backs/set2/blue.gif","""event"",""trial"",""time""
""focus"",""0"",""0""
""fullscreenenter"",""1"",""3823""
","
","""event"",""trial"",""time""
""focus"",""0"",""0""
","""event"",""trial"",""time""
""fullscreenenter"",""1"",""3823""
","
","","4925","Great job! Now it's time to start the real game.","82","","instructions","2021-08-07 21:47:57.848","","","","","",""
"casino-keyboard-response","67","337503","0.0-23.0-0.1","976","false","img/card_backs/set1/yellow.gif","img/card_backs/set1/red.gif","img/card_backs/set1/green.gif","img/card_backs/set1/purple.gif","img/card_backs/set2/orange.gif","img/card_backs/set2/gray.gif","img/card_backs/set2/pink.gif","img/card_backs/set2/blue.gif","""event"",""trial"",""time""
""focus"",""0"",""0""
""fullscreenenter"",""1"",""3823""
","
","""event"",""trial"",""time""
""focus"",""0"",""0""
","""event"",""trial"",""time""
""fullscreenenter"",""1"",""3823""
","
","","5139","Before we start, we're going to head into a new room of the casino.","86","","instructions","2021-08-07 21:48:02.989","","","","","",""
"casino-keyboard-response","68","344045","0.0-24.0-0.0","976","false","img/card_backs/set1/yellow.gif","img/card_backs/set1/red.gif","img/card_backs/set1/green.gif","img/card_backs/set1/purple.gif","img/card_backs/set2/orange.gif","img/card_backs/set2/gray.gif","img/card_backs/set2/pink.gif","img/card_backs/set2/blue.gif","""event"",""trial"",""time""
""focus"",""0"",""0""
""fullscreenenter"",""1"",""3823""
","
","""event"",""trial"",""time""
""focus"",""0"",""0""
","""event"",""trial"",""time""
""fullscreenenter"",""1"",""3823""
","
","","6541","Here we are! The real game will use different cards, but the rules will be the same.","71","","instructions","2021-08-07 21:48:09.531","","","","","",""
"casino-keyboard-response","69","354110","0.0-24.0-0.1","976","false","img/card_backs/set1/yellow.gif","img/card_backs/set1/red.gif","img/card_backs/set1/green.gif","img/card_backs/set1/purple.gif","img/card_backs/set2/orange.gif","img/card_backs/set2/gray.gif","img/card_backs/set2/pink.gif","img/card_backs/set2/blue.gif","""event"",""trial"",""time""
""focus"",""0"",""0""
""fullscreenenter"",""1"",""3823""
","
","""event"",""trial"",""time""
""focus"",""0"",""0""
","""event"",""trial"",""time""
""fullscreenenter"",""1"",""3823""
","
","","10064","Ready? Put your fingers over the '2', '4', 6', and '8' keys so you are ready to play the game. </br> Then press 2 to start.","50","","instructions","2021-08-07 21:48:19.596","","","","","",""
"casino-fixation","70","354617","0.0-25.0-0.0","976","false","img/card_backs/set1/yellow.gif","img/card_backs/set1/red.gif","img/card_backs/set1/green.gif","img/card_backs/set1/purple.gif","img/card_backs/set2/orange.gif","img/card_backs/set2/gray.gif","img/card_backs/set2/pink.gif","img/card_backs/set2/blue.gif","""event"",""trial"",""time""
""focus"",""0"",""0""
""fullscreenenter"",""1"",""3823""
","
","""event"",""trial"",""time""
""focus"",""0"",""0""
","""event"",""trial"",""time""
""fullscreenenter"",""1"",""3823""
","
","","null","","null","","fixation","2021-08-07 21:48:20.103","","","","","",""
"card-selection-trial","71","359455","0.0-25.0-1.0","976","false","img/card_backs/set1/yellow.gif","img/card_backs/set1/red.gif","img/card_backs/set1/green.gif","img/card_backs/set1/purple.gif","img/card_backs/set2/orange.gif","img/card_backs/set2/gray.gif","img/card_backs/set2/pink.gif","img/card_backs/set2/blue.gif","""event"",""trial"",""time""
""focus"",""0"",""0""
""fullscreenenter"",""1"",""3823""
","
","""event"",""trial"",""time""
""focus"",""0"",""0""
","""event"",""trial"",""time""
""fullscreenenter"",""1"",""3823""
","
","","2832","","","","real_trial","2021-08-07 21:48:24.941","img/card_backs/set1/purple.gif","1","-70","1","",""
"casino-fixation","72","359958","0.0-25.0-0.1","976","false","img/card_backs/set1/yellow.gif","img/card_backs/set1/red.gif","img/card_backs/set1/green.gif","img/card_backs/set1/purple.gif","img/card_backs/set2/orange.gif","img/card_backs/set2/gray.gif","img/card_backs/set2/pink.gif","img/card_backs/set2/blue.gif","""event"",""trial"",""time""
""focus"",""0"",""0""
""fullscreenenter"",""1"",""3823""
","
","""event"",""trial"",""time""
""focus"",""0"",""0""
","""event"",""trial"",""time""
""fullscreenenter"",""1"",""3823""
","
","","null","","null","","fixation","2021-08-07 21:48:25.445","","","","","",""
"card-selection-trial","73","363413","0.0-25.0-1.1","976","false","img/card_backs/set1/yellow.gif","img/card_backs/set1/red.gif","img/card_backs/set1/green.gif","img/card_backs/set1/purple.gif","img/card_backs/set2/orange.gif","img/card_backs/set2/gray.gif","img/card_backs/set2/pink.gif","img/card_backs/set2/blue.gif","""event"",""trial"",""time""
""focus"",""0"",""0""
""fullscreenenter"",""1"",""3823""
","
","""event"",""trial"",""time""
""focus"",""0"",""0""
","""event"",""trial"",""time""
""fullscreenenter"",""1"",""3823""
","
","","1429","","","","real_trial","2021-08-07 21:48:28.899","img/card_backs/set1/red.gif","3","-230","1","",""
"casino-fixation","74","363927","0.0-25.0-0.2","976","false","img/card_backs/set1/yellow.gif","img/card_backs/set1/red.gif","img/card_backs/set1/green.gif","img/card_backs/set1/purple.gif","img/card_backs/set2/orange.gif","img/card_backs/set2/gray.gif","img/card_backs/set2/pink.gif","img/card_backs/set2/blue.gif","""event"",""trial"",""time""
""focus"",""0"",""0""
""fullscreenenter"",""1"",""3823""
","
","""event"",""trial"",""time""
""focus"",""0"",""0""
","""event"",""trial"",""time""
""fullscreenenter"",""1"",""3823""
","
","","null","","null","","fixation","2021-08-07 21:48:29.413","","","","","",""
"card-selection-trial","75","367324","0.0-25.0-1.2","976","false","img/card_backs/set1/yellow.gif","img/card_backs/set1/red.gif","img/card_backs/set1/green.gif","img/card_backs/set1/purple.gif","img/card_backs/set2/orange.gif","img/card_backs/set2/gray.gif","img/card_backs/set2/pink.gif","img/card_backs/set2/blue.gif","""event"",""trial"",""time""
""focus"",""0"",""0""
""fullscreenenter"",""1"",""3823""
","
","""event"",""trial"",""time""
""focus"",""0"",""0""
","""event"",""trial"",""time""
""fullscreenenter"",""1"",""3823""
","
","","1378","","","","real_trial","2021-08-07 21:48:32.810","img/card_backs/set1/yellow.gif","0","200","1","",""
"casino-fixation","76","367838","0.0-25.0-0.3","976","false","img/card_backs/set1/yellow.gif","img/card_backs/set1/red.gif","img/card_backs/set1/green.gif","img/card_backs/set1/purple.gif","img/card_backs/set2/orange.gif","img/card_backs/set2/gray.gif","img/card_backs/set2/pink.gif","img/card_backs/set2/blue.gif","""event"",""trial"",""time""
""focus"",""0"",""0""
""fullscreenenter"",""1"",""3823""
","
","""event"",""trial"",""time""
""focus"",""0"",""0""
","""event"",""trial"",""time""
""fullscreenenter"",""1"",""3823""
","
","","null","","null","","fixation","2021-08-07 21:48:33.324","","","","","",""
"card-selection-trial","77","371936","0.0-25.0-1.3","976","false","img/card_backs/set1/yellow.gif","img/card_backs/set1/red.gif","img/card_backs/set1/green.gif","img/card_backs/set1/purple.gif","img/card_backs/set2/orange.gif","img/card_backs/set2/gray.gif","img/card_backs/set2/pink.gif","img/card_backs/set2/blue.gif","""event"",""trial"",""time""
""focus"",""0"",""0""
""fullscreenenter"",""1"",""3823""
","
","""event"",""trial"",""time""
""focus"",""0"",""0""
","""event"",""trial"",""time""
""fullscreenenter"",""1"",""3823""
","
","","2094","","","","real_trial","2021-08-07 21:48:37.422","img/card_backs/set1/purple.gif","2","120","1","",""
"casino-fixation","78","372443","0.0-25.0-0.4","976","false","img/card_backs/set1/yellow.gif","img/card_backs/set1/red.gif","img/card_backs/set1/green.gif","img/card_backs/set1/purple.gif","img/card_backs/set2/orange.gif","img/card_backs/set2/gray.gif","img/card_backs/set2/pink.gif","img/card_backs/set2/blue.gif","""event"",""trial"",""time""
""focus"",""0"",""0""
""fullscreenenter"",""1"",""3823""
","
","""event"",""trial"",""time""
""focus"",""0"",""0""
","""event"",""trial"",""time""
""fullscreenenter"",""1"",""3823""
","
","","null","","null","","fixation","2021-08-07 21:48:37.929","","","","","",""
"card-selection-trial","79","377145","0.0-25.0-1.4","976","false","img/card_backs/set1/yellow.gif","img/card_backs/set1/red.gif","img/card_backs/set1/green.gif","img/card_backs/set1/purple.gif","img/card_backs/set2/orange.gif","img/card_backs/set2/gray.gif","img/card_backs/set2/pink.gif","img/card_backs/set2/blue.gif","""event"",""trial"",""time""
""focus"",""0"",""0""
""fullscreenenter"",""1"",""3823""
","
","""event"",""trial"",""time""
""focus"",""0"",""0""
","""event"",""trial"",""time""
""fullscreenenter"",""1"",""3823""
","
","","2689","","","","real_trial","2021-08-07 21:48:42.631","img/card_backs/set1/green.gif","0","-70","1","",""
"casino-fixation","80","377652","0.0-25.0-0.5","976","false","img/card_backs/set1/yellow.gif","img/card_backs/set1/red.gif","img/card_backs/set1/green.gif","img/card_backs/set1/purple.gif","img/card_backs/set2/orange.gif","img/card_backs/set2/gray.gif","img/card_backs/set2/pink.gif","img/card_backs/set2/blue.gif","""event"",""trial"",""time""
""focus"",""0"",""0""
""fullscreenenter"",""1"",""3823""
","
","""event"",""trial"",""time""
""focus"",""0"",""0""
","""event"",""trial"",""time""
""fullscreenenter"",""1"",""3823""
","
","","null","","null","","fixation","2021-08-07 21:48:43.138","","","","","",""
"card-selection-trial","81","380611","0.0-25.0-1.5","976","false","img/card_backs/set1/yellow.gif","img/card_backs/set1/red.gif","img/card_backs/set1/green.gif","img/card_backs/set1/purple.gif","img/card_backs/set2/orange.gif","img/card_backs/set2/gray.gif","img/card_backs/set2/pink.gif","img/card_backs/set2/blue.gif","""event"",""trial"",""time""
""focus"",""0"",""0""
""fullscreenenter"",""1"",""3823""
","
","""event"",""trial"",""time""
""focus"",""0"",""0""
","""event"",""trial"",""time""
""fullscreenenter"",""1"",""3823""
","
","","948","","","","real_trial","2021-08-07 21:48:46.097","img/card_backs/set1/yellow.gif","0","-230","1","",""
"casino-fixation","82","381119","0.0-25.0-0.6","976","false","img/card_backs/set1/yellow.gif","img/card_backs/set1/red.gif","img/card_backs/set1/green.gif","img/card_backs/set1/purple.gif","img/card_backs/set2/orange.gif","img/card_backs/set2/gray.gif","img/card_backs/set2/pink.gif","img/card_backs/set2/blue.gif","""event"",""trial"",""time""
""focus"",""0"",""0""
""fullscreenenter"",""1"",""3823""
","
","""event"",""trial"",""time""
""focus"",""0"",""0""
","""event"",""trial"",""time""
""fullscreenenter"",""1"",""3823""
","
","","null","","null","","fixation","2021-08-07 21:48:46.606","","","","","",""
"card-selection-trial","83","384910","0.0-25.0-1.6","976","false","img/card_backs/set1/yellow.gif","img/card_backs/set1/red.gif","img/card_backs/set1/green.gif","img/card_backs/set1/purple.gif","img/card_backs/set2/orange.gif","img/card_backs/set2/gray.gif","img/card_backs/set2/pink.gif","img/card_backs/set2/blue.gif","""event"",""trial"",""time""
""focus"",""0"",""0""
""fullscreenenter"",""1"",""3823""
","
","""event"",""trial"",""time""
""focus"",""0"",""0""
","""event"",""trial"",""time""
""fullscreenenter"",""1"",""3823""
","
","","1773","","","","real_trial","2021-08-07 21:48:50.396","img/card_backs/set1/purple.gif","0","-60","1","",""
"casino-fixation","84","385418","0.0-25.0-0.7","976","false","img/card_backs/set1/yellow.gif","img/card_backs/set1/red.gif","img/card_backs/set1/green.gif","img/card_backs/set1/purple.gif","img/card_backs/set2/orange.gif","img/card_backs/set2/gray.gif","img/card_backs/set2/pink.gif","img/card_backs/set2/blue.gif","""event"",""trial"",""time""
""focus"",""0"",""0""
""fullscreenenter"",""1"",""3823""
","
","""event"",""trial"",""time""
""focus"",""0"",""0""
","""event"",""trial"",""time""
""fullscreenenter"",""1"",""3823""
","
","","null","","null","","fixation","2021-08-07 21:48:50.904","","","","","",""
"card-selection-trial","85","388691","0.0-25.0-1.7","976","false","img/card_backs/set1/yellow.gif","img/card_backs/set1/red.gif","img/card_backs/set1/green.gif","img/card_backs/set1/purple.gif","img/card_backs/set2/orange.gif","img/card_backs/set2/gray.gif","img/card_backs/set2/pink.gif","img/card_backs/set2/blue.gif","""event"",""trial"",""time""
""focus"",""0"",""0""
""fullscreenenter"",""1"",""3823""
","
","""event"",""trial"",""time""
""focus"",""0"",""0""
","""event"",""trial"",""time""
""fullscreenenter"",""1"",""3823""
","
","","1253","","","","real_trial","2021-08-07 21:48:54.178","img/card_backs/set1/green.gif","0","120","1","",""
"casino-fixation","86","389206","0.0-25.0-0.8","976","false","img/card_backs/set1/yellow.gif","img/card_backs/set1/red.gif","img/card_backs/set1/green.gif","img/card_backs/set1/purple.gif","img/card_backs/set2/orange.gif","img/card_backs/set2/gray.gif","img/card_backs/set2/pink.gif","img/card_backs/set2/blue.gif","""event"",""trial"",""time""
""focus"",""0"",""0""
""fullscreenenter"",""1"",""3823""
","
","""event"",""trial"",""time""
""focus"",""0"",""0""
","""event"",""trial"",""time""
""fullscreenenter"",""1"",""3823""
","
","","null","","null","","fixation","2021-08-07 21:48:54.692","","","","","",""
"card-selection-trial","87","392294","0.0-25.0-1.8","976","false","img/card_backs/set1/yellow.gif","img/card_backs/set1/red.gif","img/card_backs/set1/green.gif","img/card_backs/set1/purple.gif","img/card_backs/set2/orange.gif","img/card_backs/set2/gray.gif","img/card_backs/set2/pink.gif","img/card_backs/set2/blue.gif","""event"",""trial"",""time""
""focus"",""0"",""0""
""fullscreenenter"",""1"",""3823""
","
","""event"",""trial"",""time""
""focus"",""0"",""0""
","""event"",""trial"",""time""
""fullscreenenter"",""1"",""3823""
","
","","1081","","","","real_trial","2021-08-07 21:48:57.780","img/card_backs/set1/purple.gif","1","110","1","",""
"casino-fixation","88","392810","0.0-25.0-0.9","976","false","img/card_backs/set1/yellow.gif","img/card_backs/set1/red.gif","img/card_backs/set1/green.gif","img/card_backs/set1/purple.gif","img/card_backs/set2/orange.gif","img/card_backs/set2/gray.gif","img/card_backs/set2/pink.gif","img/card_backs/set2/blue.gif","""event"",""trial"",""time""
""focus"",""0"",""0""
""fullscreenenter"",""1"",""3823""
","
","""event"",""trial"",""time""
""focus"",""0"",""0""
","""event"",""trial"",""time""
""fullscreenenter"",""1"",""3823""
","
","","null","","null","","fixation","2021-08-07 21:48:58.297","","","","","",""
"card-selection-trial","89","396277","0.0-25.0-1.9","976","false","img/card_backs/set1/yellow.gif","img/card_backs/set1/red.gif","img/card_backs/set1/green.gif","img/card_backs/set1/purple.gif","img/card_backs/set2/orange.gif","img/card_backs/set2/gray.gif","img/card_backs/set2/pink.gif","img/card_backs/set2/blue.gif","""event"",""trial"",""time""
""focus"",""0"",""0""
""fullscreenenter"",""1"",""3823""
","
","""event"",""trial"",""time""
""focus"",""0"",""0""
","""event"",""trial"",""time""
""fullscreenenter"",""1"",""3823""
","
","","1452","","","","real_trial","2021-08-07 21:49:01.763","img/card_backs/set1/red.gif","2","180","1","",""
"casino-fixation","90","396786","0.0-25.0-0.10","976","false","img/card_backs/set1/yellow.gif","img/card_backs/set1/red.gif","img/card_backs/set1/green.gif","img/card_backs/set1/purple.gif","img/card_backs/set2/orange.gif","img/card_backs/set2/gray.gif","img/card_backs/set2/pink.gif","img/card_backs/set2/blue.gif","""event"",""trial"",""time""
""focus"",""0"",""0""
""fullscreenenter"",""1"",""3823""
","
","""event"",""trial"",""time""
""focus"",""0"",""0""
","""event"",""trial"",""time""
""fullscreenenter"",""1"",""3823""
","
","","null","","null","","fixation","2021-08-07 21:49:02.272","","","","","",""
"card-selection-trial","91","399878","0.0-25.0-1.10","976","false","img/card_backs/set1/yellow.gif","img/card_backs/set1/red.gif","img/card_backs/set1/green.gif","img/card_backs/set1/purple.gif","img/card_backs/set2/orange.gif","img/card_backs/set2/gray.gif","img/card_backs/set2/pink.gif","img/card_backs/set2/blue.gif","""event"",""trial"",""time""
""focus"",""0"",""0""
""fullscreenenter"",""1"",""3823""
","
","""event"",""trial"",""time""
""focus"",""0"",""0""
","""event"",""trial"",""time""
""fullscreenenter"",""1"",""3823""
","
","","1074","","","","real_trial","2021-08-07 21:49:05.365","img/card_backs/set1/yellow.gif","3","200","1","",""
"casino-fixation","92","400381","0.0-25.0-0.11","976","false","img/card_backs/set1/yellow.gif","img/card_backs/set1/red.gif","img/card_backs/set1/green.gif","img/card_backs/set1/purple.gif","img/card_backs/set2/orange.gif","img/card_backs/set2/gray.gif","img/card_backs/set2/pink.gif","img/card_backs/set2/blue.gif","""event"",""trial"",""time""
""focus"",""0"",""0""
""fullscreenenter"",""1"",""3823""
","
","""event"",""trial"",""time""
""focus"",""0"",""0""
","""event"",""trial"",""time""
""fullscreenenter"",""1"",""3823""
","
","","null","","null","","fixation","2021-08-07 21:49:05.867","","","","","",""
"card-selection-trial","93","406762","0.0-25.0-1.11","976","false","img/card_backs/set1/yellow.gif","img/card_backs/set1/red.gif","img/card_backs/set1/green.gif","img/card_backs/set1/purple.gif","img/card_backs/set2/orange.gif","img/card_backs/set2/gray.gif","img/card_backs/set2/pink.gif","img/card_backs/set2/blue.gif","""event"",""trial"",""time""
""focus"",""0"",""0""
""fullscreenenter"",""1"",""3823""
","
","""event"",""trial"",""time""
""focus"",""0"",""0""
","""event"",""trial"",""time""
""fullscreenenter"",""1"",""3823""
","
","","4368","","","","real_trial","2021-08-07 21:49:12.249","img/card_backs/set1/green.gif","2","110","1","",""
"casino-fixation","94","407280","0.0-25.0-0.12","976","false","img/card_backs/set1/yellow.gif","img/card_backs/set1/red.gif","img/card_backs/set1/green.gif","img/card_backs/set1/purple.gif","img/card_backs/set2/orange.gif","img/card_backs/set2/gray.gif","img/card_backs/set2/pink.gif","img/card_backs/set2/blue.gif","""event"",""trial"",""time""
""focus"",""0"",""0""
""fullscreenenter"",""1"",""3823""
","
","""event"",""trial"",""time""
""focus"",""0"",""0""
","""event"",""trial"",""time""
""fullscreenenter"",""1"",""3823""
","
","","null","","null","","fixation","2021-08-07 21:49:12.766","","","","","",""
"card-selection-trial","95","411088","0.0-25.0-1.12","976","false","img/card_backs/set1/yellow.gif","img/card_backs/set1/red.gif","img/card_backs/set1/green.gif","img/card_backs/set1/purple.gif","img/card_backs/set2/orange.gif","img/card_backs/set2/gray.gif","img/card_backs/set2/pink.gif","img/card_backs/set2/blue.gif","""event"",""trial"",""time""
""focus"",""0"",""0""
""fullscreenenter"",""1"",""3823""
","
","""event"",""trial"",""time""
""focus"",""0"",""0""
","""event"",""trial"",""time""
""fullscreenenter"",""1"",""3823""
","
","","1793","","","","real_trial","2021-08-07 21:49:16.574","img/card_backs/set1/yellow.gif","0","180","1","",""
"casino-fixation","96","411601","0.0-25.0-0.13","976","false","img/card_backs/set1/yellow.gif","img/card_backs/set1/red.gif","img/card_backs/set1/green.gif","img/card_backs/set1/purple.gif","img/card_backs/set2/orange.gif","img/card_backs/set2/gray.gif","img/card_backs/set2/pink.gif","img/card_backs/set2/blue.gif","""event"",""trial"",""time""
""focus"",""0"",""0""
""fullscreenenter"",""1"",""3823""
","
","""event"",""trial"",""time""
""focus"",""0"",""0""
","""event"",""trial"",""time""
""fullscreenenter"",""1"",""3823""
","
","","null","","null","","fixation","2021-08-07 21:49:17.087","","","","","",""
"card-selection-trial","97","415180","0.0-25.0-1.13","976","false","img/card_backs/set1/yellow.gif","img/card_backs/set1/red.gif","img/card_backs/set1/green.gif","img/card_backs/set1/purple.gif","img/card_backs/set2/orange.gif","img/card_backs/set2/gray.gif","img/card_backs/set2/pink.gif","img/card_backs/set2/blue.gif","""event"",""trial"",""time""
""focus"",""0"",""0""
""fullscreenenter"",""1"",""3823""
","
","""event"",""trial"",""time""
""focus"",""0"",""0""
","""event"",""trial"",""time""
""fullscreenenter"",""1"",""3823""
","
","","1566","","","","real_trial","2021-08-07 21:49:20.666","img/card_backs/set1/green.gif","0","-60","1","",""
"casino-fixation","98","415682","0.0-25.0-0.14","976","false","img/card_backs/set1/yellow.gif","img/card_backs/set1/red.gif","img/card_backs/set1/green.gif","img/card_backs/set1/purple.gif","img/card_backs/set2/orange.gif","img/card_backs/set2/gray.gif","img/card_backs/set2/pink.gif","img/card_backs/set2/blue.gif","""event"",""trial"",""time""
""focus"",""0"",""0""
""fullscreenenter"",""1"",""3823""
","
","""event"",""trial"",""time""
""focus"",""0"",""0""
","""event"",""trial"",""time""
""fullscreenenter"",""1"",""3823""
","
","","null","","null","","fixation","2021-08-07 21:49:21.168","","","","","",""
"card-selection-trial","99","418392","0.0-25.0-1.14","976","false","img/card_backs/set1/yellow.gif","img/card_backs/set1/red.gif","img/card_backs/set1/green.gif","img/card_backs/set1/purple.gif","img/card_backs/set2/orange.gif","img/card_backs/set2/gray.gif","img/card_backs/set2/pink.gif","img/card_backs/set2/blue.gif","""event"",""trial"",""time""
""focus"",""0"",""0""
""fullscreenenter"",""1"",""3823""
","
","""event"",""trial"",""time""
""focus"",""0"",""0""
","""event"",""trial"",""time""
""fullscreenenter"",""1"",""3823""
","
","","700","","","","real_trial","2021-08-07 21:49:23.878","img/card_backs/set1/yellow.gif","3","190","1","",""
"casino-fixation","100","418895","0.0-25.0-0.15","976","false","img/card_backs/set1/yellow.gif","img/card_backs/set1/red.gif","img/card_backs/set1/green.gif","img/card_backs/set1/purple.gif","img/card_backs/set2/orange.gif","img/card_backs/set2/gray.gif","img/card_backs/set2/pink.gif","img/card_backs/set2/blue.gif","""event"",""trial"",""time""
""focus"",""0"",""0""
""fullscreenenter"",""1"",""3823""
","
","""event"",""trial"",""time""
""focus"",""0"",""0""
","""event"",""trial"",""time""
""fullscreenenter"",""1"",""3823""
","
","","null","","null","","fixation","2021-08-07 21:49:24.381","","","","","",""
"card-selection-trial","101","422760","0.0-25.0-1.15","976","false","img/card_backs/set1/yellow.gif","img/card_backs/set1/red.gif","img/card_backs/set1/green.gif","img/card_backs/set1/purple.gif","img/card_backs/set2/orange.gif","img/card_backs/set2/gray.gif","img/card_backs/set2/pink.gif","img/card_backs/set2/blue.gif","""event"",""trial"",""time""
""focus"",""0"",""0""
""fullscreenenter"",""1"",""3823""
","
","""event"",""trial"",""time""
""focus"",""0"",""0""
","""event"",""trial"",""time""
""fullscreenenter"",""1"",""3823""
","
","","1846","","","","real_trial","2021-08-07 21:49:28.246","img/card_backs/set1/yellow.gif","2","-250","1","",""
"casino-fixation","102","423277","0.0-25.0-0.16","976","false","img/card_backs/set1/yellow.gif","img/card_backs/set1/red.gif","img/card_backs/set1/green.gif","img/card_backs/set1/purple.gif","img/card_backs/set2/orange.gif","img/card_backs/set2/gray.gif","img/card_backs/set2/pink.gif","img/card_backs/set2/blue.gif","""event"",""trial"",""time""
""focus"",""0"",""0""
""fullscreenenter"",""1"",""3823""
","
","""event"",""trial"",""time""
""focus"",""0"",""0""
","""event"",""trial"",""time""
""fullscreenenter"",""1"",""3823""
","
","","null","","null","","fixation","2021-08-07 21:49:28.763","","","","","",""
"card-selection-trial","103","426599","0.0-25.0-1.16","976","false","img/card_backs/set1/yellow.gif","img/card_backs/set1/red.gif","img/card_backs/set1/green.gif","img/card_backs/set1/purple.gif","img/card_backs/set2/orange.gif","img/card_backs/set2/gray.gif","img/card_backs/set2/pink.gif","img/card_backs/set2/blue.gif","""event"",""trial"",""time""
""focus"",""0"",""0""
""fullscreenenter"",""1"",""3823""
","
","""event"",""trial"",""time""
""focus"",""0"",""0""
","""event"",""trial"",""time""
""fullscreenenter"",""1"",""3823""
","
","","1306","","","","real_trial","2021-08-07 21:49:32.085","img/card_backs/set1/green.gif","3","120","1","",""
"casino-fixation","104","427108","0.0-25.0-0.17","976","false","img/card_backs/set1/yellow.gif","img/card_backs/set1/red.gif","img/card_backs/set1/green.gif","img/card_backs/set1/purple.gif","img/card_backs/set2/orange.gif","img/card_backs/set2/gray.gif","img/card_backs/set2/pink.gif","img/card_backs/set2/blue.gif","""event"",""trial"",""time""
""focus"",""0"",""0""
""fullscreenenter"",""1"",""3823""
","
","""event"",""trial"",""time""
""focus"",""0"",""0""
","""event"",""trial"",""time""
""fullscreenenter"",""1"",""3823""
","
","","null","","null","","fixation","2021-08-07 21:49:32.594","","","","","",""
"card-selection-trial","105","429795","0.0-25.0-1.17","976","false","img/card_backs/set1/yellow.gif","img/card_backs/set1/red.gif","img/card_backs/set1/green.gif","img/card_backs/set1/purple.gif","img/card_backs/set2/orange.gif","img/card_backs/set2/gray.gif","img/card_backs/set2/pink.gif","img/card_backs/set2/blue.gif","""event"",""trial"",""time""
""focus"",""0"",""0""
""fullscreenenter"",""1"",""3823""
","
","""event"",""trial"",""time""
""focus"",""0"",""0""
","""event"",""trial"",""time""
""fullscreenenter"",""1"",""3823""
","
","","675","","","","real_trial","2021-08-07 21:49:35.281","img/card_backs/set1/yellow.gif","0","-250","1","",""
"casino-fixation","106","430309","0.0-25.0-0.18","976","false","img/card_backs/set1/yellow.gif","img/card_backs/set1/red.gif","img/card_backs/set1/green.gif","img/card_backs/set1/purple.gif","img/card_backs/set2/orange.gif","img/card_backs/set2/gray.gif","img/card_backs/set2/pink.gif","img/card_backs/set2/blue.gif","""event"",""trial"",""time""
""focus"",""0"",""0""
""fullscreenenter"",""1"",""3823""
","
","""event"",""trial"",""time""
""focus"",""0"",""0""
","""event"",""trial"",""time""
""fullscreenenter"",""1"",""3823""
","
","","null","","null","","fixation","2021-08-07 21:49:35.795","","","","","",""
"card-selection-trial","107","433021","0.0-25.0-1.18","976","false","img/card_backs/set1/yellow.gif","img/card_backs/set1/red.gif","img/card_backs/set1/green.gif","img/card_backs/set1/purple.gif","img/card_backs/set2/orange.gif","img/card_backs/set2/gray.gif","img/card_backs/set2/pink.gif","img/card_backs/set2/blue.gif","""event"",""trial"",""time""
""focus"",""0"",""0""
""fullscreenenter"",""1"",""3823""
","
","""event"",""trial"",""time""
""focus"",""0"",""0""
","""event"",""trial"",""time""
""fullscreenenter"",""1"",""3823""
","
","","702","","","","real_trial","2021-08-07 21:49:38.507","img/card_backs/set1/green.gif","3","-60","1","",""
"casino-fixation","108","433524","0.0-25.0-0.19","976","false","img/card_backs/set1/yellow.gif","img/card_backs/set1/red.gif","img/card_backs/set1/green.gif","img/card_backs/set1/purple.gif","img/card_backs/set2/orange.gif","img/card_backs/set2/gray.gif","img/card_backs/set2/pink.gif","img/card_backs/set2/blue.gif","""event"",""trial"",""time""
""focus"",""0"",""0""
""fullscreenenter"",""1"",""3823""
","
","""event"",""trial"",""time""
""focus"",""0"",""0""
","""event"",""trial"",""time""
""fullscreenenter"",""1"",""3823""
","
","","null","","null","","fixation","2021-08-07 21:49:39.010","","","","","",""
"card-selection-trial","109","438124","0.0-25.0-1.19","976","false","img/card_backs/set1/yellow.gif","img/card_backs/set1/red.gif","img/card_backs/set1/green.gif","img/card_backs/set1/purple.gif","img/card_backs/set2/orange.gif","img/card_backs/set2/gray.gif","img/card_backs/set2/pink.gif","img/card_backs/set2/blue.gif","""event"",""trial"",""time""
""focus"",""0"",""0""
""fullscreenenter"",""1"",""3823""
","
","""event"",""trial"",""time""
""focus"",""0"",""0""
","""event"",""trial"",""time""
""fullscreenenter"",""1"",""3823""
","
","","2588","","","","real_trial","2021-08-07 21:49:43.610","img/card_backs/set1/yellow.gif","2","180","1","",""
"casino-fixation","110","438641","0.0-25.0-0.20","976","false","img/card_backs/set1/yellow.gif","img/card_backs/set1/red.gif","img/card_backs/set1/green.gif","img/card_backs/set1/purple.gif","img/card_backs/set2/orange.gif","img/card_backs/set2/gray.gif","img/card_backs/set2/pink.gif","img/card_backs/set2/blue.gif","""event"",""trial"",""time""
""focus"",""0"",""0""
""fullscreenenter"",""1"",""3823""
","
","""event"",""trial"",""time""
""focus"",""0"",""0""
","""event"",""trial"",""time""
""fullscreenenter"",""1"",""3823""
","
","","null","","null","","fixation","2021-08-07 21:49:44.127","","","","","",""
"card-selection-trial","111","442441","0.0-25.0-1.20","976","false","img/card_backs/set1/yellow.gif","img/card_backs/set1/red.gif","img/card_backs/set1/green.gif","img/card_backs/set1/purple.gif","img/card_backs/set2/orange.gif","img/card_backs/set2/gray.gif","img/card_backs/set2/pink.gif","img/card_backs/set2/blue.gif","""event"",""trial"",""time""
""focus"",""0"",""0""
""fullscreenenter"",""1"",""3823""
","
","""event"",""trial"",""time""
""focus"",""0"",""0""
","""event"",""trial"",""time""
""fullscreenenter"",""1"",""3823""
","
","","1782","","","","real_trial","2021-08-07 21:49:47.928","img/card_backs/set1/yellow.gif","1","190","1","",""
"casino-fixation","112","442944","0.0-25.0-0.21","976","false","img/card_backs/set1/yellow.gif","img/card_backs/set1/red.gif","img/card_backs/set1/green.gif","img/card_backs/set1/purple.gif","img/card_backs/set2/orange.gif","img/card_backs/set2/gray.gif","img/card_backs/set2/pink.gif","img/card_backs/set2/blue.gif","""event"",""trial"",""time""
""focus"",""0"",""0""
""fullscreenenter"",""1"",""3823""
","
","""event"",""trial"",""time""
""focus"",""0"",""0""
","""event"",""trial"",""time""
""fullscreenenter"",""1"",""3823""
","
","","null","","null","","fixation","2021-08-07 21:49:48.431","","","","","",""
"card-selection-trial","113","445587","0.0-25.0-1.21","976","false","img/card_backs/set1/yellow.gif","img/card_backs/set1/red.gif","img/card_backs/set1/green.gif","img/card_backs/set1/purple.gif","img/card_backs/set2/orange.gif","img/card_backs/set2/gray.gif","img/card_backs/set2/pink.gif","img/card_backs/set2/blue.gif","""event"",""trial"",""time""
""focus"",""0"",""0""
""fullscreenenter"",""1"",""3823""
","
","""event"",""trial"",""time""
""focus"",""0"",""0""
","""event"",""trial"",""time""
""fullscreenenter"",""1"",""3823""
","
","","630","","","","real_trial","2021-08-07 21:49:51.073","img/card_backs/set1/green.gif","3","-50","1","",""
"casino-fixation","114","446094","0.0-25.0-0.22","976","false","img/card_backs/set1/yellow.gif","img/card_backs/set1/red.gif","img/card_backs/set1/green.gif","img/card_backs/set1/purple.gif","img/card_backs/set2/orange.gif","img/card_backs/set2/gray.gif","img/card_backs/set2/pink.gif","img/card_backs/set2/blue.gif","""event"",""trial"",""time""
""focus"",""0"",""0""
""fullscreenenter"",""1"",""3823""
","
","""event"",""trial"",""time""
""focus"",""0"",""0""
","""event"",""trial"",""time""
""fullscreenenter"",""1"",""3823""
","
","","null","","null","","fixation","2021-08-07 21:49:51.580","","","","","",""
"card-selection-trial","115","448900","0.0-25.0-1.22","976","false","img/card_backs/set1/yellow.gif","img/card_backs/set1/red.gif","img/card_backs/set1/green.gif","img/card_backs/set1/purple.gif","img/card_backs/set2/orange.gif","img/card_backs/set2/gray.gif","img/card_backs/set2/pink.gif","img/card_backs/set2/blue.gif","""event"",""trial"",""time""
""focus"",""0"",""0""
""fullscreenenter"",""1"",""3823""
","
","""event"",""trial"",""time""
""focus"",""0"",""0""
","""event"",""trial"",""time""
""fullscreenenter"",""1"",""3823""
","
","","793","","","","real_trial","2021-08-07 21:49:54.387","img/card_backs/set1/red.gif","2","180","1","",""
"casino-fixation","116","449413","0.0-25.0-0.23","976","false","img/card_backs/set1/yellow.gif","img/card_backs/set1/red.gif","img/card_backs/set1/green.gif","img/card_backs/set1/purple.gif","img/card_backs/set2/orange.gif","img/card_backs/set2/gray.gif","img/card_backs/set2/pink.gif","img/card_backs/set2/blue.gif","""event"",""trial"",""time""
""focus"",""0"",""0""
""fullscreenenter"",""1"",""3823""
","
","""event"",""trial"",""time""
""focus"",""0"",""0""
","""event"",""trial"",""time""
""fullscreenenter"",""1"",""3823""
","
","","null","","null","","fixation","2021-08-07 21:49:54.900","","","","","",""
"card-selection-trial","117","452943","0.0-25.0-1.23","976","false","img/card_backs/set1/yellow.gif","img/card_backs/set1/red.gif","img/card_backs/set1/green.gif","img/card_backs/set1/purple.gif","img/card_backs/set2/orange.gif","img/card_backs/set2/gray.gif","img/card_backs/set2/pink.gif","img/card_backs/set2/blue.gif","""event"",""trial"",""time""
""focus"",""0"",""0""
""fullscreenenter"",""1"",""3823""
","
","""event"",""trial"",""time""
""focus"",""0"",""0""
","""event"",""trial"",""time""
""fullscreenenter"",""1"",""3823""
","
","","1520","","","","real_trial","2021-08-07 21:49:58.429","img/card_backs/set1/green.gif","1","-70","1","",""
"casino-fixation","118","453459","0.0-25.0-0.24","976","false","img/card_backs/set1/yellow.gif","img/card_backs/set1/red.gif","img/card_backs/set1/green.gif","img/card_backs/set1/purple.gif","img/card_backs/set2/orange.gif","img/card_backs/set2/gray.gif","img/card_backs/set2/pink.gif","img/card_backs/set2/blue.gif","""event"",""trial"",""time""
""focus"",""0"",""0""
""fullscreenenter"",""1"",""3823""
","
","""event"",""trial"",""time""
""focus"",""0"",""0""
","""event"",""trial"",""time""
""fullscreenenter"",""1"",""3823""
","
","","null","","null","","fixation","2021-08-07 21:49:58.945","","","","","",""
"card-selection-trial","119","455983","0.0-25.0-1.24","976","false","img/card_backs/set1/yellow.gif","img/card_backs/set1/red.gif","img/card_backs/set1/green.gif","img/card_backs/set1/purple.gif","img/card_backs/set2/orange.gif","img/card_backs/set2/gray.gif","img/card_backs/set2/pink.gif","img/card_backs/set2/blue.gif","""event"",""trial"",""time""
""focus"",""0"",""0""
""fullscreenenter"",""1"",""3823""
","
","""event"",""trial"",""time""
""focus"",""0"",""0""
","""event"",""trial"",""time""
""fullscreenenter"",""1"",""3823""
","
","","516","","","","real_trial","2021-08-07 21:50:01.469","img/card_backs/set1/green.gif","3","120","1","",""
"casino-fixation","120","456499","0.0-25.0-0.25","976","false","img/card_backs/set1/yellow.gif","img/card_backs/set1/red.gif","img/card_backs/set1/green.gif","img/card_backs/set1/purple.gif","img/card_backs/set2/orange.gif","img/card_backs/set2/gray.gif","img/card_backs/set2/pink.gif","img/card_backs/set2/blue.gif","""event"",""trial"",""time""
""focus"",""0"",""0""
""fullscreenenter"",""1"",""3823""
","
","""event"",""trial"",""time""
""focus"",""0"",""0""
","""event"",""trial"",""time""
""fullscreenenter"",""1"",""3823""
","
","","null","","null","","fixation","2021-08-07 21:50:01.985","","","","","",""
"card-selection-trial","121","459151","0.0-25.0-1.25","976","false","img/card_backs/set1/yellow.gif","img/card_backs/set1/red.gif","img/card_backs/set1/green.gif","img/card_backs/set1/purple.gif","img/card_backs/set2/orange.gif","img/card_backs/set2/gray.gif","img/card_backs/set2/pink.gif","img/card_backs/set2/blue.gif","""event"",""trial"",""time""
""focus"",""0"",""0""
""fullscreenenter"",""1"",""3823""
","
","""event"",""trial"",""time""
""focus"",""0"",""0""
","""event"",""trial"",""time""
""fullscreenenter"",""1"",""3823""
","
","","630","","","","real_trial","2021-08-07 21:50:04.637","img/card_backs/set1/yellow.gif","0","180","1","",""
"casino-fixation","122","459668","0.0-25.0-0.26","976","false","img/card_backs/set1/yellow.gif","img/card_backs/set1/red.gif","img/card_backs/set1/green.gif","img/card_backs/set1/purple.gif","img/card_backs/set2/orange.gif","img/card_backs/set2/gray.gif","img/card_backs/set2/pink.gif","img/card_backs/set2/blue.gif","""event"",""trial"",""time""
""focus"",""0"",""0""
""fullscreenenter"",""1"",""3823""
","
","""event"",""trial"",""time""
""focus"",""0"",""0""
","""event"",""trial"",""time""
""fullscreenenter"",""1"",""3823""
","
","","null","","null","","fixation","2021-08-07 21:50:05.154","","","","","",""
"card-selection-trial","123","463334","0.0-25.0-1.26","976","false","img/card_backs/set1/yellow.gif","img/card_backs/set1/red.gif","img/card_backs/set1/green.gif","img/card_backs/set1/purple.gif","img/card_backs/set2/orange.gif","img/card_backs/set2/gray.gif","img/card_backs/set2/pink.gif","img/card_backs/set2/blue.gif","""event"",""trial"",""time""
""focus"",""0"",""0""
""fullscreenenter"",""1"",""3823""
","
","""event"",""trial"",""time""
""focus"",""0"",""0""
","""event"",""trial"",""time""
""fullscreenenter"",""1"",""3823""
","
","","1646","","","","real_trial","2021-08-07 21:50:08.820","img/card_backs/set1/yellow.gif","2","-230","1","",""
"casino-fixation","124","463848","0.0-25.0-0.27","976","false","img/card_backs/set1/yellow.gif","img/card_backs/set1/red.gif","img/card_backs/set1/green.gif","img/card_backs/set1/purple.gif","img/card_backs/set2/orange.gif","img/card_backs/set2/gray.gif","img/card_backs/set2/pink.gif","img/card_backs/set2/blue.gif","""event"",""trial"",""time""
""focus"",""0"",""0""
""fullscreenenter"",""1"",""3823""
","
","""event"",""trial"",""time""
""focus"",""0"",""0""
","""event"",""trial"",""time""
""fullscreenenter"",""1"",""3823""
","
","","null","","null","","fixation","2021-08-07 21:50:09.335","","","","","",""
"card-selection-trial","125","466780","0.0-25.0-1.27","976","false","img/card_backs/set1/yellow.gif","img/card_backs/set1/red.gif","img/card_backs/set1/green.gif","img/card_backs/set1/purple.gif","img/card_backs/set2/orange.gif","img/card_backs/set2/gray.gif","img/card_backs/set2/pink.gif","img/card_backs/set2/blue.gif","""event"",""trial"",""time""
""focus"",""0"",""0""
""fullscreenenter"",""1"",""3823""
","
","""event"",""trial"",""time""
""focus"",""0"",""0""
","""event"",""trial"",""time""
""fullscreenenter"",""1"",""3823""
","
","","911","","","","real_trial","2021-08-07 21:50:12.266","img/card_backs/set1/green.gif","1","-50","1","",""
"casino-fixation","126","467293","0.0-25.0-0.28","976","false","img/card_backs/set1/yellow.gif","img/card_backs/set1/red.gif","img/card_backs/set1/green.gif","img/card_backs/set1/purple.gif","img/card_backs/set2/orange.gif","img/card_backs/set2/gray.gif","img/card_backs/set2/pink.gif","img/card_backs/set2/blue.gif","""event"",""trial"",""time""
""focus"",""0"",""0""
""fullscreenenter"",""1"",""3823""
","
","""event"",""trial"",""time""
""focus"",""0"",""0""
","""event"",""trial"",""time""
""fullscreenenter"",""1"",""3823""
","
","","null","","null","","fixation","2021-08-07 21:50:12.780","","","","","",""
"card-selection-trial","127","469933","0.0-25.0-1.28","976","false","img/card_backs/set1/yellow.gif","img/card_backs/set1/red.gif","img/card_backs/set1/green.gif","img/card_backs/set1/purple.gif","img/card_backs/set2/orange.gif","img/card_backs/set2/gray.gif","img/card_backs/set2/pink.gif","img/card_backs/set2/blue.gif","""event"",""trial"",""time""
""focus"",""0"",""0""
""fullscreenenter"",""1"",""3823""
","
","""event"",""trial"",""time""
""focus"",""0"",""0""
","""event"",""trial"",""time""
""fullscreenenter"",""1"",""3823""
","
","","615","","","","real_trial","2021-08-07 21:50:15.419","img/card_backs/set1/purple.gif","0","120","1","",""
"casino-fixation","128","470439","0.0-25.0-0.29","976","false","img/card_backs/set1/yellow.gif","img/card_backs/set1/red.gif","img/card_backs/set1/green.gif","img/card_backs/set1/purple.gif","img/card_backs/set2/orange.gif","img/card_backs/set2/gray.gif","img/card_backs/set2/pink.gif","img/card_backs/set2/blue.gif","""event"",""trial"",""time""
""focus"",""0"",""0""
""fullscreenenter"",""1"",""3823""
","
","""event"",""trial"",""time""
""focus"",""0"",""0""
","""event"",""trial"",""time""
""fullscreenenter"",""1"",""3823""
","
","","null","","null","","fixation","2021-08-07 21:50:15.926","","","","","",""
"card-selection-trial","129","474094","0.0-25.0-1.29","976","false","img/card_backs/set1/yellow.gif","img/card_backs/set1/red.gif","img/card_backs/set1/green.gif","img/card_backs/set1/purple.gif","img/card_backs/set2/orange.gif","img/card_backs/set2/gray.gif","img/card_backs/set2/pink.gif","img/card_backs/set2/blue.gif","""event"",""trial"",""time""
""focus"",""0"",""0""
""fullscreenenter"",""1"",""3823""
","
","""event"",""trial"",""time""
""focus"",""0"",""0""
","""event"",""trial"",""time""
""fullscreenenter"",""1"",""3823""
","
","","1649","","","","real_trial","2021-08-07 21:50:19.580","img/card_backs/set1/purple.gif","2","-50","1","",""
"casino-fixation","130","474601","0.0-25.0-0.30","976","false","img/card_backs/set1/yellow.gif","img/card_backs/set1/red.gif","img/card_backs/set1/green.gif","img/card_backs/set1/purple.gif","img/card_backs/set2/orange.gif","img/card_backs/set2/gray.gif","img/card_backs/set2/pink.gif","img/card_backs/set2/blue.gif","""event"",""trial"",""time""
""focus"",""0"",""0""
""fullscreenenter"",""1"",""3823""
","
","""event"",""trial"",""time""
""focus"",""0"",""0""
","""event"",""trial"",""time""
""fullscreenenter"",""1"",""3823""
","
","","null","","null","","fixation","2021-08-07 21:50:20.087","","","","","",""
"card-selection-trial","131","479701","0.0-25.0-1.30","976","false","img/card_backs/set1/yellow.gif","img/card_backs/set1/red.gif","img/card_backs/set1/green.gif","img/card_backs/set1/purple.gif","img/card_backs/set2/orange.gif","img/card_backs/set2/gray.gif","img/card_backs/set2/pink.gif","img/card_backs/set2/blue.gif","""event"",""trial"",""time""
""focus"",""0"",""0""
""fullscreenenter"",""1"",""3823""
","
","""event"",""trial"",""time""
""focus"",""0"",""0""
","""event"",""trial"",""time""
""fullscreenenter"",""1"",""3823""
","
","","3084","","","","real_trial","2021-08-07 21:50:25.187","img/card_backs/set1/yellow.gif","3","-240","1","",""
"casino-fixation","132","480216","0.0-25.0-0.31","976","false","img/card_backs/set1/yellow.gif","img/card_backs/set1/red.gif","img/card_backs/set1/green.gif","img/card_backs/set1/purple.gif","img/card_backs/set2/orange.gif","img/card_backs/set2/gray.gif","img/card_backs/set2/pink.gif","img/card_backs/set2/blue.gif","""event"",""trial"",""time""
""focus"",""0"",""0""
""fullscreenenter"",""1"",""3823""
","
","""event"",""trial"",""time""
""focus"",""0"",""0""
","""event"",""trial"",""time""
""fullscreenenter"",""1"",""3823""
","
","","null","","null","","fixation","2021-08-07 21:50:25.703","","","","","",""
"card-selection-trial","133","482575","0.0-25.0-1.31","976","false","img/card_backs/set1/yellow.gif","img/card_backs/set1/red.gif","img/card_backs/set1/green.gif","img/card_backs/set1/purple.gif","img/card_backs/set2/orange.gif","img/card_backs/set2/gray.gif","img/card_backs/set2/pink.gif","img/card_backs/set2/blue.gif","""event"",""trial"",""time""
""focus"",""0"",""0""
""fullscreenenter"",""1"",""3823""
","
","""event"",""trial"",""time""
""focus"",""0"",""0""
","""event"",""trial"",""time""
""fullscreenenter"",""1"",""3823""
","
","","344","","","","real_trial","2021-08-07 21:50:28.061","img/card_backs/set1/yellow.gif","1","200","1","",""
"casino-fixation","134","483080","0.0-25.0-0.32","976","false","img/card_backs/set1/yellow.gif","img/card_backs/set1/red.gif","img/card_backs/set1/green.gif","img/card_backs/set1/purple.gif","img/card_backs/set2/orange.gif","img/card_backs/set2/gray.gif","img/card_backs/set2/pink.gif","img/card_backs/set2/blue.gif","""event"",""trial"",""time""
""focus"",""0"",""0""
""fullscreenenter"",""1"",""3823""
","
","""event"",""trial"",""time""
""focus"",""0"",""0""
","""event"",""trial"",""time""
""fullscreenenter"",""1"",""3823""
","
","","null","","null","","fixation","2021-08-07 21:50:28.566","","","","","",""
"card-selection-trial","135","485434","0.0-25.0-1.32","976","false","img/card_backs/set1/yellow.gif","img/card_backs/set1/red.gif","img/card_backs/set1/green.gif","img/card_backs/set1/purple.gif","img/card_backs/set2/orange.gif","img/card_backs/set2/gray.gif","img/card_backs/set2/pink.gif","img/card_backs/set2/blue.gif","""event"",""trial"",""time""
""focus"",""0"",""0""
""fullscreenenter"",""1"",""3823""
","
","""event"",""trial"",""time""
""focus"",""0"",""0""
","""event"",""trial"",""time""
""fullscreenenter"",""1"",""3823""
","
","","345","","","","real_trial","2021-08-07 21:50:30.920","img/card_backs/set1/purple.gif","0","100","1","",""
"casino-fixation","136","485948","0.0-25.0-0.33","976","false","img/card_backs/set1/yellow.gif","img/card_backs/set1/red.gif","img/card_backs/set1/green.gif","img/card_backs/set1/purple.gif","img/card_backs/set2/orange.gif","img/card_backs/set2/gray.gif","img/card_backs/set2/pink.gif","img/card_backs/set2/blue.gif","""event"",""trial"",""time""
""focus"",""0"",""0""
""fullscreenenter"",""1"",""3823""
","
","""event"",""trial"",""time""
""focus"",""0"",""0""
","""event"",""trial"",""time""
""fullscreenenter"",""1"",""3823""
","
","","null","","null","","fixation","2021-08-07 21:50:31.434","","","","","",""
"card-selection-trial","137","488201","0.0-25.0-1.33","976","false","img/card_backs/set1/yellow.gif","img/card_backs/set1/red.gif","img/card_backs/set1/green.gif","img/card_backs/set1/purple.gif","img/card_backs/set2/orange.gif","img/card_backs/set2/gray.gif","img/card_backs/set2/pink.gif","img/card_backs/set2/blue.gif","""event"",""trial"",""time""
""focus"",""0"",""0""
""fullscreenenter"",""1"",""3823""
","
","""event"",""trial"",""time""
""focus"",""0"",""0""
","""event"",""trial"",""time""
""fullscreenenter"",""1"",""3823""
","
","","240","","","","real_trial","2021-08-07 21:50:33.687","img/card_backs/set1/yellow.gif","2","200","1","",""
"casino-fixation","138","488709","0.0-25.0-0.34","976","false","img/card_backs/set1/yellow.gif","img/card_backs/set1/red.gif","img/card_backs/set1/green.gif","img/card_backs/set1/purple.gif","img/card_backs/set2/orange.gif","img/card_backs/set2/gray.gif","img/card_backs/set2/pink.gif","img/card_backs/set2/blue.gif","""event"",""trial"",""time""
""focus"",""0"",""0""
""fullscreenenter"",""1"",""3823""
","
","""event"",""trial"",""time""
""focus"",""0"",""0""
","""event"",""trial"",""time""
""fullscreenenter"",""1"",""3823""
","
","","null","","null","","fixation","2021-08-07 21:50:34.195","","","","","",""
"card-selection-trial","139","491101","0.0-25.0-1.34","976","false","img/card_backs/set1/yellow.gif","img/card_backs/set1/red.gif","img/card_backs/set1/green.gif","img/card_backs/set1/purple.gif","img/card_backs/set2/orange.gif","img/card_backs/set2/gray.gif","img/card_backs/set2/pink.gif","img/card_backs/set2/blue.gif","""event"",""trial"",""time""
""focus"",""0"",""0""
""fullscreenenter"",""1"",""3823""
","
","""event"",""trial"",""time""
""focus"",""0"",""0""
","""event"",""trial"",""time""
""fullscreenenter"",""1"",""3823""
","
","","381","","","","real_trial","2021-08-07 21:50:36.587","img/card_backs/set1/purple.gif","3","-60","1","",""
"casino-fixation","140","491615","0.0-25.0-0.35","976","false","img/card_backs/set1/yellow.gif","img/card_backs/set1/red.gif","img/card_backs/set1/green.gif","img/card_backs/set1/purple.gif","img/card_backs/set2/orange.gif","img/card_backs/set2/gray.gif","img/card_backs/set2/pink.gif","img/card_backs/set2/blue.gif","""event"",""trial"",""time""
""focus"",""0"",""0""
""fullscreenenter"",""1"",""3823""
","
","""event"",""trial"",""time""
""focus"",""0"",""0""
","""event"",""trial"",""time""
""fullscreenenter"",""1"",""3823""
","
","","null","","null","","fixation","2021-08-07 21:50:37.101","","","","","",""
"card-selection-trial","141","493802","0.0-25.0-1.35","976","false","img/card_backs/set1/yellow.gif","img/card_backs/set1/red.gif","img/card_backs/set1/green.gif","img/card_backs/set1/purple.gif","img/card_backs/set2/orange.gif","img/card_backs/set2/gray.gif","img/card_backs/set2/pink.gif","img/card_backs/set2/blue.gif","""event"",""trial"",""time""
""focus"",""0"",""0""
""fullscreenenter"",""1"",""3823""
","
","""event"",""trial"",""time""
""focus"",""0"",""0""
","""event"",""trial"",""time""
""fullscreenenter"",""1"",""3823""
","
","","175","","","","real_trial","2021-08-07 21:50:39.288","img/card_backs/set1/green.gif","0","-50","1","",""
"casino-fixation","142","494307","0.0-25.0-0.36","976","false","img/card_backs/set1/yellow.gif","img/card_backs/set1/red.gif","img/card_backs/set1/green.gif","img/card_backs/set1/purple.gif","img/card_backs/set2/orange.gif","img/card_backs/set2/gray.gif","img/card_backs/set2/pink.gif","img/card_backs/set2/blue.gif","""event"",""trial"",""time""
""focus"",""0"",""0""
""fullscreenenter"",""1"",""3823""
","
","""event"",""trial"",""time""
""focus"",""0"",""0""
","""event"",""trial"",""time""
""fullscreenenter"",""1"",""3823""
","
","","null","","null","","fixation","2021-08-07 21:50:39.793","","","","","",""
"card-selection-trial","143","496376","0.0-25.0-1.36","976","false","img/card_backs/set1/yellow.gif","img/card_backs/set1/red.gif","img/card_backs/set1/green.gif","img/card_backs/set1/purple.gif","img/card_backs/set2/orange.gif","img/card_backs/set2/gray.gif","img/card_backs/set2/pink.gif","img/card_backs/set2/blue.gif","""event"",""trial"",""time""
""focus"",""0"",""0""
""fullscreenenter"",""1"",""3823""
","
","""event"",""trial"",""time""
""focus"",""0"",""0""
","""event"",""trial"",""time""
""fullscreenenter"",""1"",""3823""
","
","","63","","","","real_trial","2021-08-07 21:50:41.862","img/card_backs/set1/green.gif","1","100","1","",""
"casino-fixation","144","496880","0.0-25.0-0.37","976","false","img/card_backs/set1/yellow.gif","img/card_backs/set1/red.gif","img/card_backs/set1/green.gif","img/card_backs/set1/purple.gif","img/card_backs/set2/orange.gif","img/card_backs/set2/gray.gif","img/card_backs/set2/pink.gif","img/card_backs/set2/blue.gif","""event"",""trial"",""time""
""focus"",""0"",""0""
""fullscreenenter"",""1"",""3823""
","
","""event"",""trial"",""time""
""focus"",""0"",""0""
","""event"",""trial"",""time""
""fullscreenenter"",""1"",""3823""
","
","","null","","null","","fixation","2021-08-07 21:50:42.367","","","","","",""
"card-selection-trial","145","499121","0.0-25.0-1.37","976","false","img/card_backs/set1/yellow.gif","img/card_backs/set1/red.gif","img/card_backs/set1/green.gif","img/card_backs/set1/purple.gif","img/card_backs/set2/orange.gif","img/card_backs/set2/gray.gif","img/card_backs/set2/pink.gif","img/card_backs/set2/blue.gif","""event"",""trial"",""time""
""focus"",""0"",""0""
""fullscreenenter"",""1"",""3823""
","
","""event"",""trial"",""time""
""focus"",""0"",""0""
","""event"",""trial"",""time""
""fullscreenenter"",""1"",""3823""
","
","","226","","","","real_trial","2021-08-07 21:50:44.607","img/card_backs/set1/green.gif","2","-60","1","",""
"casino-fixation","146","499637","0.0-25.0-0.38","976","false","img/card_backs/set1/yellow.gif","img/card_backs/set1/red.gif","img/card_backs/set1/green.gif","img/card_backs/set1/purple.gif","img/card_backs/set2/orange.gif","img/card_backs/set2/gray.gif","img/card_backs/set2/pink.gif","img/card_backs/set2/blue.gif","""event"",""trial"",""time""
""focus"",""0"",""0""
""fullscreenenter"",""1"",""3823""
","
","""event"",""trial"",""time""
""focus"",""0"",""0""
","""event"",""trial"",""time""
""fullscreenenter"",""1"",""3823""
","
","","null","","null","","fixation","2021-08-07 21:50:45.123","","","","","",""
"card-selection-trial","147","501784","0.0-25.0-1.38","976","false","img/card_backs/set1/yellow.gif","img/card_backs/set1/red.gif","img/card_backs/set1/green.gif","img/card_backs/set1/purple.gif","img/card_backs/set2/orange.gif","img/card_backs/set2/gray.gif","img/card_backs/set2/pink.gif","img/card_backs/set2/blue.gif","""event"",""trial"",""time""
""focus"",""0"",""0""
""fullscreenenter"",""1"",""3823""
","
","""event"",""trial"",""time""
""focus"",""0"",""0""
","""event"",""trial"",""time""
""fullscreenenter"",""1"",""3823""
","
","","143","","","","real_trial","2021-08-07 21:50:47.270","img/card_backs/set1/green.gif","3","-60","1","",""
"casino-fixation","148","502291","0.0-25.0-0.39","976","false","img/card_backs/set1/yellow.gif","img/card_backs/set1/red.gif","img/card_backs/set1/green.gif","img/card_backs/set1/purple.gif","img/card_backs/set2/orange.gif","img/card_backs/set2/gray.gif","img/card_backs/set2/pink.gif","img/card_backs/set2/blue.gif","""event"",""trial"",""time""
""focus"",""0"",""0""
""fullscreenenter"",""1"",""3823""
","
","""event"",""trial"",""time""
""focus"",""0"",""0""
","""event"",""trial"",""time""
""fullscreenenter"",""1"",""3823""
","
","","null","","null","","fixation","2021-08-07 21:50:47.777","","","","","",""
"card-selection-trial","149","504702","0.0-25.0-1.39","976","false","img/card_backs/set1/yellow.gif","img/card_backs/set1/red.gif","img/card_backs/set1/green.gif","img/card_backs/set1/purple.gif","img/card_backs/set2/orange.gif","img/card_backs/set2/gray.gif","img/card_backs/set2/pink.gif","img/card_backs/set2/blue.gif","""event"",""trial"",""time""
""focus"",""0"",""0""
""fullscreenenter"",""1"",""3823""
","
","""event"",""trial"",""time""
""focus"",""0"",""0""
","""event"",""trial"",""time""
""fullscreenenter"",""1"",""3823""
","
","","407","","","","real_trial","2021-08-07 21:50:50.189","img/card_backs/set1/red.gif","0","200","1","",""
