"trial_type","trial_index","time_elapsed","internal_node_id","sub_id","risk_good_first","block1_A","block1_B","block1_C","block1_D","block2_A","block2_B","block2_C","block2_D","interactions","blur_events","focus_events","fullscreenenter_events","fullscreenexit_events","success","rt","stimulus","key_press","button_pressed","task_part","timestamp","card_choice","choice_position","points_earned","block","correct","response"
"pavlovia","0","6","0.0-0.0","863","true","img/card_backs/set1/red.gif","img/card_backs/set1/purple.gif","img/card_backs/set1/yellow.gif","img/card_backs/set1/green.gif","img/card_backs/set2/blue.gif","img/card_backs/set2/gray.gif","img/card_backs/set2/orange.gif","img/card_backs/set2/pink.gif","""event"",""trial"",""time""
""fullscreenenter"",""1"",""1893""
","
","
","""event"",""trial"",""time""
""fullscreenenter"",""1"",""1893""
","
","","","","","","","","","","","","",""
"fullscreen","1","2807","0.0-1.0","863","true","img/card_backs/set1/red.gif","img/card_backs/set1/purple.gif","img/card_backs/set1/yellow.gif","img/card_backs/set1/green.gif","img/card_backs/set2/blue.gif","img/card_backs/set2/gray.gif","img/card_backs/set2/orange.gif","img/card_backs/set2/pink.gif","""event"",""trial"",""time""
""fullscreenenter"",""1"",""1893""
","
","
","""event"",""trial"",""time""
""fullscreenenter"",""1"",""1893""
","
","true","","","","","","","","","","","",""
"audio-keyboard-response","2","5815","0.0-2.0","863","true","img/card_backs/set1/red.gif","img/card_backs/set1/purple.gif","img/card_backs/set1/yellow.gif","img/card_backs/set1/green.gif","img/card_backs/set2/blue.gif","img/card_backs/set2/gray.gif","img/card_backs/set2/orange.gif","img/card_backs/set2/pink.gif","""event"",""trial"",""time""
""fullscreenenter"",""1"",""1893""
","
","
","""event"",""trial"",""time""
""fullscreenenter"",""1"",""1893""
","
","","0","audio/beep_loop.wav","32","","","","","","","","",""
"audio-button-response","3","7466","0.0-3.0","863","true","img/card_backs/set1/red.gif","img/card_backs/set1/purple.gif","img/card_backs/set1/yellow.gif","img/card_backs/set1/green.gif","img/card_backs/set2/blue.gif","img/card_backs/set2/gray.gif","img/card_backs/set2/orange.gif","img/card_backs/set2/pink.gif","""event"",""trial"",""time""
""fullscreenenter"",""1"",""1893""
","
","
","""event"",""trial"",""time""
""fullscreenenter"",""1"",""1893""
","
","","NaN","audio/turtle.mp3","","3","","","","","","","",""
"audio-button-response","4","9651","0.0-4.0","863","true","img/card_backs/set1/red.gif","img/card_backs/set1/purple.gif","img/card_backs/set1/yellow.gif","img/card_backs/set1/green.gif","img/card_backs/set2/blue.gif","img/card_backs/set2/gray.gif","img/card_backs/set2/orange.gif","img/card_backs/set2/pink.gif","""event"",""trial"",""time""
""fullscreenenter"",""1"",""1893""
","
","
","""event"",""trial"",""time""
""fullscreenenter"",""1"",""1893""
","
","","NaN","audio/shark.mp3","","2","","","","","","","",""
"fullscreen","5","13576","0.0-5.0","863","true","img/card_backs/set1/red.gif","img/card_backs/set1/purple.gif","img/card_backs/set1/yellow.gif","img/card_backs/set1/green.gif","img/card_backs/set2/blue.gif","img/card_backs/set2/gray.gif","img/card_backs/set2/orange.gif","img/card_backs/set2/pink.gif","""event"",""trial"",""time""
""fullscreenenter"",""1"",""1893""
","
","
","""event"",""trial"",""time""
""fullscreenenter"",""1"",""1893""
","
","true","","","","","","","","","","","",""
"casino-keyboard-response","6","17462","0.0-6.0-0.0","863","true","img/card_backs/set1/red.gif","img/card_backs/set1/purple.gif","img/card_backs/set1/yellow.gif","img/card_backs/set1/green.gif","img/card_backs/set2/blue.gif","img/card_backs/set2/gray.gif","img/card_backs/set2/orange.gif","img/card_backs/set2/pink.gif","""event"",""trial"",""time""
""fullscreenenter"",""1"",""1893""
","
","
","""event"",""trial"",""time""
""fullscreenenter"",""1"",""1893""
","
","","3881","Welcome to the casino!","71","","instructions","2021-05-16 23:26:30.239","","","","","",""
"casino-keyboard-response","7","31160","0.0-6.0-0.1","863","true","img/card_backs/set1/red.gif","img/card_backs/set1/purple.gif","img/card_backs/set1/yellow.gif","img/card_backs/set1/green.gif","img/card_backs/set2/blue.gif","img/card_backs/set2/gray.gif","img/card_backs/set2/orange.gif","img/card_backs/set2/pink.gif","""event"",""trial"",""time""
""fullscreenenter"",""1"",""1893""
","
","
","""event"",""trial"",""time""
""fullscreenenter"",""1"",""1893""
","
","","13696","Today you will be playing a game to earn tokens. </br> At the end of the experiment, you will be paid a bonus based on how many tokens you win. ","69","","instructions","2021-05-16 23:26:43.938","","","","","",""
"casino-keyboard-response","8","59387","0.0-6.0-0.2","863","true","img/card_backs/set1/red.gif","img/card_backs/set1/purple.gif","img/card_backs/set1/yellow.gif","img/card_backs/set1/green.gif","img/card_backs/set2/blue.gif","img/card_backs/set2/gray.gif","img/card_backs/set2/orange.gif","img/card_backs/set2/pink.gif","""event"",""trial"",""time""
""fullscreenenter"",""1"",""1893""
","
","
","""event"",""trial"",""time""
""fullscreenenter"",""1"",""1893""
","
","","28225","On every turn, you will be shown four different decks of cards. </br> You need to select a card from one of the four decks.  ","75","","instructions","2021-05-16 23:27:12.164","","","","","",""
"casino-keyboard-response","9","64527","0.0-6.0-0.3","863","true","img/card_backs/set1/red.gif","img/card_backs/set1/purple.gif","img/card_backs/set1/yellow.gif","img/card_backs/set1/green.gif","img/card_backs/set2/blue.gif","img/card_backs/set2/gray.gif","img/card_backs/set2/orange.gif","img/card_backs/set2/pink.gif","""event"",""trial"",""time""
""fullscreenenter"",""1"",""1893""
","
","
","""event"",""trial"",""time""
""fullscreenenter"",""1"",""1893""
","
","","5137","On the next screen, you will see what the decks will look like. ","66","","instructions","2021-05-16 23:27:17.304","","","","","",""
"card-selection-trial","10","68534","0.0-7.0-0.0","863","true","img/card_backs/set1/red.gif","img/card_backs/set1/purple.gif","img/card_backs/set1/yellow.gif","img/card_backs/set1/green.gif","img/card_backs/set2/blue.gif","img/card_backs/set2/gray.gif","img/card_backs/set2/orange.gif","img/card_backs/set2/pink.gif","""event"",""trial"",""time""
""fullscreenenter"",""1"",""1893""
","
","
","""event"",""trial"",""time""
""fullscreenenter"",""1"",""1893""
","
","","null","","","","practice","2021-05-16 23:27:21.311","null","null","null","0","",""
"casino-keyboard-response","11","77926","0.0-8.0-0.0","863","true","img/card_backs/set1/red.gif","img/card_backs/set1/purple.gif","img/card_backs/set1/yellow.gif","img/card_backs/set1/green.gif","img/card_backs/set2/blue.gif","img/card_backs/set2/gray.gif","img/card_backs/set2/orange.gif","img/card_backs/set2/pink.gif","""event"",""trial"",""time""
""fullscreenenter"",""1"",""1893""
","
","
","""event"",""trial"",""time""
""fullscreenenter"",""1"",""1893""
","
","","9390","You should pick a card from a deck using the '2', '4', '6', and '8' keys at the top of the keyboard.","85","","instructions","2021-05-16 23:27:30.703","","","","","",""
"casino-keyboard-response","12","83308","0.0-8.0-0.1","863","true","img/card_backs/set1/red.gif","img/card_backs/set1/purple.gif","img/card_backs/set1/yellow.gif","img/card_backs/set1/green.gif","img/card_backs/set2/blue.gif","img/card_backs/set2/gray.gif","img/card_backs/set2/orange.gif","img/card_backs/set2/pink.gif","""event"",""trial"",""time""
""fullscreenenter"",""1"",""1893""
","
","
","""event"",""trial"",""time""
""fullscreenenter"",""1"",""1893""
","
","","5378.999999999985","Once you select a card, it will turn over and you will see how many tokens you earned.","83","","instructions","2021-05-16 23:27:36.086","","","","","",""
"casino-keyboard-response","13","100263","0.0-8.0-0.2","863","true","img/card_backs/set1/red.gif","img/card_backs/set1/purple.gif","img/card_backs/set1/yellow.gif","img/card_backs/set1/green.gif","img/card_backs/set2/blue.gif","img/card_backs/set2/gray.gif","img/card_backs/set2/orange.gif","img/card_backs/set2/pink.gif","""event"",""trial"",""time""
""fullscreenenter"",""1"",""1893""
","
","
","""event"",""trial"",""time""
""fullscreenenter"",""1"",""1893""
","
","","16952","Let's try practicing that! </br> First, try to put your fingers over the '2', '4', '6', and '8' keys. </br>  You can use whatever fingers are most comfortable for you. Try to find a comfortable position now. ","50","","instructions","2021-05-16 23:27:53.041","","","","","",""
"casino-keyboard-response","14","105966","0.0-8.0-0.3","863","true","img/card_backs/set1/red.gif","img/card_backs/set1/purple.gif","img/card_backs/set1/yellow.gif","img/card_backs/set1/green.gif","img/card_backs/set2/blue.gif","img/card_backs/set2/gray.gif","img/card_backs/set2/orange.gif","img/card_backs/set2/pink.gif","""event"",""trial"",""time""
""fullscreenenter"",""1"",""1893""
","
","
","""event"",""trial"",""time""
""fullscreenenter"",""1"",""1893""
","
","","5698","Okay ready? </br> On the next screen, press '2' to select the left deck. ","50","","instructions","2021-05-16 23:27:58.743","","","","","",""
"card-selection-trial","15","109209","0.0-9.0-0.0","863","true","img/card_backs/set1/red.gif","img/card_backs/set1/purple.gif","img/card_backs/set1/yellow.gif","img/card_backs/set1/green.gif","img/card_backs/set2/blue.gif","img/card_backs/set2/gray.gif","img/card_backs/set2/orange.gif","img/card_backs/set2/pink.gif","""event"",""trial"",""time""
""fullscreenenter"",""1"",""1893""
","
","
","""event"",""trial"",""time""
""fullscreenenter"",""1"",""1893""
","
","","1219","","","","practice_card_selection","2021-05-16 23:28:01.986","img/practice_cards/backs/black.gif","0","100","","",""
"casino-keyboard-response","16","114658","0.0-10.0-0.0","863","true","img/card_backs/set1/red.gif","img/card_backs/set1/purple.gif","img/card_backs/set1/yellow.gif","img/card_backs/set1/green.gif","img/card_backs/set2/blue.gif","img/card_backs/set2/gray.gif","img/card_backs/set2/orange.gif","img/card_backs/set2/pink.gif","""event"",""trial"",""time""
""fullscreenenter"",""1"",""1893""
","
","
","""event"",""trial"",""time""
""fullscreenenter"",""1"",""1893""
","
","","5447.999999999985","Great! Now on the next screen, try pressing '6' to select the third deck.","54","","instructions","2021-05-16 23:28:07.435","","","","","",""
"card-selection-trial","17","117301","0.0-11.0-0.0","863","true","img/card_backs/set1/red.gif","img/card_backs/set1/purple.gif","img/card_backs/set1/yellow.gif","img/card_backs/set1/green.gif","img/card_backs/set2/blue.gif","img/card_backs/set2/gray.gif","img/card_backs/set2/orange.gif","img/card_backs/set2/pink.gif","""event"",""trial"",""time""
""fullscreenenter"",""1"",""1893""
","
","
","""event"",""trial"",""time""
""fullscreenenter"",""1"",""1893""
","
","","626.0000000000146","","","","practice_card_selection","2021-05-16 23:28:10.079","img/practice_cards/backs/brown.gif","2","-100","","",""
"casino-keyboard-response","18","121800","0.0-12.0-0.0","863","true","img/card_backs/set1/red.gif","img/card_backs/set1/purple.gif","img/card_backs/set1/yellow.gif","img/card_backs/set1/green.gif","img/card_backs/set2/blue.gif","img/card_backs/set2/gray.gif","img/card_backs/set2/orange.gif","img/card_backs/set2/pink.gif","""event"",""trial"",""time""
""fullscreenenter"",""1"",""1893""
","
","
","""event"",""trial"",""time""
""fullscreenenter"",""1"",""1893""
","
","","4496.000000000015","Now on the next screen, try pressing '4' to select the second deck.","52","","instructions","2021-05-16 23:28:14.577","","","","","",""
"card-selection-trial","19","124150","0.0-13.0-0.0","863","true","img/card_backs/set1/red.gif","img/card_backs/set1/purple.gif","img/card_backs/set1/yellow.gif","img/card_backs/set1/green.gif","img/card_backs/set2/blue.gif","img/card_backs/set2/gray.gif","img/card_backs/set2/orange.gif","img/card_backs/set2/pink.gif","""event"",""trial"",""time""
""fullscreenenter"",""1"",""1893""
","
","
","""event"",""trial"",""time""
""fullscreenenter"",""1"",""1893""
","
","","333.99999999998545","","","","practice_card_selection","2021-05-16 23:28:16.928","img/practice_cards/backs/dark_blue.gif","1","-200","","",""
"casino-keyboard-response","20","128533","0.0-14.0-0.0","863","true","img/card_backs/set1/red.gif","img/card_backs/set1/purple.gif","img/card_backs/set1/yellow.gif","img/card_backs/set1/green.gif","img/card_backs/set2/blue.gif","img/card_backs/set2/gray.gif","img/card_backs/set2/orange.gif","img/card_backs/set2/pink.gif","""event"",""trial"",""time""
""fullscreenenter"",""1"",""1893""
","
","
","""event"",""trial"",""time""
""fullscreenenter"",""1"",""1893""
","
","","4381","Finally, try pressing '8' to select the deck all the way on the right.","56","","instructions","2021-05-16 23:28:21.310","","","","","",""
"card-selection-trial","21","130947","0.0-15.0-0.0","863","true","img/card_backs/set1/red.gif","img/card_backs/set1/purple.gif","img/card_backs/set1/yellow.gif","img/card_backs/set1/green.gif","img/card_backs/set2/blue.gif","img/card_backs/set2/gray.gif","img/card_backs/set2/orange.gif","img/card_backs/set2/pink.gif","""event"",""trial"",""time""
""fullscreenenter"",""1"",""1893""
","
","
","""event"",""trial"",""time""
""fullscreenenter"",""1"",""1893""
","
","","400","","","","practice_card_selection","2021-05-16 23:28:23.724","img/practice_cards/backs/black.gif","3","100","","",""
"casino-keyboard-response","22","136745","0.0-16.0-0.0","863","true","img/card_backs/set1/red.gif","img/card_backs/set1/purple.gif","img/card_backs/set1/yellow.gif","img/card_backs/set1/green.gif","img/card_backs/set2/blue.gif","img/card_backs/set2/gray.gif","img/card_backs/set2/orange.gif","img/card_backs/set2/pink.gif","""event"",""trial"",""time""
""fullscreenenter"",""1"",""1893""
","
","
","""event"",""trial"",""time""
""fullscreenenter"",""1"",""1893""
","
","","5795","Great! It seems like you are getting the hang of this.","80","","instructions","2021-05-16 23:28:29.522","","","","","",""
"casino-keyboard-response","23","144081","0.0-16.0-0.1","863","true","img/card_backs/set1/red.gif","img/card_backs/set1/purple.gif","img/card_backs/set1/yellow.gif","img/card_backs/set1/green.gif","img/card_backs/set2/blue.gif","img/card_backs/set2/gray.gif","img/card_backs/set2/orange.gif","img/card_backs/set2/pink.gif","""event"",""trial"",""time""
""fullscreenenter"",""1"",""1893""
","
","
","""event"",""trial"",""time""
""fullscreenenter"",""1"",""1893""
","
","","7334","You may have noticed that some cards will cause you to <b> win </b> tokens while other cards will cause you to <b> lose </b>  tokens.","70","","instructions","2021-05-16 23:28:36.859","","","","","",""
"casino-keyboard-response","24","152916","0.0-16.0-0.2","863","true","img/card_backs/set1/red.gif","img/card_backs/set1/purple.gif","img/card_backs/set1/yellow.gif","img/card_backs/set1/green.gif","img/card_backs/set2/blue.gif","img/card_backs/set2/gray.gif","img/card_backs/set2/orange.gif","img/card_backs/set2/pink.gif","""event"",""trial"",""time""
""fullscreenenter"",""1"",""1893""
","
","
","""event"",""trial"",""time""
""fullscreenenter"",""1"",""1893""
","
","","8833.00000000003","Each deck has a mix of cards that will cause you to win and lose tokens. </br> However, the cards in each colored deck are different.","73","","instructions","2021-05-16 23:28:45.693","","","","","",""
"casino-keyboard-response","25","163594","0.0-16.0-0.3","863","true","img/card_backs/set1/red.gif","img/card_backs/set1/purple.gif","img/card_backs/set1/yellow.gif","img/card_backs/set1/green.gif","img/card_backs/set2/blue.gif","img/card_backs/set2/gray.gif","img/card_backs/set2/orange.gif","img/card_backs/set2/pink.gif","""event"",""trial"",""time""
""fullscreenenter"",""1"",""1893""
","
","
","""event"",""trial"",""time""
""fullscreenenter"",""1"",""1893""
","
","","10675","Some colored decks are luckier than others. </br> If you choose the lucky decks, you will earn more tokens than if you choose the unlucky decks.","69","","instructions","2021-05-16 23:28:56.371","","","","","",""
"casino-keyboard-response","26","171288","0.0-16.0-0.4","863","true","img/card_backs/set1/red.gif","img/card_backs/set1/purple.gif","img/card_backs/set1/yellow.gif","img/card_backs/set1/green.gif","img/card_backs/set2/blue.gif","img/card_backs/set2/gray.gif","img/card_backs/set2/orange.gif","img/card_backs/set2/pink.gif","""event"",""trial"",""time""
""fullscreenenter"",""1"",""1893""
","
","
","""event"",""trial"",""time""
""fullscreenenter"",""1"",""1893""
","
","","7692","You should try to figure out which decks are lucky. </br> Then, try to choose the lucky decks so you can win the most tokens.","87","","instructions","2021-05-16 23:29:04.065","","","","","",""
"casino-keyboard-response","27","184937","0.0-16.0-0.5","863","true","img/card_backs/set1/red.gif","img/card_backs/set1/purple.gif","img/card_backs/set1/yellow.gif","img/card_backs/set1/green.gif","img/card_backs/set2/blue.gif","img/card_backs/set2/gray.gif","img/card_backs/set2/orange.gif","img/card_backs/set2/pink.gif","""event"",""trial"",""time""
""fullscreenenter"",""1"",""1893""
","
","
","""event"",""trial"",""time""
""fullscreenenter"",""1"",""1893""
","
","","13647.99999999997","To make it trickier, the casino dealer will switch the locations of the decks on every turn. </br> The color of the deck determines how lucky it is. The location does not matter.","88","","instructions","2021-05-16 23:29:17.714","","","","","",""
"casino-keyboard-response","28","194698","0.0-16.0-0.6","863","true","img/card_backs/set1/red.gif","img/card_backs/set1/purple.gif","img/card_backs/set1/yellow.gif","img/card_backs/set1/green.gif","img/card_backs/set2/blue.gif","img/card_backs/set2/gray.gif","img/card_backs/set2/orange.gif","img/card_backs/set2/pink.gif","""event"",""trial"",""time""
""fullscreenenter"",""1"",""1893""
","
","
","""event"",""trial"",""time""
""fullscreenenter"",""1"",""1893""
","
","","9758.99999999997","The mix of cards in each colored deck will stay the same throughout the game. </br> That means that a deck that is lucky early on will stay lucky.","79","","instructions","2021-05-16 23:29:27.475","","","","","",""
"casino-keyboard-response","29","203687","0.0-16.0-0.7","863","true","img/card_backs/set1/red.gif","img/card_backs/set1/purple.gif","img/card_backs/set1/yellow.gif","img/card_backs/set1/green.gif","img/card_backs/set2/blue.gif","img/card_backs/set2/gray.gif","img/card_backs/set2/orange.gif","img/card_backs/set2/pink.gif","""event"",""trial"",""time""
""fullscreenenter"",""1"",""1893""
","
","
","""event"",""trial"",""time""
""fullscreenenter"",""1"",""1893""
","
","","8987.00000000003","Remember though, all the decks have a <b> mix </b> of both <b> good </b> and <b> bad </b> cards so it may take a couple of turns to figure out if a deck is lucky.","69","","instructions","2021-05-16 23:29:36.464","","","","","",""
"casino-keyboard-response","30","212613","0.0-16.0-0.8","863","true","img/card_backs/set1/red.gif","img/card_backs/set1/purple.gif","img/card_backs/set1/yellow.gif","img/card_backs/set1/green.gif","img/card_backs/set2/blue.gif","img/card_backs/set2/gray.gif","img/card_backs/set2/orange.gif","img/card_backs/set2/pink.gif","""event"",""trial"",""time""
""fullscreenenter"",""1"",""1893""
","
","
","""event"",""trial"",""time""
""fullscreenenter"",""1"",""1893""
","
","","8923","At the end of the game, you will be paid bonus money based on how many tokens you win. </br> If you win more tokens, you will earn more money!","72","","instructions","2021-05-16 23:29:45.390","","","","","",""
"casino-keyboard-response","31","223487","0.0-16.0-0.9","863","true","img/card_backs/set1/red.gif","img/card_backs/set1/purple.gif","img/card_backs/set1/yellow.gif","img/card_backs/set1/green.gif","img/card_backs/set2/blue.gif","img/card_backs/set2/gray.gif","img/card_backs/set2/orange.gif","img/card_backs/set2/pink.gif","""event"",""trial"",""time""
""fullscreenenter"",""1"",""1893""
","
","
","""event"",""trial"",""time""
""fullscreenenter"",""1"",""1893""
","
","","10871.99999999997","You will never <b> lose </b> money. </br> If you end up with fewer than 0 tokens, you will earn $0 of bonus money, but you will still be paid for playing the game.","83","","instructions","2021-05-16 23:29:56.264","","","","","",""
"casino-keyboard-response","32","227959","0.0-16.0-0.10","863","true","img/card_backs/set1/red.gif","img/card_backs/set1/purple.gif","img/card_backs/set1/yellow.gif","img/card_backs/set1/green.gif","img/card_backs/set2/blue.gif","img/card_backs/set2/gray.gif","img/card_backs/set2/orange.gif","img/card_backs/set2/pink.gif","""event"",""trial"",""time""
""fullscreenenter"",""1"",""1893""
","
","
","""event"",""trial"",""time""
""fullscreenenter"",""1"",""1893""
","
","","4469","You will have 10 seconds to make each choice.","82","","instructions","2021-05-16 23:30:00.737","","","","","",""
"casino-keyboard-response","33","237310","0.0-16.0-0.11","863","true","img/card_backs/set1/red.gif","img/card_backs/set1/purple.gif","img/card_backs/set1/yellow.gif","img/card_backs/set1/green.gif","img/card_backs/set2/blue.gif","img/card_backs/set2/gray.gif","img/card_backs/set2/orange.gif","img/card_backs/set2/pink.gif","""event"",""trial"",""time""
""fullscreenenter"",""1"",""1893""
","
","
","""event"",""trial"",""time""
""fullscreenenter"",""1"",""1893""
","
","","9348","Before you play the game for real, you will play with practice decks. </br> The tokens you earn during practice won't count toward your total.","86","","instructions","2021-05-16 23:30:10.087","","","","","",""
"casino-keyboard-response","34","248374","0.0-16.0-0.12","863","true","img/card_backs/set1/red.gif","img/card_backs/set1/purple.gif","img/card_backs/set1/yellow.gif","img/card_backs/set1/green.gif","img/card_backs/set2/blue.gif","img/card_backs/set2/gray.gif","img/card_backs/set2/orange.gif","img/card_backs/set2/pink.gif","""event"",""trial"",""time""
""fullscreenenter"",""1"",""1893""
","
","
","""event"",""trial"",""time""
""fullscreenenter"",""1"",""1893""
","
","","11063","Ready? Remember, use the '2', '4', '6', and '8' keys to select the decks. </br> Put your fingers on those keys now and then press '2' to begin.","50","","instructions","2021-05-16 23:30:21.151","","","","","",""
"casino-fixation","35","248876","0.0-17.0-0.0","863","true","img/card_backs/set1/red.gif","img/card_backs/set1/purple.gif","img/card_backs/set1/yellow.gif","img/card_backs/set1/green.gif","img/card_backs/set2/blue.gif","img/card_backs/set2/gray.gif","img/card_backs/set2/orange.gif","img/card_backs/set2/pink.gif","""event"",""trial"",""time""
""fullscreenenter"",""1"",""1893""
","
","
","""event"",""trial"",""time""
""fullscreenenter"",""1"",""1893""
","
","","null","","null","","fixation","2021-05-16 23:30:21.653","","","","","",""
"card-selection-trial","36","253293","0.0-17.0-1.0","863","true","img/card_backs/set1/red.gif","img/card_backs/set1/purple.gif","img/card_backs/set1/yellow.gif","img/card_backs/set1/green.gif","img/card_backs/set2/blue.gif","img/card_backs/set2/gray.gif","img/card_backs/set2/orange.gif","img/card_backs/set2/pink.gif","""event"",""trial"",""time""
""fullscreenenter"",""1"",""1893""
","
","
","""event"",""trial"",""time""
""fullscreenenter"",""1"",""1893""
","
","","2410.000000000029","","","","practice","2021-05-16 23:30:26.071","img/practice_cards/backs/dark_blue.gif","0","200","0","",""
"casino-fixation","37","253797","0.0-17.0-0.1","863","true","img/card_backs/set1/red.gif","img/card_backs/set1/purple.gif","img/card_backs/set1/yellow.gif","img/card_backs/set1/green.gif","img/card_backs/set2/blue.gif","img/card_backs/set2/gray.gif","img/card_backs/set2/orange.gif","img/card_backs/set2/pink.gif","""event"",""trial"",""time""
""fullscreenenter"",""1"",""1893""
","
","
","""event"",""trial"",""time""
""fullscreenenter"",""1"",""1893""
","
","","null","","null","","fixation","2021-05-16 23:30:26.574","","","","","",""
"card-selection-trial","38","258942","0.0-17.0-1.1","863","true","img/card_backs/set1/red.gif","img/card_backs/set1/purple.gif","img/card_backs/set1/yellow.gif","img/card_backs/set1/green.gif","img/card_backs/set2/blue.gif","img/card_backs/set2/gray.gif","img/card_backs/set2/orange.gif","img/card_backs/set2/pink.gif","""event"",""trial"",""time""
""fullscreenenter"",""1"",""1893""
","
","
","""event"",""trial"",""time""
""fullscreenenter"",""1"",""1893""
","
","","3138.000000000058","","","","practice","2021-05-16 23:30:31.720","img/practice_cards/backs/dark_blue.gif","2","200","0","",""
"casino-fixation","39","259446","0.0-17.0-0.2","863","true","img/card_backs/set1/red.gif","img/card_backs/set1/purple.gif","img/card_backs/set1/yellow.gif","img/card_backs/set1/green.gif","img/card_backs/set2/blue.gif","img/card_backs/set2/gray.gif","img/card_backs/set2/orange.gif","img/card_backs/set2/pink.gif","""event"",""trial"",""time""
""fullscreenenter"",""1"",""1893""
","
","
","""event"",""trial"",""time""
""fullscreenenter"",""1"",""1893""
","
","","null","","null","","fixation","2021-05-16 23:30:32.223","","","","","",""
"card-selection-trial","40","263064","0.0-17.0-1.2","863","true","img/card_backs/set1/red.gif","img/card_backs/set1/purple.gif","img/card_backs/set1/yellow.gif","img/card_backs/set1/green.gif","img/card_backs/set2/blue.gif","img/card_backs/set2/gray.gif","img/card_backs/set2/orange.gif","img/card_backs/set2/pink.gif","""event"",""trial"",""time""
""fullscreenenter"",""1"",""1893""
","
","
","""event"",""trial"",""time""
""fullscreenenter"",""1"",""1893""
","
","","1612.0000000000582","","","","practice","2021-05-16 23:30:35.841","img/practice_cards/backs/dark_blue.gif","3","-200","0","",""
"casino-fixation","41","263567","0.0-17.0-0.3","863","true","img/card_backs/set1/red.gif","img/card_backs/set1/purple.gif","img/card_backs/set1/yellow.gif","img/card_backs/set1/green.gif","img/card_backs/set2/blue.gif","img/card_backs/set2/gray.gif","img/card_backs/set2/orange.gif","img/card_backs/set2/pink.gif","""event"",""trial"",""time""
""fullscreenenter"",""1"",""1893""
","
","
","""event"",""trial"",""time""
""fullscreenenter"",""1"",""1893""
","
","","null","","null","","fixation","2021-05-16 23:30:36.344","","","","","",""
"card-selection-trial","42","266949","0.0-17.0-1.3","863","true","img/card_backs/set1/red.gif","img/card_backs/set1/purple.gif","img/card_backs/set1/yellow.gif","img/card_backs/set1/green.gif","img/card_backs/set2/blue.gif","img/card_backs/set2/gray.gif","img/card_backs/set2/orange.gif","img/card_backs/set2/pink.gif","""event"",""trial"",""time""
""fullscreenenter"",""1"",""1893""
","
","
","""event"",""trial"",""time""
""fullscreenenter"",""1"",""1893""
","
","","1376","","","","practice","2021-05-16 23:30:39.727","img/practice_cards/backs/dark_blue.gif","0","200","0","",""
"casino-fixation","43","267453","0.0-17.0-0.4","863","true","img/card_backs/set1/red.gif","img/card_backs/set1/purple.gif","img/card_backs/set1/yellow.gif","img/card_backs/set1/green.gif","img/card_backs/set2/blue.gif","img/card_backs/set2/gray.gif","img/card_backs/set2/orange.gif","img/card_backs/set2/pink.gif","""event"",""trial"",""time""
""fullscreenenter"",""1"",""1893""
","
","
","""event"",""trial"",""time""
""fullscreenenter"",""1"",""1893""
","
","","null","","null","","fixation","2021-05-16 23:30:40.231","","","","","",""
"card-selection-trial","44","270849","0.0-17.0-1.4","863","true","img/card_backs/set1/red.gif","img/card_backs/set1/purple.gif","img/card_backs/set1/yellow.gif","img/card_backs/set1/green.gif","img/card_backs/set2/blue.gif","img/card_backs/set2/gray.gif","img/card_backs/set2/orange.gif","img/card_backs/set2/pink.gif","""event"",""trial"",""time""
""fullscreenenter"",""1"",""1893""
","
","
","""event"",""trial"",""time""
""fullscreenenter"",""1"",""1893""
","
","","1390.0000000000582","","","","practice","2021-05-16 23:30:43.627","img/practice_cards/backs/dark_blue.gif","2","-200","0","",""
"casino-fixation","45","271353","0.0-17.0-0.5","863","true","img/card_backs/set1/red.gif","img/card_backs/set1/purple.gif","img/card_backs/set1/yellow.gif","img/card_backs/set1/green.gif","img/card_backs/set2/blue.gif","img/card_backs/set2/gray.gif","img/card_backs/set2/orange.gif","img/card_backs/set2/pink.gif","""event"",""trial"",""time""
""fullscreenenter"",""1"",""1893""
","
","
","""event"",""trial"",""time""
""fullscreenenter"",""1"",""1893""
","
","","null","","null","","fixation","2021-05-16 23:30:44.130","","","","","",""
"card-selection-trial","46","274905","0.0-17.0-1.5","863","true","img/card_backs/set1/red.gif","img/card_backs/set1/purple.gif","img/card_backs/set1/yellow.gif","img/card_backs/set1/green.gif","img/card_backs/set2/blue.gif","img/card_backs/set2/gray.gif","img/card_backs/set2/orange.gif","img/card_backs/set2/pink.gif","""event"",""trial"",""time""
""fullscreenenter"",""1"",""1893""
","
","
","""event"",""trial"",""time""
""fullscreenenter"",""1"",""1893""
","
","","1544","","","","practice","2021-05-16 23:30:47.682","img/practice_cards/backs/dark_blue.gif","0","-200","0","",""
"casino-fixation","47","275409","0.0-17.0-0.6","863","true","img/card_backs/set1/red.gif","img/card_backs/set1/purple.gif","img/card_backs/set1/yellow.gif","img/card_backs/set1/green.gif","img/card_backs/set2/blue.gif","img/card_backs/set2/gray.gif","img/card_backs/set2/orange.gif","img/card_backs/set2/pink.gif","""event"",""trial"",""time""
""fullscreenenter"",""1"",""1893""
","
","
","""event"",""trial"",""time""
""fullscreenenter"",""1"",""1893""
","
","","null","","null","","fixation","2021-05-16 23:30:48.186","","","","","",""
"card-selection-trial","48","278916","0.0-17.0-1.6","863","true","img/card_backs/set1/red.gif","img/card_backs/set1/purple.gif","img/card_backs/set1/yellow.gif","img/card_backs/set1/green.gif","img/card_backs/set2/blue.gif","img/card_backs/set2/gray.gif","img/card_backs/set2/orange.gif","img/card_backs/set2/pink.gif","""event"",""trial"",""time""
""fullscreenenter"",""1"",""1893""
","
","
","""event"",""trial"",""time""
""fullscreenenter"",""1"",""1893""
","
","","1499","","","","practice","2021-05-16 23:30:51.693","img/practice_cards/backs/dark_blue.gif","2","200","0","",""
"casino-fixation","49","279420","0.0-17.0-0.7","863","true","img/card_backs/set1/red.gif","img/card_backs/set1/purple.gif","img/card_backs/set1/yellow.gif","img/card_backs/set1/green.gif","img/card_backs/set2/blue.gif","img/card_backs/set2/gray.gif","img/card_backs/set2/orange.gif","img/card_backs/set2/pink.gif","""event"",""trial"",""time""
""fullscreenenter"",""1"",""1893""
","
","
","""event"",""trial"",""time""
""fullscreenenter"",""1"",""1893""
","
","","null","","null","","fixation","2021-05-16 23:30:52.197","","","","","",""
"card-selection-trial","50","283627","0.0-17.0-1.7","863","true","img/card_backs/set1/red.gif","img/card_backs/set1/purple.gif","img/card_backs/set1/yellow.gif","img/card_backs/set1/green.gif","img/card_backs/set2/blue.gif","img/card_backs/set2/gray.gif","img/card_backs/set2/orange.gif","img/card_backs/set2/pink.gif","""event"",""trial"",""time""
""fullscreenenter"",""1"",""1893""
","
","
","""event"",""trial"",""time""
""fullscreenenter"",""1"",""1893""
","
","","2200","","","","practice","2021-05-16 23:30:56.404","img/practice_cards/backs/dark_green.gif","2","200","0","",""
"casino-fixation","51","284130","0.0-17.0-0.8","863","true","img/card_backs/set1/red.gif","img/card_backs/set1/purple.gif","img/card_backs/set1/yellow.gif","img/card_backs/set1/green.gif","img/card_backs/set2/blue.gif","img/card_backs/set2/gray.gif","img/card_backs/set2/orange.gif","img/card_backs/set2/pink.gif","""event"",""trial"",""time""
""fullscreenenter"",""1"",""1893""
","
","
","""event"",""trial"",""time""
""fullscreenenter"",""1"",""1893""
","
","","null","","null","","fixation","2021-05-16 23:30:56.907","","","","","",""
"card-selection-trial","52","287480","0.0-17.0-1.8","863","true","img/card_backs/set1/red.gif","img/card_backs/set1/purple.gif","img/card_backs/set1/yellow.gif","img/card_backs/set1/green.gif","img/card_backs/set2/blue.gif","img/card_backs/set2/gray.gif","img/card_backs/set2/orange.gif","img/card_backs/set2/pink.gif","""event"",""trial"",""time""
""fullscreenenter"",""1"",""1893""
","
","
","""event"",""trial"",""time""
""fullscreenenter"",""1"",""1893""
","
","","1344","","","","practice","2021-05-16 23:31:00.258","img/practice_cards/backs/dark_green.gif","0","200","0","",""
"casino-fixation","53","287984","0.0-17.0-0.9","863","true","img/card_backs/set1/red.gif","img/card_backs/set1/purple.gif","img/card_backs/set1/yellow.gif","img/card_backs/set1/green.gif","img/card_backs/set2/blue.gif","img/card_backs/set2/gray.gif","img/card_backs/set2/orange.gif","img/card_backs/set2/pink.gif","""event"",""trial"",""time""
""fullscreenenter"",""1"",""1893""
","
","
","""event"",""trial"",""time""
""fullscreenenter"",""1"",""1893""
","
","","null","","null","","fixation","2021-05-16 23:31:00.761","","","","","",""
"card-selection-trial","54","290535","0.0-17.0-1.9","863","true","img/card_backs/set1/red.gif","img/card_backs/set1/purple.gif","img/card_backs/set1/yellow.gif","img/card_backs/set1/green.gif","img/card_backs/set2/blue.gif","img/card_backs/set2/gray.gif","img/card_backs/set2/orange.gif","img/card_backs/set2/pink.gif","""event"",""trial"",""time""
""fullscreenenter"",""1"",""1893""
","
","
","""event"",""trial"",""time""
""fullscreenenter"",""1"",""1893""
","
","","544.9999999999418","","","","practice","2021-05-16 23:31:03.312","img/practice_cards/backs/dark_green.gif","0","-200","0","",""
"casino-keyboard-response","55","293738","0.0-18.0","863","true","img/card_backs/set1/red.gif","img/card_backs/set1/purple.gif","img/card_backs/set1/yellow.gif","img/card_backs/set1/green.gif","img/card_backs/set2/blue.gif","img/card_backs/set2/gray.gif","img/card_backs/set2/orange.gif","img/card_backs/set2/pink.gif","""event"",""trial"",""time""
""fullscreenenter"",""1"",""1893""
","
","
","""event"",""trial"",""time""
""fullscreenenter"",""1"",""1893""
","
","","3199","You earned 400 tokens during the practice round!","82","","","2021-05-16 23:31:06.515","","","","","",""
"casino-keyboard-response","56","298228","0.0-19.0-0.0","863","true","img/card_backs/set1/red.gif","img/card_backs/set1/purple.gif","img/card_backs/set1/yellow.gif","img/card_backs/set1/green.gif","img/card_backs/set2/blue.gif","img/card_backs/set2/gray.gif","img/card_backs/set2/orange.gif","img/card_backs/set2/pink.gif","""event"",""trial"",""time""
""fullscreenenter"",""1"",""1893""
","
","
","""event"",""trial"",""time""
""fullscreenenter"",""1"",""1893""
","
","","4487","Nice job! You are almost ready to play the real game.","86","","instructions","2021-05-16 23:31:11.005","","","","","",""
"casino-keyboard-response","57","308380","0.0-19.0-0.1","863","true","img/card_backs/set1/red.gif","img/card_backs/set1/purple.gif","img/card_backs/set1/yellow.gif","img/card_backs/set1/green.gif","img/card_backs/set2/blue.gif","img/card_backs/set2/gray.gif","img/card_backs/set2/orange.gif","img/card_backs/set2/pink.gif","""event"",""trial"",""time""
""fullscreenenter"",""1"",""1893""
","
","
","""event"",""trial"",""time""
""fullscreenenter"",""1"",""1893""
","
","","10149","You will play two rounds of the real game. In each round, you will pick 100 cards in total.","73","","instructions","2021-05-16 23:31:21.157","","","","","",""
"casino-keyboard-response","58","313343","0.0-19.0-0.2","863","true","img/card_backs/set1/red.gif","img/card_backs/set1/purple.gif","img/card_backs/set1/yellow.gif","img/card_backs/set1/green.gif","img/card_backs/set2/blue.gif","img/card_backs/set2/gray.gif","img/card_backs/set2/orange.gif","img/card_backs/set2/pink.gif","""event"",""trial"",""time""
""fullscreenenter"",""1"",""1893""
","
","
","""event"",""trial"",""time""
""fullscreenenter"",""1"",""1893""
","
","","4960","We are now going to ask you some questions about how the game works.","66","","instructions","2021-05-16 23:31:26.120","","","","","",""
"casino-keyboard-response","59","319454","0.0-19.0-0.3","863","true","img/card_backs/set1/red.gif","img/card_backs/set1/purple.gif","img/card_backs/set1/yellow.gif","img/card_backs/set1/green.gif","img/card_backs/set2/blue.gif","img/card_backs/set2/gray.gif","img/card_backs/set2/orange.gif","img/card_backs/set2/pink.gif","""event"",""trial"",""time""
""fullscreenenter"",""1"",""1893""
","
","
","""event"",""trial"",""time""
""fullscreenenter"",""1"",""1893""
","
","","6107.999999999942","Answer carefully. You will not be able to begin the game until you answer them correctly.","67","","instructions","2021-05-16 23:31:32.231","","","","","",""
"casino-comp_q","60","324158","0.0-20.0-0.0","863","true","img/card_backs/set1/red.gif","img/card_backs/set1/purple.gif","img/card_backs/set1/yellow.gif","img/card_backs/set1/green.gif","img/card_backs/set2/blue.gif","img/card_backs/set2/gray.gif","img/card_backs/set2/orange.gif","img/card_backs/set2/pink.gif","""event"",""trial"",""time""
""fullscreenenter"",""1"",""1893""
","
","
","""event"",""trial"",""time""
""fullscreenenter"",""1"",""1893""
","
","","4701","True or False: All the decks have some cards that cause you to win tokens and some cards that cause you to lose tokens.","84","","","2021-05-16 23:31:36.935","","","","","",""
"casino-keyboard-response","61","327196","0.0-20.0-1.0","863","true","img/card_backs/set1/red.gif","img/card_backs/set1/purple.gif","img/card_backs/set1/yellow.gif","img/card_backs/set1/green.gif","img/card_backs/set2/blue.gif","img/card_backs/set2/gray.gif","img/card_backs/set2/orange.gif","img/card_backs/set2/pink.gif","""event"",""trial"",""time""
""fullscreenenter"",""1"",""1893""
","
","
","""event"",""trial"",""time""
""fullscreenenter"",""1"",""1893""
","
","","3035.000000000058","True is correct! All the decks have a mix of winning and losing cards.","77","","","2021-05-16 23:31:39.974","","","","","true",""
"casino-comp_q","62","331484","0.0-21.0-0.0","863","true","img/card_backs/set1/red.gif","img/card_backs/set1/purple.gif","img/card_backs/set1/yellow.gif","img/card_backs/set1/green.gif","img/card_backs/set2/blue.gif","img/card_backs/set2/gray.gif","img/card_backs/set2/orange.gif","img/card_backs/set2/pink.gif","""event"",""trial"",""time""
""fullscreenenter"",""1"",""1893""
","
","
","""event"",""trial"",""time""
""fullscreenenter"",""1"",""1893""
","
","","4284","True or False: You will have as much time as you want to make your response.","70","","","2021-05-16 23:31:44.261","","","","","",""
"casino-keyboard-response","63","334415","0.0-21.0-1.0","863","true","img/card_backs/set1/red.gif","img/card_backs/set1/purple.gif","img/card_backs/set1/yellow.gif","img/card_backs/set1/green.gif","img/card_backs/set2/blue.gif","img/card_backs/set2/gray.gif","img/card_backs/set2/orange.gif","img/card_backs/set2/pink.gif","""event"",""trial"",""time""
""fullscreenenter"",""1"",""1893""
","
","
","""event"",""trial"",""time""
""fullscreenenter"",""1"",""1893""
","
","","2928.999999999942","False is correct! You will only have 10 seconds to make each choice.","75","","","2021-05-16 23:31:47.193","","","","","true",""
"casino-comp_q","64","338595","0.0-22.0-0.0","863","true","img/card_backs/set1/red.gif","img/card_backs/set1/purple.gif","img/card_backs/set1/yellow.gif","img/card_backs/set1/green.gif","img/card_backs/set2/blue.gif","img/card_backs/set2/gray.gif","img/card_backs/set2/orange.gif","img/card_backs/set2/pink.gif","""event"",""trial"",""time""
""fullscreenenter"",""1"",""1893""
","
","
","""event"",""trial"",""time""
""fullscreenenter"",""1"",""1893""
","
","","4176.000000000058","True or False: The location of the deck determines how lucky it is.","70","","","2021-05-16 23:31:51.372","","","","","",""
"casino-keyboard-response","65","341499","0.0-22.0-1.0","863","true","img/card_backs/set1/red.gif","img/card_backs/set1/purple.gif","img/card_backs/set1/yellow.gif","img/card_backs/set1/green.gif","img/card_backs/set2/blue.gif","img/card_backs/set2/gray.gif","img/card_backs/set2/orange.gif","img/card_backs/set2/pink.gif","""event"",""trial"",""time""
""fullscreenenter"",""1"",""1893""
","
","
","""event"",""trial"",""time""
""fullscreenenter"",""1"",""1893""
","
","","2901","False is correct! The <i>color</i>  of the deck determines how lucky or unlucky it is.","68","","","2021-05-16 23:31:54.276","","","","","true",""
"casino-keyboard-response","66","345568","0.0-23.0-0.0","863","true","img/card_backs/set1/red.gif","img/card_backs/set1/purple.gif","img/card_backs/set1/yellow.gif","img/card_backs/set1/green.gif","img/card_backs/set2/blue.gif","img/card_backs/set2/gray.gif","img/card_backs/set2/orange.gif","img/card_backs/set2/pink.gif","""event"",""trial"",""time""
""fullscreenenter"",""1"",""1893""
","
","
","""event"",""trial"",""time""
""fullscreenenter"",""1"",""1893""
","
","","4068","Great job! Now it's time to start the real game.","82","","instructions","2021-05-16 23:31:58.346","","","","","",""
"casino-keyboard-response","67","350769","0.0-23.0-0.1","863","true","img/card_backs/set1/red.gif","img/card_backs/set1/purple.gif","img/card_backs/set1/yellow.gif","img/card_backs/set1/green.gif","img/card_backs/set2/blue.gif","img/card_backs/set2/gray.gif","img/card_backs/set2/orange.gif","img/card_backs/set2/pink.gif","""event"",""trial"",""time""
""fullscreenenter"",""1"",""1893""
","
","
","""event"",""trial"",""time""
""fullscreenenter"",""1"",""1893""
","
","","5198","Before we start, we're going to head into a new room of the casino.","86","","instructions","2021-05-16 23:32:03.546","","","","","",""
"casino-keyboard-response","68","356853","0.0-24.0-0.0","863","true","img/card_backs/set1/red.gif","img/card_backs/set1/purple.gif","img/card_backs/set1/yellow.gif","img/card_backs/set1/green.gif","img/card_backs/set2/blue.gif","img/card_backs/set2/gray.gif","img/card_backs/set2/orange.gif","img/card_backs/set2/pink.gif","""event"",""trial"",""time""
""fullscreenenter"",""1"",""1893""
","
","
","""event"",""trial"",""time""
""fullscreenenter"",""1"",""1893""
","
","","6083","Here we are! The real game will use different cards, but the rules will be the same.","71","","instructions","2021-05-16 23:32:09.631","","","","","",""
"casino-keyboard-response","69","362132","0.0-24.0-0.1","863","true","img/card_backs/set1/red.gif","img/card_backs/set1/purple.gif","img/card_backs/set1/yellow.gif","img/card_backs/set1/green.gif","img/card_backs/set2/blue.gif","img/card_backs/set2/gray.gif","img/card_backs/set2/orange.gif","img/card_backs/set2/pink.gif","""event"",""trial"",""time""
""fullscreenenter"",""1"",""1893""
","
","
","""event"",""trial"",""time""
""fullscreenenter"",""1"",""1893""
","
","","5276","Ready? Put your fingers over the '2', '4', 6', and '8' keys so you are ready to play the game. </br> Then press 2 to start.","50","","instructions","2021-05-16 23:32:14.910","","","","","",""
"casino-fixation","70","362635","0.0-25.0-0.0","863","true","img/card_backs/set1/red.gif","img/card_backs/set1/purple.gif","img/card_backs/set1/yellow.gif","img/card_backs/set1/green.gif","img/card_backs/set2/blue.gif","img/card_backs/set2/gray.gif","img/card_backs/set2/orange.gif","img/card_backs/set2/pink.gif","""event"",""trial"",""time""
""fullscreenenter"",""1"",""1893""
","
","
","""event"",""trial"",""time""
""fullscreenenter"",""1"",""1893""
","
","","null","","null","","fixation","2021-05-16 23:32:15.412","","","","","",""
"card-selection-trial","71","366751","0.0-25.0-1.0","863","true","img/card_backs/set1/red.gif","img/card_backs/set1/purple.gif","img/card_backs/set1/yellow.gif","img/card_backs/set1/green.gif","img/card_backs/set2/blue.gif","img/card_backs/set2/gray.gif","img/card_backs/set2/orange.gif","img/card_backs/set2/pink.gif","""event"",""trial"",""time""
""fullscreenenter"",""1"",""1893""
","
","
","""event"",""trial"",""time""
""fullscreenenter"",""1"",""1893""
","
","","2107.999999999942","","","","real_trial","2021-05-16 23:32:19.529","img/card_backs/set1/yellow.gif","1","-100","1","",""
"casino-fixation","72","367255","0.0-25.0-0.1","863","true","img/card_backs/set1/red.gif","img/card_backs/set1/purple.gif","img/card_backs/set1/yellow.gif","img/card_backs/set1/green.gif","img/card_backs/set2/blue.gif","img/card_backs/set2/gray.gif","img/card_backs/set2/orange.gif","img/card_backs/set2/pink.gif","""event"",""trial"",""time""
""fullscreenenter"",""1"",""1893""
","
","
","""event"",""trial"",""time""
""fullscreenenter"",""1"",""1893""
","
","","null","","null","","fixation","2021-05-16 23:32:20.032","","","","","",""
"card-selection-trial","73","370199","0.0-25.0-1.1","863","true","img/card_backs/set1/red.gif","img/card_backs/set1/purple.gif","img/card_backs/set1/yellow.gif","img/card_backs/set1/green.gif","img/card_backs/set2/blue.gif","img/card_backs/set2/gray.gif","img/card_backs/set2/orange.gif","img/card_backs/set2/pink.gif","""event"",""trial"",""time""
""fullscreenenter"",""1"",""1893""
","
","
","""event"",""trial"",""time""
""fullscreenenter"",""1"",""1893""
","
","","937.9999999999418","","","","real_trial","2021-05-16 23:32:22.976","img/card_backs/set1/yellow.gif","0","60","1","",""
"casino-fixation","74","370702","0.0-25.0-0.2","863","true","img/card_backs/set1/red.gif","img/card_backs/set1/purple.gif","img/card_backs/set1/yellow.gif","img/card_backs/set1/green.gif","img/card_backs/set2/blue.gif","img/card_backs/set2/gray.gif","img/card_backs/set2/orange.gif","img/card_backs/set2/pink.gif","""event"",""trial"",""time""
""fullscreenenter"",""1"",""1893""
","
","
","""event"",""trial"",""time""
""fullscreenenter"",""1"",""1893""
","
","","null","","null","","fixation","2021-05-16 23:32:23.482","","","","","",""
"card-selection-trial","75","373532","0.0-25.0-1.2","863","true","img/card_backs/set1/red.gif","img/card_backs/set1/purple.gif","img/card_backs/set1/yellow.gif","img/card_backs/set1/green.gif","img/card_backs/set2/blue.gif","img/card_backs/set2/gray.gif","img/card_backs/set2/orange.gif","img/card_backs/set2/pink.gif","""event"",""trial"",""time""
""fullscreenenter"",""1"",""1893""
","
","
","""event"",""trial"",""time""
""fullscreenenter"",""1"",""1893""
","
","","821","","","","real_trial","2021-05-16 23:32:26.309","img/card_backs/set1/yellow.gif","0","40","1","",""
"casino-fixation","76","374036","0.0-25.0-0.3","863","true","img/card_backs/set1/red.gif","img/card_backs/set1/purple.gif","img/card_backs/set1/yellow.gif","img/card_backs/set1/green.gif","img/card_backs/set2/blue.gif","img/card_backs/set2/gray.gif","img/card_backs/set2/orange.gif","img/card_backs/set2/pink.gif","""event"",""trial"",""time""
""fullscreenenter"",""1"",""1893""
","
","
","""event"",""trial"",""time""
""fullscreenenter"",""1"",""1893""
","
","","null","","null","","fixation","2021-05-16 23:32:26.813","","","","","",""
"card-selection-trial","77","376821","0.0-25.0-1.3","863","true","img/card_backs/set1/red.gif","img/card_backs/set1/purple.gif","img/card_backs/set1/yellow.gif","img/card_backs/set1/green.gif","img/card_backs/set2/blue.gif","img/card_backs/set2/gray.gif","img/card_backs/set2/orange.gif","img/card_backs/set2/pink.gif","""event"",""trial"",""time""
""fullscreenenter"",""1"",""1893""
","
","
","""event"",""trial"",""time""
""fullscreenenter"",""1"",""1893""
","
","","779","","","","real_trial","2021-05-16 23:32:29.599","img/card_backs/set1/yellow.gif","0","-90","1","",""
"casino-fixation","78","377325","0.0-25.0-0.4","863","true","img/card_backs/set1/red.gif","img/card_backs/set1/purple.gif","img/card_backs/set1/yellow.gif","img/card_backs/set1/green.gif","img/card_backs/set2/blue.gif","img/card_backs/set2/gray.gif","img/card_backs/set2/orange.gif","img/card_backs/set2/pink.gif","""event"",""trial"",""time""
""fullscreenenter"",""1"",""1893""
","
","
","""event"",""trial"",""time""
""fullscreenenter"",""1"",""1893""
","
","","null","","null","","fixation","2021-05-16 23:32:30.102","","","","","",""
"card-selection-trial","79","379693","0.0-25.0-1.4","863","true","img/card_backs/set1/red.gif","img/card_backs/set1/purple.gif","img/card_backs/set1/yellow.gif","img/card_backs/set1/green.gif","img/card_backs/set2/blue.gif","img/card_backs/set2/gray.gif","img/card_backs/set2/orange.gif","img/card_backs/set2/pink.gif","""event"",""trial"",""time""
""fullscreenenter"",""1"",""1893""
","
","
","""event"",""trial"",""time""
""fullscreenenter"",""1"",""1893""
","
","","360.9999999999418","","","","real_trial","2021-05-16 23:32:32.470","img/card_backs/set1/yellow.gif","0","-90","1","",""
"casino-fixation","80","380196","0.0-25.0-0.5","863","true","img/card_backs/set1/red.gif","img/card_backs/set1/purple.gif","img/card_backs/set1/yellow.gif","img/card_backs/set1/green.gif","img/card_backs/set2/blue.gif","img/card_backs/set2/gray.gif","img/card_backs/set2/orange.gif","img/card_backs/set2/pink.gif","""event"",""trial"",""time""
""fullscreenenter"",""1"",""1893""
","
","
","""event"",""trial"",""time""
""fullscreenenter"",""1"",""1893""
","
","","null","","null","","fixation","2021-05-16 23:32:32.973","","","","","",""
"card-selection-trial","81","384124","0.0-25.0-1.5","863","true","img/card_backs/set1/red.gif","img/card_backs/set1/purple.gif","img/card_backs/set1/yellow.gif","img/card_backs/set1/green.gif","img/card_backs/set2/blue.gif","img/card_backs/set2/gray.gif","img/card_backs/set2/orange.gif","img/card_backs/set2/pink.gif","""event"",""trial"",""time""
""fullscreenenter"",""1"",""1893""
","
","
","""event"",""trial"",""time""
""fullscreenenter"",""1"",""1893""
","
","","1922","","","","real_trial","2021-05-16 23:32:36.901","img/card_backs/set1/yellow.gif","3","-90","1","",""
"casino-fixation","82","384627","0.0-25.0-0.6","863","true","img/card_backs/set1/red.gif","img/card_backs/set1/purple.gif","img/card_backs/set1/yellow.gif","img/card_backs/set1/green.gif","img/card_backs/set2/blue.gif","img/card_backs/set2/gray.gif","img/card_backs/set2/orange.gif","img/card_backs/set2/pink.gif","""event"",""trial"",""time""
""fullscreenenter"",""1"",""1893""
","
","
","""event"",""trial"",""time""
""fullscreenenter"",""1"",""1893""
","
","","null","","null","","fixation","2021-05-16 23:32:37.404","","","","","",""
"card-selection-trial","83","387773","0.0-25.0-1.6","863","true","img/card_backs/set1/red.gif","img/card_backs/set1/purple.gif","img/card_backs/set1/yellow.gif","img/card_backs/set1/green.gif","img/card_backs/set2/blue.gif","img/card_backs/set2/gray.gif","img/card_backs/set2/orange.gif","img/card_backs/set2/pink.gif","""event"",""trial"",""time""
""fullscreenenter"",""1"",""1893""
","
","
","""event"",""trial"",""time""
""fullscreenenter"",""1"",""1893""
","
","","1139","","","","real_trial","2021-05-16 23:32:40.550","img/card_backs/set1/yellow.gif","0","-100","1","",""
"casino-fixation","84","388275","0.0-25.0-0.7","863","true","img/card_backs/set1/red.gif","img/card_backs/set1/purple.gif","img/card_backs/set1/yellow.gif","img/card_backs/set1/green.gif","img/card_backs/set2/blue.gif","img/card_backs/set2/gray.gif","img/card_backs/set2/orange.gif","img/card_backs/set2/pink.gif","""event"",""trial"",""time""
""fullscreenenter"",""1"",""1893""
","
","
","""event"",""trial"",""time""
""fullscreenenter"",""1"",""1893""
","
","","null","","null","","fixation","2021-05-16 23:32:41.052","","","","","",""
"card-selection-trial","85","391437","0.0-25.0-1.7","863","true","img/card_backs/set1/red.gif","img/card_backs/set1/purple.gif","img/card_backs/set1/yellow.gif","img/card_backs/set1/green.gif","img/card_backs/set2/blue.gif","img/card_backs/set2/gray.gif","img/card_backs/set2/orange.gif","img/card_backs/set2/pink.gif","""event"",""trial"",""time""
""fullscreenenter"",""1"",""1893""
","
","
","""event"",""trial"",""time""
""fullscreenenter"",""1"",""1893""
","
","","1155","","","","real_trial","2021-05-16 23:32:44.214","img/card_backs/set1/red.gif","1","-210","1","",""
"casino-fixation","86","391939","0.0-25.0-0.8","863","true","img/card_backs/set1/red.gif","img/card_backs/set1/purple.gif","img/card_backs/set1/yellow.gif","img/card_backs/set1/green.gif","img/card_backs/set2/blue.gif","img/card_backs/set2/gray.gif","img/card_backs/set2/orange.gif","img/card_backs/set2/pink.gif","""event"",""trial"",""time""
""fullscreenenter"",""1"",""1893""
","
","
","""event"",""trial"",""time""
""fullscreenenter"",""1"",""1893""
","
","","null","","null","","fixation","2021-05-16 23:32:44.716","","","","","",""
"card-selection-trial","87","395545","0.0-25.0-1.8","863","true","img/card_backs/set1/red.gif","img/card_backs/set1/purple.gif","img/card_backs/set1/yellow.gif","img/card_backs/set1/green.gif","img/card_backs/set2/blue.gif","img/card_backs/set2/gray.gif","img/card_backs/set2/orange.gif","img/card_backs/set2/pink.gif","""event"",""trial"",""time""
""fullscreenenter"",""1"",""1893""
","
","
","""event"",""trial"",""time""
""fullscreenenter"",""1"",""1893""
","
","","1599.0000000000582","","","","real_trial","2021-05-16 23:32:48.322","img/card_backs/set1/red.gif","2","260","1","",""
"casino-fixation","88","396048","0.0-25.0-0.9","863","true","img/card_backs/set1/red.gif","img/card_backs/set1/purple.gif","img/card_backs/set1/yellow.gif","img/card_backs/set1/green.gif","img/card_backs/set2/blue.gif","img/card_backs/set2/gray.gif","img/card_backs/set2/orange.gif","img/card_backs/set2/pink.gif","""event"",""trial"",""time""
""fullscreenenter"",""1"",""1893""
","
","
","""event"",""trial"",""time""
""fullscreenenter"",""1"",""1893""
","
","","null","","null","","fixation","2021-05-16 23:32:48.825","","","","","",""
"card-selection-trial","89","399905","0.0-25.0-1.9","863","true","img/card_backs/set1/red.gif","img/card_backs/set1/purple.gif","img/card_backs/set1/yellow.gif","img/card_backs/set1/green.gif","img/card_backs/set2/blue.gif","img/card_backs/set2/gray.gif","img/card_backs/set2/orange.gif","img/card_backs/set2/pink.gif","""event"",""trial"",""time""
""fullscreenenter"",""1"",""1893""
","
","
","""event"",""trial"",""time""
""fullscreenenter"",""1"",""1893""
","
","","1851","","","","real_trial","2021-05-16 23:32:52.682","img/card_backs/set1/red.gif","1","-200","1","",""
"casino-fixation","90","400409","0.0-25.0-0.10","863","true","img/card_backs/set1/red.gif","img/card_backs/set1/purple.gif","img/card_backs/set1/yellow.gif","img/card_backs/set1/green.gif","img/card_backs/set2/blue.gif","img/card_backs/set2/gray.gif","img/card_backs/set2/orange.gif","img/card_backs/set2/pink.gif","""event"",""trial"",""time""
""fullscreenenter"",""1"",""1893""
","
","
","""event"",""trial"",""time""
""fullscreenenter"",""1"",""1893""
","
","","null","","null","","fixation","2021-05-16 23:32:53.186","","","","","",""
"card-selection-trial","91","403418","0.0-25.0-1.10","863","true","img/card_backs/set1/red.gif","img/card_backs/set1/purple.gif","img/card_backs/set1/yellow.gif","img/card_backs/set1/green.gif","img/card_backs/set2/blue.gif","img/card_backs/set2/gray.gif","img/card_backs/set2/orange.gif","img/card_backs/set2/pink.gif","""event"",""trial"",""time""
""fullscreenenter"",""1"",""1893""
","
","
","""event"",""trial"",""time""
""fullscreenenter"",""1"",""1893""
","
","","1003.9999999999418","","","","real_trial","2021-05-16 23:32:56.196","img/card_backs/set1/red.gif","0","250","1","",""
"casino-fixation","92","403922","0.0-25.0-0.11","863","true","img/card_backs/set1/red.gif","img/card_backs/set1/purple.gif","img/card_backs/set1/yellow.gif","img/card_backs/set1/green.gif","img/card_backs/set2/blue.gif","img/card_backs/set2/gray.gif","img/card_backs/set2/orange.gif","img/card_backs/set2/pink.gif","""event"",""trial"",""time""
""fullscreenenter"",""1"",""1893""
","
","
","""event"",""trial"",""time""
""fullscreenenter"",""1"",""1893""
","
","","null","","null","","fixation","2021-05-16 23:32:56.699","","","","","",""
"card-selection-trial","93","407710","0.0-25.0-1.11","863","true","img/card_backs/set1/red.gif","img/card_backs/set1/purple.gif","img/card_backs/set1/yellow.gif","img/card_backs/set1/green.gif","img/card_backs/set2/blue.gif","img/card_backs/set2/gray.gif","img/card_backs/set2/orange.gif","img/card_backs/set2/pink.gif","""event"",""trial"",""time""
""fullscreenenter"",""1"",""1893""
","
","
","""event"",""trial"",""time""
""fullscreenenter"",""1"",""1893""
","
","","1781","","","","real_trial","2021-05-16 23:33:00.488","img/card_backs/set1/green.gif","3","40","1","",""
"casino-fixation","94","408214","0.0-25.0-0.12","863","true","img/card_backs/set1/red.gif","img/card_backs/set1/purple.gif","img/card_backs/set1/yellow.gif","img/card_backs/set1/green.gif","img/card_backs/set2/blue.gif","img/card_backs/set2/gray.gif","img/card_backs/set2/orange.gif","img/card_backs/set2/pink.gif","""event"",""trial"",""time""
""fullscreenenter"",""1"",""1893""
","
","
","""event"",""trial"",""time""
""fullscreenenter"",""1"",""1893""
","
","","null","","null","","fixation","2021-05-16 23:33:00.991","","","","","",""
"card-selection-trial","95","411710","0.0-25.0-1.12","863","true","img/card_backs/set1/red.gif","img/card_backs/set1/purple.gif","img/card_backs/set1/yellow.gif","img/card_backs/set1/green.gif","img/card_backs/set2/blue.gif","img/card_backs/set2/gray.gif","img/card_backs/set2/orange.gif","img/card_backs/set2/pink.gif","""event"",""trial"",""time""
""fullscreenenter"",""1"",""1893""
","
","
","""event"",""trial"",""time""
""fullscreenenter"",""1"",""1893""
","
","","1490","","","","real_trial","2021-05-16 23:33:04.488","img/card_backs/set1/green.gif","2","-90","1","",""
"casino-fixation","96","412213","0.0-25.0-0.13","863","true","img/card_backs/set1/red.gif","img/card_backs/set1/purple.gif","img/card_backs/set1/yellow.gif","img/card_backs/set1/green.gif","img/card_backs/set2/blue.gif","img/card_backs/set2/gray.gif","img/card_backs/set2/orange.gif","img/card_backs/set2/pink.gif","""event"",""trial"",""time""
""fullscreenenter"",""1"",""1893""
","
","
","""event"",""trial"",""time""
""fullscreenenter"",""1"",""1893""
","
","","null","","null","","fixation","2021-05-16 23:33:04.990","","","","","",""
"card-selection-trial","97","419881","0.0-25.0-1.13","863","true","img/card_backs/set1/red.gif","img/card_backs/set1/purple.gif","img/card_backs/set1/yellow.gif","img/card_backs/set1/green.gif","img/card_backs/set2/blue.gif","img/card_backs/set2/gray.gif","img/card_backs/set2/orange.gif","img/card_backs/set2/pink.gif","""event"",""trial"",""time""
""fullscreenenter"",""1"",""1893""
","
","
","""event"",""trial"",""time""
""fullscreenenter"",""1"",""1893""
","
","","5662","","","","real_trial","2021-05-16 23:33:12.658","img/card_backs/set1/red.gif","1","260","1","",""
"casino-fixation","98","420384","0.0-25.0-0.14","863","true","img/card_backs/set1/red.gif","img/card_backs/set1/purple.gif","img/card_backs/set1/yellow.gif","img/card_backs/set1/green.gif","img/card_backs/set2/blue.gif","img/card_backs/set2/gray.gif","img/card_backs/set2/orange.gif","img/card_backs/set2/pink.gif","""event"",""trial"",""time""
""fullscreenenter"",""1"",""1893""
","
","
","""event"",""trial"",""time""
""fullscreenenter"",""1"",""1893""
","
","","null","","null","","fixation","2021-05-16 23:33:13.161","","","","","",""
"card-selection-trial","99","424473","0.0-25.0-1.14","863","true","img/card_backs/set1/red.gif","img/card_backs/set1/purple.gif","img/card_backs/set1/yellow.gif","img/card_backs/set1/green.gif","img/card_backs/set2/blue.gif","img/card_backs/set2/gray.gif","img/card_backs/set2/orange.gif","img/card_backs/set2/pink.gif","""event"",""trial"",""time""
""fullscreenenter"",""1"",""1893""
","
","
","""event"",""trial"",""time""
""fullscreenenter"",""1"",""1893""
","
","","2083","","","","real_trial","2021-05-16 23:33:17.250","img/card_backs/set1/red.gif","3","-200","1","",""
"casino-fixation","100","424977","0.0-25.0-0.15","863","true","img/card_backs/set1/red.gif","img/card_backs/set1/purple.gif","img/card_backs/set1/yellow.gif","img/card_backs/set1/green.gif","img/card_backs/set2/blue.gif","img/card_backs/set2/gray.gif","img/card_backs/set2/orange.gif","img/card_backs/set2/pink.gif","""event"",""trial"",""time""
""fullscreenenter"",""1"",""1893""
","
","
","""event"",""trial"",""time""
""fullscreenenter"",""1"",""1893""
","
","","null","","null","","fixation","2021-05-16 23:33:17.754","","","","","",""
"card-selection-trial","101","428206","0.0-25.0-1.15","863","true","img/card_backs/set1/red.gif","img/card_backs/set1/purple.gif","img/card_backs/set1/yellow.gif","img/card_backs/set1/green.gif","img/card_backs/set2/blue.gif","img/card_backs/set2/gray.gif","img/card_backs/set2/orange.gif","img/card_backs/set2/pink.gif","""event"",""trial"",""time""
""fullscreenenter"",""1"",""1893""
","
","
","""event"",""trial"",""time""
""fullscreenenter"",""1"",""1893""
","
","","1221.9999999999418","","","","real_trial","2021-05-16 23:33:20.983","img/card_backs/set1/red.gif","2","240","1","",""
"casino-fixation","102","428710","0.0-25.0-0.16","863","true","img/card_backs/set1/red.gif","img/card_backs/set1/purple.gif","img/card_backs/set1/yellow.gif","img/card_backs/set1/green.gif","img/card_backs/set2/blue.gif","img/card_backs/set2/gray.gif","img/card_backs/set2/orange.gif","img/card_backs/set2/pink.gif","""event"",""trial"",""time""
""fullscreenenter"",""1"",""1893""
","
","
","""event"",""trial"",""time""
""fullscreenenter"",""1"",""1893""
","
","","null","","null","","fixation","2021-05-16 23:33:21.487","","","","","",""
"card-selection-trial","103","431965","0.0-25.0-1.16","863","true","img/card_backs/set1/red.gif","img/card_backs/set1/purple.gif","img/card_backs/set1/yellow.gif","img/card_backs/set1/green.gif","img/card_backs/set2/blue.gif","img/card_backs/set2/gray.gif","img/card_backs/set2/orange.gif","img/card_backs/set2/pink.gif","""event"",""trial"",""time""
""fullscreenenter"",""1"",""1893""
","
","
","""event"",""trial"",""time""
""fullscreenenter"",""1"",""1893""
","
","","1250","","","","real_trial","2021-05-16 23:33:24.742","img/card_backs/set1/red.gif","1","-200","1","",""
"casino-fixation","104","432469","0.0-25.0-0.17","863","true","img/card_backs/set1/red.gif","img/card_backs/set1/purple.gif","img/card_backs/set1/yellow.gif","img/card_backs/set1/green.gif","img/card_backs/set2/blue.gif","img/card_backs/set2/gray.gif","img/card_backs/set2/orange.gif","img/card_backs/set2/pink.gif","""event"",""trial"",""time""
""fullscreenenter"",""1"",""1893""
","
","
","""event"",""trial"",""time""
""fullscreenenter"",""1"",""1893""
","
","","null","","null","","fixation","2021-05-16 23:33:25.246","","","","","",""
"card-selection-trial","105","435533","0.0-25.0-1.17","863","true","img/card_backs/set1/red.gif","img/card_backs/set1/purple.gif","img/card_backs/set1/yellow.gif","img/card_backs/set1/green.gif","img/card_backs/set2/blue.gif","img/card_backs/set2/gray.gif","img/card_backs/set2/orange.gif","img/card_backs/set2/pink.gif","""event"",""trial"",""time""
""fullscreenenter"",""1"",""1893""
","
","
","""event"",""trial"",""time""
""fullscreenenter"",""1"",""1893""
","
","","1058","","","","real_trial","2021-05-16 23:33:28.311","img/card_backs/set1/red.gif","3","-190","1","",""
"casino-fixation","106","436036","0.0-25.0-0.18","863","true","img/card_backs/set1/red.gif","img/card_backs/set1/purple.gif","img/card_backs/set1/yellow.gif","img/card_backs/set1/green.gif","img/card_backs/set2/blue.gif","img/card_backs/set2/gray.gif","img/card_backs/set2/orange.gif","img/card_backs/set2/pink.gif","""event"",""trial"",""time""
""fullscreenenter"",""1"",""1893""
","
","
","""event"",""trial"",""time""
""fullscreenenter"",""1"",""1893""
","
","","null","","null","","fixation","2021-05-16 23:33:28.814","","","","","",""
"card-selection-trial","107","439131","0.0-25.0-1.18","863","true","img/card_backs/set1/red.gif","img/card_backs/set1/purple.gif","img/card_backs/set1/yellow.gif","img/card_backs/set1/green.gif","img/card_backs/set2/blue.gif","img/card_backs/set2/gray.gif","img/card_backs/set2/orange.gif","img/card_backs/set2/pink.gif","""event"",""trial"",""time""
""fullscreenenter"",""1"",""1893""
","
","
","""event"",""trial"",""time""
""fullscreenenter"",""1"",""1893""
","
","","1089","","","","real_trial","2021-05-16 23:33:31.909","img/card_backs/set1/red.gif","2","-210","1","",""
"casino-fixation","108","439634","0.0-25.0-0.19","863","true","img/card_backs/set1/red.gif","img/card_backs/set1/purple.gif","img/card_backs/set1/yellow.gif","img/card_backs/set1/green.gif","img/card_backs/set2/blue.gif","img/card_backs/set2/gray.gif","img/card_backs/set2/orange.gif","img/card_backs/set2/pink.gif","""event"",""trial"",""time""
""fullscreenenter"",""1"",""1893""
","
","
","""event"",""trial"",""time""
""fullscreenenter"",""1"",""1893""
","
","","null","","null","","fixation","2021-05-16 23:33:32.411","","","","","",""
"card-selection-trial","109","442713","0.0-25.0-1.19","863","true","img/card_backs/set1/red.gif","img/card_backs/set1/purple.gif","img/card_backs/set1/yellow.gif","img/card_backs/set1/green.gif","img/card_backs/set2/blue.gif","img/card_backs/set2/gray.gif","img/card_backs/set2/orange.gif","img/card_backs/set2/pink.gif","""event"",""trial"",""time""
""fullscreenenter"",""1"",""1893""
","
","
","""event"",""trial"",""time""
""fullscreenenter"",""1"",""1893""
","
","","1071","","","","real_trial","2021-05-16 23:33:35.490","img/card_backs/set1/red.gif","3","240","1","",""
"casino-fixation","110","443217","0.0-25.0-0.20","863","true","img/card_backs/set1/red.gif","img/card_backs/set1/purple.gif","img/card_backs/set1/yellow.gif","img/card_backs/set1/green.gif","img/card_backs/set2/blue.gif","img/card_backs/set2/gray.gif","img/card_backs/set2/orange.gif","img/card_backs/set2/pink.gif","""event"",""trial"",""time""
""fullscreenenter"",""1"",""1893""
","
","
","""event"",""trial"",""time""
""fullscreenenter"",""1"",""1893""
","
","","null","","null","","fixation","2021-05-16 23:33:35.994","","","","","",""
"card-selection-trial","111","447766","0.0-25.0-1.20","863","true","img/card_backs/set1/red.gif","img/card_backs/set1/purple.gif","img/card_backs/set1/yellow.gif","img/card_backs/set1/green.gif","img/card_backs/set2/blue.gif","img/card_backs/set2/gray.gif","img/card_backs/set2/orange.gif","img/card_backs/set2/pink.gif","""event"",""trial"",""time""
""fullscreenenter"",""1"",""1893""
","
","
","""event"",""trial"",""time""
""fullscreenenter"",""1"",""1893""
","
","","2544","","","","real_trial","2021-05-16 23:33:40.544","img/card_backs/set1/purple.gif","0","240","1","",""
"casino-fixation","112","448269","0.0-25.0-0.21","863","true","img/card_backs/set1/red.gif","img/card_backs/set1/purple.gif","img/card_backs/set1/yellow.gif","img/card_backs/set1/green.gif","img/card_backs/set2/blue.gif","img/card_backs/set2/gray.gif","img/card_backs/set2/orange.gif","img/card_backs/set2/pink.gif","""event"",""trial"",""time""
""fullscreenenter"",""1"",""1893""
","
","
","""event"",""trial"",""time""
""fullscreenenter"",""1"",""1893""
","
","","null","","null","","fixation","2021-05-16 23:33:41.047","","","","","",""
"card-selection-trial","113","451325","0.0-25.0-1.21","863","true","img/card_backs/set1/red.gif","img/card_backs/set1/purple.gif","img/card_backs/set1/yellow.gif","img/card_backs/set1/green.gif","img/card_backs/set2/blue.gif","img/card_backs/set2/gray.gif","img/card_backs/set2/orange.gif","img/card_backs/set2/pink.gif","""event"",""trial"",""time""
""fullscreenenter"",""1"",""1893""
","
","
","""event"",""trial"",""time""
""fullscreenenter"",""1"",""1893""
","
","","1048","","","","real_trial","2021-05-16 23:33:44.103","img/card_backs/set1/purple.gif","1","260","1","",""
"casino-fixation","114","451829","0.0-25.0-0.22","863","true","img/card_backs/set1/red.gif","img/card_backs/set1/purple.gif","img/card_backs/set1/yellow.gif","img/card_backs/set1/green.gif","img/card_backs/set2/blue.gif","img/card_backs/set2/gray.gif","img/card_backs/set2/orange.gif","img/card_backs/set2/pink.gif","""event"",""trial"",""time""
""fullscreenenter"",""1"",""1893""
","
","
","""event"",""trial"",""time""
""fullscreenenter"",""1"",""1893""
","
","","null","","null","","fixation","2021-05-16 23:33:44.606","","","","","",""
"card-selection-trial","115","455041","0.0-25.0-1.22","863","true","img/card_backs/set1/red.gif","img/card_backs/set1/purple.gif","img/card_backs/set1/yellow.gif","img/card_backs/set1/green.gif","img/card_backs/set2/blue.gif","img/card_backs/set2/gray.gif","img/card_backs/set2/orange.gif","img/card_backs/set2/pink.gif","""event"",""trial"",""time""
""fullscreenenter"",""1"",""1893""
","
","
","""event"",""trial"",""time""
""fullscreenenter"",""1"",""1893""
","
","","1205","","","","real_trial","2021-05-16 23:33:47.819","img/card_backs/set1/purple.gif","2","-190","1","",""
"casino-fixation","116","455544","0.0-25.0-0.23","863","true","img/card_backs/set1/red.gif","img/card_backs/set1/purple.gif","img/card_backs/set1/yellow.gif","img/card_backs/set1/green.gif","img/card_backs/set2/blue.gif","img/card_backs/set2/gray.gif","img/card_backs/set2/orange.gif","img/card_backs/set2/pink.gif","""event"",""trial"",""time""
""fullscreenenter"",""1"",""1893""
","
","
","""event"",""trial"",""time""
""fullscreenenter"",""1"",""1893""
","
","","null","","null","","fixation","2021-05-16 23:33:48.321","","","","","",""
"card-selection-trial","117","460475","0.0-25.0-1.23","863","true","img/card_backs/set1/red.gif","img/card_backs/set1/purple.gif","img/card_backs/set1/yellow.gif","img/card_backs/set1/green.gif","img/card_backs/set2/blue.gif","img/card_backs/set2/gray.gif","img/card_backs/set2/orange.gif","img/card_backs/set2/pink.gif","""event"",""trial"",""time""
""fullscreenenter"",""1"",""1893""
","
","
","""event"",""trial"",""time""
""fullscreenenter"",""1"",""1893""
","
","","2923","","","","real_trial","2021-05-16 23:33:53.253","img/card_backs/set1/purple.gif","3","240","1","",""
"casino-fixation","118","460978","0.0-25.0-0.24","863","true","img/card_backs/set1/red.gif","img/card_backs/set1/purple.gif","img/card_backs/set1/yellow.gif","img/card_backs/set1/green.gif","img/card_backs/set2/blue.gif","img/card_backs/set2/gray.gif","img/card_backs/set2/orange.gif","img/card_backs/set2/pink.gif","""event"",""trial"",""time""
""fullscreenenter"",""1"",""1893""
","
","
","""event"",""trial"",""time""
""fullscreenenter"",""1"",""1893""
","
","","null","","null","","fixation","2021-05-16 23:33:53.756","","","","","",""
"card-selection-trial","119","464185","0.0-25.0-1.24","863","true","img/card_backs/set1/red.gif","img/card_backs/set1/purple.gif","img/card_backs/set1/yellow.gif","img/card_backs/set1/green.gif","img/card_backs/set2/blue.gif","img/card_backs/set2/gray.gif","img/card_backs/set2/orange.gif","img/card_backs/set2/pink.gif","""event"",""trial"",""time""
""fullscreenenter"",""1"",""1893""
","
","
","""event"",""trial"",""time""
""fullscreenenter"",""1"",""1893""
","
","","1200","","","","real_trial","2021-05-16 23:33:56.963","img/card_backs/set1/purple.gif","2","-190","1","",""
"casino-fixation","120","464689","0.0-25.0-0.25","863","true","img/card_backs/set1/red.gif","img/card_backs/set1/purple.gif","img/card_backs/set1/yellow.gif","img/card_backs/set1/green.gif","img/card_backs/set2/blue.gif","img/card_backs/set2/gray.gif","img/card_backs/set2/orange.gif","img/card_backs/set2/pink.gif","""event"",""trial"",""time""
""fullscreenenter"",""1"",""1893""
","
","
","""event"",""trial"",""time""
""fullscreenenter"",""1"",""1893""
","
","","null","","null","","fixation","2021-05-16 23:33:57.467","","","","","",""
"card-selection-trial","121","467937","0.0-25.0-1.25","863","true","img/card_backs/set1/red.gif","img/card_backs/set1/purple.gif","img/card_backs/set1/yellow.gif","img/card_backs/set1/green.gif","img/card_backs/set2/blue.gif","img/card_backs/set2/gray.gif","img/card_backs/set2/orange.gif","img/card_backs/set2/pink.gif","""event"",""trial"",""time""
""fullscreenenter"",""1"",""1893""
","
","
","""event"",""trial"",""time""
""fullscreenenter"",""1"",""1893""
","
","","1239.9999999999418","","","","real_trial","2021-05-16 23:34:00.715","img/card_backs/set1/purple.gif","2","-190","1","",""
"casino-fixation","122","468441","0.0-25.0-0.26","863","true","img/card_backs/set1/red.gif","img/card_backs/set1/purple.gif","img/card_backs/set1/yellow.gif","img/card_backs/set1/green.gif","img/card_backs/set2/blue.gif","img/card_backs/set2/gray.gif","img/card_backs/set2/orange.gif","img/card_backs/set2/pink.gif","""event"",""trial"",""time""
""fullscreenenter"",""1"",""1893""
","
","
","""event"",""trial"",""time""
""fullscreenenter"",""1"",""1893""
","
","","null","","null","","fixation","2021-05-16 23:34:01.218","","","","","",""
"card-selection-trial","123","471258","0.0-25.0-1.26","863","true","img/card_backs/set1/red.gif","img/card_backs/set1/purple.gif","img/card_backs/set1/yellow.gif","img/card_backs/set1/green.gif","img/card_backs/set2/blue.gif","img/card_backs/set2/gray.gif","img/card_backs/set2/orange.gif","img/card_backs/set2/pink.gif","""event"",""trial"",""time""
""fullscreenenter"",""1"",""1893""
","
","
","""event"",""trial"",""time""
""fullscreenenter"",""1"",""1893""
","
","","810","","","","real_trial","2021-05-16 23:34:04.035","img/card_backs/set1/purple.gif","1","-190","1","",""
"casino-fixation","124","471761","0.0-25.0-0.27","863","true","img/card_backs/set1/red.gif","img/card_backs/set1/purple.gif","img/card_backs/set1/yellow.gif","img/card_backs/set1/green.gif","img/card_backs/set2/blue.gif","img/card_backs/set2/gray.gif","img/card_backs/set2/orange.gif","img/card_backs/set2/pink.gif","""event"",""trial"",""time""
""fullscreenenter"",""1"",""1893""
","
","
","""event"",""trial"",""time""
""fullscreenenter"",""1"",""1893""
","
","","null","","null","","fixation","2021-05-16 23:34:04.539","","","","","",""
"card-selection-trial","125","475268","0.0-25.0-1.27","863","true","img/card_backs/set1/red.gif","img/card_backs/set1/purple.gif","img/card_backs/set1/yellow.gif","img/card_backs/set1/green.gif","img/card_backs/set2/blue.gif","img/card_backs/set2/gray.gif","img/card_backs/set2/orange.gif","img/card_backs/set2/pink.gif","""event"",""trial"",""time""
""fullscreenenter"",""1"",""1893""
","
","
","""event"",""trial"",""time""
""fullscreenenter"",""1"",""1893""
","
","","1500","","","","real_trial","2021-05-16 23:34:08.045","img/card_backs/set1/purple.gif","3","240","1","",""
"casino-fixation","126","475771","0.0-25.0-0.28","863","true","img/card_backs/set1/red.gif","img/card_backs/set1/purple.gif","img/card_backs/set1/yellow.gif","img/card_backs/set1/green.gif","img/card_backs/set2/blue.gif","img/card_backs/set2/gray.gif","img/card_backs/set2/orange.gif","img/card_backs/set2/pink.gif","""event"",""trial"",""time""
""fullscreenenter"",""1"",""1893""
","
","
","""event"",""trial"",""time""
""fullscreenenter"",""1"",""1893""
","
","","null","","null","","fixation","2021-05-16 23:34:08.549","","","","","",""
"card-selection-trial","127","478635","0.0-25.0-1.28","863","true","img/card_backs/set1/red.gif","img/card_backs/set1/purple.gif","img/card_backs/set1/yellow.gif","img/card_backs/set1/green.gif","img/card_backs/set2/blue.gif","img/card_backs/set2/gray.gif","img/card_backs/set2/orange.gif","img/card_backs/set2/pink.gif","""event"",""trial"",""time""
""fullscreenenter"",""1"",""1893""
","
","
","""event"",""trial"",""time""
""fullscreenenter"",""1"",""1893""
","
","","857","","","","real_trial","2021-05-16 23:34:11.412","img/card_backs/set1/purple.gif","3","260","1","",""
"casino-fixation","128","479138","0.0-25.0-0.29","863","true","img/card_backs/set1/red.gif","img/card_backs/set1/purple.gif","img/card_backs/set1/yellow.gif","img/card_backs/set1/green.gif","img/card_backs/set2/blue.gif","img/card_backs/set2/gray.gif","img/card_backs/set2/orange.gif","img/card_backs/set2/pink.gif","""event"",""trial"",""time""
""fullscreenenter"",""1"",""1893""
","
","
","""event"",""trial"",""time""
""fullscreenenter"",""1"",""1893""
","
","","null","","null","","fixation","2021-05-16 23:34:11.915","","","","","",""
"card-selection-trial","129","481972","0.0-25.0-1.29","863","true","img/card_backs/set1/red.gif","img/card_backs/set1/purple.gif","img/card_backs/set1/yellow.gif","img/card_backs/set1/green.gif","img/card_backs/set2/blue.gif","img/card_backs/set2/gray.gif","img/card_backs/set2/orange.gif","img/card_backs/set2/pink.gif","""event"",""trial"",""time""
""fullscreenenter"",""1"",""1893""
","
","
","""event"",""trial"",""time""
""fullscreenenter"",""1"",""1893""
","
","","827","","","","real_trial","2021-05-16 23:34:14.749","img/card_backs/set1/purple.gif","3","-190","1","",""
"casino-fixation","130","482475","0.0-25.0-0.30","863","true","img/card_backs/set1/red.gif","img/card_backs/set1/purple.gif","img/card_backs/set1/yellow.gif","img/card_backs/set1/green.gif","img/card_backs/set2/blue.gif","img/card_backs/set2/gray.gif","img/card_backs/set2/orange.gif","img/card_backs/set2/pink.gif","""event"",""trial"",""time""
""fullscreenenter"",""1"",""1893""
","
","
","""event"",""trial"",""time""
""fullscreenenter"",""1"",""1893""
","
","","null","","null","","fixation","2021-05-16 23:34:15.252","","","","","",""
"card-selection-trial","131","485568","0.0-25.0-1.30","863","true","img/card_backs/set1/red.gif","img/card_backs/set1/purple.gif","img/card_backs/set1/yellow.gif","img/card_backs/set1/green.gif","img/card_backs/set2/blue.gif","img/card_backs/set2/gray.gif","img/card_backs/set2/orange.gif","img/card_backs/set2/pink.gif","""event"",""trial"",""time""
""fullscreenenter"",""1"",""1893""
","
","
","""event"",""trial"",""time""
""fullscreenenter"",""1"",""1893""
","
","","1086.0000000000582","","","","real_trial","2021-05-16 23:34:18.345","img/card_backs/set1/purple.gif","1","250","1","",""
"casino-fixation","132","486071","0.0-25.0-0.31","863","true","img/card_backs/set1/red.gif","img/card_backs/set1/purple.gif","img/card_backs/set1/yellow.gif","img/card_backs/set1/green.gif","img/card_backs/set2/blue.gif","img/card_backs/set2/gray.gif","img/card_backs/set2/orange.gif","img/card_backs/set2/pink.gif","""event"",""trial"",""time""
""fullscreenenter"",""1"",""1893""
","
","
","""event"",""trial"",""time""
""fullscreenenter"",""1"",""1893""
","
","","null","","null","","fixation","2021-05-16 23:34:18.848","","","","","",""
"card-selection-trial","133","489039","0.0-25.0-1.31","863","true","img/card_backs/set1/red.gif","img/card_backs/set1/purple.gif","img/card_backs/set1/yellow.gif","img/card_backs/set1/green.gif","img/card_backs/set2/blue.gif","img/card_backs/set2/gray.gif","img/card_backs/set2/orange.gif","img/card_backs/set2/pink.gif","""event"",""trial"",""time""
""fullscreenenter"",""1"",""1893""
","
","
","""event"",""trial"",""time""
""fullscreenenter"",""1"",""1893""
","
","","961","","","","real_trial","2021-05-16 23:34:21.816","img/card_backs/set1/purple.gif","1","240","1","",""
"casino-fixation","134","489543","0.0-25.0-0.32","863","true","img/card_backs/set1/red.gif","img/card_backs/set1/purple.gif","img/card_backs/set1/yellow.gif","img/card_backs/set1/green.gif","img/card_backs/set2/blue.gif","img/card_backs/set2/gray.gif","img/card_backs/set2/orange.gif","img/card_backs/set2/pink.gif","""event"",""trial"",""time""
""fullscreenenter"",""1"",""1893""
","
","
","""event"",""trial"",""time""
""fullscreenenter"",""1"",""1893""
","
","","null","","null","","fixation","2021-05-16 23:34:22.320","","","","","",""
"card-selection-trial","135","492713","0.0-25.0-1.32","863","true","img/card_backs/set1/red.gif","img/card_backs/set1/purple.gif","img/card_backs/set1/yellow.gif","img/card_backs/set1/green.gif","img/card_backs/set2/blue.gif","img/card_backs/set2/gray.gif","img/card_backs/set2/orange.gif","img/card_backs/set2/pink.gif","""event"",""trial"",""time""
""fullscreenenter"",""1"",""1893""
","
","
","""event"",""trial"",""time""
""fullscreenenter"",""1"",""1893""
","
","","1158.0000000000582","","","","real_trial","2021-05-16 23:34:25.492","img/card_backs/set1/purple.gif","2","-210","1","",""
"casino-fixation","136","493221","0.0-25.0-0.33","863","true","img/card_backs/set1/red.gif","img/card_backs/set1/purple.gif","img/card_backs/set1/yellow.gif","img/card_backs/set1/green.gif","img/card_backs/set2/blue.gif","img/card_backs/set2/gray.gif","img/card_backs/set2/orange.gif","img/card_backs/set2/pink.gif","""event"",""trial"",""time""
""fullscreenenter"",""1"",""1893""
","
","
","""event"",""trial"",""time""
""fullscreenenter"",""1"",""1893""
","
","","null","","null","","fixation","2021-05-16 23:34:25.998","","","","","",""
"card-selection-trial","137","496619","0.0-25.0-1.33","863","true","img/card_backs/set1/red.gif","img/card_backs/set1/purple.gif","img/card_backs/set1/yellow.gif","img/card_backs/set1/green.gif","img/card_backs/set2/blue.gif","img/card_backs/set2/gray.gif","img/card_backs/set2/orange.gif","img/card_backs/set2/pink.gif","""event"",""trial"",""time""
""fullscreenenter"",""1"",""1893""
","
","
","""event"",""trial"",""time""
""fullscreenenter"",""1"",""1893""
","
","","1387.9999999999418","","","","real_trial","2021-05-16 23:34:29.397","img/card_backs/set1/purple.gif","0","-200","1","",""
"casino-fixation","138","497123","0.0-25.0-0.34","863","true","img/card_backs/set1/red.gif","img/card_backs/set1/purple.gif","img/card_backs/set1/yellow.gif","img/card_backs/set1/green.gif","img/card_backs/set2/blue.gif","img/card_backs/set2/gray.gif","img/card_backs/set2/orange.gif","img/card_backs/set2/pink.gif","""event"",""trial"",""time""
""fullscreenenter"",""1"",""1893""
","
","
","""event"",""trial"",""time""
""fullscreenenter"",""1"",""1893""
","
","","null","","null","","fixation","2021-05-16 23:34:29.901","","","","","",""
"card-selection-trial","139","500302","0.0-25.0-1.34","863","true","img/card_backs/set1/red.gif","img/card_backs/set1/purple.gif","img/card_backs/set1/yellow.gif","img/card_backs/set1/green.gif","img/card_backs/set2/blue.gif","img/card_backs/set2/gray.gif","img/card_backs/set2/orange.gif","img/card_backs/set2/pink.gif","""event"",""trial"",""time""
""fullscreenenter"",""1"",""1893""
","
","
","""event"",""trial"",""time""
""fullscreenenter"",""1"",""1893""
","
","","1172.0000000000582","","","","real_trial","2021-05-16 23:34:33.079","img/card_backs/set1/purple.gif","3","260","1","",""
"casino-fixation","140","500807","0.0-25.0-0.35","863","true","img/card_backs/set1/red.gif","img/card_backs/set1/purple.gif","img/card_backs/set1/yellow.gif","img/card_backs/set1/green.gif","img/card_backs/set2/blue.gif","img/card_backs/set2/gray.gif","img/card_backs/set2/orange.gif","img/card_backs/set2/pink.gif","""event"",""trial"",""time""
""fullscreenenter"",""1"",""1893""
","
","
","""event"",""trial"",""time""
""fullscreenenter"",""1"",""1893""
","
","","null","","null","","fixation","2021-05-16 23:34:33.584","","","","","",""
"card-selection-trial","141","503895","0.0-25.0-1.35","863","true","img/card_backs/set1/red.gif","img/card_backs/set1/purple.gif","img/card_backs/set1/yellow.gif","img/card_backs/set1/green.gif","img/card_backs/set2/blue.gif","img/card_backs/set2/gray.gif","img/card_backs/set2/orange.gif","img/card_backs/set2/pink.gif","""event"",""trial"",""time""
""fullscreenenter"",""1"",""1893""
","
","
","""event"",""trial"",""time""
""fullscreenenter"",""1"",""1893""
","
","","1080","","","","real_trial","2021-05-16 23:34:36.673","img/card_backs/set1/purple.gif","1","260","1","",""
"casino-fixation","142","504399","0.0-25.0-0.36","863","true","img/card_backs/set1/red.gif","img/card_backs/set1/purple.gif","img/card_backs/set1/yellow.gif","img/card_backs/set1/green.gif","img/card_backs/set2/blue.gif","img/card_backs/set2/gray.gif","img/card_backs/set2/orange.gif","img/card_backs/set2/pink.gif","""event"",""trial"",""time""
""fullscreenenter"",""1"",""1893""
","
","
","""event"",""trial"",""time""
""fullscreenenter"",""1"",""1893""
","
","","null","","null","","fixation","2021-05-16 23:34:37.176","","","","","",""
"card-selection-trial","143","508767","0.0-25.0-1.36","863","true","img/card_backs/set1/red.gif","img/card_backs/set1/purple.gif","img/card_backs/set1/yellow.gif","img/card_backs/set1/green.gif","img/card_backs/set2/blue.gif","img/card_backs/set2/gray.gif","img/card_backs/set2/orange.gif","img/card_backs/set2/pink.gif","""event"",""trial"",""time""
""fullscreenenter"",""1"",""1893""
","
","
","""event"",""trial"",""time""
""fullscreenenter"",""1"",""1893""
","
","","2365","","","","real_trial","2021-05-16 23:34:41.545","img/card_backs/set1/purple.gif","2","-210","1","",""
"casino-fixation","144","509270","0.0-25.0-0.37","863","true","img/card_backs/set1/red.gif","img/card_backs/set1/purple.gif","img/card_backs/set1/yellow.gif","img/card_backs/set1/green.gif","img/card_backs/set2/blue.gif","img/card_backs/set2/gray.gif","img/card_backs/set2/orange.gif","img/card_backs/set2/pink.gif","""event"",""trial"",""time""
""fullscreenenter"",""1"",""1893""
","
","
","""event"",""trial"",""time""
""fullscreenenter"",""1"",""1893""
","
","","null","","null","","fixation","2021-05-16 23:34:42.047","","","","","",""
"card-selection-trial","145","512725","0.0-25.0-1.37","863","true","img/card_backs/set1/red.gif","img/card_backs/set1/purple.gif","img/card_backs/set1/yellow.gif","img/card_backs/set1/green.gif","img/card_backs/set2/blue.gif","img/card_backs/set2/gray.gif","img/card_backs/set2/orange.gif","img/card_backs/set2/pink.gif","""event"",""trial"",""time""
""fullscreenenter"",""1"",""1893""
","
","
","""event"",""trial"",""time""
""fullscreenenter"",""1"",""1893""
","
","","1448.0000000000582","","","","real_trial","2021-05-16 23:34:45.502","img/card_backs/set1/purple.gif","3","240","1","",""
"casino-fixation","146","513228","0.0-25.0-0.38","863","true","img/card_backs/set1/red.gif","img/card_backs/set1/purple.gif","img/card_backs/set1/yellow.gif","img/card_backs/set1/green.gif","img/card_backs/set2/blue.gif","img/card_backs/set2/gray.gif","img/card_backs/set2/orange.gif","img/card_backs/set2/pink.gif","""event"",""trial"",""time""
""fullscreenenter"",""1"",""1893""
","
","
","""event"",""trial"",""time""
""fullscreenenter"",""1"",""1893""
","
","","null","","null","","fixation","2021-05-16 23:34:46.006","","","","","",""
"card-selection-trial","147","516289","0.0-25.0-1.38","863","true","img/card_backs/set1/red.gif","img/card_backs/set1/purple.gif","img/card_backs/set1/yellow.gif","img/card_backs/set1/green.gif","img/card_backs/set2/blue.gif","img/card_backs/set2/gray.gif","img/card_backs/set2/orange.gif","img/card_backs/set2/pink.gif","""event"",""trial"",""time""
""fullscreenenter"",""1"",""1893""
","
","
","""event"",""trial"",""time""
""fullscreenenter"",""1"",""1893""
","
","","1052","","","","real_trial","2021-05-16 23:34:49.067","img/card_backs/set1/purple.gif","2","240","1","",""
"casino-fixation","148","516793","0.0-25.0-0.39","863","true","img/card_backs/set1/red.gif","img/card_backs/set1/purple.gif","img/card_backs/set1/yellow.gif","img/card_backs/set1/green.gif","img/card_backs/set2/blue.gif","img/card_backs/set2/gray.gif","img/card_backs/set2/orange.gif","img/card_backs/set2/pink.gif","""event"",""trial"",""time""
""fullscreenenter"",""1"",""1893""
","
","
","""event"",""trial"",""time""
""fullscreenenter"",""1"",""1893""
","
","","null","","null","","fixation","2021-05-16 23:34:49.570","","","","","",""
"card-selection-trial","149","520168","0.0-25.0-1.39","863","true","img/card_backs/set1/red.gif","img/card_backs/set1/purple.gif","img/card_backs/set1/yellow.gif","img/card_backs/set1/green.gif","img/card_backs/set2/blue.gif","img/card_backs/set2/gray.gif","img/card_backs/set2/orange.gif","img/card_backs/set2/pink.gif","""event"",""trial"",""time""
""fullscreenenter"",""1"",""1893""
","
","
","""event"",""trial"",""time""
""fullscreenenter"",""1"",""1893""
","
","","1369","","","","real_trial","2021-05-16 23:34:52.946","img/card_backs/set1/purple.gif","0","250","1","",""
"casino-fixation","150","520672","0.0-25.0-0.40","863","true","img/card_backs/set1/red.gif","img/card_backs/set1/purple.gif","img/card_backs/set1/yellow.gif","img/card_backs/set1/green.gif","img/card_backs/set2/blue.gif","img/card_backs/set2/gray.gif","img/card_backs/set2/orange.gif","img/card_backs/set2/pink.gif","""event"",""trial"",""time""
""fullscreenenter"",""1"",""1893""
","
","
","""event"",""trial"",""time""
""fullscreenenter"",""1"",""1893""
","
","","null","","null","","fixation","2021-05-16 23:34:53.450","","","","","",""
"card-selection-trial","151","523862","0.0-25.0-1.40","863","true","img/card_backs/set1/red.gif","img/card_backs/set1/purple.gif","img/card_backs/set1/yellow.gif","img/card_backs/set1/green.gif","img/card_backs/set2/blue.gif","img/card_backs/set2/gray.gif","img/card_backs/set2/orange.gif","img/card_backs/set2/pink.gif","""event"",""trial"",""time""
""fullscreenenter"",""1"",""1893""
","
","
","""event"",""trial"",""time""
""fullscreenenter"",""1"",""1893""
","
","","1182","","","","real_trial","2021-05-16 23:34:56.639","img/card_backs/set1/purple.gif","0","-210","1","",""
"casino-fixation","152","524366","0.0-25.0-0.41","863","true","img/card_backs/set1/red.gif","img/card_backs/set1/purple.gif","img/card_backs/set1/yellow.gif","img/card_backs/set1/green.gif","img/card_backs/set2/blue.gif","img/card_backs/set2/gray.gif","img/card_backs/set2/orange.gif","img/card_backs/set2/pink.gif","""event"",""trial"",""time""
""fullscreenenter"",""1"",""1893""
","
","
","""event"",""trial"",""time""
""fullscreenenter"",""1"",""1893""
","
","","null","","null","","fixation","2021-05-16 23:34:57.143","","","","","",""
"card-selection-trial","153","527383","0.0-25.0-1.41","863","true","img/card_backs/set1/red.gif","img/card_backs/set1/purple.gif","img/card_backs/set1/yellow.gif","img/card_backs/set1/green.gif","img/card_backs/set2/blue.gif","img/card_backs/set2/gray.gif","img/card_backs/set2/orange.gif","img/card_backs/set2/pink.gif","""event"",""trial"",""time""
""fullscreenenter"",""1"",""1893""
","
","
","""event"",""trial"",""time""
""fullscreenenter"",""1"",""1893""
","
","","1010","","","","real_trial","2021-05-16 23:35:00.160","img/card_backs/set1/purple.gif","2","-190","1","",""
"casino-fixation","154","527887","0.0-25.0-0.42","863","true","img/card_backs/set1/red.gif","img/card_backs/set1/purple.gif","img/card_backs/set1/yellow.gif","img/card_backs/set1/green.gif","img/card_backs/set2/blue.gif","img/card_backs/set2/gray.gif","img/card_backs/set2/orange.gif","img/card_backs/set2/pink.gif","""event"",""trial"",""time""
""fullscreenenter"",""1"",""1893""
","
","
","""event"",""trial"",""time""
""fullscreenenter"",""1"",""1893""
","
","","null","","null","","fixation","2021-05-16 23:35:00.664","","","","","",""
"card-selection-trial","155","531072","0.0-25.0-1.42","863","true","img/card_backs/set1/red.gif","img/card_backs/set1/purple.gif","img/card_backs/set1/yellow.gif","img/card_backs/set1/green.gif","img/card_backs/set2/blue.gif","img/card_backs/set2/gray.gif","img/card_backs/set2/orange.gif","img/card_backs/set2/pink.gif","""event"",""trial"",""time""
""fullscreenenter"",""1"",""1893""
","
","
","""event"",""trial"",""time""
""fullscreenenter"",""1"",""1893""
","
","","1178","","","","real_trial","2021-05-16 23:35:03.849","img/card_backs/set1/purple.gif","3","260","1","",""
"casino-fixation","156","531576","0.0-25.0-0.43","863","true","img/card_backs/set1/red.gif","img/card_backs/set1/purple.gif","img/card_backs/set1/yellow.gif","img/card_backs/set1/green.gif","img/card_backs/set2/blue.gif","img/card_backs/set2/gray.gif","img/card_backs/set2/orange.gif","img/card_backs/set2/pink.gif","""event"",""trial"",""time""
""fullscreenenter"",""1"",""1893""
","
","
","""event"",""trial"",""time""
""fullscreenenter"",""1"",""1893""
","
","","null","","null","","fixation","2021-05-16 23:35:04.353","","","","","",""
"card-selection-trial","157","535040","0.0-25.0-1.43","863","true","img/card_backs/set1/red.gif","img/card_backs/set1/purple.gif","img/card_backs/set1/yellow.gif","img/card_backs/set1/green.gif","img/card_backs/set2/blue.gif","img/card_backs/set2/gray.gif","img/card_backs/set2/orange.gif","img/card_backs/set2/pink.gif","""event"",""trial"",""time""
""fullscreenenter"",""1"",""1893""
","
","
","""event"",""trial"",""time""
""fullscreenenter"",""1"",""1893""
","
","","1459","","","","real_trial","2021-05-16 23:35:07.818","img/card_backs/set1/purple.gif","2","260","1","",""
"casino-fixation","158","535544","0.0-25.0-0.44","863","true","img/card_backs/set1/red.gif","img/card_backs/set1/purple.gif","img/card_backs/set1/yellow.gif","img/card_backs/set1/green.gif","img/card_backs/set2/blue.gif","img/card_backs/set2/gray.gif","img/card_backs/set2/orange.gif","img/card_backs/set2/pink.gif","""event"",""trial"",""time""
""fullscreenenter"",""1"",""1893""
","
","
","""event"",""trial"",""time""
""fullscreenenter"",""1"",""1893""
","
","","null","","null","","fixation","2021-05-16 23:35:08.321","","","","","",""
"card-selection-trial","159","538684","0.0-25.0-1.44","863","true","img/card_backs/set1/red.gif","img/card_backs/set1/purple.gif","img/card_backs/set1/yellow.gif","img/card_backs/set1/green.gif","img/card_backs/set2/blue.gif","img/card_backs/set2/gray.gif","img/card_backs/set2/orange.gif","img/card_backs/set2/pink.gif","""event"",""trial"",""time""
""fullscreenenter"",""1"",""1893""
","
","
","""event"",""trial"",""time""
""fullscreenenter"",""1"",""1893""
","
","","1132","","","","real_trial","2021-05-16 23:35:11.461","img/card_backs/set1/purple.gif","3","260","1","",""
"casino-fixation","160","539188","0.0-25.0-0.45","863","true","img/card_backs/set1/red.gif","img/card_backs/set1/purple.gif","img/card_backs/set1/yellow.gif","img/card_backs/set1/green.gif","img/card_backs/set2/blue.gif","img/card_backs/set2/gray.gif","img/card_backs/set2/orange.gif","img/card_backs/set2/pink.gif","""event"",""trial"",""time""
""fullscreenenter"",""1"",""1893""
","
","
","""event"",""trial"",""time""
""fullscreenenter"",""1"",""1893""
","
","","null","","null","","fixation","2021-05-16 23:35:11.965","","","","","",""
"card-selection-trial","161","542385","0.0-25.0-1.45","863","true","img/card_backs/set1/red.gif","img/card_backs/set1/purple.gif","img/card_backs/set1/yellow.gif","img/card_backs/set1/green.gif","img/card_backs/set2/blue.gif","img/card_backs/set2/gray.gif","img/card_backs/set2/orange.gif","img/card_backs/set2/pink.gif","""event"",""trial"",""time""
""fullscreenenter"",""1"",""1893""
","
","
","""event"",""trial"",""time""
""fullscreenenter"",""1"",""1893""
","
","","1190","","","","real_trial","2021-05-16 23:35:15.162","img/card_backs/set1/purple.gif","2","-200","1","",""
"casino-fixation","162","542888","0.0-25.0-0.46","863","true","img/card_backs/set1/red.gif","img/card_backs/set1/purple.gif","img/card_backs/set1/yellow.gif","img/card_backs/set1/green.gif","img/card_backs/set2/blue.gif","img/card_backs/set2/gray.gif","img/card_backs/set2/orange.gif","img/card_backs/set2/pink.gif","""event"",""trial"",""time""
""fullscreenenter"",""1"",""1893""
","
","
","""event"",""trial"",""time""
""fullscreenenter"",""1"",""1893""
","
","","null","","null","","fixation","2021-05-16 23:35:15.665","","","","","",""
"card-selection-trial","163","545840","0.0-25.0-1.46","863","true","img/card_backs/set1/red.gif","img/card_backs/set1/purple.gif","img/card_backs/set1/yellow.gif","img/card_backs/set1/green.gif","img/card_backs/set2/blue.gif","img/card_backs/set2/gray.gif","img/card_backs/set2/orange.gif","img/card_backs/set2/pink.gif","""event"",""trial"",""time""
""fullscreenenter"",""1"",""1893""
","
","
","""event"",""trial"",""time""
""fullscreenenter"",""1"",""1893""
","
","","945","","","","real_trial","2021-05-16 23:35:18.617","img/card_backs/set1/purple.gif","3","-200","1","",""
"casino-fixation","164","546344","0.0-25.0-0.47","863","true","img/card_backs/set1/red.gif","img/card_backs/set1/purple.gif","img/card_backs/set1/yellow.gif","img/card_backs/set1/green.gif","img/card_backs/set2/blue.gif","img/card_backs/set2/gray.gif","img/card_backs/set2/orange.gif","img/card_backs/set2/pink.gif","""event"",""trial"",""time""
""fullscreenenter"",""1"",""1893""
","
","
","""event"",""trial"",""time""
""fullscreenenter"",""1"",""1893""
","
","","null","","null","","fixation","2021-05-16 23:35:19.121","","","","","",""
"card-selection-trial","165","549512","0.0-25.0-1.47","863","true","img/card_backs/set1/red.gif","img/card_backs/set1/purple.gif","img/card_backs/set1/yellow.gif","img/card_backs/set1/green.gif","img/card_backs/set2/blue.gif","img/card_backs/set2/gray.gif","img/card_backs/set2/orange.gif","img/card_backs/set2/pink.gif","""event"",""trial"",""time""
""fullscreenenter"",""1"",""1893""
","
","
","""event"",""trial"",""time""
""fullscreenenter"",""1"",""1893""
","
","","1162.9999999998836","","","","real_trial","2021-05-16 23:35:22.289","img/card_backs/set1/purple.gif","1","-210","1","",""
"casino-fixation","166","550015","0.0-25.0-0.48","863","true","img/card_backs/set1/red.gif","img/card_backs/set1/purple.gif","img/card_backs/set1/yellow.gif","img/card_backs/set1/green.gif","img/card_backs/set2/blue.gif","img/card_backs/set2/gray.gif","img/card_backs/set2/orange.gif","img/card_backs/set2/pink.gif","""event"",""trial"",""time""
""fullscreenenter"",""1"",""1893""
","
","
","""event"",""trial"",""time""
""fullscreenenter"",""1"",""1893""
","
","","null","","null","","fixation","2021-05-16 23:35:22.792","","","","","",""
"card-selection-trial","167","552731","0.0-25.0-1.48","863","true","img/card_backs/set1/red.gif","img/card_backs/set1/purple.gif","img/card_backs/set1/yellow.gif","img/card_backs/set1/green.gif","img/card_backs/set2/blue.gif","img/card_backs/set2/gray.gif","img/card_backs/set2/orange.gif","img/card_backs/set2/pink.gif","""event"",""trial"",""time""
""fullscreenenter"",""1"",""1893""
","
","
","""event"",""trial"",""time""
""fullscreenenter"",""1"",""1893""
","
","","709","","","","real_trial","2021-05-16 23:35:25.508","img/card_backs/set1/purple.gif","1","240","1","",""
"casino-fixation","168","553235","0.0-25.0-0.49","863","true","img/card_backs/set1/red.gif","img/card_backs/set1/purple.gif","img/card_backs/set1/yellow.gif","img/card_backs/set1/green.gif","img/card_backs/set2/blue.gif","img/card_backs/set2/gray.gif","img/card_backs/set2/orange.gif","img/card_backs/set2/pink.gif","""event"",""trial"",""time""
""fullscreenenter"",""1"",""1893""
","
","
","""event"",""trial"",""time""
""fullscreenenter"",""1"",""1893""
","
","","null","","null","","fixation","2021-05-16 23:35:26.012","","","","","",""
