"trial_type","trial_index","time_elapsed","internal_node_id","sub_id","risk_good_first","block1_A","block1_B","block1_C","block1_D","block2_A","block2_B","block2_C","block2_D","interactions","blur_events","focus_events","fullscreenenter_events","fullscreenexit_events","success","rt","stimulus","key_press","button_pressed","task_part","timestamp","card_choice","choice_position","points_earned","block","correct","response"
"pavlovia","0","4","0.0-0.0","120","false","img/card_backs/set1/red.gif","img/card_backs/set1/green.gif","img/card_backs/set1/yellow.gif","img/card_backs/set1/purple.gif","img/card_backs/set2/pink.gif","img/card_backs/set2/gray.gif","img/card_backs/set2/orange.gif","img/card_backs/set2/blue.gif","""event"",""trial"",""time""
""fullscreenenter"",""1"",""3797""
","
","
","""event"",""trial"",""time""
""fullscreenenter"",""1"",""3797""
","
","","","","","","","","","","","","",""
"fullscreen","1","4785","0.0-1.0","120","false","img/card_backs/set1/red.gif","img/card_backs/set1/green.gif","img/card_backs/set1/yellow.gif","img/card_backs/set1/purple.gif","img/card_backs/set2/pink.gif","img/card_backs/set2/gray.gif","img/card_backs/set2/orange.gif","img/card_backs/set2/blue.gif","""event"",""trial"",""time""
""fullscreenenter"",""1"",""3797""
","
","
","""event"",""trial"",""time""
""fullscreenenter"",""1"",""3797""
","
","true","","","","","","","","","","","",""
"audio-keyboard-response","2","10225","0.0-2.0","120","false","img/card_backs/set1/red.gif","img/card_backs/set1/green.gif","img/card_backs/set1/yellow.gif","img/card_backs/set1/purple.gif","img/card_backs/set2/pink.gif","img/card_backs/set2/gray.gif","img/card_backs/set2/orange.gif","img/card_backs/set2/blue.gif","""event"",""trial"",""time""
""fullscreenenter"",""1"",""3797""
","
","
","""event"",""trial"",""time""
""fullscreenenter"",""1"",""3797""
","
","","3581","audio/beep_loop.wav","32","","","","","","","","",""
"audio-button-response","3","14877","0.0-3.0","120","false","img/card_backs/set1/red.gif","img/card_backs/set1/green.gif","img/card_backs/set1/yellow.gif","img/card_backs/set1/purple.gif","img/card_backs/set2/pink.gif","img/card_backs/set2/gray.gif","img/card_backs/set2/orange.gif","img/card_backs/set2/blue.gif","""event"",""trial"",""time""
""fullscreenenter"",""1"",""3797""
","
","
","""event"",""trial"",""time""
""fullscreenenter"",""1"",""3797""
","
","","NaN","audio/turtle.mp3","","3","","","","","","","",""
"audio-button-response","4","19139","0.0-4.0","120","false","img/card_backs/set1/red.gif","img/card_backs/set1/green.gif","img/card_backs/set1/yellow.gif","img/card_backs/set1/purple.gif","img/card_backs/set2/pink.gif","img/card_backs/set2/gray.gif","img/card_backs/set2/orange.gif","img/card_backs/set2/blue.gif","""event"",""trial"",""time""
""fullscreenenter"",""1"",""3797""
","
","
","""event"",""trial"",""time""
""fullscreenenter"",""1"",""3797""
","
","","NaN","audio/shark.mp3","","2","","","","","","","",""
"fullscreen","5","23479","0.0-5.0","120","false","img/card_backs/set1/red.gif","img/card_backs/set1/green.gif","img/card_backs/set1/yellow.gif","img/card_backs/set1/purple.gif","img/card_backs/set2/pink.gif","img/card_backs/set2/gray.gif","img/card_backs/set2/orange.gif","img/card_backs/set2/blue.gif","""event"",""trial"",""time""
""fullscreenenter"",""1"",""3797""
","
","
","""event"",""trial"",""time""
""fullscreenenter"",""1"",""3797""
","
","true","","","","","","","","","","","",""
"casino-keyboard-response","6","27366","0.0-6.0-0.0","120","false","img/card_backs/set1/red.gif","img/card_backs/set1/green.gif","img/card_backs/set1/yellow.gif","img/card_backs/set1/purple.gif","img/card_backs/set2/pink.gif","img/card_backs/set2/gray.gif","img/card_backs/set2/orange.gif","img/card_backs/set2/blue.gif","""event"",""trial"",""time""
""fullscreenenter"",""1"",""3797""
","
","
","""event"",""trial"",""time""
""fullscreenenter"",""1"",""3797""
","
","","3880.4000000953674","Welcome to the casino!","71","","instructions","2021-06-22 20:28:42.690","","","","","",""
"casino-keyboard-response","7","37512","0.0-6.0-0.1","120","false","img/card_backs/set1/red.gif","img/card_backs/set1/green.gif","img/card_backs/set1/yellow.gif","img/card_backs/set1/purple.gif","img/card_backs/set2/pink.gif","img/card_backs/set2/gray.gif","img/card_backs/set2/orange.gif","img/card_backs/set2/blue.gif","""event"",""trial"",""time""
""fullscreenenter"",""1"",""3797""
","
","
","""event"",""trial"",""time""
""fullscreenenter"",""1"",""3797""
","
","","10142.600000143051","Today you will be playing a game to earn tokens. </br> At the end of the experiment, you will be paid a bonus based on how many tokens you win. ","69","","instructions","2021-06-22 20:28:52.836","","","","","",""
"casino-keyboard-response","8","48918","0.0-6.0-0.2","120","false","img/card_backs/set1/red.gif","img/card_backs/set1/green.gif","img/card_backs/set1/yellow.gif","img/card_backs/set1/purple.gif","img/card_backs/set2/pink.gif","img/card_backs/set2/gray.gif","img/card_backs/set2/orange.gif","img/card_backs/set2/blue.gif","""event"",""trial"",""time""
""fullscreenenter"",""1"",""3797""
","
","
","""event"",""trial"",""time""
""fullscreenenter"",""1"",""3797""
","
","","11401.799999952316","On every turn, you will be shown four different decks of cards. </br> You need to select a card from one of the four decks.  ","75","","instructions","2021-06-22 20:29:04.242","","","","","",""
"casino-keyboard-response","9","54244","0.0-6.0-0.3","120","false","img/card_backs/set1/red.gif","img/card_backs/set1/green.gif","img/card_backs/set1/yellow.gif","img/card_backs/set1/purple.gif","img/card_backs/set2/pink.gif","img/card_backs/set2/gray.gif","img/card_backs/set2/orange.gif","img/card_backs/set2/blue.gif","""event"",""trial"",""time""
""fullscreenenter"",""1"",""3797""
","
","
","""event"",""trial"",""time""
""fullscreenenter"",""1"",""3797""
","
","","5321.5","On the next screen, you will see what the decks will look like. ","66","","instructions","2021-06-22 20:29:09.568","","","","","",""
"card-selection-trial","10","58262","0.0-7.0-0.0","120","false","img/card_backs/set1/red.gif","img/card_backs/set1/green.gif","img/card_backs/set1/yellow.gif","img/card_backs/set1/purple.gif","img/card_backs/set2/pink.gif","img/card_backs/set2/gray.gif","img/card_backs/set2/orange.gif","img/card_backs/set2/blue.gif","""event"",""trial"",""time""
""fullscreenenter"",""1"",""3797""
","
","
","""event"",""trial"",""time""
""fullscreenenter"",""1"",""3797""
","
","","null","","","","practice","2021-06-22 20:29:13.587","null","null","null","0","",""
"casino-keyboard-response","11","66783","0.0-8.0-0.0","120","false","img/card_backs/set1/red.gif","img/card_backs/set1/green.gif","img/card_backs/set1/yellow.gif","img/card_backs/set1/purple.gif","img/card_backs/set2/pink.gif","img/card_backs/set2/gray.gif","img/card_backs/set2/orange.gif","img/card_backs/set2/blue.gif","""event"",""trial"",""time""
""fullscreenenter"",""1"",""3797""
","
","
","""event"",""trial"",""time""
""fullscreenenter"",""1"",""3797""
","
","","8516.5","You should pick a card from a deck using the '2', '4', '6', and '8' keys at the top of the keyboard.","85","","instructions","2021-06-22 20:29:22.107","","","","","",""
"casino-keyboard-response","12","72509","0.0-8.0-0.1","120","false","img/card_backs/set1/red.gif","img/card_backs/set1/green.gif","img/card_backs/set1/yellow.gif","img/card_backs/set1/purple.gif","img/card_backs/set2/pink.gif","img/card_backs/set2/gray.gif","img/card_backs/set2/orange.gif","img/card_backs/set2/blue.gif","""event"",""trial"",""time""
""fullscreenenter"",""1"",""3797""
","
","
","""event"",""trial"",""time""
""fullscreenenter"",""1"",""3797""
","
","","5722.5","Once you select a card, it will turn over and you will see how many tokens you earned.","83","","instructions","2021-06-22 20:29:27.833","","","","","",""
"casino-keyboard-response","13","87339","0.0-8.0-0.2","120","false","img/card_backs/set1/red.gif","img/card_backs/set1/green.gif","img/card_backs/set1/yellow.gif","img/card_backs/set1/purple.gif","img/card_backs/set2/pink.gif","img/card_backs/set2/gray.gif","img/card_backs/set2/orange.gif","img/card_backs/set2/blue.gif","""event"",""trial"",""time""
""fullscreenenter"",""1"",""3797""
","
","
","""event"",""trial"",""time""
""fullscreenenter"",""1"",""3797""
","
","","14825.200000047684","Let's try practicing that! </br> First, try to put your fingers over the '2', '4', '6', and '8' keys. </br>  You can use whatever fingers are most comfortable for you. Try to find a comfortable position now. ","50","","instructions","2021-06-22 20:29:42.663","","","","","",""
"casino-keyboard-response","14","93262","0.0-8.0-0.3","120","false","img/card_backs/set1/red.gif","img/card_backs/set1/green.gif","img/card_backs/set1/yellow.gif","img/card_backs/set1/purple.gif","img/card_backs/set2/pink.gif","img/card_backs/set2/gray.gif","img/card_backs/set2/orange.gif","img/card_backs/set2/blue.gif","""event"",""trial"",""time""
""fullscreenenter"",""1"",""3797""
","
","
","""event"",""trial"",""time""
""fullscreenenter"",""1"",""3797""
","
","","5921.599999904633","Okay ready? </br> On the next screen, press '2' to select the left deck. ","50","","instructions","2021-06-22 20:29:48.586","","","","","",""
"card-selection-trial","15","96269","0.0-9.0-0.0","120","false","img/card_backs/set1/red.gif","img/card_backs/set1/green.gif","img/card_backs/set1/yellow.gif","img/card_backs/set1/purple.gif","img/card_backs/set2/pink.gif","img/card_backs/set2/gray.gif","img/card_backs/set2/orange.gif","img/card_backs/set2/blue.gif","""event"",""trial"",""time""
""fullscreenenter"",""1"",""3797""
","
","
","""event"",""trial"",""time""
""fullscreenenter"",""1"",""3797""
","
","","981.7000000476837","","","","practice_card_selection","2021-06-22 20:29:51.593","img/practice_cards/backs/black.gif","0","100","","",""
"casino-keyboard-response","16","102973","0.0-10.0-0.0","120","false","img/card_backs/set1/red.gif","img/card_backs/set1/green.gif","img/card_backs/set1/yellow.gif","img/card_backs/set1/purple.gif","img/card_backs/set2/pink.gif","img/card_backs/set2/gray.gif","img/card_backs/set2/orange.gif","img/card_backs/set2/blue.gif","""event"",""trial"",""time""
""fullscreenenter"",""1"",""3797""
","
","
","""event"",""trial"",""time""
""fullscreenenter"",""1"",""3797""
","
","","6702.299999952316","Great! Now on the next screen, try pressing '6' to select the third deck.","54","","instructions","2021-06-22 20:29:58.297","","","","","",""
"card-selection-trial","17","105859","0.0-11.0-0.0","120","false","img/card_backs/set1/red.gif","img/card_backs/set1/green.gif","img/card_backs/set1/yellow.gif","img/card_backs/set1/purple.gif","img/card_backs/set2/pink.gif","img/card_backs/set2/gray.gif","img/card_backs/set2/orange.gif","img/card_backs/set2/blue.gif","""event"",""trial"",""time""
""fullscreenenter"",""1"",""3797""
","
","
","""event"",""trial"",""time""
""fullscreenenter"",""1"",""3797""
","
","","862.5","","","","practice_card_selection","2021-06-22 20:30:01.183","img/practice_cards/backs/brown.gif","2","-100","","",""
"casino-keyboard-response","18","110290","0.0-12.0-0.0","120","false","img/card_backs/set1/red.gif","img/card_backs/set1/green.gif","img/card_backs/set1/yellow.gif","img/card_backs/set1/purple.gif","img/card_backs/set2/pink.gif","img/card_backs/set2/gray.gif","img/card_backs/set2/orange.gif","img/card_backs/set2/blue.gif","""event"",""trial"",""time""
""fullscreenenter"",""1"",""3797""
","
","
","""event"",""trial"",""time""
""fullscreenenter"",""1"",""3797""
","
","","4430.099999904633","Now on the next screen, try pressing '4' to select the second deck.","52","","instructions","2021-06-22 20:30:05.614","","","","","",""
"card-selection-trial","19","113249","0.0-13.0-0.0","120","false","img/card_backs/set1/red.gif","img/card_backs/set1/green.gif","img/card_backs/set1/yellow.gif","img/card_backs/set1/purple.gif","img/card_backs/set2/pink.gif","img/card_backs/set2/gray.gif","img/card_backs/set2/orange.gif","img/card_backs/set2/blue.gif","""event"",""trial"",""time""
""fullscreenenter"",""1"",""3797""
","
","
","""event"",""trial"",""time""
""fullscreenenter"",""1"",""3797""
","
","","937.4000000953674","","","","practice_card_selection","2021-06-22 20:30:08.573","img/practice_cards/backs/dark_green.gif","1","-200","","",""
"casino-keyboard-response","20","117329","0.0-14.0-0.0","120","false","img/card_backs/set1/red.gif","img/card_backs/set1/green.gif","img/card_backs/set1/yellow.gif","img/card_backs/set1/purple.gif","img/card_backs/set2/pink.gif","img/card_backs/set2/gray.gif","img/card_backs/set2/orange.gif","img/card_backs/set2/blue.gif","""event"",""trial"",""time""
""fullscreenenter"",""1"",""3797""
","
","
","""event"",""trial"",""time""
""fullscreenenter"",""1"",""3797""
","
","","4079.300000190735","Finally, try pressing '8' to select the deck all the way on the right.","56","","instructions","2021-06-22 20:30:12.653","","","","","",""
"card-selection-trial","21","119848","0.0-15.0-0.0","120","false","img/card_backs/set1/red.gif","img/card_backs/set1/green.gif","img/card_backs/set1/yellow.gif","img/card_backs/set1/purple.gif","img/card_backs/set2/pink.gif","img/card_backs/set2/gray.gif","img/card_backs/set2/orange.gif","img/card_backs/set2/blue.gif","""event"",""trial"",""time""
""fullscreenenter"",""1"",""3797""
","
","
","""event"",""trial"",""time""
""fullscreenenter"",""1"",""3797""
","
","","514","","","","practice_card_selection","2021-06-22 20:30:15.172","img/practice_cards/backs/dark_blue.gif","3","200","","",""
"casino-keyboard-response","22","123645","0.0-16.0-0.0","120","false","img/card_backs/set1/red.gif","img/card_backs/set1/green.gif","img/card_backs/set1/yellow.gif","img/card_backs/set1/purple.gif","img/card_backs/set2/pink.gif","img/card_backs/set2/gray.gif","img/card_backs/set2/orange.gif","img/card_backs/set2/blue.gif","""event"",""trial"",""time""
""fullscreenenter"",""1"",""3797""
","
","
","""event"",""trial"",""time""
""fullscreenenter"",""1"",""3797""
","
","","3794.4000000953674","Great! It seems like you are getting the hang of this.","80","","instructions","2021-06-22 20:30:18.969","","","","","",""
"casino-keyboard-response","23","131461","0.0-16.0-0.1","120","false","img/card_backs/set1/red.gif","img/card_backs/set1/green.gif","img/card_backs/set1/yellow.gif","img/card_backs/set1/purple.gif","img/card_backs/set2/pink.gif","img/card_backs/set2/gray.gif","img/card_backs/set2/orange.gif","img/card_backs/set2/blue.gif","""event"",""trial"",""time""
""fullscreenenter"",""1"",""3797""
","
","
","""event"",""trial"",""time""
""fullscreenenter"",""1"",""3797""
","
","","7815.299999952316","You may have noticed that some cards will cause you to <b> win </b> tokens while other cards will cause you to <b> lose </b>  tokens.","70","","instructions","2021-06-22 20:30:26.785","","","","","",""
"casino-keyboard-response","24","140430","0.0-16.0-0.2","120","false","img/card_backs/set1/red.gif","img/card_backs/set1/green.gif","img/card_backs/set1/yellow.gif","img/card_backs/set1/purple.gif","img/card_backs/set2/pink.gif","img/card_backs/set2/gray.gif","img/card_backs/set2/orange.gif","img/card_backs/set2/blue.gif","""event"",""trial"",""time""
""fullscreenenter"",""1"",""3797""
","
","
","""event"",""trial"",""time""
""fullscreenenter"",""1"",""3797""
","
","","8968.099999904633","Each deck has a mix of cards that will cause you to win and lose tokens. </br> However, the cards in each colored deck are different.","73","","instructions","2021-06-22 20:30:35.755","","","","","",""
"casino-keyboard-response","25","148957","0.0-16.0-0.3","120","false","img/card_backs/set1/red.gif","img/card_backs/set1/green.gif","img/card_backs/set1/yellow.gif","img/card_backs/set1/purple.gif","img/card_backs/set2/pink.gif","img/card_backs/set2/gray.gif","img/card_backs/set2/orange.gif","img/card_backs/set2/blue.gif","""event"",""trial"",""time""
""fullscreenenter"",""1"",""3797""
","
","
","""event"",""trial"",""time""
""fullscreenenter"",""1"",""3797""
","
","","8524.200000047684","Some colored decks are luckier than others. </br> If you choose the lucky decks, you will earn more tokens than if you choose the unlucky decks.","69","","instructions","2021-06-22 20:30:44.281","","","","","",""
"casino-keyboard-response","26","157399","0.0-16.0-0.4","120","false","img/card_backs/set1/red.gif","img/card_backs/set1/green.gif","img/card_backs/set1/yellow.gif","img/card_backs/set1/purple.gif","img/card_backs/set2/pink.gif","img/card_backs/set2/gray.gif","img/card_backs/set2/orange.gif","img/card_backs/set2/blue.gif","""event"",""trial"",""time""
""fullscreenenter"",""1"",""3797""
","
","
","""event"",""trial"",""time""
""fullscreenenter"",""1"",""3797""
","
","","8440.700000047684","You should try to figure out which decks are lucky. </br> Then, try to choose the lucky decks so you can win the most tokens.","87","","instructions","2021-06-22 20:30:52.723","","","","","",""
"casino-keyboard-response","27","168804","0.0-16.0-0.5","120","false","img/card_backs/set1/red.gif","img/card_backs/set1/green.gif","img/card_backs/set1/yellow.gif","img/card_backs/set1/purple.gif","img/card_backs/set2/pink.gif","img/card_backs/set2/gray.gif","img/card_backs/set2/orange.gif","img/card_backs/set2/blue.gif","""event"",""trial"",""time""
""fullscreenenter"",""1"",""3797""
","
","
","""event"",""trial"",""time""
""fullscreenenter"",""1"",""3797""
","
","","11403.200000047684","To make it trickier, the casino dealer will switch the locations of the decks on every turn. </br> The color of the deck determines how lucky it is. The location does not matter.","88","","instructions","2021-06-22 20:31:04.128","","","","","",""
"casino-keyboard-response","28","178895","0.0-16.0-0.6","120","false","img/card_backs/set1/red.gif","img/card_backs/set1/green.gif","img/card_backs/set1/yellow.gif","img/card_backs/set1/purple.gif","img/card_backs/set2/pink.gif","img/card_backs/set2/gray.gif","img/card_backs/set2/orange.gif","img/card_backs/set2/blue.gif","""event"",""trial"",""time""
""fullscreenenter"",""1"",""3797""
","
","
","""event"",""trial"",""time""
""fullscreenenter"",""1"",""3797""
","
","","10088.400000095367","The mix of cards in each colored deck will stay the same throughout the game. </br> That means that a deck that is lucky early on will stay lucky.","79","","instructions","2021-06-22 20:31:14.219","","","","","",""
"casino-keyboard-response","29","188384","0.0-16.0-0.7","120","false","img/card_backs/set1/red.gif","img/card_backs/set1/green.gif","img/card_backs/set1/yellow.gif","img/card_backs/set1/purple.gif","img/card_backs/set2/pink.gif","img/card_backs/set2/gray.gif","img/card_backs/set2/orange.gif","img/card_backs/set2/blue.gif","""event"",""trial"",""time""
""fullscreenenter"",""1"",""3797""
","
","
","""event"",""trial"",""time""
""fullscreenenter"",""1"",""3797""
","
","","9485.700000047684","Remember though, all the decks have a <b> mix </b> of both <b> good </b> and <b> bad </b> cards so it may take a couple of turns to figure out if a deck is lucky.","69","","instructions","2021-06-22 20:31:23.709","","","","","",""
"casino-keyboard-response","30","197597","0.0-16.0-0.8","120","false","img/card_backs/set1/red.gif","img/card_backs/set1/green.gif","img/card_backs/set1/yellow.gif","img/card_backs/set1/purple.gif","img/card_backs/set2/pink.gif","img/card_backs/set2/gray.gif","img/card_backs/set2/orange.gif","img/card_backs/set2/blue.gif","""event"",""trial"",""time""
""fullscreenenter"",""1"",""3797""
","
","
","""event"",""trial"",""time""
""fullscreenenter"",""1"",""3797""
","
","","9209","At the end of the game, you will be paid bonus money based on how many tokens you win. </br> If you win more tokens, you will earn more money!","72","","instructions","2021-06-22 20:31:32.922","","","","","",""
"casino-keyboard-response","31","208477","0.0-16.0-0.9","120","false","img/card_backs/set1/red.gif","img/card_backs/set1/green.gif","img/card_backs/set1/yellow.gif","img/card_backs/set1/purple.gif","img/card_backs/set2/pink.gif","img/card_backs/set2/gray.gif","img/card_backs/set2/orange.gif","img/card_backs/set2/blue.gif","""event"",""trial"",""time""
""fullscreenenter"",""1"",""3797""
","
","
","""event"",""trial"",""time""
""fullscreenenter"",""1"",""3797""
","
","","10874.700000047684","You will never <b> lose </b> money. </br> If you end up with fewer than 0 tokens, you will earn $0 of bonus money, but you will still be paid for playing the game.","83","","instructions","2021-06-22 20:31:43.801","","","","","",""
"casino-keyboard-response","32","213673","0.0-16.0-0.10","120","false","img/card_backs/set1/red.gif","img/card_backs/set1/green.gif","img/card_backs/set1/yellow.gif","img/card_backs/set1/purple.gif","img/card_backs/set2/pink.gif","img/card_backs/set2/gray.gif","img/card_backs/set2/orange.gif","img/card_backs/set2/blue.gif","""event"",""trial"",""time""
""fullscreenenter"",""1"",""3797""
","
","
","""event"",""trial"",""time""
""fullscreenenter"",""1"",""3797""
","
","","5190.400000095367","You will have 10 seconds to make each choice.","82","","instructions","2021-06-22 20:31:48.997","","","","","",""
"casino-keyboard-response","33","222380","0.0-16.0-0.11","120","false","img/card_backs/set1/red.gif","img/card_backs/set1/green.gif","img/card_backs/set1/yellow.gif","img/card_backs/set1/purple.gif","img/card_backs/set2/pink.gif","img/card_backs/set2/gray.gif","img/card_backs/set2/orange.gif","img/card_backs/set2/blue.gif","""event"",""trial"",""time""
""fullscreenenter"",""1"",""3797""
","
","
","""event"",""trial"",""time""
""fullscreenenter"",""1"",""3797""
","
","","8700.299999952316","Before you play the game for real, you will play with practice decks. </br> The tokens you earn during practice won't count toward your total.","86","","instructions","2021-06-22 20:31:57.704","","","","","",""
"casino-keyboard-response","34","233243","0.0-16.0-0.12","120","false","img/card_backs/set1/red.gif","img/card_backs/set1/green.gif","img/card_backs/set1/yellow.gif","img/card_backs/set1/purple.gif","img/card_backs/set2/pink.gif","img/card_backs/set2/gray.gif","img/card_backs/set2/orange.gif","img/card_backs/set2/blue.gif","""event"",""trial"",""time""
""fullscreenenter"",""1"",""3797""
","
","
","""event"",""trial"",""time""
""fullscreenenter"",""1"",""3797""
","
","","10857.5","Ready? Remember, use the '2', '4', '6', and '8' keys to select the decks. </br> Put your fingers on those keys now and then press '2' to begin.","50","","instructions","2021-06-22 20:32:08.567","","","","","",""
"casino-fixation","35","233760","0.0-17.0-0.0","120","false","img/card_backs/set1/red.gif","img/card_backs/set1/green.gif","img/card_backs/set1/yellow.gif","img/card_backs/set1/purple.gif","img/card_backs/set2/pink.gif","img/card_backs/set2/gray.gif","img/card_backs/set2/orange.gif","img/card_backs/set2/blue.gif","""event"",""trial"",""time""
""fullscreenenter"",""1"",""3797""
","
","
","""event"",""trial"",""time""
""fullscreenenter"",""1"",""3797""
","
","","null","","null","","fixation","2021-06-22 20:32:09.084","","","","","",""
"card-selection-trial","36","236740","0.0-17.0-1.0","120","false","img/card_backs/set1/red.gif","img/card_backs/set1/green.gif","img/card_backs/set1/yellow.gif","img/card_backs/set1/purple.gif","img/card_backs/set2/pink.gif","img/card_backs/set2/gray.gif","img/card_backs/set2/orange.gif","img/card_backs/set2/blue.gif","""event"",""trial"",""time""
""fullscreenenter"",""1"",""3797""
","
","
","""event"",""trial"",""time""
""fullscreenenter"",""1"",""3797""
","
","","951.9000000953674","","","","practice","2021-06-22 20:32:12.065","img/practice_cards/backs/dark_green.gif","0","200","0","",""
"casino-fixation","37","237249","0.0-17.0-0.1","120","false","img/card_backs/set1/red.gif","img/card_backs/set1/green.gif","img/card_backs/set1/yellow.gif","img/card_backs/set1/purple.gif","img/card_backs/set2/pink.gif","img/card_backs/set2/gray.gif","img/card_backs/set2/orange.gif","img/card_backs/set2/blue.gif","""event"",""trial"",""time""
""fullscreenenter"",""1"",""3797""
","
","
","""event"",""trial"",""time""
""fullscreenenter"",""1"",""3797""
","
","","null","","null","","fixation","2021-06-22 20:32:12.574","","","","","",""
"card-selection-trial","38","240090","0.0-17.0-1.1","120","false","img/card_backs/set1/red.gif","img/card_backs/set1/green.gif","img/card_backs/set1/yellow.gif","img/card_backs/set1/purple.gif","img/card_backs/set2/pink.gif","img/card_backs/set2/gray.gif","img/card_backs/set2/orange.gif","img/card_backs/set2/blue.gif","""event"",""trial"",""time""
""fullscreenenter"",""1"",""3797""
","
","
","""event"",""trial"",""time""
""fullscreenenter"",""1"",""3797""
","
","","818.1000001430511","","","","practice","2021-06-22 20:32:15.414","img/practice_cards/backs/brown.gif","3","-100","0","",""
"casino-fixation","39","240609","0.0-17.0-0.2","120","false","img/card_backs/set1/red.gif","img/card_backs/set1/green.gif","img/card_backs/set1/yellow.gif","img/card_backs/set1/purple.gif","img/card_backs/set2/pink.gif","img/card_backs/set2/gray.gif","img/card_backs/set2/orange.gif","img/card_backs/set2/blue.gif","""event"",""trial"",""time""
""fullscreenenter"",""1"",""3797""
","
","
","""event"",""trial"",""time""
""fullscreenenter"",""1"",""3797""
","
","","null","","null","","fixation","2021-06-22 20:32:15.934","","","","","",""
"card-selection-trial","40","243382","0.0-17.0-1.2","120","false","img/card_backs/set1/red.gif","img/card_backs/set1/green.gif","img/card_backs/set1/yellow.gif","img/card_backs/set1/purple.gif","img/card_backs/set2/pink.gif","img/card_backs/set2/gray.gif","img/card_backs/set2/orange.gif","img/card_backs/set2/blue.gif","""event"",""trial"",""time""
""fullscreenenter"",""1"",""3797""
","
","
","""event"",""trial"",""time""
""fullscreenenter"",""1"",""3797""
","
","","755.5","","","","practice","2021-06-22 20:32:18.706","img/practice_cards/backs/dark_blue.gif","2","200","0","",""
"casino-fixation","41","243889","0.0-17.0-0.3","120","false","img/card_backs/set1/red.gif","img/card_backs/set1/green.gif","img/card_backs/set1/yellow.gif","img/card_backs/set1/purple.gif","img/card_backs/set2/pink.gif","img/card_backs/set2/gray.gif","img/card_backs/set2/orange.gif","img/card_backs/set2/blue.gif","""event"",""trial"",""time""
""fullscreenenter"",""1"",""3797""
","
","
","""event"",""trial"",""time""
""fullscreenenter"",""1"",""3797""
","
","","null","","null","","fixation","2021-06-22 20:32:19.214","","","","","",""
"card-selection-trial","42","246260","0.0-17.0-1.3","120","false","img/card_backs/set1/red.gif","img/card_backs/set1/green.gif","img/card_backs/set1/yellow.gif","img/card_backs/set1/purple.gif","img/card_backs/set2/pink.gif","img/card_backs/set2/gray.gif","img/card_backs/set2/orange.gif","img/card_backs/set2/blue.gif","""event"",""trial"",""time""
""fullscreenenter"",""1"",""3797""
","
","
","""event"",""trial"",""time""
""fullscreenenter"",""1"",""3797""
","
","","355.2999999523163","","","","practice","2021-06-22 20:32:21.585","img/practice_cards/backs/dark_blue.gif","0","-200","0","",""
"casino-fixation","43","246770","0.0-17.0-0.4","120","false","img/card_backs/set1/red.gif","img/card_backs/set1/green.gif","img/card_backs/set1/yellow.gif","img/card_backs/set1/purple.gif","img/card_backs/set2/pink.gif","img/card_backs/set2/gray.gif","img/card_backs/set2/orange.gif","img/card_backs/set2/blue.gif","""event"",""trial"",""time""
""fullscreenenter"",""1"",""3797""
","
","
","""event"",""trial"",""time""
""fullscreenenter"",""1"",""3797""
","
","","null","","null","","fixation","2021-06-22 20:32:22.094","","","","","",""
"card-selection-trial","44","249330","0.0-17.0-1.4","120","false","img/card_backs/set1/red.gif","img/card_backs/set1/green.gif","img/card_backs/set1/yellow.gif","img/card_backs/set1/purple.gif","img/card_backs/set2/pink.gif","img/card_backs/set2/gray.gif","img/card_backs/set2/orange.gif","img/card_backs/set2/blue.gif","""event"",""trial"",""time""
""fullscreenenter"",""1"",""3797""
","
","
","""event"",""trial"",""time""
""fullscreenenter"",""1"",""3797""
","
","","545.2000000476837","","","","practice","2021-06-22 20:32:24.655","img/practice_cards/backs/brown.gif","3","-100","0","",""
"casino-fixation","45","249839","0.0-17.0-0.5","120","false","img/card_backs/set1/red.gif","img/card_backs/set1/green.gif","img/card_backs/set1/yellow.gif","img/card_backs/set1/purple.gif","img/card_backs/set2/pink.gif","img/card_backs/set2/gray.gif","img/card_backs/set2/orange.gif","img/card_backs/set2/blue.gif","""event"",""trial"",""time""
""fullscreenenter"",""1"",""3797""
","
","
","""event"",""trial"",""time""
""fullscreenenter"",""1"",""3797""
","
","","null","","null","","fixation","2021-06-22 20:32:25.164","","","","","",""
"card-selection-trial","46","251870","0.0-17.0-1.5","120","false","img/card_backs/set1/red.gif","img/card_backs/set1/green.gif","img/card_backs/set1/yellow.gif","img/card_backs/set1/purple.gif","img/card_backs/set2/pink.gif","img/card_backs/set2/gray.gif","img/card_backs/set2/orange.gif","img/card_backs/set2/blue.gif","""event"",""trial"",""time""
""fullscreenenter"",""1"",""3797""
","
","
","""event"",""trial"",""time""
""fullscreenenter"",""1"",""3797""
","
","","2.299999952316284","","","","practice","2021-06-22 20:32:27.194","img/practice_cards/backs/dark_blue.gif","1","200","0","",""
"casino-fixation","47","252379","0.0-17.0-0.6","120","false","img/card_backs/set1/red.gif","img/card_backs/set1/green.gif","img/card_backs/set1/yellow.gif","img/card_backs/set1/purple.gif","img/card_backs/set2/pink.gif","img/card_backs/set2/gray.gif","img/card_backs/set2/orange.gif","img/card_backs/set2/blue.gif","""event"",""trial"",""time""
""fullscreenenter"",""1"",""3797""
","
","
","""event"",""trial"",""time""
""fullscreenenter"",""1"",""3797""
","
","","null","","null","","fixation","2021-06-22 20:32:27.704","","","","","",""
"card-selection-trial","48","255990","0.0-17.0-1.6","120","false","img/card_backs/set1/red.gif","img/card_backs/set1/green.gif","img/card_backs/set1/yellow.gif","img/card_backs/set1/purple.gif","img/card_backs/set2/pink.gif","img/card_backs/set2/gray.gif","img/card_backs/set2/orange.gif","img/card_backs/set2/blue.gif","""event"",""trial"",""time""
""fullscreenenter"",""1"",""3797""
","
","
","""event"",""trial"",""time""
""fullscreenenter"",""1"",""3797""
","
","","1585.4000000953674","","","","practice","2021-06-22 20:32:31.314","img/practice_cards/backs/dark_green.gif","0","-200","0","",""
"casino-fixation","49","256511","0.0-17.0-0.7","120","false","img/card_backs/set1/red.gif","img/card_backs/set1/green.gif","img/card_backs/set1/yellow.gif","img/card_backs/set1/purple.gif","img/card_backs/set2/pink.gif","img/card_backs/set2/gray.gif","img/card_backs/set2/orange.gif","img/card_backs/set2/blue.gif","""event"",""trial"",""time""
""fullscreenenter"",""1"",""3797""
","
","
","""event"",""trial"",""time""
""fullscreenenter"",""1"",""3797""
","
","","null","","null","","fixation","2021-06-22 20:32:31.835","","","","","",""
"card-selection-trial","50","258690","0.0-17.0-1.7","120","false","img/card_backs/set1/red.gif","img/card_backs/set1/green.gif","img/card_backs/set1/yellow.gif","img/card_backs/set1/purple.gif","img/card_backs/set2/pink.gif","img/card_backs/set2/gray.gif","img/card_backs/set2/orange.gif","img/card_backs/set2/blue.gif","""event"",""trial"",""time""
""fullscreenenter"",""1"",""3797""
","
","
","""event"",""trial"",""time""
""fullscreenenter"",""1"",""3797""
","
","","153.20000004768372","","","","practice","2021-06-22 20:32:34.014","img/practice_cards/backs/black.gif","3","-100","0","",""
"casino-fixation","51","259210","0.0-17.0-0.8","120","false","img/card_backs/set1/red.gif","img/card_backs/set1/green.gif","img/card_backs/set1/yellow.gif","img/card_backs/set1/purple.gif","img/card_backs/set2/pink.gif","img/card_backs/set2/gray.gif","img/card_backs/set2/orange.gif","img/card_backs/set2/blue.gif","""event"",""trial"",""time""
""fullscreenenter"",""1"",""3797""
","
","
","""event"",""trial"",""time""
""fullscreenenter"",""1"",""3797""
","
","","null","","null","","fixation","2021-06-22 20:32:34.534","","","","","",""
"card-selection-trial","52","261551","0.0-17.0-1.8","120","false","img/card_backs/set1/red.gif","img/card_backs/set1/green.gif","img/card_backs/set1/yellow.gif","img/card_backs/set1/purple.gif","img/card_backs/set2/pink.gif","img/card_backs/set2/gray.gif","img/card_backs/set2/orange.gif","img/card_backs/set2/blue.gif","""event"",""trial"",""time""
""fullscreenenter"",""1"",""3797""
","
","
","""event"",""trial"",""time""
""fullscreenenter"",""1"",""3797""
","
","","327.5","","","","practice","2021-06-22 20:32:36.875","img/practice_cards/backs/brown.gif","2","100","0","",""
"casino-fixation","53","262059","0.0-17.0-0.9","120","false","img/card_backs/set1/red.gif","img/card_backs/set1/green.gif","img/card_backs/set1/yellow.gif","img/card_backs/set1/purple.gif","img/card_backs/set2/pink.gif","img/card_backs/set2/gray.gif","img/card_backs/set2/orange.gif","img/card_backs/set2/blue.gif","""event"",""trial"",""time""
""fullscreenenter"",""1"",""3797""
","
","
","""event"",""trial"",""time""
""fullscreenenter"",""1"",""3797""
","
","","null","","null","","fixation","2021-06-22 20:32:37.384","","","","","",""
"card-selection-trial","54","265235","0.0-17.0-1.9","120","false","img/card_backs/set1/red.gif","img/card_backs/set1/green.gif","img/card_backs/set1/yellow.gif","img/card_backs/set1/purple.gif","img/card_backs/set2/pink.gif","img/card_backs/set2/gray.gif","img/card_backs/set2/orange.gif","img/card_backs/set2/blue.gif","""event"",""trial"",""time""
""fullscreenenter"",""1"",""3797""
","
","
","""event"",""trial"",""time""
""fullscreenenter"",""1"",""3797""
","
","","1164.2999999523163","","","","practice","2021-06-22 20:32:40.559","img/practice_cards/backs/dark_green.gif","2","200","0","",""
"casino-keyboard-response","55","270017","0.0-18.0","120","false","img/card_backs/set1/red.gif","img/card_backs/set1/green.gif","img/card_backs/set1/yellow.gif","img/card_backs/set1/purple.gif","img/card_backs/set2/pink.gif","img/card_backs/set2/gray.gif","img/card_backs/set2/orange.gif","img/card_backs/set2/blue.gif","""event"",""trial"",""time""
""fullscreenenter"",""1"",""3797""
","
","
","""event"",""trial"",""time""
""fullscreenenter"",""1"",""3797""
","
","","4780.400000095367","You earned 200 tokens during the practice round!","82","","","2021-06-22 20:32:45.342","","","","","",""
"casino-keyboard-response","56","274732","0.0-19.0-0.0","120","false","img/card_backs/set1/red.gif","img/card_backs/set1/green.gif","img/card_backs/set1/yellow.gif","img/card_backs/set1/purple.gif","img/card_backs/set2/pink.gif","img/card_backs/set2/gray.gif","img/card_backs/set2/orange.gif","img/card_backs/set2/blue.gif","""event"",""trial"",""time""
""fullscreenenter"",""1"",""3797""
","
","
","""event"",""trial"",""time""
""fullscreenenter"",""1"",""3797""
","
","","4710.900000095367","Nice job! You are almost ready to play the real game.","86","","instructions","2021-06-22 20:32:50.056","","","","","",""
"casino-keyboard-response","57","283027","0.0-19.0-0.1","120","false","img/card_backs/set1/red.gif","img/card_backs/set1/green.gif","img/card_backs/set1/yellow.gif","img/card_backs/set1/purple.gif","img/card_backs/set2/pink.gif","img/card_backs/set2/gray.gif","img/card_backs/set2/orange.gif","img/card_backs/set2/blue.gif","""event"",""trial"",""time""
""fullscreenenter"",""1"",""3797""
","
","
","""event"",""trial"",""time""
""fullscreenenter"",""1"",""3797""
","
","","8291.200000047684","You will play two rounds of the real game. In each round, you will pick 100 cards in total.","73","","instructions","2021-06-22 20:32:58.352","","","","","",""
"casino-keyboard-response","58","289103","0.0-19.0-0.2","120","false","img/card_backs/set1/red.gif","img/card_backs/set1/green.gif","img/card_backs/set1/yellow.gif","img/card_backs/set1/purple.gif","img/card_backs/set2/pink.gif","img/card_backs/set2/gray.gif","img/card_backs/set2/orange.gif","img/card_backs/set2/blue.gif","""event"",""trial"",""time""
""fullscreenenter"",""1"",""3797""
","
","
","""event"",""trial"",""time""
""fullscreenenter"",""1"",""3797""
","
","","6071.299999952316","We are now going to ask you some questions about how the game works.","66","","instructions","2021-06-22 20:33:04.428","","","","","",""
"casino-keyboard-response","59","298018","0.0-19.0-0.3","120","false","img/card_backs/set1/red.gif","img/card_backs/set1/green.gif","img/card_backs/set1/yellow.gif","img/card_backs/set1/purple.gif","img/card_backs/set2/pink.gif","img/card_backs/set2/gray.gif","img/card_backs/set2/orange.gif","img/card_backs/set2/blue.gif","""event"",""trial"",""time""
""fullscreenenter"",""1"",""3797""
","
","
","""event"",""trial"",""time""
""fullscreenenter"",""1"",""3797""
","
","","8911.5","Answer carefully. You will not be able to begin the game until you answer them correctly.","67","","instructions","2021-06-22 20:33:13.343","","","","","",""
"casino-comp_q","60","308366","0.0-20.0-0.0","120","false","img/card_backs/set1/red.gif","img/card_backs/set1/green.gif","img/card_backs/set1/yellow.gif","img/card_backs/set1/purple.gif","img/card_backs/set2/pink.gif","img/card_backs/set2/gray.gif","img/card_backs/set2/orange.gif","img/card_backs/set2/blue.gif","""event"",""trial"",""time""
""fullscreenenter"",""1"",""3797""
","
","
","""event"",""trial"",""time""
""fullscreenenter"",""1"",""3797""
","
","","10343.299999952316","True or False: All the decks have some cards that cause you to win tokens and some cards that cause you to lose tokens.","84","","","2021-06-22 20:33:23.691","","","","","",""
"casino-keyboard-response","61","313502","0.0-20.0-1.0","120","false","img/card_backs/set1/red.gif","img/card_backs/set1/green.gif","img/card_backs/set1/yellow.gif","img/card_backs/set1/purple.gif","img/card_backs/set2/pink.gif","img/card_backs/set2/gray.gif","img/card_backs/set2/orange.gif","img/card_backs/set2/blue.gif","""event"",""trial"",""time""
""fullscreenenter"",""1"",""3797""
","
","
","""event"",""trial"",""time""
""fullscreenenter"",""1"",""3797""
","
","","5132","True is correct! All the decks have a mix of winning and losing cards.","77","","","2021-06-22 20:33:28.828","","","","","true",""
"casino-comp_q","62","318634","0.0-21.0-0.0","120","false","img/card_backs/set1/red.gif","img/card_backs/set1/green.gif","img/card_backs/set1/yellow.gif","img/card_backs/set1/purple.gif","img/card_backs/set2/pink.gif","img/card_backs/set2/gray.gif","img/card_backs/set2/orange.gif","img/card_backs/set2/blue.gif","""event"",""trial"",""time""
""fullscreenenter"",""1"",""3797""
","
","
","""event"",""trial"",""time""
""fullscreenenter"",""1"",""3797""
","
","","5126.400000095367","True or False: You will have as much time as you want to make your response.","70","","","2021-06-22 20:33:33.959","","","","","",""
"casino-keyboard-response","63","322775","0.0-21.0-1.0","120","false","img/card_backs/set1/red.gif","img/card_backs/set1/green.gif","img/card_backs/set1/yellow.gif","img/card_backs/set1/purple.gif","img/card_backs/set2/pink.gif","img/card_backs/set2/gray.gif","img/card_backs/set2/orange.gif","img/card_backs/set2/blue.gif","""event"",""trial"",""time""
""fullscreenenter"",""1"",""3797""
","
","
","""event"",""trial"",""time""
""fullscreenenter"",""1"",""3797""
","
","","4132.700000047684","False is correct! You will only have 10 seconds to make each choice.","75","","","2021-06-22 20:33:38.099","","","","","true",""
"casino-comp_q","64","329777","0.0-22.0-0.0","120","false","img/card_backs/set1/red.gif","img/card_backs/set1/green.gif","img/card_backs/set1/yellow.gif","img/card_backs/set1/purple.gif","img/card_backs/set2/pink.gif","img/card_backs/set2/gray.gif","img/card_backs/set2/orange.gif","img/card_backs/set2/blue.gif","""event"",""trial"",""time""
""fullscreenenter"",""1"",""3797""
","
","
","""event"",""trial"",""time""
""fullscreenenter"",""1"",""3797""
","
","","6998.5","True or False: The location of the deck determines how lucky it is.","84","","","2021-06-22 20:33:45.101","","","","","",""
"casino-keyboard-response","65","334630","0.0-22.0-1.0","120","false","img/card_backs/set1/red.gif","img/card_backs/set1/green.gif","img/card_backs/set1/yellow.gif","img/card_backs/set1/purple.gif","img/card_backs/set2/pink.gif","img/card_backs/set2/gray.gif","img/card_backs/set2/orange.gif","img/card_backs/set2/blue.gif","""event"",""trial"",""time""
""fullscreenenter"",""1"",""3797""
","
","
","""event"",""trial"",""time""
""fullscreenenter"",""1"",""3797""
","
","","4849.700000047684","True is incorrect. The <i>color</i> of the deck determines how lucky or unlucky it is.","68","","","2021-06-22 20:33:49.955","","","","","false",""
"casino-comp_q","66","340083","0.0-22.1-0.1","120","false","img/card_backs/set1/red.gif","img/card_backs/set1/green.gif","img/card_backs/set1/yellow.gif","img/card_backs/set1/purple.gif","img/card_backs/set2/pink.gif","img/card_backs/set2/gray.gif","img/card_backs/set2/orange.gif","img/card_backs/set2/blue.gif","""event"",""trial"",""time""
""fullscreenenter"",""1"",""3797""
","
","
","""event"",""trial"",""time""
""fullscreenenter"",""1"",""3797""
","
","","5447.699999809265","True or False: The location of the deck determines how lucky it is.","70","","","2021-06-22 20:33:55.407","","","","","",""
"casino-keyboard-response","67","345111","0.0-22.1-1.1","120","false","img/card_backs/set1/red.gif","img/card_backs/set1/green.gif","img/card_backs/set1/yellow.gif","img/card_backs/set1/purple.gif","img/card_backs/set2/pink.gif","img/card_backs/set2/gray.gif","img/card_backs/set2/orange.gif","img/card_backs/set2/blue.gif","""event"",""trial"",""time""
""fullscreenenter"",""1"",""3797""
","
","
","""event"",""trial"",""time""
""fullscreenenter"",""1"",""3797""
","
","","5023.5","False is correct! The <i>color</i>  of the deck determines how lucky or unlucky it is.","68","","","2021-06-22 20:34:00.435","","","","","true",""
"casino-keyboard-response","68","352240","0.0-23.0-0.0","120","false","img/card_backs/set1/red.gif","img/card_backs/set1/green.gif","img/card_backs/set1/yellow.gif","img/card_backs/set1/purple.gif","img/card_backs/set2/pink.gif","img/card_backs/set2/gray.gif","img/card_backs/set2/orange.gif","img/card_backs/set2/blue.gif","""event"",""trial"",""time""
""fullscreenenter"",""1"",""3797""
","
","
","""event"",""trial"",""time""
""fullscreenenter"",""1"",""3797""
","
","","7124.599999904633","Great job! Now it's time to start the real game.","82","","instructions","2021-06-22 20:34:07.564","","","","","",""
"casino-keyboard-response","69","358529","0.0-23.0-0.1","120","false","img/card_backs/set1/red.gif","img/card_backs/set1/green.gif","img/card_backs/set1/yellow.gif","img/card_backs/set1/purple.gif","img/card_backs/set2/pink.gif","img/card_backs/set2/gray.gif","img/card_backs/set2/orange.gif","img/card_backs/set2/blue.gif","""event"",""trial"",""time""
""fullscreenenter"",""1"",""3797""
","
","
","""event"",""trial"",""time""
""fullscreenenter"",""1"",""3797""
","
","","6285.400000095367","Before we start, we're going to head into a new room of the casino.","86","","instructions","2021-06-22 20:34:13.853","","","","","",""
"casino-keyboard-response","70","365852","0.0-24.0-0.0","120","false","img/card_backs/set1/red.gif","img/card_backs/set1/green.gif","img/card_backs/set1/yellow.gif","img/card_backs/set1/purple.gif","img/card_backs/set2/pink.gif","img/card_backs/set2/gray.gif","img/card_backs/set2/orange.gif","img/card_backs/set2/blue.gif","""event"",""trial"",""time""
""fullscreenenter"",""1"",""3797""
","
","
","""event"",""trial"",""time""
""fullscreenenter"",""1"",""3797""
","
","","7320.099999904633","Here we are! The real game will use different cards, but the rules will be the same.","71","","instructions","2021-06-22 20:34:21.177","","","","","",""
"casino-keyboard-response","71","374891","0.0-24.0-0.1","120","false","img/card_backs/set1/red.gif","img/card_backs/set1/green.gif","img/card_backs/set1/yellow.gif","img/card_backs/set1/purple.gif","img/card_backs/set2/pink.gif","img/card_backs/set2/gray.gif","img/card_backs/set2/orange.gif","img/card_backs/set2/blue.gif","""event"",""trial"",""time""
""fullscreenenter"",""1"",""3797""
","
","
","""event"",""trial"",""time""
""fullscreenenter"",""1"",""3797""
","
","","9034.799999952316","Ready? Put your fingers over the '2', '4', 6', and '8' keys so you are ready to play the game. </br> Then press 2 to start.","50","","instructions","2021-06-22 20:34:30.215","","","","","",""
"casino-fixation","72","375412","0.0-25.0-0.0","120","false","img/card_backs/set1/red.gif","img/card_backs/set1/green.gif","img/card_backs/set1/yellow.gif","img/card_backs/set1/purple.gif","img/card_backs/set2/pink.gif","img/card_backs/set2/gray.gif","img/card_backs/set2/orange.gif","img/card_backs/set2/blue.gif","""event"",""trial"",""time""
""fullscreenenter"",""1"",""3797""
","
","
","""event"",""trial"",""time""
""fullscreenenter"",""1"",""3797""
","
","","null","","null","","fixation","2021-06-22 20:34:30.737","","","","","",""
"card-selection-trial","73","380423","0.0-25.0-1.0","120","false","img/card_backs/set1/red.gif","img/card_backs/set1/green.gif","img/card_backs/set1/yellow.gif","img/card_backs/set1/purple.gif","img/card_backs/set2/pink.gif","img/card_backs/set2/gray.gif","img/card_backs/set2/orange.gif","img/card_backs/set2/blue.gif","""event"",""trial"",""time""
""fullscreenenter"",""1"",""3797""
","
","
","""event"",""trial"",""time""
""fullscreenenter"",""1"",""3797""
","
","","2988.199999809265","","","","real_trial","2021-06-22 20:34:35.747","img/card_backs/set1/green.gif","2","200","1","",""
"casino-fixation","74","380934","0.0-25.0-0.1","120","false","img/card_backs/set1/red.gif","img/card_backs/set1/green.gif","img/card_backs/set1/yellow.gif","img/card_backs/set1/purple.gif","img/card_backs/set2/pink.gif","img/card_backs/set2/gray.gif","img/card_backs/set2/orange.gif","img/card_backs/set2/blue.gif","""event"",""trial"",""time""
""fullscreenenter"",""1"",""3797""
","
","
","""event"",""trial"",""time""
""fullscreenenter"",""1"",""3797""
","
","","null","","null","","fixation","2021-06-22 20:34:36.258","","","","","",""
"card-selection-trial","75","385323","0.0-25.0-1.1","120","false","img/card_backs/set1/red.gif","img/card_backs/set1/green.gif","img/card_backs/set1/yellow.gif","img/card_backs/set1/purple.gif","img/card_backs/set2/pink.gif","img/card_backs/set2/gray.gif","img/card_backs/set2/orange.gif","img/card_backs/set2/blue.gif","""event"",""trial"",""time""
""fullscreenenter"",""1"",""3797""
","
","
","""event"",""trial"",""time""
""fullscreenenter"",""1"",""3797""
","
","","2363.7999999523163","","","","real_trial","2021-06-22 20:34:40.647","img/card_backs/set1/purple.gif","2","120","1","",""
"casino-fixation","76","385832","0.0-25.0-0.2","120","false","img/card_backs/set1/red.gif","img/card_backs/set1/green.gif","img/card_backs/set1/yellow.gif","img/card_backs/set1/purple.gif","img/card_backs/set2/pink.gif","img/card_backs/set2/gray.gif","img/card_backs/set2/orange.gif","img/card_backs/set2/blue.gif","""event"",""trial"",""time""
""fullscreenenter"",""1"",""3797""
","
","
","""event"",""trial"",""time""
""fullscreenenter"",""1"",""3797""
","
","","null","","null","","fixation","2021-06-22 20:34:41.157","","","","","",""
"card-selection-trial","77","390763","0.0-25.0-1.2","120","false","img/card_backs/set1/red.gif","img/card_backs/set1/green.gif","img/card_backs/set1/yellow.gif","img/card_backs/set1/purple.gif","img/card_backs/set2/pink.gif","img/card_backs/set2/gray.gif","img/card_backs/set2/orange.gif","img/card_backs/set2/blue.gif","""event"",""trial"",""time""
""fullscreenenter"",""1"",""3797""
","
","
","""event"",""trial"",""time""
""fullscreenenter"",""1"",""3797""
","
","","2918.300000190735","","","","real_trial","2021-06-22 20:34:46.088","img/card_backs/set1/green.gif","3","-230","1","",""
"casino-fixation","78","391282","0.0-25.0-0.3","120","false","img/card_backs/set1/red.gif","img/card_backs/set1/green.gif","img/card_backs/set1/yellow.gif","img/card_backs/set1/purple.gif","img/card_backs/set2/pink.gif","img/card_backs/set2/gray.gif","img/card_backs/set2/orange.gif","img/card_backs/set2/blue.gif","""event"",""trial"",""time""
""fullscreenenter"",""1"",""3797""
","
","
","""event"",""trial"",""time""
""fullscreenenter"",""1"",""3797""
","
","","null","","null","","fixation","2021-06-22 20:34:46.607","","","","","",""
"card-selection-trial","79","394027","0.0-25.0-1.3","120","false","img/card_backs/set1/red.gif","img/card_backs/set1/green.gif","img/card_backs/set1/yellow.gif","img/card_backs/set1/purple.gif","img/card_backs/set2/pink.gif","img/card_backs/set2/gray.gif","img/card_backs/set2/orange.gif","img/card_backs/set2/blue.gif","""event"",""trial"",""time""
""fullscreenenter"",""1"",""3797""
","
","
","""event"",""trial"",""time""
""fullscreenenter"",""1"",""3797""
","
","","727.5999999046326","","","","real_trial","2021-06-22 20:34:49.351","img/card_backs/set1/purple.gif","1","100","1","",""
"casino-fixation","80","394537","0.0-25.0-0.4","120","false","img/card_backs/set1/red.gif","img/card_backs/set1/green.gif","img/card_backs/set1/yellow.gif","img/card_backs/set1/purple.gif","img/card_backs/set2/pink.gif","img/card_backs/set2/gray.gif","img/card_backs/set2/orange.gif","img/card_backs/set2/blue.gif","""event"",""trial"",""time""
""fullscreenenter"",""1"",""3797""
","
","
","""event"",""trial"",""time""
""fullscreenenter"",""1"",""3797""
","
","","null","","null","","fixation","2021-06-22 20:34:49.861","","","","","",""
"card-selection-trial","81","398387","0.0-25.0-1.4","120","false","img/card_backs/set1/red.gif","img/card_backs/set1/green.gif","img/card_backs/set1/yellow.gif","img/card_backs/set1/purple.gif","img/card_backs/set2/pink.gif","img/card_backs/set2/gray.gif","img/card_backs/set2/orange.gif","img/card_backs/set2/blue.gif","""event"",""trial"",""time""
""fullscreenenter"",""1"",""3797""
","
","
","""event"",""trial"",""time""
""fullscreenenter"",""1"",""3797""
","
","","1829.5","","","","real_trial","2021-06-22 20:34:53.714","img/card_backs/set1/green.gif","2","180","1","",""
"casino-fixation","82","398907","0.0-25.0-0.5","120","false","img/card_backs/set1/red.gif","img/card_backs/set1/green.gif","img/card_backs/set1/yellow.gif","img/card_backs/set1/purple.gif","img/card_backs/set2/pink.gif","img/card_backs/set2/gray.gif","img/card_backs/set2/orange.gif","img/card_backs/set2/blue.gif","""event"",""trial"",""time""
""fullscreenenter"",""1"",""3797""
","
","
","""event"",""trial"",""time""
""fullscreenenter"",""1"",""3797""
","
","","null","","null","","fixation","2021-06-22 20:34:54.231","","","","","",""
"card-selection-trial","83","401888","0.0-25.0-1.5","120","false","img/card_backs/set1/red.gif","img/card_backs/set1/green.gif","img/card_backs/set1/yellow.gif","img/card_backs/set1/purple.gif","img/card_backs/set2/pink.gif","img/card_backs/set2/gray.gif","img/card_backs/set2/orange.gif","img/card_backs/set2/blue.gif","""event"",""trial"",""time""
""fullscreenenter"",""1"",""3797""
","
","
","""event"",""trial"",""time""
""fullscreenenter"",""1"",""3797""
","
","","960.1000001430511","","","","real_trial","2021-06-22 20:34:57.212","img/card_backs/set1/purple.gif","3","-60","1","",""
"casino-fixation","84","402408","0.0-25.0-0.6","120","false","img/card_backs/set1/red.gif","img/card_backs/set1/green.gif","img/card_backs/set1/yellow.gif","img/card_backs/set1/purple.gif","img/card_backs/set2/pink.gif","img/card_backs/set2/gray.gif","img/card_backs/set2/orange.gif","img/card_backs/set2/blue.gif","""event"",""trial"",""time""
""fullscreenenter"",""1"",""3797""
","
","
","""event"",""trial"",""time""
""fullscreenenter"",""1"",""3797""
","
","","null","","null","","fixation","2021-06-22 20:34:57.732","","","","","",""
"card-selection-trial","85","404964","0.0-25.0-1.6","120","false","img/card_backs/set1/red.gif","img/card_backs/set1/green.gif","img/card_backs/set1/yellow.gif","img/card_backs/set1/purple.gif","img/card_backs/set2/pink.gif","img/card_backs/set2/gray.gif","img/card_backs/set2/orange.gif","img/card_backs/set2/blue.gif","""event"",""trial"",""time""
""fullscreenenter"",""1"",""3797""
","
","
","""event"",""trial"",""time""
""fullscreenenter"",""1"",""3797""
","
","","545.6000001430511","","","","real_trial","2021-06-22 20:35:00.288","img/card_backs/set1/purple.gif","0","-60","1","",""
"casino-fixation","86","405466","0.0-25.0-0.7","120","false","img/card_backs/set1/red.gif","img/card_backs/set1/green.gif","img/card_backs/set1/yellow.gif","img/card_backs/set1/purple.gif","img/card_backs/set2/pink.gif","img/card_backs/set2/gray.gif","img/card_backs/set2/orange.gif","img/card_backs/set2/blue.gif","""event"",""trial"",""time""
""fullscreenenter"",""1"",""3797""
","
","
","""event"",""trial"",""time""
""fullscreenenter"",""1"",""3797""
","
","","null","","null","","fixation","2021-06-22 20:35:00.790","","","","","",""
"card-selection-trial","87","408305","0.0-25.0-1.7","120","false","img/card_backs/set1/red.gif","img/card_backs/set1/green.gif","img/card_backs/set1/yellow.gif","img/card_backs/set1/purple.gif","img/card_backs/set2/pink.gif","img/card_backs/set2/gray.gif","img/card_backs/set2/orange.gif","img/card_backs/set2/blue.gif","""event"",""trial"",""time""
""fullscreenenter"",""1"",""3797""
","
","
","""event"",""trial"",""time""
""fullscreenenter"",""1"",""3797""
","
","","822.7999999523163","","","","real_trial","2021-06-22 20:35:03.630","img/card_backs/set1/purple.gif","2","-50","1","",""
"casino-fixation","88","408807","0.0-25.0-0.8","120","false","img/card_backs/set1/red.gif","img/card_backs/set1/green.gif","img/card_backs/set1/yellow.gif","img/card_backs/set1/purple.gif","img/card_backs/set2/pink.gif","img/card_backs/set2/gray.gif","img/card_backs/set2/orange.gif","img/card_backs/set2/blue.gif","""event"",""trial"",""time""
""fullscreenenter"",""1"",""3797""
","
","
","""event"",""trial"",""time""
""fullscreenenter"",""1"",""3797""
","
","","null","","null","","fixation","2021-06-22 20:35:04.132","","","","","",""
"card-selection-trial","89","411264","0.0-25.0-1.8","120","false","img/card_backs/set1/red.gif","img/card_backs/set1/green.gif","img/card_backs/set1/yellow.gif","img/card_backs/set1/purple.gif","img/card_backs/set2/pink.gif","img/card_backs/set2/gray.gif","img/card_backs/set2/orange.gif","img/card_backs/set2/blue.gif","""event"",""trial"",""time""
""fullscreenenter"",""1"",""3797""
","
","
","""event"",""trial"",""time""
""fullscreenenter"",""1"",""3797""
","
","","445.5","","","","real_trial","2021-06-22 20:35:06.588","img/card_backs/set1/purple.gif","3","110","1","",""
"casino-fixation","90","411767","0.0-25.0-0.9","120","false","img/card_backs/set1/red.gif","img/card_backs/set1/green.gif","img/card_backs/set1/yellow.gif","img/card_backs/set1/purple.gif","img/card_backs/set2/pink.gif","img/card_backs/set2/gray.gif","img/card_backs/set2/orange.gif","img/card_backs/set2/blue.gif","""event"",""trial"",""time""
""fullscreenenter"",""1"",""3797""
","
","
","""event"",""trial"",""time""
""fullscreenenter"",""1"",""3797""
","
","","null","","null","","fixation","2021-06-22 20:35:07.092","","","","","",""
"card-selection-trial","91","414886","0.0-25.0-1.9","120","false","img/card_backs/set1/red.gif","img/card_backs/set1/green.gif","img/card_backs/set1/yellow.gif","img/card_backs/set1/purple.gif","img/card_backs/set2/pink.gif","img/card_backs/set2/gray.gif","img/card_backs/set2/orange.gif","img/card_backs/set2/blue.gif","""event"",""trial"",""time""
""fullscreenenter"",""1"",""3797""
","
","
","""event"",""trial"",""time""
""fullscreenenter"",""1"",""3797""
","
","","1107.6999998092651","","","","real_trial","2021-06-22 20:35:10.211","img/card_backs/set1/yellow.gif","0","-70","1","",""
"casino-fixation","92","415388","0.0-25.0-0.10","120","false","img/card_backs/set1/red.gif","img/card_backs/set1/green.gif","img/card_backs/set1/yellow.gif","img/card_backs/set1/purple.gif","img/card_backs/set2/pink.gif","img/card_backs/set2/gray.gif","img/card_backs/set2/orange.gif","img/card_backs/set2/blue.gif","""event"",""trial"",""time""
""fullscreenenter"",""1"",""3797""
","
","
","""event"",""trial"",""time""
""fullscreenenter"",""1"",""3797""
","
","","null","","null","","fixation","2021-06-22 20:35:10.713","","","","","",""
"card-selection-trial","93","417930","0.0-25.0-1.10","120","false","img/card_backs/set1/red.gif","img/card_backs/set1/green.gif","img/card_backs/set1/yellow.gif","img/card_backs/set1/purple.gif","img/card_backs/set2/pink.gif","img/card_backs/set2/gray.gif","img/card_backs/set2/orange.gif","img/card_backs/set2/blue.gif","""event"",""trial"",""time""
""fullscreenenter"",""1"",""3797""
","
","
","""event"",""trial"",""time""
""fullscreenenter"",""1"",""3797""
","
","","522.7000000476837","","","","real_trial","2021-06-22 20:35:13.254","img/card_backs/set1/green.gif","2","180","1","",""
"casino-fixation","94","418432","0.0-25.0-0.11","120","false","img/card_backs/set1/red.gif","img/card_backs/set1/green.gif","img/card_backs/set1/yellow.gif","img/card_backs/set1/purple.gif","img/card_backs/set2/pink.gif","img/card_backs/set2/gray.gif","img/card_backs/set2/orange.gif","img/card_backs/set2/blue.gif","""event"",""trial"",""time""
""fullscreenenter"",""1"",""3797""
","
","
","""event"",""trial"",""time""
""fullscreenenter"",""1"",""3797""
","
","","null","","null","","fixation","2021-06-22 20:35:13.757","","","","","",""
"card-selection-trial","95","422057","0.0-25.0-1.11","120","false","img/card_backs/set1/red.gif","img/card_backs/set1/green.gif","img/card_backs/set1/yellow.gif","img/card_backs/set1/purple.gif","img/card_backs/set2/pink.gif","img/card_backs/set2/gray.gif","img/card_backs/set2/orange.gif","img/card_backs/set2/blue.gif","""event"",""trial"",""time""
""fullscreenenter"",""1"",""3797""
","
","
","""event"",""trial"",""time""
""fullscreenenter"",""1"",""3797""
","
","","1614.4000000953674","","","","real_trial","2021-06-22 20:35:17.381","img/card_backs/set1/green.gif","1","190","1","",""
"casino-fixation","96","422561","0.0-25.0-0.12","120","false","img/card_backs/set1/red.gif","img/card_backs/set1/green.gif","img/card_backs/set1/yellow.gif","img/card_backs/set1/purple.gif","img/card_backs/set2/pink.gif","img/card_backs/set2/gray.gif","img/card_backs/set2/orange.gif","img/card_backs/set2/blue.gif","""event"",""trial"",""time""
""fullscreenenter"",""1"",""3797""
","
","
","""event"",""trial"",""time""
""fullscreenenter"",""1"",""3797""
","
","","null","","null","","fixation","2021-06-22 20:35:17.885","","","","","",""
"card-selection-trial","97","427589","0.0-25.0-1.12","120","false","img/card_backs/set1/red.gif","img/card_backs/set1/green.gif","img/card_backs/set1/yellow.gif","img/card_backs/set1/purple.gif","img/card_backs/set2/pink.gif","img/card_backs/set2/gray.gif","img/card_backs/set2/orange.gif","img/card_backs/set2/blue.gif","""event"",""trial"",""time""
""fullscreenenter"",""1"",""3797""
","
","
","""event"",""trial"",""time""
""fullscreenenter"",""1"",""3797""
","
","","3018","","","","real_trial","2021-06-22 20:35:22.914","img/card_backs/set1/green.gif","0","-250","1","",""
"casino-fixation","98","428094","0.0-25.0-0.13","120","false","img/card_backs/set1/red.gif","img/card_backs/set1/green.gif","img/card_backs/set1/yellow.gif","img/card_backs/set1/purple.gif","img/card_backs/set2/pink.gif","img/card_backs/set2/gray.gif","img/card_backs/set2/orange.gif","img/card_backs/set2/blue.gif","""event"",""trial"",""time""
""fullscreenenter"",""1"",""3797""
","
","
","""event"",""trial"",""time""
""fullscreenenter"",""1"",""3797""
","
","","null","","null","","fixation","2021-06-22 20:35:23.418","","","","","",""
"card-selection-trial","99","431746","0.0-25.0-1.13","120","false","img/card_backs/set1/red.gif","img/card_backs/set1/green.gif","img/card_backs/set1/yellow.gif","img/card_backs/set1/purple.gif","img/card_backs/set2/pink.gif","img/card_backs/set2/gray.gif","img/card_backs/set2/orange.gif","img/card_backs/set2/blue.gif","""event"",""trial"",""time""
""fullscreenenter"",""1"",""3797""
","
","
","""event"",""trial"",""time""
""fullscreenenter"",""1"",""3797""
","
","","1641.7000000476837","","","","real_trial","2021-06-22 20:35:27.070","img/card_backs/set1/green.gif","2","190","1","",""
"casino-fixation","100","432249","0.0-25.0-0.14","120","false","img/card_backs/set1/red.gif","img/card_backs/set1/green.gif","img/card_backs/set1/yellow.gif","img/card_backs/set1/purple.gif","img/card_backs/set2/pink.gif","img/card_backs/set2/gray.gif","img/card_backs/set2/orange.gif","img/card_backs/set2/blue.gif","""event"",""trial"",""time""
""fullscreenenter"",""1"",""3797""
","
","
","""event"",""trial"",""time""
""fullscreenenter"",""1"",""3797""
","
","","null","","null","","fixation","2021-06-22 20:35:27.574","","","","","",""
"card-selection-trial","101","435472","0.0-25.0-1.14","120","false","img/card_backs/set1/red.gif","img/card_backs/set1/green.gif","img/card_backs/set1/yellow.gif","img/card_backs/set1/purple.gif","img/card_backs/set2/pink.gif","img/card_backs/set2/gray.gif","img/card_backs/set2/orange.gif","img/card_backs/set2/blue.gif","""event"",""trial"",""time""
""fullscreenenter"",""1"",""3797""
","
","
","""event"",""trial"",""time""
""fullscreenenter"",""1"",""3797""
","
","","1212.7000000476837","","","","real_trial","2021-06-22 20:35:30.796","img/card_backs/set1/yellow.gif","3","120","1","",""
"casino-fixation","102","435976","0.0-25.0-0.15","120","false","img/card_backs/set1/red.gif","img/card_backs/set1/green.gif","img/card_backs/set1/yellow.gif","img/card_backs/set1/purple.gif","img/card_backs/set2/pink.gif","img/card_backs/set2/gray.gif","img/card_backs/set2/orange.gif","img/card_backs/set2/blue.gif","""event"",""trial"",""time""
""fullscreenenter"",""1"",""3797""
","
","
","""event"",""trial"",""time""
""fullscreenenter"",""1"",""3797""
","
","","null","","null","","fixation","2021-06-22 20:35:31.301","","","","","",""
"card-selection-trial","103","440607","0.0-25.0-1.15","120","false","img/card_backs/set1/red.gif","img/card_backs/set1/green.gif","img/card_backs/set1/yellow.gif","img/card_backs/set1/purple.gif","img/card_backs/set2/pink.gif","img/card_backs/set2/gray.gif","img/card_backs/set2/orange.gif","img/card_backs/set2/blue.gif","""event"",""trial"",""time""
""fullscreenenter"",""1"",""3797""
","
","
","""event"",""trial"",""time""
""fullscreenenter"",""1"",""3797""
","
","","2619.2999999523163","","","","real_trial","2021-06-22 20:35:35.931","img/card_backs/set1/purple.gif","2","-70","1","",""
"casino-fixation","104","441111","0.0-25.0-0.16","120","false","img/card_backs/set1/red.gif","img/card_backs/set1/green.gif","img/card_backs/set1/yellow.gif","img/card_backs/set1/purple.gif","img/card_backs/set2/pink.gif","img/card_backs/set2/gray.gif","img/card_backs/set2/orange.gif","img/card_backs/set2/blue.gif","""event"",""trial"",""time""
""fullscreenenter"",""1"",""3797""
","
","
","""event"",""trial"",""time""
""fullscreenenter"",""1"",""3797""
","
","","null","","null","","fixation","2021-06-22 20:35:36.436","","","","","",""
"card-selection-trial","105","444695","0.0-25.0-1.16","120","false","img/card_backs/set1/red.gif","img/card_backs/set1/green.gif","img/card_backs/set1/yellow.gif","img/card_backs/set1/purple.gif","img/card_backs/set2/pink.gif","img/card_backs/set2/gray.gif","img/card_backs/set2/orange.gif","img/card_backs/set2/blue.gif","""event"",""trial"",""time""
""fullscreenenter"",""1"",""3797""
","
","
","""event"",""trial"",""time""
""fullscreenenter"",""1"",""3797""
","
","","1573.2000000476837","","","","real_trial","2021-06-22 20:35:40.019","img/card_backs/set1/green.gif","1","180","1","",""
"casino-fixation","106","445198","0.0-25.0-0.17","120","false","img/card_backs/set1/red.gif","img/card_backs/set1/green.gif","img/card_backs/set1/yellow.gif","img/card_backs/set1/purple.gif","img/card_backs/set2/pink.gif","img/card_backs/set2/gray.gif","img/card_backs/set2/orange.gif","img/card_backs/set2/blue.gif","""event"",""trial"",""time""
""fullscreenenter"",""1"",""3797""
","
","
","""event"",""trial"",""time""
""fullscreenenter"",""1"",""3797""
","
","","null","","null","","fixation","2021-06-22 20:35:40.522","","","","","",""
"card-selection-trial","107","448963","0.0-25.0-1.17","120","false","img/card_backs/set1/red.gif","img/card_backs/set1/green.gif","img/card_backs/set1/yellow.gif","img/card_backs/set1/purple.gif","img/card_backs/set2/pink.gif","img/card_backs/set2/gray.gif","img/card_backs/set2/orange.gif","img/card_backs/set2/blue.gif","""event"",""trial"",""time""
""fullscreenenter"",""1"",""3797""
","
","
","""event"",""trial"",""time""
""fullscreenenter"",""1"",""3797""
","
","","1755.0999999046326","","","","real_trial","2021-06-22 20:35:44.287","img/card_backs/set1/green.gif","0","-250","1","",""
"casino-fixation","108","449466","0.0-25.0-0.18","120","false","img/card_backs/set1/red.gif","img/card_backs/set1/green.gif","img/card_backs/set1/yellow.gif","img/card_backs/set1/purple.gif","img/card_backs/set2/pink.gif","img/card_backs/set2/gray.gif","img/card_backs/set2/orange.gif","img/card_backs/set2/blue.gif","""event"",""trial"",""time""
""fullscreenenter"",""1"",""3797""
","
","
","""event"",""trial"",""time""
""fullscreenenter"",""1"",""3797""
","
","","null","","null","","fixation","2021-06-22 20:35:44.790","","","","","",""
"card-selection-trial","109","453319","0.0-25.0-1.18","120","false","img/card_backs/set1/red.gif","img/card_backs/set1/green.gif","img/card_backs/set1/yellow.gif","img/card_backs/set1/purple.gif","img/card_backs/set2/pink.gif","img/card_backs/set2/gray.gif","img/card_backs/set2/orange.gif","img/card_backs/set2/blue.gif","""event"",""trial"",""time""
""fullscreenenter"",""1"",""3797""
","
","
","""event"",""trial"",""time""
""fullscreenenter"",""1"",""3797""
","
","","1835","","","","real_trial","2021-06-22 20:35:48.643","img/card_backs/set1/yellow.gif","2","-70","1","",""
"casino-fixation","110","453823","0.0-25.0-0.19","120","false","img/card_backs/set1/red.gif","img/card_backs/set1/green.gif","img/card_backs/set1/yellow.gif","img/card_backs/set1/purple.gif","img/card_backs/set2/pink.gif","img/card_backs/set2/gray.gif","img/card_backs/set2/orange.gif","img/card_backs/set2/blue.gif","""event"",""trial"",""time""
""fullscreenenter"",""1"",""3797""
","
","
","""event"",""trial"",""time""
""fullscreenenter"",""1"",""3797""
","
","","null","","null","","fixation","2021-06-22 20:35:49.147","","","","","",""
"card-selection-trial","111","457335","0.0-25.0-1.19","120","false","img/card_backs/set1/red.gif","img/card_backs/set1/green.gif","img/card_backs/set1/yellow.gif","img/card_backs/set1/purple.gif","img/card_backs/set2/pink.gif","img/card_backs/set2/gray.gif","img/card_backs/set2/orange.gif","img/card_backs/set2/blue.gif","""event"",""trial"",""time""
""fullscreenenter"",""1"",""3797""
","
","
","""event"",""trial"",""time""
""fullscreenenter"",""1"",""3797""
","
","","1502.4000000953674","","","","real_trial","2021-06-22 20:35:52.659","img/card_backs/set1/purple.gif","0","-60","1","",""
"casino-fixation","112","457839","0.0-25.0-0.20","120","false","img/card_backs/set1/red.gif","img/card_backs/set1/green.gif","img/card_backs/set1/yellow.gif","img/card_backs/set1/purple.gif","img/card_backs/set2/pink.gif","img/card_backs/set2/gray.gif","img/card_backs/set2/orange.gif","img/card_backs/set2/blue.gif","""event"",""trial"",""time""
""fullscreenenter"",""1"",""3797""
","
","
","""event"",""trial"",""time""
""fullscreenenter"",""1"",""3797""
","
","","null","","null","","fixation","2021-06-22 20:35:53.163","","","","","",""
"card-selection-trial","113","460443","0.0-25.0-1.20","120","false","img/card_backs/set1/red.gif","img/card_backs/set1/green.gif","img/card_backs/set1/yellow.gif","img/card_backs/set1/purple.gif","img/card_backs/set2/pink.gif","img/card_backs/set2/gray.gif","img/card_backs/set2/orange.gif","img/card_backs/set2/blue.gif","""event"",""trial"",""time""
""fullscreenenter"",""1"",""3797""
","
","
","""event"",""trial"",""time""
""fullscreenenter"",""1"",""3797""
","
","","592.8999998569489","","","","real_trial","2021-06-22 20:35:55.767","img/card_backs/set1/green.gif","3","-240","1","",""
"casino-fixation","114","460961","0.0-25.0-0.21","120","false","img/card_backs/set1/red.gif","img/card_backs/set1/green.gif","img/card_backs/set1/yellow.gif","img/card_backs/set1/purple.gif","img/card_backs/set2/pink.gif","img/card_backs/set2/gray.gif","img/card_backs/set2/orange.gif","img/card_backs/set2/blue.gif","""event"",""trial"",""time""
""fullscreenenter"",""1"",""3797""
","
","
","""event"",""trial"",""time""
""fullscreenenter"",""1"",""3797""
","
","","null","","null","","fixation","2021-06-22 20:35:56.285","","","","","",""
"card-selection-trial","115","463680","0.0-25.0-1.21","120","false","img/card_backs/set1/red.gif","img/card_backs/set1/green.gif","img/card_backs/set1/yellow.gif","img/card_backs/set1/purple.gif","img/card_backs/set2/pink.gif","img/card_backs/set2/gray.gif","img/card_backs/set2/orange.gif","img/card_backs/set2/blue.gif","""event"",""trial"",""time""
""fullscreenenter"",""1"",""3797""
","
","
","""event"",""trial"",""time""
""fullscreenenter"",""1"",""3797""
","
","","698.7000000476837","","","","real_trial","2021-06-22 20:35:59.004","img/card_backs/set1/yellow.gif","2","-70","1","",""
"casino-fixation","116","464184","0.0-25.0-0.22","120","false","img/card_backs/set1/red.gif","img/card_backs/set1/green.gif","img/card_backs/set1/yellow.gif","img/card_backs/set1/purple.gif","img/card_backs/set2/pink.gif","img/card_backs/set2/gray.gif","img/card_backs/set2/orange.gif","img/card_backs/set2/blue.gif","""event"",""trial"",""time""
""fullscreenenter"",""1"",""3797""
","
","
","""event"",""trial"",""time""
""fullscreenenter"",""1"",""3797""
","
","","null","","null","","fixation","2021-06-22 20:35:59.508","","","","","",""
"card-selection-trial","117","467055","0.0-25.0-1.22","120","false","img/card_backs/set1/red.gif","img/card_backs/set1/green.gif","img/card_backs/set1/yellow.gif","img/card_backs/set1/purple.gif","img/card_backs/set2/pink.gif","img/card_backs/set2/gray.gif","img/card_backs/set2/orange.gif","img/card_backs/set2/blue.gif","""event"",""trial"",""time""
""fullscreenenter"",""1"",""3797""
","
","
","""event"",""trial"",""time""
""fullscreenenter"",""1"",""3797""
","
","","859.7000000476837","","","","real_trial","2021-06-22 20:36:02.379","img/card_backs/set1/green.gif","1","-250","1","",""
"casino-fixation","118","467559","0.0-25.0-0.23","120","false","img/card_backs/set1/red.gif","img/card_backs/set1/green.gif","img/card_backs/set1/yellow.gif","img/card_backs/set1/purple.gif","img/card_backs/set2/pink.gif","img/card_backs/set2/gray.gif","img/card_backs/set2/orange.gif","img/card_backs/set2/blue.gif","""event"",""trial"",""time""
""fullscreenenter"",""1"",""3797""
","
","
","""event"",""trial"",""time""
""fullscreenenter"",""1"",""3797""
","
","","null","","null","","fixation","2021-06-22 20:36:02.883","","","","","",""
"card-selection-trial","119","470255","0.0-25.0-1.23","120","false","img/card_backs/set1/red.gif","img/card_backs/set1/green.gif","img/card_backs/set1/yellow.gif","img/card_backs/set1/purple.gif","img/card_backs/set2/pink.gif","img/card_backs/set2/gray.gif","img/card_backs/set2/orange.gif","img/card_backs/set2/blue.gif","""event"",""trial"",""time""
""fullscreenenter"",""1"",""3797""
","
","
","""event"",""trial"",""time""
""fullscreenenter"",""1"",""3797""
","
","","684.2999999523163","","","","real_trial","2021-06-22 20:36:05.579","img/card_backs/set1/yellow.gif","0","-60","1","",""
"casino-fixation","120","470758","0.0-25.0-0.24","120","false","img/card_backs/set1/red.gif","img/card_backs/set1/green.gif","img/card_backs/set1/yellow.gif","img/card_backs/set1/purple.gif","img/card_backs/set2/pink.gif","img/card_backs/set2/gray.gif","img/card_backs/set2/orange.gif","img/card_backs/set2/blue.gif","""event"",""trial"",""time""
""fullscreenenter"",""1"",""3797""
","
","
","""event"",""trial"",""time""
""fullscreenenter"",""1"",""3797""
","
","","null","","null","","fixation","2021-06-22 20:36:06.082","","","","","",""
"card-selection-trial","121","474331","0.0-25.0-1.24","120","false","img/card_backs/set1/red.gif","img/card_backs/set1/green.gif","img/card_backs/set1/yellow.gif","img/card_backs/set1/purple.gif","img/card_backs/set2/pink.gif","img/card_backs/set2/gray.gif","img/card_backs/set2/orange.gif","img/card_backs/set2/blue.gif","""event"",""trial"",""time""
""fullscreenenter"",""1"",""3797""
","
","
","""event"",""trial"",""time""
""fullscreenenter"",""1"",""3797""
","
","","1561.3999998569489","","","","real_trial","2021-06-22 20:36:09.656","img/card_backs/set1/red.gif","3","-230","1","",""
"casino-fixation","122","474836","0.0-25.0-0.25","120","false","img/card_backs/set1/red.gif","img/card_backs/set1/green.gif","img/card_backs/set1/yellow.gif","img/card_backs/set1/purple.gif","img/card_backs/set2/pink.gif","img/card_backs/set2/gray.gif","img/card_backs/set2/orange.gif","img/card_backs/set2/blue.gif","""event"",""trial"",""time""
""fullscreenenter"",""1"",""3797""
","
","
","""event"",""trial"",""time""
""fullscreenenter"",""1"",""3797""
","
","","null","","null","","fixation","2021-06-22 20:36:10.160","","","","","",""
"card-selection-trial","123","478582","0.0-25.0-1.25","120","false","img/card_backs/set1/red.gif","img/card_backs/set1/green.gif","img/card_backs/set1/yellow.gif","img/card_backs/set1/purple.gif","img/card_backs/set2/pink.gif","img/card_backs/set2/gray.gif","img/card_backs/set2/orange.gif","img/card_backs/set2/blue.gif","""event"",""trial"",""time""
""fullscreenenter"",""1"",""3797""
","
","
","""event"",""trial"",""time""
""fullscreenenter"",""1"",""3797""
","
","","1735.7999999523163","","","","real_trial","2021-06-22 20:36:13.906","img/card_backs/set1/green.gif","0","200","1","",""
"casino-fixation","124","479087","0.0-25.0-0.26","120","false","img/card_backs/set1/red.gif","img/card_backs/set1/green.gif","img/card_backs/set1/yellow.gif","img/card_backs/set1/purple.gif","img/card_backs/set2/pink.gif","img/card_backs/set2/gray.gif","img/card_backs/set2/orange.gif","img/card_backs/set2/blue.gif","""event"",""trial"",""time""
""fullscreenenter"",""1"",""3797""
","
","
","""event"",""trial"",""time""
""fullscreenenter"",""1"",""3797""
","
","","null","","null","","fixation","2021-06-22 20:36:14.411","","","","","",""
"card-selection-trial","125","484358","0.0-25.0-1.26","120","false","img/card_backs/set1/red.gif","img/card_backs/set1/green.gif","img/card_backs/set1/yellow.gif","img/card_backs/set1/purple.gif","img/card_backs/set2/pink.gif","img/card_backs/set2/gray.gif","img/card_backs/set2/orange.gif","img/card_backs/set2/blue.gif","""event"",""trial"",""time""
""fullscreenenter"",""1"",""3797""
","
","
","""event"",""trial"",""time""
""fullscreenenter"",""1"",""3797""
","
","","3259.7999999523163","","","","real_trial","2021-06-22 20:36:19.683","img/card_backs/set1/yellow.gif","1","120","1","",""
"casino-fixation","126","484862","0.0-25.0-0.27","120","false","img/card_backs/set1/red.gif","img/card_backs/set1/green.gif","img/card_backs/set1/yellow.gif","img/card_backs/set1/purple.gif","img/card_backs/set2/pink.gif","img/card_backs/set2/gray.gif","img/card_backs/set2/orange.gif","img/card_backs/set2/blue.gif","""event"",""trial"",""time""
""fullscreenenter"",""1"",""3797""
","
","
","""event"",""trial"",""time""
""fullscreenenter"",""1"",""3797""
","
","","null","","null","","fixation","2021-06-22 20:36:20.186","","","","","",""
"card-selection-trial","127","490123","0.0-25.0-1.27","120","false","img/card_backs/set1/red.gif","img/card_backs/set1/green.gif","img/card_backs/set1/yellow.gif","img/card_backs/set1/purple.gif","img/card_backs/set2/pink.gif","img/card_backs/set2/gray.gif","img/card_backs/set2/orange.gif","img/card_backs/set2/blue.gif","""event"",""trial"",""time""
""fullscreenenter"",""1"",""3797""
","
","
","""event"",""trial"",""time""
""fullscreenenter"",""1"",""3797""
","
","","3250.0999999046326","","","","real_trial","2021-06-22 20:36:25.447","img/card_backs/set1/purple.gif","1","-60","1","",""
"casino-fixation","128","490627","0.0-25.0-0.28","120","false","img/card_backs/set1/red.gif","img/card_backs/set1/green.gif","img/card_backs/set1/yellow.gif","img/card_backs/set1/purple.gif","img/card_backs/set2/pink.gif","img/card_backs/set2/gray.gif","img/card_backs/set2/orange.gif","img/card_backs/set2/blue.gif","""event"",""trial"",""time""
""fullscreenenter"",""1"",""3797""
","
","
","""event"",""trial"",""time""
""fullscreenenter"",""1"",""3797""
","
","","null","","null","","fixation","2021-06-22 20:36:25.951","","","","","",""
"card-selection-trial","129","493578","0.0-25.0-1.28","120","false","img/card_backs/set1/red.gif","img/card_backs/set1/green.gif","img/card_backs/set1/yellow.gif","img/card_backs/set1/purple.gif","img/card_backs/set2/pink.gif","img/card_backs/set2/gray.gif","img/card_backs/set2/orange.gif","img/card_backs/set2/blue.gif","""event"",""trial"",""time""
""fullscreenenter"",""1"",""3797""
","
","
","""event"",""trial"",""time""
""fullscreenenter"",""1"",""3797""
","
","","941.5999999046326","","","","real_trial","2021-06-22 20:36:28.902","img/card_backs/set1/yellow.gif","3","-50","1","",""
"casino-fixation","130","494081","0.0-25.0-0.29","120","false","img/card_backs/set1/red.gif","img/card_backs/set1/green.gif","img/card_backs/set1/yellow.gif","img/card_backs/set1/purple.gif","img/card_backs/set2/pink.gif","img/card_backs/set2/gray.gif","img/card_backs/set2/orange.gif","img/card_backs/set2/blue.gif","""event"",""trial"",""time""
""fullscreenenter"",""1"",""3797""
","
","
","""event"",""trial"",""time""
""fullscreenenter"",""1"",""3797""
","
","","null","","null","","fixation","2021-06-22 20:36:29.405","","","","","",""
"card-selection-trial","131","496941","0.0-25.0-1.29","120","false","img/card_backs/set1/red.gif","img/card_backs/set1/green.gif","img/card_backs/set1/yellow.gif","img/card_backs/set1/purple.gif","img/card_backs/set2/pink.gif","img/card_backs/set2/gray.gif","img/card_backs/set2/orange.gif","img/card_backs/set2/blue.gif","""event"",""trial"",""time""
""fullscreenenter"",""1"",""3797""
","
","
","""event"",""trial"",""time""
""fullscreenenter"",""1"",""3797""
","
","","850.5999999046326","","","","real_trial","2021-06-22 20:36:32.265","img/card_backs/set1/green.gif","0","190","1","",""
"casino-fixation","132","497444","0.0-25.0-0.30","120","false","img/card_backs/set1/red.gif","img/card_backs/set1/green.gif","img/card_backs/set1/yellow.gif","img/card_backs/set1/purple.gif","img/card_backs/set2/pink.gif","img/card_backs/set2/gray.gif","img/card_backs/set2/orange.gif","img/card_backs/set2/blue.gif","""event"",""trial"",""time""
""fullscreenenter"",""1"",""3797""
","
","
","""event"",""trial"",""time""
""fullscreenenter"",""1"",""3797""
","
","","null","","null","","fixation","2021-06-22 20:36:32.768","","","","","",""
"card-selection-trial","133","500810","0.0-25.0-1.30","120","false","img/card_backs/set1/red.gif","img/card_backs/set1/green.gif","img/card_backs/set1/yellow.gif","img/card_backs/set1/purple.gif","img/card_backs/set2/pink.gif","img/card_backs/set2/gray.gif","img/card_backs/set2/orange.gif","img/card_backs/set2/blue.gif","""event"",""trial"",""time""
""fullscreenenter"",""1"",""3797""
","
","
","""event"",""trial"",""time""
""fullscreenenter"",""1"",""3797""
","
","","1356.3999998569489","","","","real_trial","2021-06-22 20:36:36.135","img/card_backs/set1/yellow.gif","2","120","1","",""
"casino-fixation","134","501313","0.0-25.0-0.31","120","false","img/card_backs/set1/red.gif","img/card_backs/set1/green.gif","img/card_backs/set1/yellow.gif","img/card_backs/set1/purple.gif","img/card_backs/set2/pink.gif","img/card_backs/set2/gray.gif","img/card_backs/set2/orange.gif","img/card_backs/set2/blue.gif","""event"",""trial"",""time""
""fullscreenenter"",""1"",""3797""
","
","
","""event"",""trial"",""time""
""fullscreenenter"",""1"",""3797""
","
","","null","","null","","fixation","2021-06-22 20:36:36.638","","","","","",""
"card-selection-trial","135","505384","0.0-25.0-1.31","120","false","img/card_backs/set1/red.gif","img/card_backs/set1/green.gif","img/card_backs/set1/yellow.gif","img/card_backs/set1/purple.gif","img/card_backs/set2/pink.gif","img/card_backs/set2/gray.gif","img/card_backs/set2/orange.gif","img/card_backs/set2/blue.gif","""event"",""trial"",""time""
""fullscreenenter"",""1"",""3797""
","
","
","""event"",""trial"",""time""
""fullscreenenter"",""1"",""3797""
","
","","2059.9000000953674","","","","real_trial","2021-06-22 20:36:40.708","img/card_backs/set1/green.gif","0","-250","1","",""
"casino-fixation","136","505887","0.0-25.0-0.32","120","false","img/card_backs/set1/red.gif","img/card_backs/set1/green.gif","img/card_backs/set1/yellow.gif","img/card_backs/set1/purple.gif","img/card_backs/set2/pink.gif","img/card_backs/set2/gray.gif","img/card_backs/set2/orange.gif","img/card_backs/set2/blue.gif","""event"",""trial"",""time""
""fullscreenenter"",""1"",""3797""
","
","
","""event"",""trial"",""time""
""fullscreenenter"",""1"",""3797""
","
","","null","","null","","fixation","2021-06-22 20:36:41.212","","","","","",""
"card-selection-trial","137","509137","0.0-25.0-1.32","120","false","img/card_backs/set1/red.gif","img/card_backs/set1/green.gif","img/card_backs/set1/yellow.gif","img/card_backs/set1/purple.gif","img/card_backs/set2/pink.gif","img/card_backs/set2/gray.gif","img/card_backs/set2/orange.gif","img/card_backs/set2/blue.gif","""event"",""trial"",""time""
""fullscreenenter"",""1"",""3797""
","
","
","""event"",""trial"",""time""
""fullscreenenter"",""1"",""3797""
","
","","1238.3000001907349","","","","real_trial","2021-06-22 20:36:44.461","img/card_backs/set1/yellow.gif","2","100","1","",""
"casino-fixation","138","509641","0.0-25.0-0.33","120","false","img/card_backs/set1/red.gif","img/card_backs/set1/green.gif","img/card_backs/set1/yellow.gif","img/card_backs/set1/purple.gif","img/card_backs/set2/pink.gif","img/card_backs/set2/gray.gif","img/card_backs/set2/orange.gif","img/card_backs/set2/blue.gif","""event"",""trial"",""time""
""fullscreenenter"",""1"",""3797""
","
","
","""event"",""trial"",""time""
""fullscreenenter"",""1"",""3797""
","
","","null","","null","","fixation","2021-06-22 20:36:44.966","","","","","",""
"card-selection-trial","139","513775","0.0-25.0-1.33","120","false","img/card_backs/set1/red.gif","img/card_backs/set1/green.gif","img/card_backs/set1/yellow.gif","img/card_backs/set1/purple.gif","img/card_backs/set2/pink.gif","img/card_backs/set2/gray.gif","img/card_backs/set2/orange.gif","img/card_backs/set2/blue.gif","""event"",""trial"",""time""
""fullscreenenter"",""1"",""3797""
","
","
","""event"",""trial"",""time""
""fullscreenenter"",""1"",""3797""
","
","","2121.7999999523163","","","","real_trial","2021-06-22 20:36:49.099","img/card_backs/set1/green.gif","2","-240","1","",""
"casino-fixation","140","514279","0.0-25.0-0.34","120","false","img/card_backs/set1/red.gif","img/card_backs/set1/green.gif","img/card_backs/set1/yellow.gif","img/card_backs/set1/purple.gif","img/card_backs/set2/pink.gif","img/card_backs/set2/gray.gif","img/card_backs/set2/orange.gif","img/card_backs/set2/blue.gif","""event"",""trial"",""time""
""fullscreenenter"",""1"",""3797""
","
","
","""event"",""trial"",""time""
""fullscreenenter"",""1"",""3797""
","
","","null","","null","","fixation","2021-06-22 20:36:49.603","","","","","",""
"card-selection-trial","141","517340","0.0-25.0-1.34","120","false","img/card_backs/set1/red.gif","img/card_backs/set1/green.gif","img/card_backs/set1/yellow.gif","img/card_backs/set1/purple.gif","img/card_backs/set2/pink.gif","img/card_backs/set2/gray.gif","img/card_backs/set2/orange.gif","img/card_backs/set2/blue.gif","""event"",""trial"",""time""
""fullscreenenter"",""1"",""3797""
","
","
","""event"",""trial"",""time""
""fullscreenenter"",""1"",""3797""
","
","","1050.7000000476837","","","","real_trial","2021-06-22 20:36:52.664","img/card_backs/set1/yellow.gif","3","-50","1","",""
"casino-fixation","142","517844","0.0-25.0-0.35","120","false","img/card_backs/set1/red.gif","img/card_backs/set1/green.gif","img/card_backs/set1/yellow.gif","img/card_backs/set1/purple.gif","img/card_backs/set2/pink.gif","img/card_backs/set2/gray.gif","img/card_backs/set2/orange.gif","img/card_backs/set2/blue.gif","""event"",""trial"",""time""
""fullscreenenter"",""1"",""3797""
","
","
","""event"",""trial"",""time""
""fullscreenenter"",""1"",""3797""
","
","","null","","null","","fixation","2021-06-22 20:36:53.169","","","","","",""
"card-selection-trial","143","521700","0.0-25.0-1.35","120","false","img/card_backs/set1/red.gif","img/card_backs/set1/green.gif","img/card_backs/set1/yellow.gif","img/card_backs/set1/purple.gif","img/card_backs/set2/pink.gif","img/card_backs/set2/gray.gif","img/card_backs/set2/orange.gif","img/card_backs/set2/blue.gif","""event"",""trial"",""time""
""fullscreenenter"",""1"",""3797""
","
","
","""event"",""trial"",""time""
""fullscreenenter"",""1"",""3797""
","
","","1845.2999999523163","","","","real_trial","2021-06-22 20:36:57.024","img/card_backs/set1/green.gif","1","200","1","",""
"casino-fixation","144","522204","0.0-25.0-0.36","120","false","img/card_backs/set1/red.gif","img/card_backs/set1/green.gif","img/card_backs/set1/yellow.gif","img/card_backs/set1/purple.gif","img/card_backs/set2/pink.gif","img/card_backs/set2/gray.gif","img/card_backs/set2/orange.gif","img/card_backs/set2/blue.gif","""event"",""trial"",""time""
""fullscreenenter"",""1"",""3797""
","
","
","""event"",""trial"",""time""
""fullscreenenter"",""1"",""3797""
","
","","null","","null","","fixation","2021-06-22 20:36:57.528","","","","","",""
"card-selection-trial","145","526623","0.0-25.0-1.36","120","false","img/card_backs/set1/red.gif","img/card_backs/set1/green.gif","img/card_backs/set1/yellow.gif","img/card_backs/set1/purple.gif","img/card_backs/set2/pink.gif","img/card_backs/set2/gray.gif","img/card_backs/set2/orange.gif","img/card_backs/set2/blue.gif","""event"",""trial"",""time""
""fullscreenenter"",""1"",""3797""
","
","
","""event"",""trial"",""time""
""fullscreenenter"",""1"",""3797""
","
","","2401.5","","","","real_trial","2021-06-22 20:37:01.948","img/card_backs/set1/green.gif","0","200","1","",""
"casino-fixation","146","527128","0.0-25.0-0.37","120","false","img/card_backs/set1/red.gif","img/card_backs/set1/green.gif","img/card_backs/set1/yellow.gif","img/card_backs/set1/purple.gif","img/card_backs/set2/pink.gif","img/card_backs/set2/gray.gif","img/card_backs/set2/orange.gif","img/card_backs/set2/blue.gif","""event"",""trial"",""time""
""fullscreenenter"",""1"",""3797""
","
","
","""event"",""trial"",""time""
""fullscreenenter"",""1"",""3797""
","
","","null","","null","","fixation","2021-06-22 20:37:02.452","","","","","",""
"card-selection-trial","147","531301","0.0-25.0-1.37","120","false","img/card_backs/set1/red.gif","img/card_backs/set1/green.gif","img/card_backs/set1/yellow.gif","img/card_backs/set1/purple.gif","img/card_backs/set2/pink.gif","img/card_backs/set2/gray.gif","img/card_backs/set2/orange.gif","img/card_backs/set2/blue.gif","""event"",""trial"",""time""
""fullscreenenter"",""1"",""3797""
","
","
","""event"",""trial"",""time""
""fullscreenenter"",""1"",""3797""
","
","","2163.600000143051","","","","real_trial","2021-06-22 20:37:06.625","img/card_backs/set1/green.gif","3","180","1","",""
"casino-fixation","148","531804","0.0-25.0-0.38","120","false","img/card_backs/set1/red.gif","img/card_backs/set1/green.gif","img/card_backs/set1/yellow.gif","img/card_backs/set1/purple.gif","img/card_backs/set2/pink.gif","img/card_backs/set2/gray.gif","img/card_backs/set2/orange.gif","img/card_backs/set2/blue.gif","""event"",""trial"",""time""
""fullscreenenter"",""1"",""3797""
","
","
","""event"",""trial"",""time""
""fullscreenenter"",""1"",""3797""
","
","","null","","null","","fixation","2021-06-22 20:37:07.129","","","","","",""
"card-selection-trial","149","535873","0.0-25.0-1.38","120","false","img/card_backs/set1/red.gif","img/card_backs/set1/green.gif","img/card_backs/set1/yellow.gif","img/card_backs/set1/purple.gif","img/card_backs/set2/pink.gif","img/card_backs/set2/gray.gif","img/card_backs/set2/orange.gif","img/card_backs/set2/blue.gif","""event"",""trial"",""time""
""fullscreenenter"",""1"",""3797""
","
","
","""event"",""trial"",""time""
""fullscreenenter"",""1"",""3797""
","
","","2059.2000000476837","","","","real_trial","2021-06-22 20:37:11.197","img/card_backs/set1/yellow.gif","1","-70","1","",""
"casino-fixation","150","536377","0.0-25.0-0.39","120","false","img/card_backs/set1/red.gif","img/card_backs/set1/green.gif","img/card_backs/set1/yellow.gif","img/card_backs/set1/purple.gif","img/card_backs/set2/pink.gif","img/card_backs/set2/gray.gif","img/card_backs/set2/orange.gif","img/card_backs/set2/blue.gif","""event"",""trial"",""time""
""fullscreenenter"",""1"",""3797""
","
","
","""event"",""trial"",""time""
""fullscreenenter"",""1"",""3797""
","
","","null","","null","","fixation","2021-06-22 20:37:11.701","","","","","",""
"card-selection-trial","151","539419","0.0-25.0-1.39","120","false","img/card_backs/set1/red.gif","img/card_backs/set1/green.gif","img/card_backs/set1/yellow.gif","img/card_backs/set1/purple.gif","img/card_backs/set2/pink.gif","img/card_backs/set2/gray.gif","img/card_backs/set2/orange.gif","img/card_backs/set2/blue.gif","""event"",""trial"",""time""
""fullscreenenter"",""1"",""3797""
","
","
","""event"",""trial"",""time""
""fullscreenenter"",""1"",""3797""
","
","","1030.7999999523163","","","","real_trial","2021-06-22 20:37:14.744","img/card_backs/set1/green.gif","2","180","1","",""
"casino-fixation","152","539923","0.0-25.0-0.40","120","false","img/card_backs/set1/red.gif","img/card_backs/set1/green.gif","img/card_backs/set1/yellow.gif","img/card_backs/set1/purple.gif","img/card_backs/set2/pink.gif","img/card_backs/set2/gray.gif","img/card_backs/set2/orange.gif","img/card_backs/set2/blue.gif","""event"",""trial"",""time""
""fullscreenenter"",""1"",""3797""
","
","
","""event"",""trial"",""time""
""fullscreenenter"",""1"",""3797""
","
","","null","","null","","fixation","2021-06-22 20:37:15.248","","","","","",""
"card-selection-trial","153","544013","0.0-25.0-1.40","120","false","img/card_backs/set1/red.gif","img/card_backs/set1/green.gif","img/card_backs/set1/yellow.gif","img/card_backs/set1/purple.gif","img/card_backs/set2/pink.gif","img/card_backs/set2/gray.gif","img/card_backs/set2/orange.gif","img/card_backs/set2/blue.gif","""event"",""trial"",""time""
""fullscreenenter"",""1"",""3797""
","
","
","""event"",""trial"",""time""
""fullscreenenter"",""1"",""3797""
","
","","2070.5","","","","real_trial","2021-06-22 20:37:19.337","img/card_backs/set1/green.gif","1","-240","1","",""
"casino-fixation","154","544517","0.0-25.0-0.41","120","false","img/card_backs/set1/red.gif","img/card_backs/set1/green.gif","img/card_backs/set1/yellow.gif","img/card_backs/set1/purple.gif","img/card_backs/set2/pink.gif","img/card_backs/set2/gray.gif","img/card_backs/set2/orange.gif","img/card_backs/set2/blue.gif","""event"",""trial"",""time""
""fullscreenenter"",""1"",""3797""
","
","
","""event"",""trial"",""time""
""fullscreenenter"",""1"",""3797""
","
","","null","","null","","fixation","2021-06-22 20:37:19.841","","","","","",""
"card-selection-trial","155","548810","0.0-25.0-1.41","120","false","img/card_backs/set1/red.gif","img/card_backs/set1/green.gif","img/card_backs/set1/yellow.gif","img/card_backs/set1/purple.gif","img/card_backs/set2/pink.gif","img/card_backs/set2/gray.gif","img/card_backs/set2/orange.gif","img/card_backs/set2/blue.gif","""event"",""trial"",""time""
""fullscreenenter"",""1"",""3797""
","
","
","""event"",""trial"",""time""
""fullscreenenter"",""1"",""3797""
","
","","2282.199999809265","","","","real_trial","2021-06-22 20:37:24.134","img/card_backs/set1/yellow.gif","1","120","1","",""
"casino-fixation","156","549314","0.0-25.0-0.42","120","false","img/card_backs/set1/red.gif","img/card_backs/set1/green.gif","img/card_backs/set1/yellow.gif","img/card_backs/set1/purple.gif","img/card_backs/set2/pink.gif","img/card_backs/set2/gray.gif","img/card_backs/set2/orange.gif","img/card_backs/set2/blue.gif","""event"",""trial"",""time""
""fullscreenenter"",""1"",""3797""
","
","
","""event"",""trial"",""time""
""fullscreenenter"",""1"",""3797""
","
","","null","","null","","fixation","2021-06-22 20:37:24.638","","","","","",""
"card-selection-trial","157","553152","0.0-25.0-1.42","120","false","img/card_backs/set1/red.gif","img/card_backs/set1/green.gif","img/card_backs/set1/yellow.gif","img/card_backs/set1/purple.gif","img/card_backs/set2/pink.gif","img/card_backs/set2/gray.gif","img/card_backs/set2/orange.gif","img/card_backs/set2/blue.gif","""event"",""trial"",""time""
""fullscreenenter"",""1"",""3797""
","
","
","""event"",""trial"",""time""
""fullscreenenter"",""1"",""3797""
","
","","1825.7000000476837","","","","real_trial","2021-06-22 20:37:28.476","img/card_backs/set1/green.gif","0","-230","1","",""
"casino-fixation","158","553656","0.0-25.0-0.43","120","false","img/card_backs/set1/red.gif","img/card_backs/set1/green.gif","img/card_backs/set1/yellow.gif","img/card_backs/set1/purple.gif","img/card_backs/set2/pink.gif","img/card_backs/set2/gray.gif","img/card_backs/set2/orange.gif","img/card_backs/set2/blue.gif","""event"",""trial"",""time""
""fullscreenenter"",""1"",""3797""
","
","
","""event"",""trial"",""time""
""fullscreenenter"",""1"",""3797""
","
","","null","","null","","fixation","2021-06-22 20:37:28.981","","","","","",""
"card-selection-trial","159","558965","0.0-25.0-1.43","120","false","img/card_backs/set1/red.gif","img/card_backs/set1/green.gif","img/card_backs/set1/yellow.gif","img/card_backs/set1/purple.gif","img/card_backs/set2/pink.gif","img/card_backs/set2/gray.gif","img/card_backs/set2/orange.gif","img/card_backs/set2/blue.gif","""event"",""trial"",""time""
""fullscreenenter"",""1"",""3797""
","
","
","""event"",""trial"",""time""
""fullscreenenter"",""1"",""3797""
","
","","3297.7999999523163","","","","real_trial","2021-06-22 20:37:34.290","img/card_backs/set1/green.gif","2","180","1","",""
"casino-fixation","160","559469","0.0-25.0-0.44","120","false","img/card_backs/set1/red.gif","img/card_backs/set1/green.gif","img/card_backs/set1/yellow.gif","img/card_backs/set1/purple.gif","img/card_backs/set2/pink.gif","img/card_backs/set2/gray.gif","img/card_backs/set2/orange.gif","img/card_backs/set2/blue.gif","""event"",""trial"",""time""
""fullscreenenter"",""1"",""3797""
","
","
","""event"",""trial"",""time""
""fullscreenenter"",""1"",""3797""
","
","","null","","null","","fixation","2021-06-22 20:37:34.793","","","","","",""
"card-selection-trial","161","564094","0.0-25.0-1.44","120","false","img/card_backs/set1/red.gif","img/card_backs/set1/green.gif","img/card_backs/set1/yellow.gif","img/card_backs/set1/purple.gif","img/card_backs/set2/pink.gif","img/card_backs/set2/gray.gif","img/card_backs/set2/orange.gif","img/card_backs/set2/blue.gif","""event"",""trial"",""time""
""fullscreenenter"",""1"",""3797""
","
","
","""event"",""trial"",""time""
""fullscreenenter"",""1"",""3797""
","
","","2613.2000000476837","","","","real_trial","2021-06-22 20:37:39.418","img/card_backs/set1/yellow.gif","3","-60","1","",""
"casino-fixation","162","564598","0.0-25.0-0.45","120","false","img/card_backs/set1/red.gif","img/card_backs/set1/green.gif","img/card_backs/set1/yellow.gif","img/card_backs/set1/purple.gif","img/card_backs/set2/pink.gif","img/card_backs/set2/gray.gif","img/card_backs/set2/orange.gif","img/card_backs/set2/blue.gif","""event"",""trial"",""time""
""fullscreenenter"",""1"",""3797""
","
","
","""event"",""trial"",""time""
""fullscreenenter"",""1"",""3797""
","
","","null","","null","","fixation","2021-06-22 20:37:39.922","","","","","",""
"card-selection-trial","163","569464","0.0-25.0-1.45","120","false","img/card_backs/set1/red.gif","img/card_backs/set1/green.gif","img/card_backs/set1/yellow.gif","img/card_backs/set1/purple.gif","img/card_backs/set2/pink.gif","img/card_backs/set2/gray.gif","img/card_backs/set2/orange.gif","img/card_backs/set2/blue.gif","""event"",""trial"",""time""
""fullscreenenter"",""1"",""3797""
","
","
","""event"",""trial"",""time""
""fullscreenenter"",""1"",""3797""
","
","","2855","","","","real_trial","2021-06-22 20:37:44.788","img/card_backs/set1/green.gif","0","190","1","",""
"casino-fixation","164","569968","0.0-25.0-0.46","120","false","img/card_backs/set1/red.gif","img/card_backs/set1/green.gif","img/card_backs/set1/yellow.gif","img/card_backs/set1/purple.gif","img/card_backs/set2/pink.gif","img/card_backs/set2/gray.gif","img/card_backs/set2/orange.gif","img/card_backs/set2/blue.gif","""event"",""trial"",""time""
""fullscreenenter"",""1"",""3797""
","
","
","""event"",""trial"",""time""
""fullscreenenter"",""1"",""3797""
","
","","null","","null","","fixation","2021-06-22 20:37:45.293","","","","","",""
"card-selection-trial","165","573319","0.0-25.0-1.46","120","false","img/card_backs/set1/red.gif","img/card_backs/set1/green.gif","img/card_backs/set1/yellow.gif","img/card_backs/set1/purple.gif","img/card_backs/set2/pink.gif","img/card_backs/set2/gray.gif","img/card_backs/set2/orange.gif","img/card_backs/set2/blue.gif","""event"",""trial"",""time""
""fullscreenenter"",""1"",""3797""
","
","
","""event"",""trial"",""time""
""fullscreenenter"",""1"",""3797""
","
","","1341.0999999046326","","","","real_trial","2021-06-22 20:37:48.643","img/card_backs/set1/green.gif","2","200","1","",""
"casino-fixation","166","573822","0.0-25.0-0.47","120","false","img/card_backs/set1/red.gif","img/card_backs/set1/green.gif","img/card_backs/set1/yellow.gif","img/card_backs/set1/purple.gif","img/card_backs/set2/pink.gif","img/card_backs/set2/gray.gif","img/card_backs/set2/orange.gif","img/card_backs/set2/blue.gif","""event"",""trial"",""time""
""fullscreenenter"",""1"",""3797""
","
","
","""event"",""trial"",""time""
""fullscreenenter"",""1"",""3797""
","
","","null","","null","","fixation","2021-06-22 20:37:49.147","","","","","",""
"card-selection-trial","167","576679","0.0-25.0-1.47","120","false","img/card_backs/set1/red.gif","img/card_backs/set1/green.gif","img/card_backs/set1/yellow.gif","img/card_backs/set1/purple.gif","img/card_backs/set2/pink.gif","img/card_backs/set2/gray.gif","img/card_backs/set2/orange.gif","img/card_backs/set2/blue.gif","""event"",""trial"",""time""
