"trial_type","trial_index","time_elapsed","internal_node_id","sub_id","risk_good_first","block1_A","block1_B","block1_C","block1_D","block2_A","block2_B","block2_C","block2_D","interactions","blur_events","focus_events","fullscreenenter_events","fullscreenexit_events","success","rt","stimulus","key_press","button_pressed","task_part","timestamp","card_choice","choice_position","points_earned","block","correct","response"
"pavlovia","0","2","0.0-0.0","A1379","false","img/card_backs/set1/red.gif","img/card_backs/set1/purple.gif","img/card_backs/set1/yellow.gif","img/card_backs/set1/green.gif","img/card_backs/set2/blue.gif","img/card_backs/set2/orange.gif","img/card_backs/set2/pink.gif","img/card_backs/set2/gray.gif","""event"",""trial"",""time""
""blur"",""1"",""4344""
""focus"",""1"",""8322""
""fullscreenenter"",""1"",""49960""
","""event"",""trial"",""time""
""blur"",""1"",""4344""
","""event"",""trial"",""time""
""focus"",""1"",""8322""
","""event"",""trial"",""time""
""fullscreenenter"",""1"",""49960""
","
","","","","","","","","","","","","",""
"fullscreen","1","50914","0.0-1.0","A1379","false","img/card_backs/set1/red.gif","img/card_backs/set1/purple.gif","img/card_backs/set1/yellow.gif","img/card_backs/set1/green.gif","img/card_backs/set2/blue.gif","img/card_backs/set2/orange.gif","img/card_backs/set2/pink.gif","img/card_backs/set2/gray.gif","""event"",""trial"",""time""
""blur"",""1"",""4344""
""focus"",""1"",""8322""
""fullscreenenter"",""1"",""49960""
","""event"",""trial"",""time""
""blur"",""1"",""4344""
","""event"",""trial"",""time""
""focus"",""1"",""8322""
","""event"",""trial"",""time""
""fullscreenenter"",""1"",""49960""
","
","true","","","","","","","","","","","",""
"audio-keyboard-response","2","53137","0.0-2.0","A1379","false","img/card_backs/set1/red.gif","img/card_backs/set1/purple.gif","img/card_backs/set1/yellow.gif","img/card_backs/set1/green.gif","img/card_backs/set2/blue.gif","img/card_backs/set2/orange.gif","img/card_backs/set2/pink.gif","img/card_backs/set2/gray.gif","""event"",""trial"",""time""
""blur"",""1"",""4344""
""focus"",""1"",""8322""
""fullscreenenter"",""1"",""49960""
","""event"",""trial"",""time""
""blur"",""1"",""4344""
","""event"",""trial"",""time""
""focus"",""1"",""8322""
","""event"",""trial"",""time""
""fullscreenenter"",""1"",""49960""
","
","","2183","audio/beep_loop.wav","32","","","","","","","","",""
"audio-button-response","3","55326","0.0-3.0","A1379","false","img/card_backs/set1/red.gif","img/card_backs/set1/purple.gif","img/card_backs/set1/yellow.gif","img/card_backs/set1/green.gif","img/card_backs/set2/blue.gif","img/card_backs/set2/orange.gif","img/card_backs/set2/pink.gif","img/card_backs/set2/gray.gif","""event"",""trial"",""time""
""blur"",""1"",""4344""
""focus"",""1"",""8322""
""fullscreenenter"",""1"",""49960""
","""event"",""trial"",""time""
""blur"",""1"",""4344""
","""event"",""trial"",""time""
""focus"",""1"",""8322""
","""event"",""trial"",""time""
""fullscreenenter"",""1"",""49960""
","
","","NaN","audio/turtle.mp3","","3","","","","","","","",""
"audio-button-response","4","57695","0.0-4.0","A1379","false","img/card_backs/set1/red.gif","img/card_backs/set1/purple.gif","img/card_backs/set1/yellow.gif","img/card_backs/set1/green.gif","img/card_backs/set2/blue.gif","img/card_backs/set2/orange.gif","img/card_backs/set2/pink.gif","img/card_backs/set2/gray.gif","""event"",""trial"",""time""
""blur"",""1"",""4344""
""focus"",""1"",""8322""
""fullscreenenter"",""1"",""49960""
","""event"",""trial"",""time""
""blur"",""1"",""4344""
","""event"",""trial"",""time""
""focus"",""1"",""8322""
","""event"",""trial"",""time""
""fullscreenenter"",""1"",""49960""
","
","","NaN","audio/shark.mp3","","2","","","","","","","",""
"fullscreen","5","61152","0.0-5.0","A1379","false","img/card_backs/set1/red.gif","img/card_backs/set1/purple.gif","img/card_backs/set1/yellow.gif","img/card_backs/set1/green.gif","img/card_backs/set2/blue.gif","img/card_backs/set2/orange.gif","img/card_backs/set2/pink.gif","img/card_backs/set2/gray.gif","""event"",""trial"",""time""
""blur"",""1"",""4344""
""focus"",""1"",""8322""
""fullscreenenter"",""1"",""49960""
","""event"",""trial"",""time""
""blur"",""1"",""4344""
","""event"",""trial"",""time""
""focus"",""1"",""8322""
","""event"",""trial"",""time""
""fullscreenenter"",""1"",""49960""
","
","true","","","","","","","","","","","",""
"casino-keyboard-response","6","64267","0.0-6.0-0.0","A1379","false","img/card_backs/set1/red.gif","img/card_backs/set1/purple.gif","img/card_backs/set1/yellow.gif","img/card_backs/set1/green.gif","img/card_backs/set2/blue.gif","img/card_backs/set2/orange.gif","img/card_backs/set2/pink.gif","img/card_backs/set2/gray.gif","""event"",""trial"",""time""
""blur"",""1"",""4344""
""focus"",""1"",""8322""
""fullscreenenter"",""1"",""49960""
","""event"",""trial"",""time""
""blur"",""1"",""4344""
","""event"",""trial"",""time""
""focus"",""1"",""8322""
","""event"",""trial"",""time""
""fullscreenenter"",""1"",""49960""
","
","","3109.60000000149","Welcome to the casino!","71","","instructions","2021-07-19 04:20:06.357","","","","","",""
"casino-keyboard-response","7","74743","0.0-6.0-0.1","A1379","false","img/card_backs/set1/red.gif","img/card_backs/set1/purple.gif","img/card_backs/set1/yellow.gif","img/card_backs/set1/green.gif","img/card_backs/set2/blue.gif","img/card_backs/set2/orange.gif","img/card_backs/set2/pink.gif","img/card_backs/set2/gray.gif","""event"",""trial"",""time""
""blur"",""1"",""4344""
""focus"",""1"",""8322""
""fullscreenenter"",""1"",""49960""
","""event"",""trial"",""time""
""blur"",""1"",""4344""
","""event"",""trial"",""time""
""focus"",""1"",""8322""
","""event"",""trial"",""time""
""fullscreenenter"",""1"",""49960""
","
","","10473.19999999553","Today you will be playing a game to earn tokens. </br> At the end of the experiment, you will be paid a bonus based on how many tokens you win. ","69","","instructions","2021-07-19 04:20:16.833","","","","","",""
"casino-keyboard-response","8","81757","0.0-6.0-0.2","A1379","false","img/card_backs/set1/red.gif","img/card_backs/set1/purple.gif","img/card_backs/set1/yellow.gif","img/card_backs/set1/green.gif","img/card_backs/set2/blue.gif","img/card_backs/set2/orange.gif","img/card_backs/set2/pink.gif","img/card_backs/set2/gray.gif","""event"",""trial"",""time""
""blur"",""1"",""4344""
""focus"",""1"",""8322""
""fullscreenenter"",""1"",""49960""
","""event"",""trial"",""time""
""blur"",""1"",""4344""
","""event"",""trial"",""time""
""focus"",""1"",""8322""
","""event"",""trial"",""time""
""fullscreenenter"",""1"",""49960""
","
","","7012.89999999851","On every turn, you will be shown four different decks of cards. </br> You need to select a card from one of the four decks.  ","75","","instructions","2021-07-19 04:20:23.848","","","","","",""
"casino-keyboard-response","9","86367","0.0-6.0-0.3","A1379","false","img/card_backs/set1/red.gif","img/card_backs/set1/purple.gif","img/card_backs/set1/yellow.gif","img/card_backs/set1/green.gif","img/card_backs/set2/blue.gif","img/card_backs/set2/orange.gif","img/card_backs/set2/pink.gif","img/card_backs/set2/gray.gif","""event"",""trial"",""time""
""blur"",""1"",""4344""
""focus"",""1"",""8322""
""fullscreenenter"",""1"",""49960""
","""event"",""trial"",""time""
""blur"",""1"",""4344""
","""event"",""trial"",""time""
""focus"",""1"",""8322""
","""event"",""trial"",""time""
""fullscreenenter"",""1"",""49960""
","
","","4608.10000000149","On the next screen, you will see what the decks will look like. ","66","","instructions","2021-07-19 04:20:28.458","","","","","",""
"card-selection-trial","10","90379","0.0-7.0-0.0","A1379","false","img/card_backs/set1/red.gif","img/card_backs/set1/purple.gif","img/card_backs/set1/yellow.gif","img/card_backs/set1/green.gif","img/card_backs/set2/blue.gif","img/card_backs/set2/orange.gif","img/card_backs/set2/pink.gif","img/card_backs/set2/gray.gif","""event"",""trial"",""time""
""blur"",""1"",""4344""
""focus"",""1"",""8322""
""fullscreenenter"",""1"",""49960""
","""event"",""trial"",""time""
""blur"",""1"",""4344""
","""event"",""trial"",""time""
""focus"",""1"",""8322""
","""event"",""trial"",""time""
""fullscreenenter"",""1"",""49960""
","
","","null","","","","practice","2021-07-19 04:20:32.469","null","null","null","0","",""
"casino-keyboard-response","11","98910","0.0-8.0-0.0","A1379","false","img/card_backs/set1/red.gif","img/card_backs/set1/purple.gif","img/card_backs/set1/yellow.gif","img/card_backs/set1/green.gif","img/card_backs/set2/blue.gif","img/card_backs/set2/orange.gif","img/card_backs/set2/pink.gif","img/card_backs/set2/gray.gif","""event"",""trial"",""time""
""blur"",""1"",""4344""
""focus"",""1"",""8322""
""fullscreenenter"",""1"",""49960""
","""event"",""trial"",""time""
""blur"",""1"",""4344""
","""event"",""trial"",""time""
""focus"",""1"",""8322""
","""event"",""trial"",""time""
""fullscreenenter"",""1"",""49960""
","
","","8527.89999999851","You should pick a card from a deck using the '2', '4', '6', and '8' keys at the top of the keyboard.","85","","instructions","2021-07-19 04:20:41.000","","","","","",""
"casino-keyboard-response","12","105613","0.0-8.0-0.1","A1379","false","img/card_backs/set1/red.gif","img/card_backs/set1/purple.gif","img/card_backs/set1/yellow.gif","img/card_backs/set1/green.gif","img/card_backs/set2/blue.gif","img/card_backs/set2/orange.gif","img/card_backs/set2/pink.gif","img/card_backs/set2/gray.gif","""event"",""trial"",""time""
""blur"",""1"",""4344""
""focus"",""1"",""8322""
""fullscreenenter"",""1"",""49960""
","""event"",""trial"",""time""
""blur"",""1"",""4344""
","""event"",""trial"",""time""
""focus"",""1"",""8322""
","""event"",""trial"",""time""
""fullscreenenter"",""1"",""49960""
","
","","6702.39999999851","Once you select a card, it will turn over and you will see how many tokens you earned.","83","","instructions","2021-07-19 04:20:47.704","","","","","",""
"casino-keyboard-response","13","120421","0.0-8.0-0.2","A1379","false","img/card_backs/set1/red.gif","img/card_backs/set1/purple.gif","img/card_backs/set1/yellow.gif","img/card_backs/set1/green.gif","img/card_backs/set2/blue.gif","img/card_backs/set2/orange.gif","img/card_backs/set2/pink.gif","img/card_backs/set2/gray.gif","""event"",""trial"",""time""
""blur"",""1"",""4344""
""focus"",""1"",""8322""
""fullscreenenter"",""1"",""49960""
","""event"",""trial"",""time""
""blur"",""1"",""4344""
","""event"",""trial"",""time""
""focus"",""1"",""8322""
","""event"",""trial"",""time""
""fullscreenenter"",""1"",""49960""
","
","","14804.5","Let's try practicing that! </br> First, try to put your fingers over the '2', '4', '6', and '8' keys. </br>  You can use whatever fingers are most comfortable for you. Try to find a comfortable position now. ","50","","instructions","2021-07-19 04:21:02.511","","","","","",""
"casino-keyboard-response","14","126305","0.0-8.0-0.3","A1379","false","img/card_backs/set1/red.gif","img/card_backs/set1/purple.gif","img/card_backs/set1/yellow.gif","img/card_backs/set1/green.gif","img/card_backs/set2/blue.gif","img/card_backs/set2/orange.gif","img/card_backs/set2/pink.gif","img/card_backs/set2/gray.gif","""event"",""trial"",""time""
""blur"",""1"",""4344""
""focus"",""1"",""8322""
""fullscreenenter"",""1"",""49960""
","""event"",""trial"",""time""
""blur"",""1"",""4344""
","""event"",""trial"",""time""
""focus"",""1"",""8322""
","""event"",""trial"",""time""
""fullscreenenter"",""1"",""49960""
","
","","5881.70000000298","Okay ready? </br> On the next screen, press '2' to select the left deck. ","50","","instructions","2021-07-19 04:21:08.396","","","","","",""
"card-selection-trial","15","129209","0.0-9.0-0.0","A1379","false","img/card_backs/set1/red.gif","img/card_backs/set1/purple.gif","img/card_backs/set1/yellow.gif","img/card_backs/set1/green.gif","img/card_backs/set2/blue.gif","img/card_backs/set2/orange.gif","img/card_backs/set2/pink.gif","img/card_backs/set2/gray.gif","""event"",""trial"",""time""
""blur"",""1"",""4344""
""focus"",""1"",""8322""
""fullscreenenter"",""1"",""49960""
","""event"",""trial"",""time""
""blur"",""1"",""4344""
","""event"",""trial"",""time""
""focus"",""1"",""8322""
","""event"",""trial"",""time""
""fullscreenenter"",""1"",""49960""
","
","","886.2999999970198","","","","practice_card_selection","2021-07-19 04:21:11.299","img/practice_cards/backs/dark_blue.gif","0","200","","",""
"casino-keyboard-response","16","134907","0.0-10.0-0.0","A1379","false","img/card_backs/set1/red.gif","img/card_backs/set1/purple.gif","img/card_backs/set1/yellow.gif","img/card_backs/set1/green.gif","img/card_backs/set2/blue.gif","img/card_backs/set2/orange.gif","img/card_backs/set2/pink.gif","img/card_backs/set2/gray.gif","""event"",""trial"",""time""
""blur"",""1"",""4344""
""focus"",""1"",""8322""
""fullscreenenter"",""1"",""49960""
","""event"",""trial"",""time""
""blur"",""1"",""4344""
","""event"",""trial"",""time""
""focus"",""1"",""8322""
","""event"",""trial"",""time""
""fullscreenenter"",""1"",""49960""
","
","","5695.10000000149","Great! Now on the next screen, try pressing '6' to select the third deck.","54","","instructions","2021-07-19 04:21:16.997","","","","","",""
"card-selection-trial","17","137726","0.0-11.0-0.0","A1379","false","img/card_backs/set1/red.gif","img/card_backs/set1/purple.gif","img/card_backs/set1/yellow.gif","img/card_backs/set1/green.gif","img/card_backs/set2/blue.gif","img/card_backs/set2/orange.gif","img/card_backs/set2/pink.gif","img/card_backs/set2/gray.gif","""event"",""trial"",""time""
""blur"",""1"",""4344""
""focus"",""1"",""8322""
""fullscreenenter"",""1"",""49960""
","""event"",""trial"",""time""
""blur"",""1"",""4344""
","""event"",""trial"",""time""
""focus"",""1"",""8322""
","""event"",""trial"",""time""
""fullscreenenter"",""1"",""49960""
","
","","806.1999999955297","","","","practice_card_selection","2021-07-19 04:21:19.817","img/practice_cards/backs/black.gif","2","100","","",""
"casino-keyboard-response","18","143504","0.0-12.0-0.0","A1379","false","img/card_backs/set1/red.gif","img/card_backs/set1/purple.gif","img/card_backs/set1/yellow.gif","img/card_backs/set1/green.gif","img/card_backs/set2/blue.gif","img/card_backs/set2/orange.gif","img/card_backs/set2/pink.gif","img/card_backs/set2/gray.gif","""event"",""trial"",""time""
""blur"",""1"",""4344""
""focus"",""1"",""8322""
""fullscreenenter"",""1"",""49960""
","""event"",""trial"",""time""
""blur"",""1"",""4344""
","""event"",""trial"",""time""
""focus"",""1"",""8322""
","""event"",""trial"",""time""
""fullscreenenter"",""1"",""49960""
","
","","5774.70000000298","Now on the next screen, try pressing '4' to select the second deck.","52","","instructions","2021-07-19 04:21:25.594","","","","","",""
"card-selection-trial","19","146244","0.0-13.0-0.0","A1379","false","img/card_backs/set1/red.gif","img/card_backs/set1/purple.gif","img/card_backs/set1/yellow.gif","img/card_backs/set1/green.gif","img/card_backs/set2/blue.gif","img/card_backs/set2/orange.gif","img/card_backs/set2/pink.gif","img/card_backs/set2/gray.gif","""event"",""trial"",""time""
""blur"",""1"",""4344""
""focus"",""1"",""8322""
""fullscreenenter"",""1"",""49960""
","""event"",""trial"",""time""
""blur"",""1"",""4344""
","""event"",""trial"",""time""
""focus"",""1"",""8322""
","""event"",""trial"",""time""
""fullscreenenter"",""1"",""49960""
","
","","730.6000000014901","","","","practice_card_selection","2021-07-19 04:21:28.334","img/practice_cards/backs/dark_green.gif","1","200","","",""
"casino-keyboard-response","20","150677","0.0-14.0-0.0","A1379","false","img/card_backs/set1/red.gif","img/card_backs/set1/purple.gif","img/card_backs/set1/yellow.gif","img/card_backs/set1/green.gif","img/card_backs/set2/blue.gif","img/card_backs/set2/orange.gif","img/card_backs/set2/pink.gif","img/card_backs/set2/gray.gif","""event"",""trial"",""time""
""blur"",""1"",""4344""
""focus"",""1"",""8322""
""fullscreenenter"",""1"",""49960""
","""event"",""trial"",""time""
""blur"",""1"",""4344""
","""event"",""trial"",""time""
""focus"",""1"",""8322""
","""event"",""trial"",""time""
""fullscreenenter"",""1"",""49960""
","
","","4430.69999999553","Finally, try pressing '8' to select the deck all the way on the right.","56","","instructions","2021-07-19 04:21:32.767","","","","","",""
"card-selection-trial","21","153234","0.0-15.0-0.0","A1379","false","img/card_backs/set1/red.gif","img/card_backs/set1/purple.gif","img/card_backs/set1/yellow.gif","img/card_backs/set1/green.gif","img/card_backs/set2/blue.gif","img/card_backs/set2/orange.gif","img/card_backs/set2/pink.gif","img/card_backs/set2/gray.gif","""event"",""trial"",""time""
""blur"",""1"",""4344""
""focus"",""1"",""8322""
""fullscreenenter"",""1"",""49960""
","""event"",""trial"",""time""
""blur"",""1"",""4344""
","""event"",""trial"",""time""
""focus"",""1"",""8322""
","""event"",""trial"",""time""
""fullscreenenter"",""1"",""49960""
","
","","545.8999999985099","","","","practice_card_selection","2021-07-19 04:21:35.324","img/practice_cards/backs/black.gif","3","100","","",""
"casino-keyboard-response","22","157898","0.0-16.0-0.0","A1379","false","img/card_backs/set1/red.gif","img/card_backs/set1/purple.gif","img/card_backs/set1/yellow.gif","img/card_backs/set1/green.gif","img/card_backs/set2/blue.gif","img/card_backs/set2/orange.gif","img/card_backs/set2/pink.gif","img/card_backs/set2/gray.gif","""event"",""trial"",""time""
""blur"",""1"",""4344""
""focus"",""1"",""8322""
""fullscreenenter"",""1"",""49960""
","""event"",""trial"",""time""
""blur"",""1"",""4344""
","""event"",""trial"",""time""
""focus"",""1"",""8322""
","""event"",""trial"",""time""
""fullscreenenter"",""1"",""49960""
","
","","4661.79999999702","Great! It seems like you are getting the hang of this.","80","","instructions","2021-07-19 04:21:39.988","","","","","",""
"casino-keyboard-response","23","165588","0.0-16.0-0.1","A1379","false","img/card_backs/set1/red.gif","img/card_backs/set1/purple.gif","img/card_backs/set1/yellow.gif","img/card_backs/set1/green.gif","img/card_backs/set2/blue.gif","img/card_backs/set2/orange.gif","img/card_backs/set2/pink.gif","img/card_backs/set2/gray.gif","""event"",""trial"",""time""
""blur"",""1"",""4344""
""focus"",""1"",""8322""
""fullscreenenter"",""1"",""49960""
","""event"",""trial"",""time""
""blur"",""1"",""4344""
","""event"",""trial"",""time""
""focus"",""1"",""8322""
","""event"",""trial"",""time""
""fullscreenenter"",""1"",""49960""
","
","","7686.89999999851","You may have noticed that some cards will cause you to <b> win </b> tokens while other cards will cause you to <b> lose </b>  tokens.","70","","instructions","2021-07-19 04:21:47.678","","","","","",""
"casino-keyboard-response","24","174232","0.0-16.0-0.2","A1379","false","img/card_backs/set1/red.gif","img/card_backs/set1/purple.gif","img/card_backs/set1/yellow.gif","img/card_backs/set1/green.gif","img/card_backs/set2/blue.gif","img/card_backs/set2/orange.gif","img/card_backs/set2/pink.gif","img/card_backs/set2/gray.gif","""event"",""trial"",""time""
""blur"",""1"",""4344""
""focus"",""1"",""8322""
""fullscreenenter"",""1"",""49960""
","""event"",""trial"",""time""
""blur"",""1"",""4344""
","""event"",""trial"",""time""
""focus"",""1"",""8322""
","""event"",""trial"",""time""
""fullscreenenter"",""1"",""49960""
","
","","8641.70000000298","Each deck has a mix of cards that will cause you to win and lose tokens. </br> However, the cards in each colored deck are different.","73","","instructions","2021-07-19 04:21:56.322","","","","","",""
"casino-keyboard-response","25","183637","0.0-16.0-0.3","A1379","false","img/card_backs/set1/red.gif","img/card_backs/set1/purple.gif","img/card_backs/set1/yellow.gif","img/card_backs/set1/green.gif","img/card_backs/set2/blue.gif","img/card_backs/set2/orange.gif","img/card_backs/set2/pink.gif","img/card_backs/set2/gray.gif","""event"",""trial"",""time""
""blur"",""1"",""4344""
""focus"",""1"",""8322""
""fullscreenenter"",""1"",""49960""
","""event"",""trial"",""time""
""blur"",""1"",""4344""
","""event"",""trial"",""time""
""focus"",""1"",""8322""
","""event"",""trial"",""time""
""fullscreenenter"",""1"",""49960""
","
","","9402.69999999553","Some colored decks are luckier than others. </br> If you choose the lucky decks, you will earn more tokens than if you choose the unlucky decks.","69","","instructions","2021-07-19 04:22:05.727","","","","","",""
"casino-keyboard-response","26","191118","0.0-16.0-0.4","A1379","false","img/card_backs/set1/red.gif","img/card_backs/set1/purple.gif","img/card_backs/set1/yellow.gif","img/card_backs/set1/green.gif","img/card_backs/set2/blue.gif","img/card_backs/set2/orange.gif","img/card_backs/set2/pink.gif","img/card_backs/set2/gray.gif","""event"",""trial"",""time""
""blur"",""1"",""4344""
""focus"",""1"",""8322""
""fullscreenenter"",""1"",""49960""
","""event"",""trial"",""time""
""blur"",""1"",""4344""
","""event"",""trial"",""time""
""focus"",""1"",""8322""
","""event"",""trial"",""time""
""fullscreenenter"",""1"",""49960""
","
","","7478.20000000298","You should try to figure out which decks are lucky. </br> Then, try to choose the lucky decks so you can win the most tokens.","87","","instructions","2021-07-19 04:22:13.208","","","","","",""
"casino-keyboard-response","27","202366","0.0-16.0-0.5","A1379","false","img/card_backs/set1/red.gif","img/card_backs/set1/purple.gif","img/card_backs/set1/yellow.gif","img/card_backs/set1/green.gif","img/card_backs/set2/blue.gif","img/card_backs/set2/orange.gif","img/card_backs/set2/pink.gif","img/card_backs/set2/gray.gif","""event"",""trial"",""time""
""blur"",""1"",""4344""
""focus"",""1"",""8322""
""fullscreenenter"",""1"",""49960""
","""event"",""trial"",""time""
""blur"",""1"",""4344""
","""event"",""trial"",""time""
""focus"",""1"",""8322""
","""event"",""trial"",""time""
""fullscreenenter"",""1"",""49960""
","
","","11245.39999999851","To make it trickier, the casino dealer will switch the locations of the decks on every turn. </br> The color of the deck determines how lucky it is. The location does not matter.","88","","instructions","2021-07-19 04:22:24.456","","","","","",""
"casino-keyboard-response","28","213495","0.0-16.0-0.6","A1379","false","img/card_backs/set1/red.gif","img/card_backs/set1/purple.gif","img/card_backs/set1/yellow.gif","img/card_backs/set1/green.gif","img/card_backs/set2/blue.gif","img/card_backs/set2/orange.gif","img/card_backs/set2/pink.gif","img/card_backs/set2/gray.gif","""event"",""trial"",""time""
""blur"",""1"",""4344""
""focus"",""1"",""8322""
""fullscreenenter"",""1"",""49960""
","""event"",""trial"",""time""
""blur"",""1"",""4344""
","""event"",""trial"",""time""
""focus"",""1"",""8322""
","""event"",""trial"",""time""
""fullscreenenter"",""1"",""49960""
","
","","11126.69999999553","The mix of cards in each colored deck will stay the same throughout the game. </br> That means that a deck that is lucky early on will stay lucky.","79","","instructions","2021-07-19 04:22:35.585","","","","","",""
"casino-keyboard-response","29","221965","0.0-16.0-0.7","A1379","false","img/card_backs/set1/red.gif","img/card_backs/set1/purple.gif","img/card_backs/set1/yellow.gif","img/card_backs/set1/green.gif","img/card_backs/set2/blue.gif","img/card_backs/set2/orange.gif","img/card_backs/set2/pink.gif","img/card_backs/set2/gray.gif","""event"",""trial"",""time""
""blur"",""1"",""4344""
""focus"",""1"",""8322""
""fullscreenenter"",""1"",""49960""
","""event"",""trial"",""time""
""blur"",""1"",""4344""
","""event"",""trial"",""time""
""focus"",""1"",""8322""
","""event"",""trial"",""time""
""fullscreenenter"",""1"",""49960""
","
","","8467.80000000447","Remember though, all the decks have a <b> mix </b> of both <b> good </b> and <b> bad </b> cards so it may take a couple of turns to figure out if a deck is lucky.","69","","instructions","2021-07-19 04:22:44.055","","","","","",""
"casino-keyboard-response","30","230728","0.0-16.0-0.8","A1379","false","img/card_backs/set1/red.gif","img/card_backs/set1/purple.gif","img/card_backs/set1/yellow.gif","img/card_backs/set1/green.gif","img/card_backs/set2/blue.gif","img/card_backs/set2/orange.gif","img/card_backs/set2/pink.gif","img/card_backs/set2/gray.gif","""event"",""trial"",""time""
""blur"",""1"",""4344""
""focus"",""1"",""8322""
""fullscreenenter"",""1"",""49960""
","""event"",""trial"",""time""
""blur"",""1"",""4344""
","""event"",""trial"",""time""
""focus"",""1"",""8322""
","""event"",""trial"",""time""
""fullscreenenter"",""1"",""49960""
","
","","8760.79999999702","At the end of the game, you will be paid bonus money based on how many tokens you win. </br> If you win more tokens, you will earn more money!","72","","instructions","2021-07-19 04:22:52.818","","","","","",""
"casino-keyboard-response","31","240986","0.0-16.0-0.9","A1379","false","img/card_backs/set1/red.gif","img/card_backs/set1/purple.gif","img/card_backs/set1/yellow.gif","img/card_backs/set1/green.gif","img/card_backs/set2/blue.gif","img/card_backs/set2/orange.gif","img/card_backs/set2/pink.gif","img/card_backs/set2/gray.gif","""event"",""trial"",""time""
""blur"",""1"",""4344""
""focus"",""1"",""8322""
""fullscreenenter"",""1"",""49960""
","""event"",""trial"",""time""
""blur"",""1"",""4344""
","""event"",""trial"",""time""
""focus"",""1"",""8322""
","""event"",""trial"",""time""
""fullscreenenter"",""1"",""49960""
","
","","10254.20000000298","You will never <b> lose </b> money. </br> If you end up with fewer than 0 tokens, you will earn $0 of bonus money, but you will still be paid for playing the game.","83","","instructions","2021-07-19 04:23:03.076","","","","","",""
"casino-keyboard-response","32","245798","0.0-16.0-0.10","A1379","false","img/card_backs/set1/red.gif","img/card_backs/set1/purple.gif","img/card_backs/set1/yellow.gif","img/card_backs/set1/green.gif","img/card_backs/set2/blue.gif","img/card_backs/set2/orange.gif","img/card_backs/set2/pink.gif","img/card_backs/set2/gray.gif","""event"",""trial"",""time""
""blur"",""1"",""4344""
""focus"",""1"",""8322""
""fullscreenenter"",""1"",""49960""
","""event"",""trial"",""time""
""blur"",""1"",""4344""
","""event"",""trial"",""time""
""focus"",""1"",""8322""
","""event"",""trial"",""time""
""fullscreenenter"",""1"",""49960""
","
","","4810.19999999553","You will have 10 seconds to make each choice.","82","","instructions","2021-07-19 04:23:07.888","","","","","",""
"casino-keyboard-response","33","253903","0.0-16.0-0.11","A1379","false","img/card_backs/set1/red.gif","img/card_backs/set1/purple.gif","img/card_backs/set1/yellow.gif","img/card_backs/set1/green.gif","img/card_backs/set2/blue.gif","img/card_backs/set2/orange.gif","img/card_backs/set2/pink.gif","img/card_backs/set2/gray.gif","""event"",""trial"",""time""
""blur"",""1"",""4344""
""focus"",""1"",""8322""
""fullscreenenter"",""1"",""49960""
","""event"",""trial"",""time""
""blur"",""1"",""4344""
","""event"",""trial"",""time""
""focus"",""1"",""8322""
","""event"",""trial"",""time""
""fullscreenenter"",""1"",""49960""
","
","","8102.10000000149","Before you play the game for real, you will play with practice decks. </br> The tokens you earn during practice won't count toward your total.","86","","instructions","2021-07-19 04:23:15.993","","","","","",""
"casino-keyboard-response","34","260022","0.0-16.0-0.12","A1379","false","img/card_backs/set1/red.gif","img/card_backs/set1/purple.gif","img/card_backs/set1/yellow.gif","img/card_backs/set1/green.gif","img/card_backs/set2/blue.gif","img/card_backs/set2/orange.gif","img/card_backs/set2/pink.gif","img/card_backs/set2/gray.gif","""event"",""trial"",""time""
""blur"",""1"",""4344""
""focus"",""1"",""8322""
""fullscreenenter"",""1"",""49960""
","""event"",""trial"",""time""
""blur"",""1"",""4344""
","""event"",""trial"",""time""
""focus"",""1"",""8322""
","""event"",""trial"",""time""
""fullscreenenter"",""1"",""49960""
","
","","6116.30000000447","Ready? Remember, use the '2', '4', '6', and '8' keys to select the decks. </br> Put your fingers on those keys now and then press '2' to begin.","50","","instructions","2021-07-19 04:23:22.112","","","","","",""
"casino-fixation","35","260527","0.0-17.0-0.0","A1379","false","img/card_backs/set1/red.gif","img/card_backs/set1/purple.gif","img/card_backs/set1/yellow.gif","img/card_backs/set1/green.gif","img/card_backs/set2/blue.gif","img/card_backs/set2/orange.gif","img/card_backs/set2/pink.gif","img/card_backs/set2/gray.gif","""event"",""trial"",""time""
""blur"",""1"",""4344""
""focus"",""1"",""8322""
""fullscreenenter"",""1"",""49960""
","""event"",""trial"",""time""
""blur"",""1"",""4344""
","""event"",""trial"",""time""
""focus"",""1"",""8322""
","""event"",""trial"",""time""
""fullscreenenter"",""1"",""49960""
","
","","null","","null","","fixation","2021-07-19 04:23:22.617","","","","","",""
"card-selection-trial","36","263865","0.0-17.0-1.0","A1379","false","img/card_backs/set1/red.gif","img/card_backs/set1/purple.gif","img/card_backs/set1/yellow.gif","img/card_backs/set1/green.gif","img/card_backs/set2/blue.gif","img/card_backs/set2/orange.gif","img/card_backs/set2/pink.gif","img/card_backs/set2/gray.gif","""event"",""trial"",""time""
""blur"",""1"",""4344""
""focus"",""1"",""8322""
""fullscreenenter"",""1"",""49960""
","""event"",""trial"",""time""
""blur"",""1"",""4344""
","""event"",""trial"",""time""
""focus"",""1"",""8322""
","""event"",""trial"",""time""
""fullscreenenter"",""1"",""49960""
","
","","1323.3999999985099","","","","practice","2021-07-19 04:23:25.955","img/practice_cards/backs/dark_blue.gif","0","200","0","",""
"casino-fixation","37","264370","0.0-17.0-0.1","A1379","false","img/card_backs/set1/red.gif","img/card_backs/set1/purple.gif","img/card_backs/set1/yellow.gif","img/card_backs/set1/green.gif","img/card_backs/set2/blue.gif","img/card_backs/set2/orange.gif","img/card_backs/set2/pink.gif","img/card_backs/set2/gray.gif","""event"",""trial"",""time""
""blur"",""1"",""4344""
""focus"",""1"",""8322""
""fullscreenenter"",""1"",""49960""
","""event"",""trial"",""time""
""blur"",""1"",""4344""
","""event"",""trial"",""time""
""focus"",""1"",""8322""
","""event"",""trial"",""time""
""fullscreenenter"",""1"",""49960""
","
","","null","","null","","fixation","2021-07-19 04:23:26.460","","","","","",""
"card-selection-trial","38","266971","0.0-17.0-1.1","A1379","false","img/card_backs/set1/red.gif","img/card_backs/set1/purple.gif","img/card_backs/set1/yellow.gif","img/card_backs/set1/green.gif","img/card_backs/set2/blue.gif","img/card_backs/set2/orange.gif","img/card_backs/set2/pink.gif","img/card_backs/set2/gray.gif","""event"",""trial"",""time""
""blur"",""1"",""4344""
""focus"",""1"",""8322""
""fullscreenenter"",""1"",""49960""
","""event"",""trial"",""time""
""blur"",""1"",""4344""
","""event"",""trial"",""time""
""focus"",""1"",""8322""
","""event"",""trial"",""time""
""fullscreenenter"",""1"",""49960""
","
","","596.8999999985099","","","","practice","2021-07-19 04:23:29.062","img/practice_cards/backs/dark_blue.gif","3","-200","0","",""
"casino-fixation","39","267479","0.0-17.0-0.2","A1379","false","img/card_backs/set1/red.gif","img/card_backs/set1/purple.gif","img/card_backs/set1/yellow.gif","img/card_backs/set1/green.gif","img/card_backs/set2/blue.gif","img/card_backs/set2/orange.gif","img/card_backs/set2/pink.gif","img/card_backs/set2/gray.gif","""event"",""trial"",""time""
""blur"",""1"",""4344""
""focus"",""1"",""8322""
""fullscreenenter"",""1"",""49960""
","""event"",""trial"",""time""
""blur"",""1"",""4344""
","""event"",""trial"",""time""
""focus"",""1"",""8322""
","""event"",""trial"",""time""
""fullscreenenter"",""1"",""49960""
","
","","null","","null","","fixation","2021-07-19 04:23:29.569","","","","","",""
"card-selection-trial","40","270751","0.0-17.0-1.2","A1379","false","img/card_backs/set1/red.gif","img/card_backs/set1/purple.gif","img/card_backs/set1/yellow.gif","img/card_backs/set1/green.gif","img/card_backs/set2/blue.gif","img/card_backs/set2/orange.gif","img/card_backs/set2/pink.gif","img/card_backs/set2/gray.gif","""event"",""trial"",""time""
""blur"",""1"",""4344""
""focus"",""1"",""8322""
""fullscreenenter"",""1"",""49960""
","""event"",""trial"",""time""
""blur"",""1"",""4344""
","""event"",""trial"",""time""
""focus"",""1"",""8322""
","""event"",""trial"",""time""
""fullscreenenter"",""1"",""49960""
","
","","1262.7000000029802","","","","practice","2021-07-19 04:23:32.841","img/practice_cards/backs/dark_green.gif","1","200","0","",""
"casino-fixation","41","271254","0.0-17.0-0.3","A1379","false","img/card_backs/set1/red.gif","img/card_backs/set1/purple.gif","img/card_backs/set1/yellow.gif","img/card_backs/set1/green.gif","img/card_backs/set2/blue.gif","img/card_backs/set2/orange.gif","img/card_backs/set2/pink.gif","img/card_backs/set2/gray.gif","""event"",""trial"",""time""
""blur"",""1"",""4344""
""focus"",""1"",""8322""
""fullscreenenter"",""1"",""49960""
","""event"",""trial"",""time""
""blur"",""1"",""4344""
","""event"",""trial"",""time""
""focus"",""1"",""8322""
","""event"",""trial"",""time""
""fullscreenenter"",""1"",""49960""
","
","","null","","null","","fixation","2021-07-19 04:23:33.345","","","","","",""
"card-selection-trial","42","274154","0.0-17.0-1.3","A1379","false","img/card_backs/set1/red.gif","img/card_backs/set1/purple.gif","img/card_backs/set1/yellow.gif","img/card_backs/set1/green.gif","img/card_backs/set2/blue.gif","img/card_backs/set2/orange.gif","img/card_backs/set2/pink.gif","img/card_backs/set2/gray.gif","""event"",""trial"",""time""
""blur"",""1"",""4344""
""focus"",""1"",""8322""
""fullscreenenter"",""1"",""49960""
","""event"",""trial"",""time""
""blur"",""1"",""4344""
","""event"",""trial"",""time""
""focus"",""1"",""8322""
","""event"",""trial"",""time""
""fullscreenenter"",""1"",""49960""
","
","","890.5","","","","practice","2021-07-19 04:23:36.245","img/practice_cards/backs/brown.gif","2","-100","0","",""
"casino-fixation","43","274659","0.0-17.0-0.4","A1379","false","img/card_backs/set1/red.gif","img/card_backs/set1/purple.gif","img/card_backs/set1/yellow.gif","img/card_backs/set1/green.gif","img/card_backs/set2/blue.gif","img/card_backs/set2/orange.gif","img/card_backs/set2/pink.gif","img/card_backs/set2/gray.gif","""event"",""trial"",""time""
""blur"",""1"",""4344""
""focus"",""1"",""8322""
""fullscreenenter"",""1"",""49960""
","""event"",""trial"",""time""
""blur"",""1"",""4344""
","""event"",""trial"",""time""
""focus"",""1"",""8322""
","""event"",""trial"",""time""
""fullscreenenter"",""1"",""49960""
","
","","null","","null","","fixation","2021-07-19 04:23:36.749","","","","","",""
"card-selection-trial","44","278874","0.0-17.0-1.4","A1379","false","img/card_backs/set1/red.gif","img/card_backs/set1/purple.gif","img/card_backs/set1/yellow.gif","img/card_backs/set1/green.gif","img/card_backs/set2/blue.gif","img/card_backs/set2/orange.gif","img/card_backs/set2/pink.gif","img/card_backs/set2/gray.gif","""event"",""trial"",""time""
""blur"",""1"",""4344""
""focus"",""1"",""8322""
""fullscreenenter"",""1"",""49960""
","""event"",""trial"",""time""
""blur"",""1"",""4344""
","""event"",""trial"",""time""
""focus"",""1"",""8322""
","""event"",""trial"",""time""
""fullscreenenter"",""1"",""49960""
","
","","2204.9000000059605","","","","practice","2021-07-19 04:23:40.964","img/practice_cards/backs/dark_blue.gif","1","-200","0","",""
"casino-fixation","45","279376","0.0-17.0-0.5","A1379","false","img/card_backs/set1/red.gif","img/card_backs/set1/purple.gif","img/card_backs/set1/yellow.gif","img/card_backs/set1/green.gif","img/card_backs/set2/blue.gif","img/card_backs/set2/orange.gif","img/card_backs/set2/pink.gif","img/card_backs/set2/gray.gif","""event"",""trial"",""time""
""blur"",""1"",""4344""
""focus"",""1"",""8322""
""fullscreenenter"",""1"",""49960""
","""event"",""trial"",""time""
""blur"",""1"",""4344""
","""event"",""trial"",""time""
""focus"",""1"",""8322""
","""event"",""trial"",""time""
""fullscreenenter"",""1"",""49960""
","
","","null","","null","","fixation","2021-07-19 04:23:41.466","","","","","",""
"card-selection-trial","46","282572","0.0-17.0-1.5","A1379","false","img/card_backs/set1/red.gif","img/card_backs/set1/purple.gif","img/card_backs/set1/yellow.gif","img/card_backs/set1/green.gif","img/card_backs/set2/blue.gif","img/card_backs/set2/orange.gif","img/card_backs/set2/pink.gif","img/card_backs/set2/gray.gif","""event"",""trial"",""time""
""blur"",""1"",""4344""
""focus"",""1"",""8322""
""fullscreenenter"",""1"",""49960""
","""event"",""trial"",""time""
""blur"",""1"",""4344""
","""event"",""trial"",""time""
""focus"",""1"",""8322""
","""event"",""trial"",""time""
""fullscreenenter"",""1"",""49960""
","
","","1181.6000000014901","","","","practice","2021-07-19 04:23:44.662","img/practice_cards/backs/dark_green.gif","2","-200","0","",""
"casino-fixation","47","283076","0.0-17.0-0.6","A1379","false","img/card_backs/set1/red.gif","img/card_backs/set1/purple.gif","img/card_backs/set1/yellow.gif","img/card_backs/set1/green.gif","img/card_backs/set2/blue.gif","img/card_backs/set2/orange.gif","img/card_backs/set2/pink.gif","img/card_backs/set2/gray.gif","""event"",""trial"",""time""
""blur"",""1"",""4344""
""focus"",""1"",""8322""
""fullscreenenter"",""1"",""49960""
","""event"",""trial"",""time""
""blur"",""1"",""4344""
","""event"",""trial"",""time""
""focus"",""1"",""8322""
","""event"",""trial"",""time""
""fullscreenenter"",""1"",""49960""
","
","","null","","null","","fixation","2021-07-19 04:23:45.166","","","","","",""
"card-selection-trial","48","286495","0.0-17.0-1.6","A1379","false","img/card_backs/set1/red.gif","img/card_backs/set1/purple.gif","img/card_backs/set1/yellow.gif","img/card_backs/set1/green.gif","img/card_backs/set2/blue.gif","img/card_backs/set2/orange.gif","img/card_backs/set2/pink.gif","img/card_backs/set2/gray.gif","""event"",""trial"",""time""
""blur"",""1"",""4344""
""focus"",""1"",""8322""
""fullscreenenter"",""1"",""49960""
","""event"",""trial"",""time""
""blur"",""1"",""4344""
","""event"",""trial"",""time""
""focus"",""1"",""8322""
","""event"",""trial"",""time""
""fullscreenenter"",""1"",""49960""
","
","","1409","","","","practice","2021-07-19 04:23:48.586","img/practice_cards/backs/dark_blue.gif","1","-200","0","",""
"casino-fixation","49","287000","0.0-17.0-0.7","A1379","false","img/card_backs/set1/red.gif","img/card_backs/set1/purple.gif","img/card_backs/set1/yellow.gif","img/card_backs/set1/green.gif","img/card_backs/set2/blue.gif","img/card_backs/set2/orange.gif","img/card_backs/set2/pink.gif","img/card_backs/set2/gray.gif","""event"",""trial"",""time""
""blur"",""1"",""4344""
""focus"",""1"",""8322""
""fullscreenenter"",""1"",""49960""
","""event"",""trial"",""time""
""blur"",""1"",""4344""
","""event"",""trial"",""time""
""focus"",""1"",""8322""
","""event"",""trial"",""time""
""fullscreenenter"",""1"",""49960""
","
","","null","","null","","fixation","2021-07-19 04:23:49.090","","","","","",""
"card-selection-trial","50","289793","0.0-17.0-1.7","A1379","false","img/card_backs/set1/red.gif","img/card_backs/set1/purple.gif","img/card_backs/set1/yellow.gif","img/card_backs/set1/green.gif","img/card_backs/set2/blue.gif","img/card_backs/set2/orange.gif","img/card_backs/set2/pink.gif","img/card_backs/set2/gray.gif","""event"",""trial"",""time""
""blur"",""1"",""4344""
""focus"",""1"",""8322""
""fullscreenenter"",""1"",""49960""
","""event"",""trial"",""time""
""blur"",""1"",""4344""
","""event"",""trial"",""time""
""focus"",""1"",""8322""
","""event"",""trial"",""time""
""fullscreenenter"",""1"",""49960""
","
","","784.5","","","","practice","2021-07-19 04:23:51.883","img/practice_cards/backs/brown.gif","0","-100","0","",""
"casino-fixation","51","290296","0.0-17.0-0.8","A1379","false","img/card_backs/set1/red.gif","img/card_backs/set1/purple.gif","img/card_backs/set1/yellow.gif","img/card_backs/set1/green.gif","img/card_backs/set2/blue.gif","img/card_backs/set2/orange.gif","img/card_backs/set2/pink.gif","img/card_backs/set2/gray.gif","""event"",""trial"",""time""
""blur"",""1"",""4344""
""focus"",""1"",""8322""
""fullscreenenter"",""1"",""49960""
","""event"",""trial"",""time""
""blur"",""1"",""4344""
","""event"",""trial"",""time""
""focus"",""1"",""8322""
","""event"",""trial"",""time""
""fullscreenenter"",""1"",""49960""
","
","","null","","null","","fixation","2021-07-19 04:23:52.386","","","","","",""
"card-selection-trial","52","294110","0.0-17.0-1.8","A1379","false","img/card_backs/set1/red.gif","img/card_backs/set1/purple.gif","img/card_backs/set1/yellow.gif","img/card_backs/set1/green.gif","img/card_backs/set2/blue.gif","img/card_backs/set2/orange.gif","img/card_backs/set2/pink.gif","img/card_backs/set2/gray.gif","""event"",""trial"",""time""
""blur"",""1"",""4344""
""focus"",""1"",""8322""
""fullscreenenter"",""1"",""49960""
","""event"",""trial"",""time""
""blur"",""1"",""4344""
","""event"",""trial"",""time""
""focus"",""1"",""8322""
","""event"",""trial"",""time""
""fullscreenenter"",""1"",""49960""
","
","","1800.6000000014901","","","","practice","2021-07-19 04:23:56.200","img/practice_cards/backs/black.gif","1","100","0","",""
"casino-fixation","53","294615","0.0-17.0-0.9","A1379","false","img/card_backs/set1/red.gif","img/card_backs/set1/purple.gif","img/card_backs/set1/yellow.gif","img/card_backs/set1/green.gif","img/card_backs/set2/blue.gif","img/card_backs/set2/orange.gif","img/card_backs/set2/pink.gif","img/card_backs/set2/gray.gif","""event"",""trial"",""time""
""blur"",""1"",""4344""
""focus"",""1"",""8322""
""fullscreenenter"",""1"",""49960""
","""event"",""trial"",""time""
""blur"",""1"",""4344""
","""event"",""trial"",""time""
""focus"",""1"",""8322""
","""event"",""trial"",""time""
""fullscreenenter"",""1"",""49960""
","
","","null","","null","","fixation","2021-07-19 04:23:56.705","","","","","",""
"card-selection-trial","54","297645","0.0-17.0-1.9","A1379","false","img/card_backs/set1/red.gif","img/card_backs/set1/purple.gif","img/card_backs/set1/yellow.gif","img/card_backs/set1/green.gif","img/card_backs/set2/blue.gif","img/card_backs/set2/orange.gif","img/card_backs/set2/pink.gif","img/card_backs/set2/gray.gif","""event"",""trial"",""time""
""blur"",""1"",""4344""
""focus"",""1"",""8322""
""fullscreenenter"",""1"",""49960""
","""event"",""trial"",""time""
""blur"",""1"",""4344""
","""event"",""trial"",""time""
""focus"",""1"",""8322""
","""event"",""trial"",""time""
""fullscreenenter"",""1"",""49960""
","
","","1019.5","","","","practice","2021-07-19 04:23:59.735","img/practice_cards/backs/black.gif","2","-100","0","",""
"casino-keyboard-response","55","301655","0.0-18.0","A1379","false","img/card_backs/set1/red.gif","img/card_backs/set1/purple.gif","img/card_backs/set1/yellow.gif","img/card_backs/set1/green.gif","img/card_backs/set2/blue.gif","img/card_backs/set2/orange.gif","img/card_backs/set2/pink.gif","img/card_backs/set2/gray.gif","""event"",""trial"",""time""
""blur"",""1"",""4344""
""focus"",""1"",""8322""
""fullscreenenter"",""1"",""49960""
","""event"",""trial"",""time""
""blur"",""1"",""4344""
","""event"",""trial"",""time""
""focus"",""1"",""8322""
","""event"",""trial"",""time""
""fullscreenenter"",""1"",""49960""
","
","","4007.10000000149","You earned -600 tokens during the practice round!","82","","","2021-07-19 04:24:03.745","","","","","",""
"casino-keyboard-response","56","305874","0.0-19.0-0.0","A1379","false","img/card_backs/set1/red.gif","img/card_backs/set1/purple.gif","img/card_backs/set1/yellow.gif","img/card_backs/set1/green.gif","img/card_backs/set2/blue.gif","img/card_backs/set2/orange.gif","img/card_backs/set2/pink.gif","img/card_backs/set2/gray.gif","""event"",""trial"",""time""
""blur"",""1"",""4344""
""focus"",""1"",""8322""
""fullscreenenter"",""1"",""49960""
","""event"",""trial"",""time""
""blur"",""1"",""4344""
","""event"",""trial"",""time""
""focus"",""1"",""8322""
","""event"",""trial"",""time""
""fullscreenenter"",""1"",""49960""
","
","","4214.60000000149","Nice job! You are almost ready to play the real game.","86","","instructions","2021-07-19 04:24:07.964","","","","","",""
"casino-keyboard-response","57","312699","0.0-19.0-0.1","A1379","false","img/card_backs/set1/red.gif","img/card_backs/set1/purple.gif","img/card_backs/set1/yellow.gif","img/card_backs/set1/green.gif","img/card_backs/set2/blue.gif","img/card_backs/set2/orange.gif","img/card_backs/set2/pink.gif","img/card_backs/set2/gray.gif","""event"",""trial"",""time""
""blur"",""1"",""4344""
""focus"",""1"",""8322""
""fullscreenenter"",""1"",""49960""
","""event"",""trial"",""time""
""blur"",""1"",""4344""
","""event"",""trial"",""time""
""focus"",""1"",""8322""
","""event"",""trial"",""time""
""fullscreenenter"",""1"",""49960""
","
","","6822.60000000149","You will play two rounds of the real game. In each round, you will pick 100 cards in total.","73","","instructions","2021-07-19 04:24:14.789","","","","","",""
"casino-keyboard-response","58","317104","0.0-19.0-0.2","A1379","false","img/card_backs/set1/red.gif","img/card_backs/set1/purple.gif","img/card_backs/set1/yellow.gif","img/card_backs/set1/green.gif","img/card_backs/set2/blue.gif","img/card_backs/set2/orange.gif","img/card_backs/set2/pink.gif","img/card_backs/set2/gray.gif","""event"",""trial"",""time""
""blur"",""1"",""4344""
""focus"",""1"",""8322""
""fullscreenenter"",""1"",""49960""
","""event"",""trial"",""time""
""blur"",""1"",""4344""
","""event"",""trial"",""time""
""focus"",""1"",""8322""
","""event"",""trial"",""time""
""fullscreenenter"",""1"",""49960""
","
","","4403.60000000149","We are now going to ask you some questions about how the game works.","66","","instructions","2021-07-19 04:24:19.195","","","","","",""
"casino-keyboard-response","59","323441","0.0-19.0-0.3","A1379","false","img/card_backs/set1/red.gif","img/card_backs/set1/purple.gif","img/card_backs/set1/yellow.gif","img/card_backs/set1/green.gif","img/card_backs/set2/blue.gif","img/card_backs/set2/orange.gif","img/card_backs/set2/pink.gif","img/card_backs/set2/gray.gif","""event"",""trial"",""time""
""blur"",""1"",""4344""
""focus"",""1"",""8322""
""fullscreenenter"",""1"",""49960""
","""event"",""trial"",""time""
""blur"",""1"",""4344""
","""event"",""trial"",""time""
""focus"",""1"",""8322""
","""event"",""trial"",""time""
""fullscreenenter"",""1"",""49960""
","
","","6332","Answer carefully. You will not be able to begin the game until you answer them correctly.","67","","instructions","2021-07-19 04:24:25.531","","","","","",""
"casino-comp_q","60","328738","0.0-20.0-0.0","A1379","false","img/card_backs/set1/red.gif","img/card_backs/set1/purple.gif","img/card_backs/set1/yellow.gif","img/card_backs/set1/green.gif","img/card_backs/set2/blue.gif","img/card_backs/set2/orange.gif","img/card_backs/set2/pink.gif","img/card_backs/set2/gray.gif","""event"",""trial"",""time""
""blur"",""1"",""4344""
""focus"",""1"",""8322""
""fullscreenenter"",""1"",""49960""
","""event"",""trial"",""time""
""blur"",""1"",""4344""
","""event"",""trial"",""time""
""focus"",""1"",""8322""
","""event"",""trial"",""time""
""fullscreenenter"",""1"",""49960""
","
","","5293.5","True or False: All the decks have some cards that cause you to win tokens and some cards that cause you to lose tokens.","84","","","2021-07-19 04:24:30.828","","","","","",""
"casino-keyboard-response","61","331678","0.0-20.0-1.0","A1379","false","img/card_backs/set1/red.gif","img/card_backs/set1/purple.gif","img/card_backs/set1/yellow.gif","img/card_backs/set1/green.gif","img/card_backs/set2/blue.gif","img/card_backs/set2/orange.gif","img/card_backs/set2/pink.gif","img/card_backs/set2/gray.gif","""event"",""trial"",""time""
""blur"",""1"",""4344""
""focus"",""1"",""8322""
""fullscreenenter"",""1"",""49960""
","""event"",""trial"",""time""
""blur"",""1"",""4344""
","""event"",""trial"",""time""
""focus"",""1"",""8322""
","""event"",""trial"",""time""
""fullscreenenter"",""1"",""49960""
","
","","2937.89999999851","True is correct! All the decks have a mix of winning and losing cards.","77","","","2021-07-19 04:24:33.769","","","","","true",""
"casino-comp_q","62","335015","0.0-21.0-0.0","A1379","false","img/card_backs/set1/red.gif","img/card_backs/set1/purple.gif","img/card_backs/set1/yellow.gif","img/card_backs/set1/green.gif","img/card_backs/set2/blue.gif","img/card_backs/set2/orange.gif","img/card_backs/set2/pink.gif","img/card_backs/set2/gray.gif","""event"",""trial"",""time""
""blur"",""1"",""4344""
""focus"",""1"",""8322""
""fullscreenenter"",""1"",""49960""
","""event"",""trial"",""time""
""blur"",""1"",""4344""
","""event"",""trial"",""time""
""focus"",""1"",""8322""
","""event"",""trial"",""time""
""fullscreenenter"",""1"",""49960""
","
","","3333.7000000029802","True or False: You will have as much time as you want to make your response.","70","","","2021-07-19 04:24:37.105","","","","","",""
"casino-keyboard-response","63","337879","0.0-21.0-1.0","A1379","false","img/card_backs/set1/red.gif","img/card_backs/set1/purple.gif","img/card_backs/set1/yellow.gif","img/card_backs/set1/green.gif","img/card_backs/set2/blue.gif","img/card_backs/set2/orange.gif","img/card_backs/set2/pink.gif","img/card_backs/set2/gray.gif","""event"",""trial"",""time""
""blur"",""1"",""4344""
""focus"",""1"",""8322""
""fullscreenenter"",""1"",""49960""
","""event"",""trial"",""time""
""blur"",""1"",""4344""
","""event"",""trial"",""time""
""focus"",""1"",""8322""
","""event"",""trial"",""time""
""fullscreenenter"",""1"",""49960""
","
","","2862.5","False is correct! You will only have 10 seconds to make each choice.","75","","","2021-07-19 04:24:39.970","","","","","true",""
"casino-comp_q","64","341658","0.0-22.0-0.0","A1379","false","img/card_backs/set1/red.gif","img/card_backs/set1/purple.gif","img/card_backs/set1/yellow.gif","img/card_backs/set1/green.gif","img/card_backs/set2/blue.gif","img/card_backs/set2/orange.gif","img/card_backs/set2/pink.gif","img/card_backs/set2/gray.gif","""event"",""trial"",""time""
""blur"",""1"",""4344""
""focus"",""1"",""8322""
""fullscreenenter"",""1"",""49960""
","""event"",""trial"",""time""
""blur"",""1"",""4344""
","""event"",""trial"",""time""
""focus"",""1"",""8322""
","""event"",""trial"",""time""
""fullscreenenter"",""1"",""49960""
","
","","3776.3000000044703","True or False: The location of the deck determines how lucky it is.","70","","","2021-07-19 04:24:43.748","","","","","",""
"casino-keyboard-response","65","344811","0.0-22.0-1.0","A1379","false","img/card_backs/set1/red.gif","img/card_backs/set1/purple.gif","img/card_backs/set1/yellow.gif","img/card_backs/set1/green.gif","img/card_backs/set2/blue.gif","img/card_backs/set2/orange.gif","img/card_backs/set2/pink.gif","img/card_backs/set2/gray.gif","""event"",""trial"",""time""
""blur"",""1"",""4344""
""focus"",""1"",""8322""
""fullscreenenter"",""1"",""49960""
","""event"",""trial"",""time""
""blur"",""1"",""4344""
","""event"",""trial"",""time""
""focus"",""1"",""8322""
","""event"",""trial"",""time""
""fullscreenenter"",""1"",""49960""
","
","","3150","False is correct! The <i>color</i>  of the deck determines how lucky or unlucky it is.","68","","","2021-07-19 04:24:46.901","","","","","true",""
"casino-keyboard-response","66","349099","0.0-23.0-0.0","A1379","false","img/card_backs/set1/red.gif","img/card_backs/set1/purple.gif","img/card_backs/set1/yellow.gif","img/card_backs/set1/green.gif","img/card_backs/set2/blue.gif","img/card_backs/set2/orange.gif","img/card_backs/set2/pink.gif","img/card_backs/set2/gray.gif","""event"",""trial"",""time""
""blur"",""1"",""4344""
""focus"",""1"",""8322""
""fullscreenenter"",""1"",""49960""
","""event"",""trial"",""time""
""blur"",""1"",""4344""
","""event"",""trial"",""time""
""focus"",""1"",""8322""
","""event"",""trial"",""time""
""fullscreenenter"",""1"",""49960""
","
","","4285.89999999851","Great job! Now it's time to start the real game.","82","","instructions","2021-07-19 04:24:51.189","","","","","",""
"casino-keyboard-response","67","354130","0.0-23.0-0.1","A1379","false","img/card_backs/set1/red.gif","img/card_backs/set1/purple.gif","img/card_backs/set1/yellow.gif","img/card_backs/set1/green.gif","img/card_backs/set2/blue.gif","img/card_backs/set2/orange.gif","img/card_backs/set2/pink.gif","img/card_backs/set2/gray.gif","""event"",""trial"",""time""
""blur"",""1"",""4344""
""focus"",""1"",""8322""
""fullscreenenter"",""1"",""49960""
","""event"",""trial"",""time""
""blur"",""1"",""4344""
","""event"",""trial"",""time""
""focus"",""1"",""8322""
","""event"",""trial"",""time""
""fullscreenenter"",""1"",""49960""
","
","","5028.30000000447","Before we start, we're going to head into a new room of the casino.","86","","instructions","2021-07-19 04:24:56.220","","","","","",""
"casino-keyboard-response","68","360083","0.0-24.0-0.0","A1379","false","img/card_backs/set1/red.gif","img/card_backs/set1/purple.gif","img/card_backs/set1/yellow.gif","img/card_backs/set1/green.gif","img/card_backs/set2/blue.gif","img/card_backs/set2/orange.gif","img/card_backs/set2/pink.gif","img/card_backs/set2/gray.gif","""event"",""trial"",""time""
""blur"",""1"",""4344""
""focus"",""1"",""8322""
""fullscreenenter"",""1"",""49960""
","""event"",""trial"",""time""
""blur"",""1"",""4344""
","""event"",""trial"",""time""
""focus"",""1"",""8322""
","""event"",""trial"",""time""
""fullscreenenter"",""1"",""49960""
","
","","5950.10000000149","Here we are! The real game will use different cards, but the rules will be the same.","71","","instructions","2021-07-19 04:25:02.173","","","","","",""
"casino-keyboard-response","69","361912","0.0-24.0-0.1","A1379","false","img/card_backs/set1/red.gif","img/card_backs/set1/purple.gif","img/card_backs/set1/yellow.gif","img/card_backs/set1/green.gif","img/card_backs/set2/blue.gif","img/card_backs/set2/orange.gif","img/card_backs/set2/pink.gif","img/card_backs/set2/gray.gif","""event"",""trial"",""time""
""blur"",""1"",""4344""
""focus"",""1"",""8322""
""fullscreenenter"",""1"",""49960""
","""event"",""trial"",""time""
""blur"",""1"",""4344""
","""event"",""trial"",""time""
""focus"",""1"",""8322""
","""event"",""trial"",""time""
""fullscreenenter"",""1"",""49960""
","
","","1826.7000000029802","Ready? Put your fingers over the '2', '4', 6', and '8' keys so you are ready to play the game. </br> Then press 2 to start.","50","","instructions","2021-07-19 04:25:04.002","","","","","",""
"casino-fixation","70","362414","0.0-25.0-0.0","A1379","false","img/card_backs/set1/red.gif","img/card_backs/set1/purple.gif","img/card_backs/set1/yellow.gif","img/card_backs/set1/green.gif","img/card_backs/set2/blue.gif","img/card_backs/set2/orange.gif","img/card_backs/set2/pink.gif","img/card_backs/set2/gray.gif","""event"",""trial"",""time""
""blur"",""1"",""4344""
""focus"",""1"",""8322""
""fullscreenenter"",""1"",""49960""
","""event"",""trial"",""time""
""blur"",""1"",""4344""
","""event"",""trial"",""time""
""focus"",""1"",""8322""
","""event"",""trial"",""time""
""fullscreenenter"",""1"",""49960""
","
","","null","","null","","fixation","2021-07-19 04:25:04.504","","","","","",""
"card-selection-trial","71","365566","0.0-25.0-1.0","A1379","false","img/card_backs/set1/red.gif","img/card_backs/set1/purple.gif","img/card_backs/set1/yellow.gif","img/card_backs/set1/green.gif","img/card_backs/set2/blue.gif","img/card_backs/set2/orange.gif","img/card_backs/set2/pink.gif","img/card_backs/set2/gray.gif","""event"",""trial"",""time""
""blur"",""1"",""4344""
""focus"",""1"",""8322""
""fullscreenenter"",""1"",""49960""
","""event"",""trial"",""time""
""blur"",""1"",""4344""
","""event"",""trial"",""time""
""focus"",""1"",""8322""
","""event"",""trial"",""time""
""fullscreenenter"",""1"",""49960""
","
","","1138.6000000014901","","","","real_trial","2021-07-19 04:25:07.656","img/card_backs/set1/purple.gif","0","190","1","",""
"casino-fixation","72","366074","0.0-25.0-0.1","A1379","false","img/card_backs/set1/red.gif","img/card_backs/set1/purple.gif","img/card_backs/set1/yellow.gif","img/card_backs/set1/green.gif","img/card_backs/set2/blue.gif","img/card_backs/set2/orange.gif","img/card_backs/set2/pink.gif","img/card_backs/set2/gray.gif","""event"",""trial"",""time""
""blur"",""1"",""4344""
""focus"",""1"",""8322""
""fullscreenenter"",""1"",""49960""
","""event"",""trial"",""time""
""blur"",""1"",""4344""
","""event"",""trial"",""time""
""focus"",""1"",""8322""
","""event"",""trial"",""time""
""fullscreenenter"",""1"",""49960""
","
","","null","","null","","fixation","2021-07-19 04:25:08.164","","","","","",""
"card-selection-trial","73","369790","0.0-25.0-1.1","A1379","false","img/card_backs/set1/red.gif","img/card_backs/set1/purple.gif","img/card_backs/set1/yellow.gif","img/card_backs/set1/green.gif","img/card_backs/set2/blue.gif","img/card_backs/set2/orange.gif","img/card_backs/set2/pink.gif","img/card_backs/set2/gray.gif","""event"",""trial"",""time""
""blur"",""1"",""4344""
""focus"",""1"",""8322""
""fullscreenenter"",""1"",""49960""
","""event"",""trial"",""time""
""blur"",""1"",""4344""
","""event"",""trial"",""time""
""focus"",""1"",""8322""
","""event"",""trial"",""time""
""fullscreenenter"",""1"",""49960""
","
","","1707.4000000059605","","","","real_trial","2021-07-19 04:25:11.880","img/card_backs/set1/red.gif","1","-250","1","",""
"casino-fixation","74","370295","0.0-25.0-0.2","A1379","false","img/card_backs/set1/red.gif","img/card_backs/set1/purple.gif","img/card_backs/set1/yellow.gif","img/card_backs/set1/green.gif","img/card_backs/set2/blue.gif","img/card_backs/set2/orange.gif","img/card_backs/set2/pink.gif","img/card_backs/set2/gray.gif","""event"",""trial"",""time""
""blur"",""1"",""4344""
""focus"",""1"",""8322""
""fullscreenenter"",""1"",""49960""
","""event"",""trial"",""time""
""blur"",""1"",""4344""
","""event"",""trial"",""time""
""focus"",""1"",""8322""
","""event"",""trial"",""time""
""fullscreenenter"",""1"",""49960""
","
","","null","","null","","fixation","2021-07-19 04:25:12.385","","","","","",""
"card-selection-trial","75","374316","0.0-25.0-1.2","A1379","false","img/card_backs/set1/red.gif","img/card_backs/set1/purple.gif","img/card_backs/set1/yellow.gif","img/card_backs/set1/green.gif","img/card_backs/set2/blue.gif","img/card_backs/set2/orange.gif","img/card_backs/set2/pink.gif","img/card_backs/set2/gray.gif","""event"",""trial"",""time""
""blur"",""1"",""4344""
""focus"",""1"",""8322""
""fullscreenenter"",""1"",""49960""
","""event"",""trial"",""time""
""blur"",""1"",""4344""
","""event"",""trial"",""time""
""focus"",""1"",""8322""
","""event"",""trial"",""time""
""fullscreenenter"",""1"",""49960""
","
","","2011","","","","real_trial","2021-07-19 04:25:16.406","img/card_backs/set1/yellow.gif","0","100","1","",""
"casino-fixation","76","374821","0.0-25.0-0.3","A1379","false","img/card_backs/set1/red.gif","img/card_backs/set1/purple.gif","img/card_backs/set1/yellow.gif","img/card_backs/set1/green.gif","img/card_backs/set2/blue.gif","img/card_backs/set2/orange.gif","img/card_backs/set2/pink.gif","img/card_backs/set2/gray.gif","""event"",""trial"",""time""
""blur"",""1"",""4344""
""focus"",""1"",""8322""
""fullscreenenter"",""1"",""49960""
","""event"",""trial"",""time""
""blur"",""1"",""4344""
","""event"",""trial"",""time""
""focus"",""1"",""8322""
","""event"",""trial"",""time""
""fullscreenenter"",""1"",""49960""
","
","","null","","null","","fixation","2021-07-19 04:25:16.911","","","","","",""
"card-selection-trial","77","377979","0.0-25.0-1.3","A1379","false","img/card_backs/set1/red.gif","img/card_backs/set1/purple.gif","img/card_backs/set1/yellow.gif","img/card_backs/set1/green.gif","img/card_backs/set2/blue.gif","img/card_backs/set2/orange.gif","img/card_backs/set2/pink.gif","img/card_backs/set2/gray.gif","""event"",""trial"",""time""
""blur"",""1"",""4344""
""focus"",""1"",""8322""
""fullscreenenter"",""1"",""49960""
","""event"",""trial"",""time""
""blur"",""1"",""4344""
","""event"",""trial"",""time""
""focus"",""1"",""8322""
","""event"",""trial"",""time""
""fullscreenenter"",""1"",""49960""
","
","","1149.3999999985099","","","","real_trial","2021-07-19 04:25:20.070","img/card_backs/set1/green.gif","3","120","1","",""
"casino-fixation","78","378487","0.0-25.0-0.4","A1379","false","img/card_backs/set1/red.gif","img/card_backs/set1/purple.gif","img/card_backs/set1/yellow.gif","img/card_backs/set1/green.gif","img/card_backs/set2/blue.gif","img/card_backs/set2/orange.gif","img/card_backs/set2/pink.gif","img/card_backs/set2/gray.gif","""event"",""trial"",""time""
""blur"",""1"",""4344""
""focus"",""1"",""8322""
""fullscreenenter"",""1"",""49960""
","""event"",""trial"",""time""
""blur"",""1"",""4344""
","""event"",""trial"",""time""
""focus"",""1"",""8322""
","""event"",""trial"",""time""
""fullscreenenter"",""1"",""49960""
","
","","null","","null","","fixation","2021-07-19 04:25:20.577","","","","","",""
"card-selection-trial","79","381346","0.0-25.0-1.4","A1379","false","img/card_backs/set1/red.gif","img/card_backs/set1/purple.gif","img/card_backs/set1/yellow.gif","img/card_backs/set1/green.gif","img/card_backs/set2/blue.gif","img/card_backs/set2/orange.gif","img/card_backs/set2/pink.gif","img/card_backs/set2/gray.gif","""event"",""trial"",""time""
""blur"",""1"",""4344""
""focus"",""1"",""8322""
""fullscreenenter"",""1"",""49960""
","""event"",""trial"",""time""
""blur"",""1"",""4344""
","""event"",""trial"",""time""
""focus"",""1"",""8322""
","""event"",""trial"",""time""
""fullscreenenter"",""1"",""49960""
","
","","848.8999999985099","","","","real_trial","2021-07-19 04:25:23.436","img/card_backs/set1/purple.gif","2","-250","1","",""
"casino-fixation","80","381854","0.0-25.0-0.5","A1379","false","img/card_backs/set1/red.gif","img/card_backs/set1/purple.gif","img/card_backs/set1/yellow.gif","img/card_backs/set1/green.gif","img/card_backs/set2/blue.gif","img/card_backs/set2/orange.gif","img/card_backs/set2/pink.gif","img/card_backs/set2/gray.gif","""event"",""trial"",""time""
""blur"",""1"",""4344""
""focus"",""1"",""8322""
""fullscreenenter"",""1"",""49960""
","""event"",""trial"",""time""
""blur"",""1"",""4344""
","""event"",""trial"",""time""
""focus"",""1"",""8322""
","""event"",""trial"",""time""
""fullscreenenter"",""1"",""49960""
","
","","null","","null","","fixation","2021-07-19 04:25:23.944","","","","","",""
"card-selection-trial","81","385783","0.0-25.0-1.5","A1379","false","img/card_backs/set1/red.gif","img/card_backs/set1/purple.gif","img/card_backs/set1/yellow.gif","img/card_backs/set1/green.gif","img/card_backs/set2/blue.gif","img/card_backs/set2/orange.gif","img/card_backs/set2/pink.gif","img/card_backs/set2/gray.gif","""event"",""trial"",""time""
""blur"",""1"",""4344""
""focus"",""1"",""8322""
""fullscreenenter"",""1"",""49960""
","""event"",""trial"",""time""
""blur"",""1"",""4344""
","""event"",""trial"",""time""
""focus"",""1"",""8322""
","""event"",""trial"",""time""
""fullscreenenter"",""1"",""49960""
","
","","1916.6000000014901","","","","real_trial","2021-07-19 04:25:27.873","img/card_backs/set1/green.gif","3","-70","1","",""
"casino-fixation","82","386290","0.0-25.0-0.6","A1379","false","img/card_backs/set1/red.gif","img/card_backs/set1/purple.gif","img/card_backs/set1/yellow.gif","img/card_backs/set1/green.gif","img/card_backs/set2/blue.gif","img/card_backs/set2/orange.gif","img/card_backs/set2/pink.gif","img/card_backs/set2/gray.gif","""event"",""trial"",""time""
""blur"",""1"",""4344""
""focus"",""1"",""8322""
""fullscreenenter"",""1"",""49960""
","""event"",""trial"",""time""
""blur"",""1"",""4344""
","""event"",""trial"",""time""
""focus"",""1"",""8322""
","""event"",""trial"",""time""
""fullscreenenter"",""1"",""49960""
","
","","null","","null","","fixation","2021-07-19 04:25:28.380","","","","","",""
"card-selection-trial","83","391757","0.0-25.0-1.6","A1379","false","img/card_backs/set1/red.gif","img/card_backs/set1/purple.gif","img/card_backs/set1/yellow.gif","img/card_backs/set1/green.gif","img/card_backs/set2/blue.gif","img/card_backs/set2/orange.gif","img/card_backs/set2/pink.gif","img/card_backs/set2/gray.gif","""event"",""trial"",""time""
""blur"",""1"",""4344""
""focus"",""1"",""8322""
""fullscreenenter"",""1"",""49960""
","""event"",""trial"",""time""
""blur"",""1"",""4344""
","""event"",""trial"",""time""
""focus"",""1"",""8322""
","""event"",""trial"",""time""
""fullscreenenter"",""1"",""49960""
","
","","3454.4000000059605","","","","real_trial","2021-07-19 04:25:33.847","img/card_backs/set1/yellow.gif","3","110","1","",""
"casino-fixation","84","392263","0.0-25.0-0.7","A1379","false","img/card_backs/set1/red.gif","img/card_backs/set1/purple.gif","img/card_backs/set1/yellow.gif","img/card_backs/set1/green.gif","img/card_backs/set2/blue.gif","img/card_backs/set2/orange.gif","img/card_backs/set2/pink.gif","img/card_backs/set2/gray.gif","""event"",""trial"",""time""
""blur"",""1"",""4344""
""focus"",""1"",""8322""
""fullscreenenter"",""1"",""49960""
","""event"",""trial"",""time""
""blur"",""1"",""4344""
","""event"",""trial"",""time""
""focus"",""1"",""8322""
","""event"",""trial"",""time""
""fullscreenenter"",""1"",""49960""
","
","","null","","null","","fixation","2021-07-19 04:25:34.353","","","","","",""
"card-selection-trial","85","395328","0.0-25.0-1.7","A1379","false","img/card_backs/set1/red.gif","img/card_backs/set1/purple.gif","img/card_backs/set1/yellow.gif","img/card_backs/set1/green.gif","img/card_backs/set2/blue.gif","img/card_backs/set2/orange.gif","img/card_backs/set2/pink.gif","img/card_backs/set2/gray.gif","""event"",""trial"",""time""
""blur"",""1"",""4344""
""focus"",""1"",""8322""
""fullscreenenter"",""1"",""49960""
","""event"",""trial"",""time""
""blur"",""1"",""4344""
","""event"",""trial"",""time""
""focus"",""1"",""8322""
","""event"",""trial"",""time""
""fullscreenenter"",""1"",""49960""
","
","","1051.3999999985099","","","","real_trial","2021-07-19 04:25:37.418","img/card_backs/set1/yellow.gif","1","100","1","",""
"casino-fixation","86","395833","0.0-25.0-0.8","A1379","false","img/card_backs/set1/red.gif","img/card_backs/set1/purple.gif","img/card_backs/set1/yellow.gif","img/card_backs/set1/green.gif","img/card_backs/set2/blue.gif","img/card_backs/set2/orange.gif","img/card_backs/set2/pink.gif","img/card_backs/set2/gray.gif","""event"",""trial"",""time""
""blur"",""1"",""4344""
""focus"",""1"",""8322""
""fullscreenenter"",""1"",""49960""
","""event"",""trial"",""time""
""blur"",""1"",""4344""
","""event"",""trial"",""time""
""focus"",""1"",""8322""
","""event"",""trial"",""time""
""fullscreenenter"",""1"",""49960""
","
","","null","","null","","fixation","2021-07-19 04:25:37.923","","","","","",""
"card-selection-trial","87","398863","0.0-25.0-1.8","A1379","false","img/card_backs/set1/red.gif","img/card_backs/set1/purple.gif","img/card_backs/set1/yellow.gif","img/card_backs/set1/green.gif","img/card_backs/set2/blue.gif","img/card_backs/set2/orange.gif","img/card_backs/set2/pink.gif","img/card_backs/set2/gray.gif","""event"",""trial"",""time""
""blur"",""1"",""4344""
""focus"",""1"",""8322""
""fullscreenenter"",""1"",""49960""
","""event"",""trial"",""time""
""blur"",""1"",""4344""
","""event"",""trial"",""time""
""focus"",""1"",""8322""
","""event"",""trial"",""time""
""fullscreenenter"",""1"",""49960""
","
","","1020.1999999955297","","","","real_trial","2021-07-19 04:25:40.953","img/card_backs/set1/yellow.gif","2","-60","1","",""
"casino-fixation","88","399368","0.0-25.0-0.9","A1379","false","img/card_backs/set1/red.gif","img/card_backs/set1/purple.gif","img/card_backs/set1/yellow.gif","img/card_backs/set1/green.gif","img/card_backs/set2/blue.gif","img/card_backs/set2/orange.gif","img/card_backs/set2/pink.gif","img/card_backs/set2/gray.gif","""event"",""trial"",""time""
""blur"",""1"",""4344""
""focus"",""1"",""8322""
""fullscreenenter"",""1"",""49960""
","""event"",""trial"",""time""
""blur"",""1"",""4344""
","""event"",""trial"",""time""
""focus"",""1"",""8322""
","""event"",""trial"",""time""
""fullscreenenter"",""1"",""49960""
","
","","null","","null","","fixation","2021-07-19 04:25:41.458","","","","","",""
"card-selection-trial","89","402451","0.0-25.0-1.9","A1379","false","img/card_backs/set1/red.gif","img/card_backs/set1/purple.gif","img/card_backs/set1/yellow.gif","img/card_backs/set1/green.gif","img/card_backs/set2/blue.gif","img/card_backs/set2/orange.gif","img/card_backs/set2/pink.gif","img/card_backs/set2/gray.gif","""event"",""trial"",""time""
""blur"",""1"",""4344""
""focus"",""1"",""8322""
""fullscreenenter"",""1"",""49960""
","""event"",""trial"",""time""
""blur"",""1"",""4344""
","""event"",""trial"",""time""
""focus"",""1"",""8322""
","""event"",""trial"",""time""
""fullscreenenter"",""1"",""49960""
","
","","1071.5","","","","real_trial","2021-07-19 04:25:44.541","img/card_backs/set1/yellow.gif","1","110","1","",""
"casino-fixation","90","402957","0.0-25.0-0.10","A1379","false","img/card_backs/set1/red.gif","img/card_backs/set1/purple.gif","img/card_backs/set1/yellow.gif","img/card_backs/set1/green.gif","img/card_backs/set2/blue.gif","img/card_backs/set2/orange.gif","img/card_backs/set2/pink.gif","img/card_backs/set2/gray.gif","""event"",""trial"",""time""
""blur"",""1"",""4344""
""focus"",""1"",""8322""
""fullscreenenter"",""1"",""49960""
","""event"",""trial"",""time""
""blur"",""1"",""4344""
","""event"",""trial"",""time""
""focus"",""1"",""8322""
","""event"",""trial"",""time""
""fullscreenenter"",""1"",""49960""
","
","","null","","null","","fixation","2021-07-19 04:25:45.047","","","","","",""
"card-selection-trial","91","406392","0.0-25.0-1.10","A1379","false","img/card_backs/set1/red.gif","img/card_backs/set1/purple.gif","img/card_backs/set1/yellow.gif","img/card_backs/set1/green.gif","img/card_backs/set2/blue.gif","img/card_backs/set2/orange.gif","img/card_backs/set2/pink.gif","img/card_backs/set2/gray.gif","""event"",""trial"",""time""
""blur"",""1"",""4344""
""focus"",""1"",""8322""
""fullscreenenter"",""1"",""49960""
","""event"",""trial"",""time""
""blur"",""1"",""4344""
","""event"",""trial"",""time""
""focus"",""1"",""8322""
","""event"",""trial"",""time""
""fullscreenenter"",""1"",""49960""
","
","","1423.7999999970198","","","","real_trial","2021-07-19 04:25:48.482","img/card_backs/set1/purple.gif","2","180","1","",""
"casino-fixation","92","406897","0.0-25.0-0.11","A1379","false","img/card_backs/set1/red.gif","img/card_backs/set1/purple.gif","img/card_backs/set1/yellow.gif","img/card_backs/set1/green.gif","img/card_backs/set2/blue.gif","img/card_backs/set2/orange.gif","img/card_backs/set2/pink.gif","img/card_backs/set2/gray.gif","""event"",""trial"",""time""
""blur"",""1"",""4344""
""focus"",""1"",""8322""
""fullscreenenter"",""1"",""49960""
","""event"",""trial"",""time""
""blur"",""1"",""4344""
","""event"",""trial"",""time""
""focus"",""1"",""8322""
","""event"",""trial"",""time""
""fullscreenenter"",""1"",""49960""
","
","","null","","null","","fixation","2021-07-19 04:25:48.987","","","","","",""
"card-selection-trial","93","410595","0.0-25.0-1.11","A1379","false","img/card_backs/set1/red.gif","img/card_backs/set1/purple.gif","img/card_backs/set1/yellow.gif","img/card_backs/set1/green.gif","img/card_backs/set2/blue.gif","img/card_backs/set2/orange.gif","img/card_backs/set2/pink.gif","img/card_backs/set2/gray.gif","""event"",""trial"",""time""
""blur"",""1"",""4344""
""focus"",""1"",""8322""
""fullscreenenter"",""1"",""49960""
","""event"",""trial"",""time""
""blur"",""1"",""4344""
","""event"",""trial"",""time""
""focus"",""1"",""8322""
","""event"",""trial"",""time""
""fullscreenenter"",""1"",""49960""
","
","","1685.7000000029802","","","","real_trial","2021-07-19 04:25:52.685","img/card_backs/set1/yellow.gif","0","100","1","",""
"casino-fixation","94","411100","0.0-25.0-0.12","A1379","false","img/card_backs/set1/red.gif","img/card_backs/set1/purple.gif","img/card_backs/set1/yellow.gif","img/card_backs/set1/green.gif","img/card_backs/set2/blue.gif","img/card_backs/set2/orange.gif","img/card_backs/set2/pink.gif","img/card_backs/set2/gray.gif","""event"",""trial"",""time""
""blur"",""1"",""4344""
""focus"",""1"",""8322""
""fullscreenenter"",""1"",""49960""
","""event"",""trial"",""time""
""blur"",""1"",""4344""
","""event"",""trial"",""time""
""focus"",""1"",""8322""
","""event"",""trial"",""time""
""fullscreenenter"",""1"",""49960""
","
","","null","","null","","fixation","2021-07-19 04:25:53.190","","","","","",""
"card-selection-trial","95","414995","0.0-25.0-1.12","A1379","false","img/card_backs/set1/red.gif","img/card_backs/set1/purple.gif","img/card_backs/set1/yellow.gif","img/card_backs/set1/green.gif","img/card_backs/set2/blue.gif","img/card_backs/set2/orange.gif","img/card_backs/set2/pink.gif","img/card_backs/set2/gray.gif","""event"",""trial"",""time""
""blur"",""1"",""4344""
""focus"",""1"",""8322""
""fullscreenenter"",""1"",""49960""
","""event"",""trial"",""time""
""blur"",""1"",""4344""
","""event"",""trial"",""time""
""focus"",""1"",""8322""
","""event"",""trial"",""time""
""fullscreenenter"",""1"",""49960""
","
","","1883.1999999955297","","","","real_trial","2021-07-19 04:25:57.086","img/card_backs/set1/purple.gif","0","-230","1","",""
"casino-fixation","96","415500","0.0-25.0-0.13","A1379","false","img/card_backs/set1/red.gif","img/card_backs/set1/purple.gif","img/card_backs/set1/yellow.gif","img/card_backs/set1/green.gif","img/card_backs/set2/blue.gif","img/card_backs/set2/orange.gif","img/card_backs/set2/pink.gif","img/card_backs/set2/gray.gif","""event"",""trial"",""time""
""blur"",""1"",""4344""
""focus"",""1"",""8322""
""fullscreenenter"",""1"",""49960""
","""event"",""trial"",""time""
""blur"",""1"",""4344""
","""event"",""trial"",""time""
""focus"",""1"",""8322""
","""event"",""trial"",""time""
""fullscreenenter"",""1"",""49960""
","
","","null","","null","","fixation","2021-07-19 04:25:57.590","","","","","",""
"card-selection-trial","97","418188","0.0-25.0-1.13","A1379","false","img/card_backs/set1/red.gif","img/card_backs/set1/purple.gif","img/card_backs/set1/yellow.gif","img/card_backs/set1/green.gif","img/card_backs/set2/blue.gif","img/card_backs/set2/orange.gif","img/card_backs/set2/pink.gif","img/card_backs/set2/gray.gif","""event"",""trial"",""time""
""blur"",""1"",""4344""
""focus"",""1"",""8322""
""fullscreenenter"",""1"",""49960""
","""event"",""trial"",""time""
""blur"",""1"",""4344""
","""event"",""trial"",""time""
""focus"",""1"",""8322""
","""event"",""trial"",""time""
""fullscreenenter"",""1"",""49960""
","
","","678","","","","real_trial","2021-07-19 04:26:00.278","img/card_backs/set1/yellow.gif","0","-60","1","",""
"casino-fixation","98","418693","0.0-25.0-0.14","A1379","false","img/card_backs/set1/red.gif","img/card_backs/set1/purple.gif","img/card_backs/set1/yellow.gif","img/card_backs/set1/green.gif","img/card_backs/set2/blue.gif","img/card_backs/set2/orange.gif","img/card_backs/set2/pink.gif","img/card_backs/set2/gray.gif","""event"",""trial"",""time""
""blur"",""1"",""4344""
""focus"",""1"",""8322""
""fullscreenenter"",""1"",""49960""
","""event"",""trial"",""time""
""blur"",""1"",""4344""
","""event"",""trial"",""time""
""focus"",""1"",""8322""
","""event"",""trial"",""time""
""fullscreenenter"",""1"",""49960""
","
","","null","","null","","fixation","2021-07-19 04:26:00.783","","","","","",""
"card-selection-trial","99","421096","0.0-25.0-1.14","A1379","false","img/card_backs/set1/red.gif","img/card_backs/set1/purple.gif","img/card_backs/set1/yellow.gif","img/card_backs/set1/green.gif","img/card_backs/set2/blue.gif","img/card_backs/set2/orange.gif","img/card_backs/set2/pink.gif","img/card_backs/set2/gray.gif","""event"",""trial"",""time""
""blur"",""1"",""4344""
""focus"",""1"",""8322""
""fullscreenenter"",""1"",""49960""
","""event"",""trial"",""time""
""blur"",""1"",""4344""
","""event"",""trial"",""time""
""focus"",""1"",""8322""
","""event"",""trial"",""time""
""fullscreenenter"",""1"",""49960""
","
","","394.79999999701977","","","","real_trial","2021-07-19 04:26:03.186","img/card_backs/set1/purple.gif","2","-240","1","",""
"casino-fixation","100","421601","0.0-25.0-0.15","A1379","false","img/card_backs/set1/red.gif","img/card_backs/set1/purple.gif","img/card_backs/set1/yellow.gif","img/card_backs/set1/green.gif","img/card_backs/set2/blue.gif","img/card_backs/set2/orange.gif","img/card_backs/set2/pink.gif","img/card_backs/set2/gray.gif","""event"",""trial"",""time""
""blur"",""1"",""4344""
""focus"",""1"",""8322""
""fullscreenenter"",""1"",""49960""
","""event"",""trial"",""time""
""blur"",""1"",""4344""
","""event"",""trial"",""time""
""focus"",""1"",""8322""
","""event"",""trial"",""time""
""fullscreenenter"",""1"",""49960""
","
","","null","","null","","fixation","2021-07-19 04:26:03.691","","","","","",""
"card-selection-trial","101","424057","0.0-25.0-1.15","A1379","false","img/card_backs/set1/red.gif","img/card_backs/set1/purple.gif","img/card_backs/set1/yellow.gif","img/card_backs/set1/green.gif","img/card_backs/set2/blue.gif","img/card_backs/set2/orange.gif","img/card_backs/set2/pink.gif","img/card_backs/set2/gray.gif","""event"",""trial"",""time""
""blur"",""1"",""4344""
""focus"",""1"",""8322""
""fullscreenenter"",""1"",""49960""
","""event"",""trial"",""time""
""blur"",""1"",""4344""
","""event"",""trial"",""time""
""focus"",""1"",""8322""
","""event"",""trial"",""time""
""fullscreenenter"",""1"",""49960""
","
","","444.29999999701977","","","","real_trial","2021-07-19 04:26:06.147","img/card_backs/set1/yellow.gif","0","-60","1","",""
"casino-fixation","102","424561","0.0-25.0-0.16","A1379","false","img/card_backs/set1/red.gif","img/card_backs/set1/purple.gif","img/card_backs/set1/yellow.gif","img/card_backs/set1/green.gif","img/card_backs/set2/blue.gif","img/card_backs/set2/orange.gif","img/card_backs/set2/pink.gif","img/card_backs/set2/gray.gif","""event"",""trial"",""time""
""blur"",""1"",""4344""
""focus"",""1"",""8322""
""fullscreenenter"",""1"",""49960""
","""event"",""trial"",""time""
""blur"",""1"",""4344""
","""event"",""trial"",""time""
""focus"",""1"",""8322""
","""event"",""trial"",""time""
""fullscreenenter"",""1"",""49960""
","
","","null","","null","","fixation","2021-07-19 04:26:06.651","","","","","",""
"card-selection-trial","103","427546","0.0-25.0-1.16","A1379","false","img/card_backs/set1/red.gif","img/card_backs/set1/purple.gif","img/card_backs/set1/yellow.gif","img/card_backs/set1/green.gif","img/card_backs/set2/blue.gif","img/card_backs/set2/orange.gif","img/card_backs/set2/pink.gif","img/card_backs/set2/gray.gif","""event"",""trial"",""time""
""blur"",""1"",""4344""
""focus"",""1"",""8322""
""fullscreenenter"",""1"",""49960""
","""event"",""trial"",""time""
""blur"",""1"",""4344""
","""event"",""trial"",""time""
""focus"",""1"",""8322""
","""event"",""trial"",""time""
""fullscreenenter"",""1"",""49960""
","
","","971.7000000029802","","","","real_trial","2021-07-19 04:26:09.636","img/card_backs/set1/red.gif","0","-250","1","",""
"casino-fixation","104","428050","0.0-25.0-0.17","A1379","false","img/card_backs/set1/red.gif","img/card_backs/set1/purple.gif","img/card_backs/set1/yellow.gif","img/card_backs/set1/green.gif","img/card_backs/set2/blue.gif","img/card_backs/set2/orange.gif","img/card_backs/set2/pink.gif","img/card_backs/set2/gray.gif","""event"",""trial"",""time""
""blur"",""1"",""4344""
""focus"",""1"",""8322""
""fullscreenenter"",""1"",""49960""
","""event"",""trial"",""time""
""blur"",""1"",""4344""
","""event"",""trial"",""time""
""focus"",""1"",""8322""
","""event"",""trial"",""time""
""fullscreenenter"",""1"",""49960""
","
","","null","","null","","fixation","2021-07-19 04:26:10.140","","","","","",""
"card-selection-trial","105","430860","0.0-25.0-1.17","A1379","false","img/card_backs/set1/red.gif","img/card_backs/set1/purple.gif","img/card_backs/set1/yellow.gif","img/card_backs/set1/green.gif","img/card_backs/set2/blue.gif","img/card_backs/set2/orange.gif","img/card_backs/set2/pink.gif","img/card_backs/set2/gray.gif","""event"",""trial"",""time""
""blur"",""1"",""4344""
""focus"",""1"",""8322""
""fullscreenenter"",""1"",""49960""
","""event"",""trial"",""time""
""blur"",""1"",""4344""
","""event"",""trial"",""time""
""focus"",""1"",""8322""
","""event"",""trial"",""time""
""fullscreenenter"",""1"",""49960""
","
","","800.3000000044703","","","","real_trial","2021-07-19 04:26:12.950","img/card_backs/set1/green.gif","2","100","1","",""
"casino-fixation","106","431365","0.0-25.0-0.18","A1379","false","img/card_backs/set1/red.gif","img/card_backs/set1/purple.gif","img/card_backs/set1/yellow.gif","img/card_backs/set1/green.gif","img/card_backs/set2/blue.gif","img/card_backs/set2/orange.gif","img/card_backs/set2/pink.gif","img/card_backs/set2/gray.gif","""event"",""trial"",""time""
""blur"",""1"",""4344""
""focus"",""1"",""8322""
""fullscreenenter"",""1"",""49960""
","""event"",""trial"",""time""
""blur"",""1"",""4344""
","""event"",""trial"",""time""
""focus"",""1"",""8322""
","""event"",""trial"",""time""
""fullscreenenter"",""1"",""49960""
","
","","null","","null","","fixation","2021-07-19 04:26:13.455","","","","","",""
"card-selection-trial","107","435045","0.0-25.0-1.18","A1379","false","img/card_backs/set1/red.gif","img/card_backs/set1/purple.gif","img/card_backs/set1/yellow.gif","img/card_backs/set1/green.gif","img/card_backs/set2/blue.gif","img/card_backs/set2/orange.gif","img/card_backs/set2/pink.gif","img/card_backs/set2/gray.gif","""event"",""trial"",""time""
""blur"",""1"",""4344""
""focus"",""1"",""8322""
""fullscreenenter"",""1"",""49960""
","""event"",""trial"",""time""
""blur"",""1"",""4344""
","""event"",""trial"",""time""
""focus"",""1"",""8322""
","""event"",""trial"",""time""
""fullscreenenter"",""1"",""49960""
","
","","1667","","","","real_trial","2021-07-19 04:26:17.136","img/card_backs/set1/green.gif","1","-70","1","",""
"casino-fixation","108","435550","0.0-25.0-0.19","A1379","false","img/card_backs/set1/red.gif","img/card_backs/set1/purple.gif","img/card_backs/set1/yellow.gif","img/card_backs/set1/green.gif","img/card_backs/set2/blue.gif","img/card_backs/set2/orange.gif","img/card_backs/set2/pink.gif","img/card_backs/set2/gray.gif","""event"",""trial"",""time""
""blur"",""1"",""4344""
""focus"",""1"",""8322""
""fullscreenenter"",""1"",""49960""
","""event"",""trial"",""time""
""blur"",""1"",""4344""
","""event"",""trial"",""time""
""focus"",""1"",""8322""
","""event"",""trial"",""time""
""fullscreenenter"",""1"",""49960""
","
","","null","","null","","fixation","2021-07-19 04:26:17.640","","","","","",""
"card-selection-trial","109","438863","0.0-25.0-1.19","A1379","false","img/card_backs/set1/red.gif","img/card_backs/set1/purple.gif","img/card_backs/set1/yellow.gif","img/card_backs/set1/green.gif","img/card_backs/set2/blue.gif","img/card_backs/set2/orange.gif","img/card_backs/set2/pink.gif","img/card_backs/set2/gray.gif","""event"",""trial"",""time""
""blur"",""1"",""4344""
""focus"",""1"",""8322""
""fullscreenenter"",""1"",""49960""
","""event"",""trial"",""time""
""blur"",""1"",""4344""
","""event"",""trial"",""time""
""focus"",""1"",""8322""
","""event"",""trial"",""time""
""fullscreenenter"",""1"",""49960""
","
","","1301.6999999955297","","","","real_trial","2021-07-19 04:26:20.953","img/card_backs/set1/yellow.gif","1","120","1","",""
"casino-fixation","110","439370","0.0-25.0-0.20","A1379","false","img/card_backs/set1/red.gif","img/card_backs/set1/purple.gif","img/card_backs/set1/yellow.gif","img/card_backs/set1/green.gif","img/card_backs/set2/blue.gif","img/card_backs/set2/orange.gif","img/card_backs/set2/pink.gif","img/card_backs/set2/gray.gif","""event"",""trial"",""time""
""blur"",""1"",""4344""
""focus"",""1"",""8322""
""fullscreenenter"",""1"",""49960""
","""event"",""trial"",""time""
""blur"",""1"",""4344""
","""event"",""trial"",""time""
""focus"",""1"",""8322""
","""event"",""trial"",""time""
""fullscreenenter"",""1"",""49960""
","
","","null","","null","","fixation","2021-07-19 04:26:21.460","","","","","",""
"card-selection-trial","111","442412","0.0-25.0-1.20","A1379","false","img/card_backs/set1/red.gif","img/card_backs/set1/purple.gif","img/card_backs/set1/yellow.gif","img/card_backs/set1/green.gif","img/card_backs/set2/blue.gif","img/card_backs/set2/orange.gif","img/card_backs/set2/pink.gif","img/card_backs/set2/gray.gif","""event"",""trial"",""time""
""blur"",""1"",""4344""
""focus"",""1"",""8322""
""fullscreenenter"",""1"",""49960""
","""event"",""trial"",""time""
""blur"",""1"",""4344""
","""event"",""trial"",""time""
""focus"",""1"",""8322""
","""event"",""trial"",""time""
""fullscreenenter"",""1"",""49960""
","
","","1029","","","","real_trial","2021-07-19 04:26:24.502","img/card_backs/set1/yellow.gif","3","-50","1","",""
"casino-fixation","112","442916","0.0-25.0-0.21","A1379","false","img/card_backs/set1/red.gif","img/card_backs/set1/purple.gif","img/card_backs/set1/yellow.gif","img/card_backs/set1/green.gif","img/card_backs/set2/blue.gif","img/card_backs/set2/orange.gif","img/card_backs/set2/pink.gif","img/card_backs/set2/gray.gif","""event"",""trial"",""time""
""blur"",""1"",""4344""
""focus"",""1"",""8322""
""fullscreenenter"",""1"",""49960""
","""event"",""trial"",""time""
""blur"",""1"",""4344""
","""event"",""trial"",""time""
""focus"",""1"",""8322""
","""event"",""trial"",""time""
""fullscreenenter"",""1"",""49960""
","
","","null","","null","","fixation","2021-07-19 04:26:25.007","","","","","",""
"card-selection-trial","113","445622","0.0-25.0-1.21","A1379","false","img/card_backs/set1/red.gif","img/card_backs/set1/purple.gif","img/card_backs/set1/yellow.gif","img/card_backs/set1/green.gif","img/card_backs/set2/blue.gif","img/card_backs/set2/orange.gif","img/card_backs/set2/pink.gif","img/card_backs/set2/gray.gif","""event"",""trial"",""time""
""blur"",""1"",""4344""
""focus"",""1"",""8322""
""fullscreenenter"",""1"",""49960""
","""event"",""trial"",""time""
""blur"",""1"",""4344""
","""event"",""trial"",""time""
""focus"",""1"",""8322""
","""event"",""trial"",""time""
""fullscreenenter"",""1"",""49960""
","
","","695.2999999970198","","","","real_trial","2021-07-19 04:26:27.712","img/card_backs/set1/green.gif","2","120","1","",""
"casino-fixation","114","446126","0.0-25.0-0.22","A1379","false","img/card_backs/set1/red.gif","img/card_backs/set1/purple.gif","img/card_backs/set1/yellow.gif","img/card_backs/set1/green.gif","img/card_backs/set2/blue.gif","img/card_backs/set2/orange.gif","img/card_backs/set2/pink.gif","img/card_backs/set2/gray.gif","""event"",""trial"",""time""
""blur"",""1"",""4344""
""focus"",""1"",""8322""
""fullscreenenter"",""1"",""49960""
","""event"",""trial"",""time""
""blur"",""1"",""4344""
","""event"",""trial"",""time""
""focus"",""1"",""8322""
","""event"",""trial"",""time""
""fullscreenenter"",""1"",""49960""
","
","","null","","null","","fixation","2021-07-19 04:26:28.217","","","","","",""
"card-selection-trial","115","448960","0.0-25.0-1.22","A1379","false","img/card_backs/set1/red.gif","img/card_backs/set1/purple.gif","img/card_backs/set1/yellow.gif","img/card_backs/set1/green.gif","img/card_backs/set2/blue.gif","img/card_backs/set2/orange.gif","img/card_backs/set2/pink.gif","img/card_backs/set2/gray.gif","""event"",""trial"",""time""
""blur"",""1"",""4344""
""focus"",""1"",""8322""
""fullscreenenter"",""1"",""49960""
","""event"",""trial"",""time""
""blur"",""1"",""4344""
","""event"",""trial"",""time""
""focus"",""1"",""8322""
","""event"",""trial"",""time""
""fullscreenenter"",""1"",""49960""
","
","","824.4000000059605","","","","real_trial","2021-07-19 04:26:31.050","img/card_backs/set1/green.gif","1","-50","1","",""
"casino-fixation","116","449464","0.0-25.0-0.23","A1379","false","img/card_backs/set1/red.gif","img/card_backs/set1/purple.gif","img/card_backs/set1/yellow.gif","img/card_backs/set1/green.gif","img/card_backs/set2/blue.gif","img/card_backs/set2/orange.gif","img/card_backs/set2/pink.gif","img/card_backs/set2/gray.gif","""event"",""trial"",""time""
""blur"",""1"",""4344""
""focus"",""1"",""8322""
""fullscreenenter"",""1"",""49960""
","""event"",""trial"",""time""
""blur"",""1"",""4344""
","""event"",""trial"",""time""
""focus"",""1"",""8322""
","""event"",""trial"",""time""
""fullscreenenter"",""1"",""49960""
","
","","null","","null","","fixation","2021-07-19 04:26:31.554","","","","","",""
"card-selection-trial","117","452401","0.0-25.0-1.23","A1379","false","img/card_backs/set1/red.gif","img/card_backs/set1/purple.gif","img/card_backs/set1/yellow.gif","img/card_backs/set1/green.gif","img/card_backs/set2/blue.gif","img/card_backs/set2/orange.gif","img/card_backs/set2/pink.gif","img/card_backs/set2/gray.gif","""event"",""trial"",""time""
""blur"",""1"",""4344""
""focus"",""1"",""8322""
""fullscreenenter"",""1"",""49960""
","""event"",""trial"",""time""
""blur"",""1"",""4344""
","""event"",""trial"",""time""
""focus"",""1"",""8322""
","""event"",""trial"",""time""
""fullscreenenter"",""1"",""49960""
","
","","924.5","","","","real_trial","2021-07-19 04:26:34.492","img/card_backs/set1/green.gif","2","120","1","",""
"casino-fixation","118","452907","0.0-25.0-0.24","A1379","false","img/card_backs/set1/red.gif","img/card_backs/set1/purple.gif","img/card_backs/set1/yellow.gif","img/card_backs/set1/green.gif","img/card_backs/set2/blue.gif","img/card_backs/set2/orange.gif","img/card_backs/set2/pink.gif","img/card_backs/set2/gray.gif","""event"",""trial"",""time""
""blur"",""1"",""4344""
""focus"",""1"",""8322""
""fullscreenenter"",""1"",""49960""
","""event"",""trial"",""time""
""blur"",""1"",""4344""
","""event"",""trial"",""time""
""focus"",""1"",""8322""
","""event"",""trial"",""time""
""fullscreenenter"",""1"",""49960""
","
","","null","","null","","fixation","2021-07-19 04:26:34.997","","","","","",""
"card-selection-trial","119","455339","0.0-25.0-1.24","A1379","false","img/card_backs/set1/red.gif","img/card_backs/set1/purple.gif","img/card_backs/set1/yellow.gif","img/card_backs/set1/green.gif","img/card_backs/set2/blue.gif","img/card_backs/set2/orange.gif","img/card_backs/set2/pink.gif","img/card_backs/set2/gray.gif","""event"",""trial"",""time""
""blur"",""1"",""4344""
""focus"",""1"",""8322""
""fullscreenenter"",""1"",""49960""
","""event"",""trial"",""time""
""blur"",""1"",""4344""
","""event"",""trial"",""time""
""focus"",""1"",""8322""
","""event"",""trial"",""time""
""fullscreenenter"",""1"",""49960""
","
","","420.6000000014901","","","","real_trial","2021-07-19 04:26:37.429","img/card_backs/set1/green.gif","2","100","1","",""
"casino-fixation","120","455845","0.0-25.0-0.25","A1379","false","img/card_backs/set1/red.gif","img/card_backs/set1/purple.gif","img/card_backs/set1/yellow.gif","img/card_backs/set1/green.gif","img/card_backs/set2/blue.gif","img/card_backs/set2/orange.gif","img/card_backs/set2/pink.gif","img/card_backs/set2/gray.gif","""event"",""trial"",""time""
""blur"",""1"",""4344""
""focus"",""1"",""8322""
""fullscreenenter"",""1"",""49960""
","""event"",""trial"",""time""
""blur"",""1"",""4344""
","""event"",""trial"",""time""
""focus"",""1"",""8322""
","""event"",""trial"",""time""
""fullscreenenter"",""1"",""49960""
","
","","null","","null","","fixation","2021-07-19 04:26:37.935","","","","","",""
"card-selection-trial","121","458491","0.0-25.0-1.25","A1379","false","img/card_backs/set1/red.gif","img/card_backs/set1/purple.gif","img/card_backs/set1/yellow.gif","img/card_backs/set1/green.gif","img/card_backs/set2/blue.gif","img/card_backs/set2/orange.gif","img/card_backs/set2/pink.gif","img/card_backs/set2/gray.gif","""event"",""trial"",""time""
""blur"",""1"",""4344""
""focus"",""1"",""8322""
""fullscreenenter"",""1"",""49960""
","""event"",""trial"",""time""
""blur"",""1"",""4344""
","""event"",""trial"",""time""
""focus"",""1"",""8322""
","""event"",""trial"",""time""
""fullscreenenter"",""1"",""49960""
","
","","638","","","","real_trial","2021-07-19 04:26:40.582","img/card_backs/set1/green.gif","0","110","1","",""
"casino-fixation","122","458996","0.0-25.0-0.26","A1379","false","img/card_backs/set1/red.gif","img/card_backs/set1/purple.gif","img/card_backs/set1/yellow.gif","img/card_backs/set1/green.gif","img/card_backs/set2/blue.gif","img/card_backs/set2/orange.gif","img/card_backs/set2/pink.gif","img/card_backs/set2/gray.gif","""event"",""trial"",""time""
""blur"",""1"",""4344""
""focus"",""1"",""8322""
""fullscreenenter"",""1"",""49960""
","""event"",""trial"",""time""
""blur"",""1"",""4344""
","""event"",""trial"",""time""
""focus"",""1"",""8322""
","""event"",""trial"",""time""
""fullscreenenter"",""1"",""49960""
","
","","null","","null","","fixation","2021-07-19 04:26:41.086","","","","","",""
"card-selection-trial","123","461556","0.0-25.0-1.26","A1379","false","img/card_backs/set1/red.gif","img/card_backs/set1/purple.gif","img/card_backs/set1/yellow.gif","img/card_backs/set1/green.gif","img/card_backs/set2/blue.gif","img/card_backs/set2/orange.gif","img/card_backs/set2/pink.gif","img/card_backs/set2/gray.gif","""event"",""trial"",""time""
""blur"",""1"",""4344""
""focus"",""1"",""8322""
""fullscreenenter"",""1"",""49960""
","""event"",""trial"",""time""
""blur"",""1"",""4344""
","""event"",""trial"",""time""
""focus"",""1"",""8322""
","""event"",""trial"",""time""
""fullscreenenter"",""1"",""49960""
","
","","547.2000000029802","","","","real_trial","2021-07-19 04:26:43.647","img/card_backs/set1/green.gif","0","-70","1","",""
"casino-fixation","124","462061","0.0-25.0-0.27","A1379","false","img/card_backs/set1/red.gif","img/card_backs/set1/purple.gif","img/card_backs/set1/yellow.gif","img/card_backs/set1/green.gif","img/card_backs/set2/blue.gif","img/card_backs/set2/orange.gif","img/card_backs/set2/pink.gif","img/card_backs/set2/gray.gif","""event"",""trial"",""time""
""blur"",""1"",""4344""
""focus"",""1"",""8322""
""fullscreenenter"",""1"",""49960""
","""event"",""trial"",""time""
""blur"",""1"",""4344""
","""event"",""trial"",""time""
""focus"",""1"",""8322""
","""event"",""trial"",""time""
""fullscreenenter"",""1"",""49960""
","
","","null","","null","","fixation","2021-07-19 04:26:44.151","","","","","",""
"card-selection-trial","125","464861","0.0-25.0-1.27","A1379","false","img/card_backs/set1/red.gif","img/card_backs/set1/purple.gif","img/card_backs/set1/yellow.gif","img/card_backs/set1/green.gif","img/card_backs/set2/blue.gif","img/card_backs/set2/orange.gif","img/card_backs/set2/pink.gif","img/card_backs/set2/gray.gif","""event"",""trial"",""time""
""blur"",""1"",""4344""
""focus"",""1"",""8322""
""fullscreenenter"",""1"",""49960""
","""event"",""trial"",""time""
""blur"",""1"",""4344""
","""event"",""trial"",""time""
""focus"",""1"",""8322""
","""event"",""trial"",""time""
""fullscreenenter"",""1"",""49960""
","
","","788.2999999970198","","","","real_trial","2021-07-19 04:26:46.951","img/card_backs/set1/yellow.gif","1","100","1","",""
"casino-fixation","126","465364","0.0-25.0-0.28","A1379","false","img/card_backs/set1/red.gif","img/card_backs/set1/purple.gif","img/card_backs/set1/yellow.gif","img/card_backs/set1/green.gif","img/card_backs/set2/blue.gif","img/card_backs/set2/orange.gif","img/card_backs/set2/pink.gif","img/card_backs/set2/gray.gif","""event"",""trial"",""time""
""blur"",""1"",""4344""
""focus"",""1"",""8322""
""fullscreenenter"",""1"",""49960""
","""event"",""trial"",""time""
""blur"",""1"",""4344""
","""event"",""trial"",""time""
""focus"",""1"",""8322""
","""event"",""trial"",""time""
""fullscreenenter"",""1"",""49960""
","
","","null","","null","","fixation","2021-07-19 04:26:47.454","","","","","",""
"card-selection-trial","127","468189","0.0-25.0-1.28","A1379","false","img/card_backs/set1/red.gif","img/card_backs/set1/purple.gif","img/card_backs/set1/yellow.gif","img/card_backs/set1/green.gif","img/card_backs/set2/blue.gif","img/card_backs/set2/orange.gif","img/card_backs/set2/pink.gif","img/card_backs/set2/gray.gif","""event"",""trial"",""time""
""blur"",""1"",""4344""
""focus"",""1"",""8322""
""fullscreenenter"",""1"",""49960""
","""event"",""trial"",""time""
""blur"",""1"",""4344""
","""event"",""trial"",""time""
""focus"",""1"",""8322""
","""event"",""trial"",""time""
""fullscreenenter"",""1"",""49960""
","
","","817.2999999970198","","","","real_trial","2021-07-19 04:26:50.279","img/card_backs/set1/green.gif","2","120","1","",""
"casino-fixation","128","468694","0.0-25.0-0.29","A1379","false","img/card_backs/set1/red.gif","img/card_backs/set1/purple.gif","img/card_backs/set1/yellow.gif","img/card_backs/set1/green.gif","img/card_backs/set2/blue.gif","img/card_backs/set2/orange.gif","img/card_backs/set2/pink.gif","img/card_backs/set2/gray.gif","""event"",""trial"",""time""
""blur"",""1"",""4344""
""focus"",""1"",""8322""
""fullscreenenter"",""1"",""49960""
","""event"",""trial"",""time""
""blur"",""1"",""4344""
","""event"",""trial"",""time""
""focus"",""1"",""8322""
","""event"",""trial"",""time""
""fullscreenenter"",""1"",""49960""
","
","","null","","null","","fixation","2021-07-19 04:26:50.784","","","","","",""
"card-selection-trial","129","471327","0.0-25.0-1.29","A1379","false","img/card_backs/set1/red.gif","img/card_backs/set1/purple.gif","img/card_backs/set1/yellow.gif","img/card_backs/set1/green.gif","img/card_backs/set2/blue.gif","img/card_backs/set2/orange.gif","img/card_backs/set2/pink.gif","img/card_backs/set2/gray.gif","""event"",""trial"",""time""
""blur"",""1"",""4344""
""focus"",""1"",""8322""
""fullscreenenter"",""1"",""49960""
","""event"",""trial"",""time""
""blur"",""1"",""4344""
","""event"",""trial"",""time""
""focus"",""1"",""8322""
","""event"",""trial"",""time""
""fullscreenenter"",""1"",""49960""
","
","","622.1000000014901","","","","real_trial","2021-07-19 04:26:53.418","img/card_backs/set1/green.gif","3","-60","1","",""
"casino-fixation","130","471831","0.0-25.0-0.30","A1379","false","img/card_backs/set1/red.gif","img/card_backs/set1/purple.gif","img/card_backs/set1/yellow.gif","img/card_backs/set1/green.gif","img/card_backs/set2/blue.gif","img/card_backs/set2/orange.gif","img/card_backs/set2/pink.gif","img/card_backs/set2/gray.gif","""event"",""trial"",""time""
""blur"",""1"",""4344""
""focus"",""1"",""8322""
""fullscreenenter"",""1"",""49960""
","""event"",""trial"",""time""
""blur"",""1"",""4344""
","""event"",""trial"",""time""
""focus"",""1"",""8322""
","""event"",""trial"",""time""
""fullscreenenter"",""1"",""49960""
","
