"trial_type","trial_index","time_elapsed","internal_node_id","sub_id","risk_good_first","block1_A","block1_B","block1_C","block1_D","block2_A","block2_B","block2_C","block2_D","interactions","blur_events","focus_events","fullscreenenter_events","fullscreenexit_events","success","rt","stimulus","key_press","button_pressed","task_part","timestamp","card_choice","choice_position","points_earned","block","correct","response"
"pavlovia","0","2","0.0-0.0","231","false","img/card_backs/set1/red.gif","img/card_backs/set1/yellow.gif","img/card_backs/set1/purple.gif","img/card_backs/set1/green.gif","img/card_backs/set2/gray.gif","img/card_backs/set2/blue.gif","img/card_backs/set2/orange.gif","img/card_backs/set2/pink.gif","""event"",""trial"",""time""
""fullscreenenter"",""1"",""1361""
","
","
","""event"",""trial"",""time""
""fullscreenenter"",""1"",""1361""
","
","","","","","","","","","","","","",""
"fullscreen","1","2365","0.0-1.0","231","false","img/card_backs/set1/red.gif","img/card_backs/set1/yellow.gif","img/card_backs/set1/purple.gif","img/card_backs/set1/green.gif","img/card_backs/set2/gray.gif","img/card_backs/set2/blue.gif","img/card_backs/set2/orange.gif","img/card_backs/set2/pink.gif","""event"",""trial"",""time""
""fullscreenenter"",""1"",""1361""
","
","
","""event"",""trial"",""time""
""fullscreenenter"",""1"",""1361""
","
","true","","","","","","","","","","","",""
"audio-keyboard-response","2","3998","0.0-2.0","231","false","img/card_backs/set1/red.gif","img/card_backs/set1/yellow.gif","img/card_backs/set1/purple.gif","img/card_backs/set1/green.gif","img/card_backs/set2/gray.gif","img/card_backs/set2/blue.gif","img/card_backs/set2/orange.gif","img/card_backs/set2/pink.gif","""event"",""trial"",""time""
""fullscreenenter"",""1"",""1361""
","
","
","""event"",""trial"",""time""
""fullscreenenter"",""1"",""1361""
","
","","1280","audio/beep_loop.wav","32","","","","","","","","",""
"audio-button-response","3","5416","0.0-3.0","231","false","img/card_backs/set1/red.gif","img/card_backs/set1/yellow.gif","img/card_backs/set1/purple.gif","img/card_backs/set1/green.gif","img/card_backs/set2/gray.gif","img/card_backs/set2/blue.gif","img/card_backs/set2/orange.gif","img/card_backs/set2/pink.gif","""event"",""trial"",""time""
""fullscreenenter"",""1"",""1361""
","
","
","""event"",""trial"",""time""
""fullscreenenter"",""1"",""1361""
","
","","NaN","audio/turtle.mp3","","3","","","","","","","",""
"audio-button-response","4","7918","0.0-4.0","231","false","img/card_backs/set1/red.gif","img/card_backs/set1/yellow.gif","img/card_backs/set1/purple.gif","img/card_backs/set1/green.gif","img/card_backs/set2/gray.gif","img/card_backs/set2/blue.gif","img/card_backs/set2/orange.gif","img/card_backs/set2/pink.gif","""event"",""trial"",""time""
""fullscreenenter"",""1"",""1361""
","
","
","""event"",""trial"",""time""
""fullscreenenter"",""1"",""1361""
","
","","NaN","audio/shark.mp3","","2","","","","","","","",""
"fullscreen","5","11061","0.0-5.0","231","false","img/card_backs/set1/red.gif","img/card_backs/set1/yellow.gif","img/card_backs/set1/purple.gif","img/card_backs/set1/green.gif","img/card_backs/set2/gray.gif","img/card_backs/set2/blue.gif","img/card_backs/set2/orange.gif","img/card_backs/set2/pink.gif","""event"",""trial"",""time""
""fullscreenenter"",""1"",""1361""
","
","
","""event"",""trial"",""time""
""fullscreenenter"",""1"",""1361""
","
","true","","","","","","","","","","","",""
"casino-keyboard-response","6","14456","0.0-6.0-0.0","231","false","img/card_backs/set1/red.gif","img/card_backs/set1/yellow.gif","img/card_backs/set1/purple.gif","img/card_backs/set1/green.gif","img/card_backs/set2/gray.gif","img/card_backs/set2/blue.gif","img/card_backs/set2/orange.gif","img/card_backs/set2/pink.gif","""event"",""trial"",""time""
""fullscreenenter"",""1"",""1361""
","
","
","""event"",""trial"",""time""
""fullscreenenter"",""1"",""1361""
","
","","3389","Welcome to the casino!","71","","instructions","2021-07-27 12:04:48.115","","","","","",""
"casino-keyboard-response","7","24327","0.0-6.0-0.1","231","false","img/card_backs/set1/red.gif","img/card_backs/set1/yellow.gif","img/card_backs/set1/purple.gif","img/card_backs/set1/green.gif","img/card_backs/set2/gray.gif","img/card_backs/set2/blue.gif","img/card_backs/set2/orange.gif","img/card_backs/set2/pink.gif","""event"",""trial"",""time""
""fullscreenenter"",""1"",""1361""
","
","
","""event"",""trial"",""time""
""fullscreenenter"",""1"",""1361""
","
","","9868.199999988079","Today you will be playing a game to earn tokens. </br> At the end of the experiment, you will be paid a bonus based on how many tokens you win. ","69","","instructions","2021-07-27 12:04:57.985","","","","","",""
"casino-keyboard-response","8","34455","0.0-6.0-0.2","231","false","img/card_backs/set1/red.gif","img/card_backs/set1/yellow.gif","img/card_backs/set1/purple.gif","img/card_backs/set1/green.gif","img/card_backs/set2/gray.gif","img/card_backs/set2/blue.gif","img/card_backs/set2/orange.gif","img/card_backs/set2/pink.gif","""event"",""trial"",""time""
""fullscreenenter"",""1"",""1361""
","
","
","""event"",""trial"",""time""
""fullscreenenter"",""1"",""1361""
","
","","10124.5","On every turn, you will be shown four different decks of cards. </br> You need to select a card from one of the four decks.  ","75","","instructions","2021-07-27 12:05:08.113","","","","","",""
"casino-keyboard-response","9","39367","0.0-6.0-0.3","231","false","img/card_backs/set1/red.gif","img/card_backs/set1/yellow.gif","img/card_backs/set1/purple.gif","img/card_backs/set1/green.gif","img/card_backs/set2/gray.gif","img/card_backs/set2/blue.gif","img/card_backs/set2/orange.gif","img/card_backs/set2/pink.gif","""event"",""trial"",""time""
""fullscreenenter"",""1"",""1361""
","
","
","""event"",""trial"",""time""
""fullscreenenter"",""1"",""1361""
","
","","4908.300000011921","On the next screen, you will see what the decks will look like. ","66","","instructions","2021-07-27 12:05:13.025","","","","","",""
"card-selection-trial","10","43411","0.0-7.0-0.0","231","false","img/card_backs/set1/red.gif","img/card_backs/set1/yellow.gif","img/card_backs/set1/purple.gif","img/card_backs/set1/green.gif","img/card_backs/set2/gray.gif","img/card_backs/set2/blue.gif","img/card_backs/set2/orange.gif","img/card_backs/set2/pink.gif","""event"",""trial"",""time""
""fullscreenenter"",""1"",""1361""
","
","
","""event"",""trial"",""time""
""fullscreenenter"",""1"",""1361""
","
","","null","","","","practice","2021-07-27 12:05:17.070","null","null","null","0","",""
"casino-keyboard-response","11","51607","0.0-8.0-0.0","231","false","img/card_backs/set1/red.gif","img/card_backs/set1/yellow.gif","img/card_backs/set1/purple.gif","img/card_backs/set1/green.gif","img/card_backs/set2/gray.gif","img/card_backs/set2/blue.gif","img/card_backs/set2/orange.gif","img/card_backs/set2/pink.gif","""event"",""trial"",""time""
""fullscreenenter"",""1"",""1361""
","
","
","""event"",""trial"",""time""
""fullscreenenter"",""1"",""1361""
","
","","8193.899999976158","You should pick a card from a deck using the '2', '4', '6', and '8' keys at the top of the keyboard.","85","","instructions","2021-07-27 12:05:25.265","","","","","",""
"casino-keyboard-response","12","57039","0.0-8.0-0.1","231","false","img/card_backs/set1/red.gif","img/card_backs/set1/yellow.gif","img/card_backs/set1/purple.gif","img/card_backs/set1/green.gif","img/card_backs/set2/gray.gif","img/card_backs/set2/blue.gif","img/card_backs/set2/orange.gif","img/card_backs/set2/pink.gif","""event"",""trial"",""time""
""fullscreenenter"",""1"",""1361""
","
","
","""event"",""trial"",""time""
""fullscreenenter"",""1"",""1361""
","
","","5428.599999964237","Once you select a card, it will turn over and you will see how many tokens you earned.","83","","instructions","2021-07-27 12:05:30.697","","","","","",""
"casino-keyboard-response","13","72215","0.0-8.0-0.2","231","false","img/card_backs/set1/red.gif","img/card_backs/set1/yellow.gif","img/card_backs/set1/purple.gif","img/card_backs/set1/green.gif","img/card_backs/set2/gray.gif","img/card_backs/set2/blue.gif","img/card_backs/set2/orange.gif","img/card_backs/set2/pink.gif","""event"",""trial"",""time""
""fullscreenenter"",""1"",""1361""
","
","
","""event"",""trial"",""time""
""fullscreenenter"",""1"",""1361""
","
","","15174.200000047684","Let's try practicing that! </br> First, try to put your fingers over the '2', '4', '6', and '8' keys. </br>  You can use whatever fingers are most comfortable for you. Try to find a comfortable position now. ","50","","instructions","2021-07-27 12:05:45.873","","","","","",""
"casino-keyboard-response","14","78053","0.0-8.0-0.3","231","false","img/card_backs/set1/red.gif","img/card_backs/set1/yellow.gif","img/card_backs/set1/purple.gif","img/card_backs/set1/green.gif","img/card_backs/set2/gray.gif","img/card_backs/set2/blue.gif","img/card_backs/set2/orange.gif","img/card_backs/set2/pink.gif","""event"",""trial"",""time""
""fullscreenenter"",""1"",""1361""
","
","
","""event"",""trial"",""time""
""fullscreenenter"",""1"",""1361""
","
","","5835.099999964237","Okay ready? </br> On the next screen, press '2' to select the left deck. ","50","","instructions","2021-07-27 12:05:51.712","","","","","",""
"card-selection-trial","15","80621","0.0-9.0-0.0","231","false","img/card_backs/set1/red.gif","img/card_backs/set1/yellow.gif","img/card_backs/set1/purple.gif","img/card_backs/set1/green.gif","img/card_backs/set2/gray.gif","img/card_backs/set2/blue.gif","img/card_backs/set2/orange.gif","img/card_backs/set2/pink.gif","""event"",""trial"",""time""
""fullscreenenter"",""1"",""1361""
","
","
","""event"",""trial"",""time""
""fullscreenenter"",""1"",""1361""
","
","","541.3999999761581","","","","practice_card_selection","2021-07-27 12:05:54.280","img/practice_cards/backs/dark_green.gif","0","-200","","",""
"casino-keyboard-response","16","86215","0.0-10.0-0.0","231","false","img/card_backs/set1/red.gif","img/card_backs/set1/yellow.gif","img/card_backs/set1/purple.gif","img/card_backs/set1/green.gif","img/card_backs/set2/gray.gif","img/card_backs/set2/blue.gif","img/card_backs/set2/orange.gif","img/card_backs/set2/pink.gif","""event"",""trial"",""time""
""fullscreenenter"",""1"",""1361""
","
","
","""event"",""trial"",""time""
""fullscreenenter"",""1"",""1361""
","
","","5590.699999988079","Great! Now on the next screen, try pressing '6' to select the third deck.","54","","instructions","2021-07-27 12:05:59.873","","","","","",""
"card-selection-trial","17","88651","0.0-11.0-0.0","231","false","img/card_backs/set1/red.gif","img/card_backs/set1/yellow.gif","img/card_backs/set1/purple.gif","img/card_backs/set1/green.gif","img/card_backs/set2/gray.gif","img/card_backs/set2/blue.gif","img/card_backs/set2/orange.gif","img/card_backs/set2/pink.gif","""event"",""trial"",""time""
""fullscreenenter"",""1"",""1361""
","
","
","""event"",""trial"",""time""
""fullscreenenter"",""1"",""1361""
","
","","413.5","","","","practice_card_selection","2021-07-27 12:06:02.309","img/practice_cards/backs/black.gif","2","100","","",""
"casino-keyboard-response","18","93168","0.0-12.0-0.0","231","false","img/card_backs/set1/red.gif","img/card_backs/set1/yellow.gif","img/card_backs/set1/purple.gif","img/card_backs/set1/green.gif","img/card_backs/set2/gray.gif","img/card_backs/set2/blue.gif","img/card_backs/set2/orange.gif","img/card_backs/set2/pink.gif","""event"",""trial"",""time""
""fullscreenenter"",""1"",""1361""
","
","
","""event"",""trial"",""time""
""fullscreenenter"",""1"",""1361""
","
","","4513.800000011921","Now on the next screen, try pressing '4' to select the second deck.","52","","instructions","2021-07-27 12:06:06.826","","","","","",""
"card-selection-trial","19","95651","0.0-13.0-0.0","231","false","img/card_backs/set1/red.gif","img/card_backs/set1/yellow.gif","img/card_backs/set1/purple.gif","img/card_backs/set1/green.gif","img/card_backs/set2/gray.gif","img/card_backs/set2/blue.gif","img/card_backs/set2/orange.gif","img/card_backs/set2/pink.gif","""event"",""trial"",""time""
""fullscreenenter"",""1"",""1361""
","
","
","""event"",""trial"",""time""
""fullscreenenter"",""1"",""1361""
","
","","455.30000001192093","","","","practice_card_selection","2021-07-27 12:06:09.309","img/practice_cards/backs/dark_blue.gif","1","200","","",""
"casino-keyboard-response","20","100215","0.0-14.0-0.0","231","false","img/card_backs/set1/red.gif","img/card_backs/set1/yellow.gif","img/card_backs/set1/purple.gif","img/card_backs/set1/green.gif","img/card_backs/set2/gray.gif","img/card_backs/set2/blue.gif","img/card_backs/set2/orange.gif","img/card_backs/set2/pink.gif","""event"",""trial"",""time""
""fullscreenenter"",""1"",""1361""
","
","
","""event"",""trial"",""time""
""fullscreenenter"",""1"",""1361""
","
","","4562.199999988079","Finally, try pressing '8' to select the deck all the way on the right.","56","","instructions","2021-07-27 12:06:13.873","","","","","",""
"card-selection-trial","21","102631","0.0-15.0-0.0","231","false","img/card_backs/set1/red.gif","img/card_backs/set1/yellow.gif","img/card_backs/set1/purple.gif","img/card_backs/set1/green.gif","img/card_backs/set2/gray.gif","img/card_backs/set2/blue.gif","img/card_backs/set2/orange.gif","img/card_backs/set2/pink.gif","""event"",""trial"",""time""
""fullscreenenter"",""1"",""1361""
","
","
","""event"",""trial"",""time""
""fullscreenenter"",""1"",""1361""
","
","","391.60000002384186","","","","practice_card_selection","2021-07-27 12:06:16.290","img/practice_cards/backs/dark_blue.gif","3","200","","",""
"casino-keyboard-response","22","106791","0.0-16.0-0.0","231","false","img/card_backs/set1/red.gif","img/card_backs/set1/yellow.gif","img/card_backs/set1/purple.gif","img/card_backs/set1/green.gif","img/card_backs/set2/gray.gif","img/card_backs/set2/blue.gif","img/card_backs/set2/orange.gif","img/card_backs/set2/pink.gif","""event"",""trial"",""time""
""fullscreenenter"",""1"",""1361""
","
","
","""event"",""trial"",""time""
""fullscreenenter"",""1"",""1361""
","
","","4156.699999988079","Great! It seems like you are getting the hang of this.","80","","instructions","2021-07-27 12:06:20.449","","","","","",""
"casino-keyboard-response","23","114912","0.0-16.0-0.1","231","false","img/card_backs/set1/red.gif","img/card_backs/set1/yellow.gif","img/card_backs/set1/purple.gif","img/card_backs/set1/green.gif","img/card_backs/set2/gray.gif","img/card_backs/set2/blue.gif","img/card_backs/set2/orange.gif","img/card_backs/set2/pink.gif","""event"",""trial"",""time""
""fullscreenenter"",""1"",""1361""
","
","
","""event"",""trial"",""time""
""fullscreenenter"",""1"",""1361""
","
","","8117.900000035763","You may have noticed that some cards will cause you to <b> win </b> tokens while other cards will cause you to <b> lose </b>  tokens.","70","","instructions","2021-07-27 12:06:28.570","","","","","",""
"casino-keyboard-response","24","124640","0.0-16.0-0.2","231","false","img/card_backs/set1/red.gif","img/card_backs/set1/yellow.gif","img/card_backs/set1/purple.gif","img/card_backs/set1/green.gif","img/card_backs/set2/gray.gif","img/card_backs/set2/blue.gif","img/card_backs/set2/orange.gif","img/card_backs/set2/pink.gif","""event"",""trial"",""time""
""fullscreenenter"",""1"",""1361""
","
","
","""event"",""trial"",""time""
""fullscreenenter"",""1"",""1361""
","
","","9724","Each deck has a mix of cards that will cause you to win and lose tokens. </br> However, the cards in each colored deck are different.","73","","instructions","2021-07-27 12:06:38.298","","","","","",""
"casino-keyboard-response","25","137216","0.0-16.0-0.3","231","false","img/card_backs/set1/red.gif","img/card_backs/set1/yellow.gif","img/card_backs/set1/purple.gif","img/card_backs/set1/green.gif","img/card_backs/set2/gray.gif","img/card_backs/set2/blue.gif","img/card_backs/set2/orange.gif","img/card_backs/set2/pink.gif","""event"",""trial"",""time""
""fullscreenenter"",""1"",""1361""
","
","
","""event"",""trial"",""time""
""fullscreenenter"",""1"",""1361""
","
","","12572.900000035763","Some colored decks are luckier than others. </br> If you choose the lucky decks, you will earn more tokens than if you choose the unlucky decks.","69","","instructions","2021-07-27 12:06:50.874","","","","","",""
"casino-keyboard-response","26","144463","0.0-16.0-0.4","231","false","img/card_backs/set1/red.gif","img/card_backs/set1/yellow.gif","img/card_backs/set1/purple.gif","img/card_backs/set1/green.gif","img/card_backs/set2/gray.gif","img/card_backs/set2/blue.gif","img/card_backs/set2/orange.gif","img/card_backs/set2/pink.gif","""event"",""trial"",""time""
""fullscreenenter"",""1"",""1361""
","
","
","""event"",""trial"",""time""
""fullscreenenter"",""1"",""1361""
","
","","7244.699999988079","You should try to figure out which decks are lucky. </br> Then, try to choose the lucky decks so you can win the most tokens.","87","","instructions","2021-07-27 12:06:58.122","","","","","",""
"casino-keyboard-response","27","155640","0.0-16.0-0.5","231","false","img/card_backs/set1/red.gif","img/card_backs/set1/yellow.gif","img/card_backs/set1/purple.gif","img/card_backs/set1/green.gif","img/card_backs/set2/gray.gif","img/card_backs/set2/blue.gif","img/card_backs/set2/orange.gif","img/card_backs/set2/pink.gif","""event"",""trial"",""time""
""fullscreenenter"",""1"",""1361""
","
","
","""event"",""trial"",""time""
""fullscreenenter"",""1"",""1361""
","
","","11173.5","To make it trickier, the casino dealer will switch the locations of the decks on every turn. </br> The color of the deck determines how lucky it is. The location does not matter.","88","","instructions","2021-07-27 12:07:09.298","","","","","",""
"casino-keyboard-response","28","165408","0.0-16.0-0.6","231","false","img/card_backs/set1/red.gif","img/card_backs/set1/yellow.gif","img/card_backs/set1/purple.gif","img/card_backs/set1/green.gif","img/card_backs/set2/gray.gif","img/card_backs/set2/blue.gif","img/card_backs/set2/orange.gif","img/card_backs/set2/pink.gif","""event"",""trial"",""time""
""fullscreenenter"",""1"",""1361""
","
","
","""event"",""trial"",""time""
""fullscreenenter"",""1"",""1361""
","
","","9764.399999976158","The mix of cards in each colored deck will stay the same throughout the game. </br> That means that a deck that is lucky early on will stay lucky.","79","","instructions","2021-07-27 12:07:19.066","","","","","",""
"casino-keyboard-response","29","173768","0.0-16.0-0.7","231","false","img/card_backs/set1/red.gif","img/card_backs/set1/yellow.gif","img/card_backs/set1/purple.gif","img/card_backs/set1/green.gif","img/card_backs/set2/gray.gif","img/card_backs/set2/blue.gif","img/card_backs/set2/orange.gif","img/card_backs/set2/pink.gif","""event"",""trial"",""time""
""fullscreenenter"",""1"",""1361""
","
","
","""event"",""trial"",""time""
""fullscreenenter"",""1"",""1361""
","
","","8357.299999952316","Remember though, all the decks have a <b> mix </b> of both <b> good </b> and <b> bad </b> cards so it may take a couple of turns to figure out if a deck is lucky.","69","","instructions","2021-07-27 12:07:27.426","","","","","",""
"casino-keyboard-response","30","182007","0.0-16.0-0.8","231","false","img/card_backs/set1/red.gif","img/card_backs/set1/yellow.gif","img/card_backs/set1/purple.gif","img/card_backs/set1/green.gif","img/card_backs/set2/gray.gif","img/card_backs/set2/blue.gif","img/card_backs/set2/orange.gif","img/card_backs/set2/pink.gif","""event"",""trial"",""time""
""fullscreenenter"",""1"",""1361""
","
","
","""event"",""trial"",""time""
""fullscreenenter"",""1"",""1361""
","
","","8237.100000023842","At the end of the game, you will be paid bonus money based on how many tokens you win. </br> If you win more tokens, you will earn more money!","72","","instructions","2021-07-27 12:07:35.665","","","","","",""
"casino-keyboard-response","31","192447","0.0-16.0-0.9","231","false","img/card_backs/set1/red.gif","img/card_backs/set1/yellow.gif","img/card_backs/set1/purple.gif","img/card_backs/set1/green.gif","img/card_backs/set2/gray.gif","img/card_backs/set2/blue.gif","img/card_backs/set2/orange.gif","img/card_backs/set2/pink.gif","""event"",""trial"",""time""
""fullscreenenter"",""1"",""1361""
","
","
","""event"",""trial"",""time""
""fullscreenenter"",""1"",""1361""
","
","","10436.899999976158","You will never <b> lose </b> money. </br> If you end up with fewer than 0 tokens, you will earn $0 of bonus money, but you will still be paid for playing the game.","83","","instructions","2021-07-27 12:07:46.106","","","","","",""
"casino-keyboard-response","32","196687","0.0-16.0-0.10","231","false","img/card_backs/set1/red.gif","img/card_backs/set1/yellow.gif","img/card_backs/set1/purple.gif","img/card_backs/set1/green.gif","img/card_backs/set2/gray.gif","img/card_backs/set2/blue.gif","img/card_backs/set2/orange.gif","img/card_backs/set2/pink.gif","""event"",""trial"",""time""
""fullscreenenter"",""1"",""1361""
","
","
","""event"",""trial"",""time""
""fullscreenenter"",""1"",""1361""
","
","","4236.5","You will have 10 seconds to make each choice.","82","","instructions","2021-07-27 12:07:50.345","","","","","",""
"casino-keyboard-response","33","205160","0.0-16.0-0.11","231","false","img/card_backs/set1/red.gif","img/card_backs/set1/yellow.gif","img/card_backs/set1/purple.gif","img/card_backs/set1/green.gif","img/card_backs/set2/gray.gif","img/card_backs/set2/blue.gif","img/card_backs/set2/orange.gif","img/card_backs/set2/pink.gif","""event"",""trial"",""time""
""fullscreenenter"",""1"",""1361""
","
","
","""event"",""trial"",""time""
""fullscreenenter"",""1"",""1361""
","
","","8467.5","Before you play the game for real, you will play with practice decks. </br> The tokens you earn during practice won't count toward your total.","86","","instructions","2021-07-27 12:07:58.818","","","","","",""
"casino-keyboard-response","34","216648","0.0-16.0-0.12","231","false","img/card_backs/set1/red.gif","img/card_backs/set1/yellow.gif","img/card_backs/set1/purple.gif","img/card_backs/set1/green.gif","img/card_backs/set2/gray.gif","img/card_backs/set2/blue.gif","img/card_backs/set2/orange.gif","img/card_backs/set2/pink.gif","""event"",""trial"",""time""
""fullscreenenter"",""1"",""1361""
","
","
","""event"",""trial"",""time""
""fullscreenenter"",""1"",""1361""
","
","","11486.100000023842","Ready? Remember, use the '2', '4', '6', and '8' keys to select the decks. </br> Put your fingers on those keys now and then press '2' to begin.","50","","instructions","2021-07-27 12:08:10.306","","","","","",""
"casino-fixation","35","217171","0.0-17.0-0.0","231","false","img/card_backs/set1/red.gif","img/card_backs/set1/yellow.gif","img/card_backs/set1/purple.gif","img/card_backs/set1/green.gif","img/card_backs/set2/gray.gif","img/card_backs/set2/blue.gif","img/card_backs/set2/orange.gif","img/card_backs/set2/pink.gif","""event"",""trial"",""time""
""fullscreenenter"",""1"",""1361""
","
","
","""event"",""trial"",""time""
""fullscreenenter"",""1"",""1361""
","
","","null","","null","","fixation","2021-07-27 12:08:10.830","","","","","",""
"card-selection-trial","36","220031","0.0-17.0-1.0","231","false","img/card_backs/set1/red.gif","img/card_backs/set1/yellow.gif","img/card_backs/set1/purple.gif","img/card_backs/set1/green.gif","img/card_backs/set2/gray.gif","img/card_backs/set2/blue.gif","img/card_backs/set2/orange.gif","img/card_backs/set2/pink.gif","""event"",""trial"",""time""
""fullscreenenter"",""1"",""1361""
","
","
","""event"",""trial"",""time""
""fullscreenenter"",""1"",""1361""
","
","","844.5","","","","practice","2021-07-27 12:08:13.689","img/practice_cards/backs/brown.gif","0","100","0","",""
"casino-fixation","37","220551","0.0-17.0-0.1","231","false","img/card_backs/set1/red.gif","img/card_backs/set1/yellow.gif","img/card_backs/set1/purple.gif","img/card_backs/set1/green.gif","img/card_backs/set2/gray.gif","img/card_backs/set2/blue.gif","img/card_backs/set2/orange.gif","img/card_backs/set2/pink.gif","""event"",""trial"",""time""
""fullscreenenter"",""1"",""1361""
","
","
","""event"",""trial"",""time""
""fullscreenenter"",""1"",""1361""
","
","","null","","null","","fixation","2021-07-27 12:08:14.209","","","","","",""
"card-selection-trial","38","223021","0.0-17.0-1.1","231","false","img/card_backs/set1/red.gif","img/card_backs/set1/yellow.gif","img/card_backs/set1/purple.gif","img/card_backs/set1/green.gif","img/card_backs/set2/gray.gif","img/card_backs/set2/blue.gif","img/card_backs/set2/orange.gif","img/card_backs/set2/pink.gif","""event"",""trial"",""time""
""fullscreenenter"",""1"",""1361""
","
","
","""event"",""trial"",""time""
""fullscreenenter"",""1"",""1361""
","
","","457.60000002384186","","","","practice","2021-07-27 12:08:16.679","img/practice_cards/backs/brown.gif","0","-100","0","",""
"casino-fixation","39","223541","0.0-17.0-0.2","231","false","img/card_backs/set1/red.gif","img/card_backs/set1/yellow.gif","img/card_backs/set1/purple.gif","img/card_backs/set1/green.gif","img/card_backs/set2/gray.gif","img/card_backs/set2/blue.gif","img/card_backs/set2/orange.gif","img/card_backs/set2/pink.gif","""event"",""trial"",""time""
""fullscreenenter"",""1"",""1361""
","
","
","""event"",""trial"",""time""
""fullscreenenter"",""1"",""1361""
","
","","null","","null","","fixation","2021-07-27 12:08:17.199","","","","","",""
"card-selection-trial","40","225871","0.0-17.0-1.2","231","false","img/card_backs/set1/red.gif","img/card_backs/set1/yellow.gif","img/card_backs/set1/purple.gif","img/card_backs/set1/green.gif","img/card_backs/set2/gray.gif","img/card_backs/set2/blue.gif","img/card_backs/set2/orange.gif","img/card_backs/set2/pink.gif","""event"",""trial"",""time""
""fullscreenenter"",""1"",""1361""
","
","
","""event"",""trial"",""time""
""fullscreenenter"",""1"",""1361""
","
","","307.60000002384186","","","","practice","2021-07-27 12:08:19.530","img/practice_cards/backs/dark_blue.gif","0","200","0","",""
"casino-fixation","41","226391","0.0-17.0-0.3","231","false","img/card_backs/set1/red.gif","img/card_backs/set1/yellow.gif","img/card_backs/set1/purple.gif","img/card_backs/set1/green.gif","img/card_backs/set2/gray.gif","img/card_backs/set2/blue.gif","img/card_backs/set2/orange.gif","img/card_backs/set2/pink.gif","""event"",""trial"",""time""
""fullscreenenter"",""1"",""1361""
","
","
","""event"",""trial"",""time""
""fullscreenenter"",""1"",""1361""
","
","","null","","null","","fixation","2021-07-27 12:08:20.049","","","","","",""
"card-selection-trial","42","229121","0.0-17.0-1.3","231","false","img/card_backs/set1/red.gif","img/card_backs/set1/yellow.gif","img/card_backs/set1/purple.gif","img/card_backs/set1/green.gif","img/card_backs/set2/gray.gif","img/card_backs/set2/blue.gif","img/card_backs/set2/orange.gif","img/card_backs/set2/pink.gif","""event"",""trial"",""time""
""fullscreenenter"",""1"",""1361""
","
","
","""event"",""trial"",""time""
""fullscreenenter"",""1"",""1361""
","
","","724","","","","practice","2021-07-27 12:08:22.779","img/practice_cards/backs/brown.gif","0","100","0","",""
"casino-fixation","43","229641","0.0-17.0-0.4","231","false","img/card_backs/set1/red.gif","img/card_backs/set1/yellow.gif","img/card_backs/set1/purple.gif","img/card_backs/set1/green.gif","img/card_backs/set2/gray.gif","img/card_backs/set2/blue.gif","img/card_backs/set2/orange.gif","img/card_backs/set2/pink.gif","""event"",""trial"",""time""
""fullscreenenter"",""1"",""1361""
","
","
","""event"",""trial"",""time""
""fullscreenenter"",""1"",""1361""
","
","","null","","null","","fixation","2021-07-27 12:08:23.299","","","","","",""
"card-selection-trial","44","231931","0.0-17.0-1.4","231","false","img/card_backs/set1/red.gif","img/card_backs/set1/yellow.gif","img/card_backs/set1/purple.gif","img/card_backs/set1/green.gif","img/card_backs/set2/gray.gif","img/card_backs/set2/blue.gif","img/card_backs/set2/orange.gif","img/card_backs/set2/pink.gif","""event"",""trial"",""time""
""fullscreenenter"",""1"",""1361""
","
","
","""event"",""trial"",""time""
""fullscreenenter"",""1"",""1361""
","
","","279.69999998807907","","","","practice","2021-07-27 12:08:25.589","img/practice_cards/backs/dark_green.gif","0","200","0","",""
"casino-fixation","45","232451","0.0-17.0-0.5","231","false","img/card_backs/set1/red.gif","img/card_backs/set1/yellow.gif","img/card_backs/set1/purple.gif","img/card_backs/set1/green.gif","img/card_backs/set2/gray.gif","img/card_backs/set2/blue.gif","img/card_backs/set2/orange.gif","img/card_backs/set2/pink.gif","""event"",""trial"",""time""
""fullscreenenter"",""1"",""1361""
","
","
","""event"",""trial"",""time""
""fullscreenenter"",""1"",""1361""
","
","","null","","null","","fixation","2021-07-27 12:08:26.109","","","","","",""
"card-selection-trial","46","236201","0.0-17.0-1.5","231","false","img/card_backs/set1/red.gif","img/card_backs/set1/yellow.gif","img/card_backs/set1/purple.gif","img/card_backs/set1/green.gif","img/card_backs/set2/gray.gif","img/card_backs/set2/blue.gif","img/card_backs/set2/orange.gif","img/card_backs/set2/pink.gif","""event"",""trial"",""time""
""fullscreenenter"",""1"",""1361""
","
","
","""event"",""trial"",""time""
""fullscreenenter"",""1"",""1361""
","
","","1728.699999988079","","","","practice","2021-07-27 12:08:29.860","img/practice_cards/backs/brown.gif","2","100","0","",""
"casino-fixation","47","236721","0.0-17.0-0.6","231","false","img/card_backs/set1/red.gif","img/card_backs/set1/yellow.gif","img/card_backs/set1/purple.gif","img/card_backs/set1/green.gif","img/card_backs/set2/gray.gif","img/card_backs/set2/blue.gif","img/card_backs/set2/orange.gif","img/card_backs/set2/pink.gif","""event"",""trial"",""time""
""fullscreenenter"",""1"",""1361""
","
","
","""event"",""trial"",""time""
""fullscreenenter"",""1"",""1361""
","
","","null","","null","","fixation","2021-07-27 12:08:30.379","","","","","",""
"card-selection-trial","48","239311","0.0-17.0-1.6","231","false","img/card_backs/set1/red.gif","img/card_backs/set1/yellow.gif","img/card_backs/set1/purple.gif","img/card_backs/set1/green.gif","img/card_backs/set2/gray.gif","img/card_backs/set2/blue.gif","img/card_backs/set2/orange.gif","img/card_backs/set2/pink.gif","""event"",""trial"",""time""
""fullscreenenter"",""1"",""1361""
","
","
","""event"",""trial"",""time""
""fullscreenenter"",""1"",""1361""
","
","","568","","","","practice","2021-07-27 12:08:32.969","img/practice_cards/backs/brown.gif","2","-100","0","",""
"casino-fixation","49","239820","0.0-17.0-0.7","231","false","img/card_backs/set1/red.gif","img/card_backs/set1/yellow.gif","img/card_backs/set1/purple.gif","img/card_backs/set1/green.gif","img/card_backs/set2/gray.gif","img/card_backs/set2/blue.gif","img/card_backs/set2/orange.gif","img/card_backs/set2/pink.gif","""event"",""trial"",""time""
""fullscreenenter"",""1"",""1361""
","
","
","""event"",""trial"",""time""
""fullscreenenter"",""1"",""1361""
","
","","null","","null","","fixation","2021-07-27 12:08:33.479","","","","","",""
"card-selection-trial","50","242481","0.0-17.0-1.7","231","false","img/card_backs/set1/red.gif","img/card_backs/set1/yellow.gif","img/card_backs/set1/purple.gif","img/card_backs/set1/green.gif","img/card_backs/set2/gray.gif","img/card_backs/set2/blue.gif","img/card_backs/set2/orange.gif","img/card_backs/set2/pink.gif","""event"",""trial"",""time""
""fullscreenenter"",""1"",""1361""
","
","
","""event"",""trial"",""time""
""fullscreenenter"",""1"",""1361""
","
","","644.5","","","","practice","2021-07-27 12:08:36.140","img/practice_cards/backs/brown.gif","0","100","0","",""
"casino-fixation","51","242991","0.0-17.0-0.8","231","false","img/card_backs/set1/red.gif","img/card_backs/set1/yellow.gif","img/card_backs/set1/purple.gif","img/card_backs/set1/green.gif","img/card_backs/set2/gray.gif","img/card_backs/set2/blue.gif","img/card_backs/set2/orange.gif","img/card_backs/set2/pink.gif","""event"",""trial"",""time""
""fullscreenenter"",""1"",""1361""
","
","
","""event"",""trial"",""time""
""fullscreenenter"",""1"",""1361""
","
","","null","","null","","fixation","2021-07-27 12:08:36.649","","","","","",""
"card-selection-trial","52","246369","0.0-17.0-1.8","231","false","img/card_backs/set1/red.gif","img/card_backs/set1/yellow.gif","img/card_backs/set1/purple.gif","img/card_backs/set1/green.gif","img/card_backs/set2/gray.gif","img/card_backs/set2/blue.gif","img/card_backs/set2/orange.gif","img/card_backs/set2/pink.gif","""event"",""trial"",""time""
""fullscreenenter"",""1"",""1361""
","
","
","""event"",""trial"",""time""
""fullscreenenter"",""1"",""1361""
","
","","1369.699999988079","","","","practice","2021-07-27 12:08:40.027","img/practice_cards/backs/dark_blue.gif","1","200","0","",""
"casino-fixation","53","246871","0.0-17.0-0.9","231","false","img/card_backs/set1/red.gif","img/card_backs/set1/yellow.gif","img/card_backs/set1/purple.gif","img/card_backs/set1/green.gif","img/card_backs/set2/gray.gif","img/card_backs/set2/blue.gif","img/card_backs/set2/orange.gif","img/card_backs/set2/pink.gif","""event"",""trial"",""time""
""fullscreenenter"",""1"",""1361""
","
","
","""event"",""trial"",""time""
""fullscreenenter"",""1"",""1361""
","
","","null","","null","","fixation","2021-07-27 12:08:40.529","","","","","",""
"card-selection-trial","54","249953","0.0-17.0-1.9","231","false","img/card_backs/set1/red.gif","img/card_backs/set1/yellow.gif","img/card_backs/set1/purple.gif","img/card_backs/set1/green.gif","img/card_backs/set2/gray.gif","img/card_backs/set2/blue.gif","img/card_backs/set2/orange.gif","img/card_backs/set2/pink.gif","""event"",""trial"",""time""
""fullscreenenter"",""1"",""1361""
","
","
","""event"",""trial"",""time""
""fullscreenenter"",""1"",""1361""
","
","","1074","","","","practice","2021-07-27 12:08:43.611","img/practice_cards/backs/dark_blue.gif","2","-200","0","",""
"casino-keyboard-response","55","252855","0.0-18.0","231","false","img/card_backs/set1/red.gif","img/card_backs/set1/yellow.gif","img/card_backs/set1/purple.gif","img/card_backs/set1/green.gif","img/card_backs/set2/gray.gif","img/card_backs/set2/blue.gif","img/card_backs/set2/orange.gif","img/card_backs/set2/pink.gif","""event"",""trial"",""time""
""fullscreenenter"",""1"",""1361""
","
","
","""event"",""trial"",""time""
""fullscreenenter"",""1"",""1361""
","
","","2899.800000011921","You earned 600 tokens during the practice round!","82","","","2021-07-27 12:08:46.514","","","","","",""
"casino-keyboard-response","56","257118","0.0-19.0-0.0","231","false","img/card_backs/set1/red.gif","img/card_backs/set1/yellow.gif","img/card_backs/set1/purple.gif","img/card_backs/set1/green.gif","img/card_backs/set2/gray.gif","img/card_backs/set2/blue.gif","img/card_backs/set2/orange.gif","img/card_backs/set2/pink.gif","""event"",""trial"",""time""
""fullscreenenter"",""1"",""1361""
","
","
","""event"",""trial"",""time""
""fullscreenenter"",""1"",""1361""
","
","","4259.300000011921","Nice job! You are almost ready to play the real game.","86","","instructions","2021-07-27 12:08:50.776","","","","","",""
"casino-keyboard-response","57","264104","0.0-19.0-0.1","231","false","img/card_backs/set1/red.gif","img/card_backs/set1/yellow.gif","img/card_backs/set1/purple.gif","img/card_backs/set1/green.gif","img/card_backs/set2/gray.gif","img/card_backs/set2/blue.gif","img/card_backs/set2/orange.gif","img/card_backs/set2/pink.gif","""event"",""trial"",""time""
""fullscreenenter"",""1"",""1361""
","
","
","""event"",""trial"",""time""
""fullscreenenter"",""1"",""1361""
","
","","6984.699999988079","You will play two rounds of the real game. In each round, you will pick 100 cards in total.","73","","instructions","2021-07-27 12:08:57.762","","","","","",""
"casino-keyboard-response","58","268319","0.0-19.0-0.2","231","false","img/card_backs/set1/red.gif","img/card_backs/set1/yellow.gif","img/card_backs/set1/purple.gif","img/card_backs/set1/green.gif","img/card_backs/set2/gray.gif","img/card_backs/set2/blue.gif","img/card_backs/set2/orange.gif","img/card_backs/set2/pink.gif","""event"",""trial"",""time""
""fullscreenenter"",""1"",""1361""
","
","
","""event"",""trial"",""time""
""fullscreenenter"",""1"",""1361""
","
","","4212.199999988079","We are now going to ask you some questions about how the game works.","66","","instructions","2021-07-27 12:09:01.977","","","","","",""
"casino-keyboard-response","59","274791","0.0-19.0-0.3","231","false","img/card_backs/set1/red.gif","img/card_backs/set1/yellow.gif","img/card_backs/set1/purple.gif","img/card_backs/set1/green.gif","img/card_backs/set2/gray.gif","img/card_backs/set2/blue.gif","img/card_backs/set2/orange.gif","img/card_backs/set2/pink.gif","""event"",""trial"",""time""
""fullscreenenter"",""1"",""1361""
","
","
","""event"",""trial"",""time""
""fullscreenenter"",""1"",""1361""
","
","","6469.699999988079","Answer carefully. You will not be able to begin the game until you answer them correctly.","67","","instructions","2021-07-27 12:09:08.450","","","","","",""
"casino-comp_q","60","278352","0.0-20.0-0.0","231","false","img/card_backs/set1/red.gif","img/card_backs/set1/yellow.gif","img/card_backs/set1/purple.gif","img/card_backs/set1/green.gif","img/card_backs/set2/gray.gif","img/card_backs/set2/blue.gif","img/card_backs/set2/orange.gif","img/card_backs/set2/pink.gif","""event"",""trial"",""time""
""fullscreenenter"",""1"",""1361""
","
","
","""event"",""trial"",""time""
""fullscreenenter"",""1"",""1361""
","
","","3556.400000035763","True or False: All the decks have some cards that cause you to win tokens and some cards that cause you to lose tokens.","84","","","2021-07-27 12:09:12.010","","","","","",""
"casino-keyboard-response","61","282135","0.0-20.0-1.0","231","false","img/card_backs/set1/red.gif","img/card_backs/set1/yellow.gif","img/card_backs/set1/purple.gif","img/card_backs/set1/green.gif","img/card_backs/set2/gray.gif","img/card_backs/set2/blue.gif","img/card_backs/set2/orange.gif","img/card_backs/set2/pink.gif","""event"",""trial"",""time""
""fullscreenenter"",""1"",""1361""
","
","
","""event"",""trial"",""time""
""fullscreenenter"",""1"",""1361""
","
","","3780.100000023842","True is correct! All the decks have a mix of winning and losing cards.","77","","","2021-07-27 12:09:15.794","","","","","true",""
"casino-comp_q","62","284991","0.0-21.0-0.0","231","false","img/card_backs/set1/red.gif","img/card_backs/set1/yellow.gif","img/card_backs/set1/purple.gif","img/card_backs/set1/green.gif","img/card_backs/set2/gray.gif","img/card_backs/set2/blue.gif","img/card_backs/set2/orange.gif","img/card_backs/set2/pink.gif","""event"",""trial"",""time""
""fullscreenenter"",""1"",""1361""
","
","
","""event"",""trial"",""time""
""fullscreenenter"",""1"",""1361""
","
","","2852.399999976158","True or False: You will have as much time as you want to make your response.","70","","","2021-07-27 12:09:18.649","","","","","",""
"casino-keyboard-response","63","288886","0.0-21.0-1.0","231","false","img/card_backs/set1/red.gif","img/card_backs/set1/yellow.gif","img/card_backs/set1/purple.gif","img/card_backs/set1/green.gif","img/card_backs/set2/gray.gif","img/card_backs/set2/blue.gif","img/card_backs/set2/orange.gif","img/card_backs/set2/pink.gif","""event"",""trial"",""time""
""fullscreenenter"",""1"",""1361""
","
","
","""event"",""trial"",""time""
""fullscreenenter"",""1"",""1361""
","
","","3888.5","False is correct! You will only have 10 seconds to make each choice.","75","","","2021-07-27 12:09:22.544","","","","","true",""
"casino-comp_q","64","292367","0.0-22.0-0.0","231","false","img/card_backs/set1/red.gif","img/card_backs/set1/yellow.gif","img/card_backs/set1/purple.gif","img/card_backs/set1/green.gif","img/card_backs/set2/gray.gif","img/card_backs/set2/blue.gif","img/card_backs/set2/orange.gif","img/card_backs/set2/pink.gif","""event"",""trial"",""time""
""fullscreenenter"",""1"",""1361""
","
","
","""event"",""trial"",""time""
""fullscreenenter"",""1"",""1361""
","
","","3478.599999964237","True or False: The location of the deck determines how lucky it is.","70","","","2021-07-27 12:09:26.025","","","","","",""
"casino-keyboard-response","65","295422","0.0-22.0-1.0","231","false","img/card_backs/set1/red.gif","img/card_backs/set1/yellow.gif","img/card_backs/set1/purple.gif","img/card_backs/set1/green.gif","img/card_backs/set2/gray.gif","img/card_backs/set2/blue.gif","img/card_backs/set2/orange.gif","img/card_backs/set2/pink.gif","""event"",""trial"",""time""
""fullscreenenter"",""1"",""1361""
","
","
","""event"",""trial"",""time""
""fullscreenenter"",""1"",""1361""
","
","","3053.2999999523163","False is correct! The <i>color</i>  of the deck determines how lucky or unlucky it is.","68","","","2021-07-27 12:09:29.080","","","","","true",""
"casino-keyboard-response","66","299463","0.0-23.0-0.0","231","false","img/card_backs/set1/red.gif","img/card_backs/set1/yellow.gif","img/card_backs/set1/purple.gif","img/card_backs/set1/green.gif","img/card_backs/set2/gray.gif","img/card_backs/set2/blue.gif","img/card_backs/set2/orange.gif","img/card_backs/set2/pink.gif","""event"",""trial"",""time""
""fullscreenenter"",""1"",""1361""
","
","
","""event"",""trial"",""time""
""fullscreenenter"",""1"",""1361""
","
","","4039.899999976158","Great job! Now it's time to start the real game.","82","","instructions","2021-07-27 12:09:33.121","","","","","",""
"casino-keyboard-response","67","304720","0.0-23.0-0.1","231","false","img/card_backs/set1/red.gif","img/card_backs/set1/yellow.gif","img/card_backs/set1/purple.gif","img/card_backs/set1/green.gif","img/card_backs/set2/gray.gif","img/card_backs/set2/blue.gif","img/card_backs/set2/orange.gif","img/card_backs/set2/pink.gif","""event"",""trial"",""time""
""fullscreenenter"",""1"",""1361""
","
","
","""event"",""trial"",""time""
""fullscreenenter"",""1"",""1361""
","
","","5253.199999988079","Before we start, we're going to head into a new room of the casino.","86","","instructions","2021-07-27 12:09:38.378","","","","","",""
"casino-keyboard-response","68","310856","0.0-24.0-0.0","231","false","img/card_backs/set1/red.gif","img/card_backs/set1/yellow.gif","img/card_backs/set1/purple.gif","img/card_backs/set1/green.gif","img/card_backs/set2/gray.gif","img/card_backs/set2/blue.gif","img/card_backs/set2/orange.gif","img/card_backs/set2/pink.gif","""event"",""trial"",""time""
""fullscreenenter"",""1"",""1361""
","
","
","""event"",""trial"",""time""
""fullscreenenter"",""1"",""1361""
","
","","6133.5","Here we are! The real game will use different cards, but the rules will be the same.","71","","instructions","2021-07-27 12:09:44.514","","","","","",""
"casino-keyboard-response","69","312559","0.0-24.0-0.1","231","false","img/card_backs/set1/red.gif","img/card_backs/set1/yellow.gif","img/card_backs/set1/purple.gif","img/card_backs/set1/green.gif","img/card_backs/set2/gray.gif","img/card_backs/set2/blue.gif","img/card_backs/set2/orange.gif","img/card_backs/set2/pink.gif","""event"",""trial"",""time""
""fullscreenenter"",""1"",""1361""
","
","
","""event"",""trial"",""time""
""fullscreenenter"",""1"",""1361""
","
","","1700.300000011921","Ready? Put your fingers over the '2', '4', 6', and '8' keys so you are ready to play the game. </br> Then press 2 to start.","50","","instructions","2021-07-27 12:09:46.217","","","","","",""
"casino-fixation","70","313063","0.0-25.0-0.0","231","false","img/card_backs/set1/red.gif","img/card_backs/set1/yellow.gif","img/card_backs/set1/purple.gif","img/card_backs/set1/green.gif","img/card_backs/set2/gray.gif","img/card_backs/set2/blue.gif","img/card_backs/set2/orange.gif","img/card_backs/set2/pink.gif","""event"",""trial"",""time""
""fullscreenenter"",""1"",""1361""
","
","
","""event"",""trial"",""time""
""fullscreenenter"",""1"",""1361""
","
","","null","","null","","fixation","2021-07-27 12:09:46.721","","","","","",""
"card-selection-trial","71","315923","0.0-25.0-1.0","231","false","img/card_backs/set1/red.gif","img/card_backs/set1/yellow.gif","img/card_backs/set1/purple.gif","img/card_backs/set1/green.gif","img/card_backs/set2/gray.gif","img/card_backs/set2/blue.gif","img/card_backs/set2/orange.gif","img/card_backs/set2/pink.gif","""event"",""trial"",""time""
""fullscreenenter"",""1"",""1361""
","
","
","""event"",""trial"",""time""
""fullscreenenter"",""1"",""1361""
","
","","849.8000000119209","","","","real_trial","2021-07-27 12:09:49.581","img/card_backs/set1/yellow.gif","0","-240","1","",""
"casino-fixation","72","316433","0.0-25.0-0.1","231","false","img/card_backs/set1/red.gif","img/card_backs/set1/yellow.gif","img/card_backs/set1/purple.gif","img/card_backs/set1/green.gif","img/card_backs/set2/gray.gif","img/card_backs/set2/blue.gif","img/card_backs/set2/orange.gif","img/card_backs/set2/pink.gif","""event"",""trial"",""time""
""fullscreenenter"",""1"",""1361""
","
","
","""event"",""trial"",""time""
""fullscreenenter"",""1"",""1361""
","
","","null","","null","","fixation","2021-07-27 12:09:50.091","","","","","",""
"card-selection-trial","73","318702","0.0-25.0-1.1","231","false","img/card_backs/set1/red.gif","img/card_backs/set1/yellow.gif","img/card_backs/set1/purple.gif","img/card_backs/set1/green.gif","img/card_backs/set2/gray.gif","img/card_backs/set2/blue.gif","img/card_backs/set2/orange.gif","img/card_backs/set2/pink.gif","""event"",""trial"",""time""
""fullscreenenter"",""1"",""1361""
","
","
","""event"",""trial"",""time""
""fullscreenenter"",""1"",""1361""
","
","","248.10000002384186","","","","real_trial","2021-07-27 12:09:52.360","img/card_backs/set1/red.gif","0","-240","1","",""
"casino-fixation","74","319213","0.0-25.0-0.2","231","false","img/card_backs/set1/red.gif","img/card_backs/set1/yellow.gif","img/card_backs/set1/purple.gif","img/card_backs/set1/green.gif","img/card_backs/set2/gray.gif","img/card_backs/set2/blue.gif","img/card_backs/set2/orange.gif","img/card_backs/set2/pink.gif","""event"",""trial"",""time""
""fullscreenenter"",""1"",""1361""
","
","
","""event"",""trial"",""time""
""fullscreenenter"",""1"",""1361""
","
","","null","","null","","fixation","2021-07-27 12:09:52.871","","","","","",""
"card-selection-trial","75","321873","0.0-25.0-1.2","231","false","img/card_backs/set1/red.gif","img/card_backs/set1/yellow.gif","img/card_backs/set1/purple.gif","img/card_backs/set1/green.gif","img/card_backs/set2/gray.gif","img/card_backs/set2/blue.gif","img/card_backs/set2/orange.gif","img/card_backs/set2/pink.gif","""event"",""trial"",""time""
""fullscreenenter"",""1"",""1361""
","
","
","""event"",""trial"",""time""
""fullscreenenter"",""1"",""1361""
","
","","652.1999999880791","","","","real_trial","2021-07-27 12:09:55.531","img/card_backs/set1/yellow.gif","3","-230","1","",""
"casino-fixation","76","322383","0.0-25.0-0.3","231","false","img/card_backs/set1/red.gif","img/card_backs/set1/yellow.gif","img/card_backs/set1/purple.gif","img/card_backs/set1/green.gif","img/card_backs/set2/gray.gif","img/card_backs/set2/blue.gif","img/card_backs/set2/orange.gif","img/card_backs/set2/pink.gif","""event"",""trial"",""time""
""fullscreenenter"",""1"",""1361""
","
","
","""event"",""trial"",""time""
""fullscreenenter"",""1"",""1361""
","
","","null","","null","","fixation","2021-07-27 12:09:56.041","","","","","",""
"card-selection-trial","77","324713","0.0-25.0-1.3","231","false","img/card_backs/set1/red.gif","img/card_backs/set1/yellow.gif","img/card_backs/set1/purple.gif","img/card_backs/set1/green.gif","img/card_backs/set2/gray.gif","img/card_backs/set2/blue.gif","img/card_backs/set2/orange.gif","img/card_backs/set2/pink.gif","""event"",""trial"",""time""
""fullscreenenter"",""1"",""1361""
","
","
","""event"",""trial"",""time""
""fullscreenenter"",""1"",""1361""
","
","","314.60000002384186","","","","real_trial","2021-07-27 12:09:58.371","img/card_backs/set1/red.gif","0","190","1","",""
"casino-fixation","78","325232","0.0-25.0-0.4","231","false","img/card_backs/set1/red.gif","img/card_backs/set1/yellow.gif","img/card_backs/set1/purple.gif","img/card_backs/set1/green.gif","img/card_backs/set2/gray.gif","img/card_backs/set2/blue.gif","img/card_backs/set2/orange.gif","img/card_backs/set2/pink.gif","""event"",""trial"",""time""
""fullscreenenter"",""1"",""1361""
","
","
","""event"",""trial"",""time""
""fullscreenenter"",""1"",""1361""
","
","","null","","null","","fixation","2021-07-27 12:09:58.890","","","","","",""
"card-selection-trial","79","327512","0.0-25.0-1.4","231","false","img/card_backs/set1/red.gif","img/card_backs/set1/yellow.gif","img/card_backs/set1/purple.gif","img/card_backs/set1/green.gif","img/card_backs/set2/gray.gif","img/card_backs/set2/blue.gif","img/card_backs/set2/orange.gif","img/card_backs/set2/pink.gif","""event"",""trial"",""time""
""fullscreenenter"",""1"",""1361""
","
","
","""event"",""trial"",""time""
""fullscreenenter"",""1"",""1361""
","
","","255.80000001192093","","","","real_trial","2021-07-27 12:10:01.170","img/card_backs/set1/red.gif","0","-250","1","",""
"casino-fixation","80","328032","0.0-25.0-0.5","231","false","img/card_backs/set1/red.gif","img/card_backs/set1/yellow.gif","img/card_backs/set1/purple.gif","img/card_backs/set1/green.gif","img/card_backs/set2/gray.gif","img/card_backs/set2/blue.gif","img/card_backs/set2/orange.gif","img/card_backs/set2/pink.gif","""event"",""trial"",""time""
""fullscreenenter"",""1"",""1361""
","
","
","""event"",""trial"",""time""
""fullscreenenter"",""1"",""1361""
","
","","null","","null","","fixation","2021-07-27 12:10:01.690","","","","","",""
"card-selection-trial","81","330643","0.0-25.0-1.5","231","false","img/card_backs/set1/red.gif","img/card_backs/set1/yellow.gif","img/card_backs/set1/purple.gif","img/card_backs/set1/green.gif","img/card_backs/set2/gray.gif","img/card_backs/set2/blue.gif","img/card_backs/set2/orange.gif","img/card_backs/set2/pink.gif","""event"",""trial"",""time""
""fullscreenenter"",""1"",""1361""
","
","
","""event"",""trial"",""time""
""fullscreenenter"",""1"",""1361""
","
","","595.5","","","","real_trial","2021-07-27 12:10:04.301","img/card_backs/set1/yellow.gif","0","180","1","",""
"casino-fixation","82","331163","0.0-25.0-0.6","231","false","img/card_backs/set1/red.gif","img/card_backs/set1/yellow.gif","img/card_backs/set1/purple.gif","img/card_backs/set1/green.gif","img/card_backs/set2/gray.gif","img/card_backs/set2/blue.gif","img/card_backs/set2/orange.gif","img/card_backs/set2/pink.gif","""event"",""trial"",""time""
""fullscreenenter"",""1"",""1361""
","
","
","""event"",""trial"",""time""
""fullscreenenter"",""1"",""1361""
","
","","null","","null","","fixation","2021-07-27 12:10:04.821","","","","","",""
"card-selection-trial","83","334533","0.0-25.0-1.6","231","false","img/card_backs/set1/red.gif","img/card_backs/set1/yellow.gif","img/card_backs/set1/purple.gif","img/card_backs/set1/green.gif","img/card_backs/set2/gray.gif","img/card_backs/set2/blue.gif","img/card_backs/set2/orange.gif","img/card_backs/set2/pink.gif","""event"",""trial"",""time""
""fullscreenenter"",""1"",""1361""
","
","
","""event"",""trial"",""time""
""fullscreenenter"",""1"",""1361""
","
","","1359.1000000238419","","","","real_trial","2021-07-27 12:10:08.191","img/card_backs/set1/green.gif","0","-60","1","",""
"casino-fixation","84","335040","0.0-25.0-0.7","231","false","img/card_backs/set1/red.gif","img/card_backs/set1/yellow.gif","img/card_backs/set1/purple.gif","img/card_backs/set1/green.gif","img/card_backs/set2/gray.gif","img/card_backs/set2/blue.gif","img/card_backs/set2/orange.gif","img/card_backs/set2/pink.gif","""event"",""trial"",""time""
""fullscreenenter"",""1"",""1361""
","
","
","""event"",""trial"",""time""
""fullscreenenter"",""1"",""1361""
","
","","null","","null","","fixation","2021-07-27 12:10:08.698","","","","","",""
"card-selection-trial","85","337943","0.0-25.0-1.7","231","false","img/card_backs/set1/red.gif","img/card_backs/set1/yellow.gif","img/card_backs/set1/purple.gif","img/card_backs/set1/green.gif","img/card_backs/set2/gray.gif","img/card_backs/set2/blue.gif","img/card_backs/set2/orange.gif","img/card_backs/set2/pink.gif","""event"",""trial"",""time""
""fullscreenenter"",""1"",""1361""
","
","
","""event"",""trial"",""time""
""fullscreenenter"",""1"",""1361""
","
","","892.6999999880791","","","","real_trial","2021-07-27 12:10:11.601","img/card_backs/set1/purple.gif","2","110","1","",""
"casino-fixation","86","338462","0.0-25.0-0.8","231","false","img/card_backs/set1/red.gif","img/card_backs/set1/yellow.gif","img/card_backs/set1/purple.gif","img/card_backs/set1/green.gif","img/card_backs/set2/gray.gif","img/card_backs/set2/blue.gif","img/card_backs/set2/orange.gif","img/card_backs/set2/pink.gif","""event"",""trial"",""time""
""fullscreenenter"",""1"",""1361""
","
","
","""event"",""trial"",""time""
""fullscreenenter"",""1"",""1361""
","
","","null","","null","","fixation","2021-07-27 12:10:12.121","","","","","",""
"card-selection-trial","87","340863","0.0-25.0-1.8","231","false","img/card_backs/set1/red.gif","img/card_backs/set1/yellow.gif","img/card_backs/set1/purple.gif","img/card_backs/set1/green.gif","img/card_backs/set2/gray.gif","img/card_backs/set2/blue.gif","img/card_backs/set2/orange.gif","img/card_backs/set2/pink.gif","""event"",""trial"",""time""
""fullscreenenter"",""1"",""1361""
","
","
","""event"",""trial"",""time""
""fullscreenenter"",""1"",""1361""
","
","","386.7999999523163","","","","real_trial","2021-07-27 12:10:14.521","img/card_backs/set1/purple.gif","2","110","1","",""
"casino-fixation","88","341372","0.0-25.0-0.9","231","false","img/card_backs/set1/red.gif","img/card_backs/set1/yellow.gif","img/card_backs/set1/purple.gif","img/card_backs/set1/green.gif","img/card_backs/set2/gray.gif","img/card_backs/set2/blue.gif","img/card_backs/set2/orange.gif","img/card_backs/set2/pink.gif","""event"",""trial"",""time""
""fullscreenenter"",""1"",""1361""
","
","
","""event"",""trial"",""time""
""fullscreenenter"",""1"",""1361""
","
","","null","","null","","fixation","2021-07-27 12:10:15.030","","","","","",""
"card-selection-trial","89","344514","0.0-25.0-1.9","231","false","img/card_backs/set1/red.gif","img/card_backs/set1/yellow.gif","img/card_backs/set1/purple.gif","img/card_backs/set1/green.gif","img/card_backs/set2/gray.gif","img/card_backs/set2/blue.gif","img/card_backs/set2/orange.gif","img/card_backs/set2/pink.gif","""event"",""trial"",""time""
""fullscreenenter"",""1"",""1361""
","
","
","""event"",""trial"",""time""
""fullscreenenter"",""1"",""1361""
","
","","1133.6000000238419","","","","real_trial","2021-07-27 12:10:18.172","img/card_backs/set1/purple.gif","1","110","1","",""
"casino-fixation","90","345015","0.0-25.0-0.10","231","false","img/card_backs/set1/red.gif","img/card_backs/set1/yellow.gif","img/card_backs/set1/purple.gif","img/card_backs/set1/green.gif","img/card_backs/set2/gray.gif","img/card_backs/set2/blue.gif","img/card_backs/set2/orange.gif","img/card_backs/set2/pink.gif","""event"",""trial"",""time""
""fullscreenenter"",""1"",""1361""
","
","
","""event"",""trial"",""time""
""fullscreenenter"",""1"",""1361""
","
","","null","","null","","fixation","2021-07-27 12:10:18.673","","","","","",""
"card-selection-trial","91","347465","0.0-25.0-1.10","231","false","img/card_backs/set1/red.gif","img/card_backs/set1/yellow.gif","img/card_backs/set1/purple.gif","img/card_backs/set1/green.gif","img/card_backs/set2/gray.gif","img/card_backs/set2/blue.gif","img/card_backs/set2/orange.gif","img/card_backs/set2/pink.gif","""event"",""trial"",""time""
""fullscreenenter"",""1"",""1361""
","
","
","""event"",""trial"",""time""
""fullscreenenter"",""1"",""1361""
","
","","441.9000000357628","","","","real_trial","2021-07-27 12:10:21.123","img/card_backs/set1/purple.gif","2","100","1","",""
"casino-fixation","92","347968","0.0-25.0-0.11","231","false","img/card_backs/set1/red.gif","img/card_backs/set1/yellow.gif","img/card_backs/set1/purple.gif","img/card_backs/set1/green.gif","img/card_backs/set2/gray.gif","img/card_backs/set2/blue.gif","img/card_backs/set2/orange.gif","img/card_backs/set2/pink.gif","""event"",""trial"",""time""
""fullscreenenter"",""1"",""1361""
","
","
","""event"",""trial"",""time""
""fullscreenenter"",""1"",""1361""
","
","","null","","null","","fixation","2021-07-27 12:10:21.626","","","","","",""
"card-selection-trial","93","350474","0.0-25.0-1.11","231","false","img/card_backs/set1/red.gif","img/card_backs/set1/yellow.gif","img/card_backs/set1/purple.gif","img/card_backs/set1/green.gif","img/card_backs/set2/gray.gif","img/card_backs/set2/blue.gif","img/card_backs/set2/orange.gif","img/card_backs/set2/pink.gif","""event"",""trial"",""time""
""fullscreenenter"",""1"",""1361""
","
","
","""event"",""trial"",""time""
""fullscreenenter"",""1"",""1361""
","
","","498.10000002384186","","","","real_trial","2021-07-27 12:10:24.132","img/card_backs/set1/purple.gif","0","-60","1","",""
"casino-fixation","94","350975","0.0-25.0-0.12","231","false","img/card_backs/set1/red.gif","img/card_backs/set1/yellow.gif","img/card_backs/set1/purple.gif","img/card_backs/set1/green.gif","img/card_backs/set2/gray.gif","img/card_backs/set2/blue.gif","img/card_backs/set2/orange.gif","img/card_backs/set2/pink.gif","""event"",""trial"",""time""
""fullscreenenter"",""1"",""1361""
","
","
","""event"",""trial"",""time""
""fullscreenenter"",""1"",""1361""
","
","","null","","null","","fixation","2021-07-27 12:10:24.634","","","","","",""
"card-selection-trial","95","353578","0.0-25.0-1.12","231","false","img/card_backs/set1/red.gif","img/card_backs/set1/yellow.gif","img/card_backs/set1/purple.gif","img/card_backs/set1/green.gif","img/card_backs/set2/gray.gif","img/card_backs/set2/blue.gif","img/card_backs/set2/orange.gif","img/card_backs/set2/pink.gif","""event"",""trial"",""time""
""fullscreenenter"",""1"",""1361""
","
","
","""event"",""trial"",""time""
""fullscreenenter"",""1"",""1361""
","
","","594.1999999880791","","","","real_trial","2021-07-27 12:10:27.236","img/card_backs/set1/purple.gif","3","100","1","",""
"casino-fixation","96","354080","0.0-25.0-0.13","231","false","img/card_backs/set1/red.gif","img/card_backs/set1/yellow.gif","img/card_backs/set1/purple.gif","img/card_backs/set1/green.gif","img/card_backs/set2/gray.gif","img/card_backs/set2/blue.gif","img/card_backs/set2/orange.gif","img/card_backs/set2/pink.gif","""event"",""trial"",""time""
""fullscreenenter"",""1"",""1361""
","
","
","""event"",""trial"",""time""
""fullscreenenter"",""1"",""1361""
","
","","null","","null","","fixation","2021-07-27 12:10:27.738","","","","","",""
"card-selection-trial","97","356530","0.0-25.0-1.13","231","false","img/card_backs/set1/red.gif","img/card_backs/set1/yellow.gif","img/card_backs/set1/purple.gif","img/card_backs/set1/green.gif","img/card_backs/set2/gray.gif","img/card_backs/set2/blue.gif","img/card_backs/set2/orange.gif","img/card_backs/set2/pink.gif","""event"",""trial"",""time""
""fullscreenenter"",""1"",""1361""
","
","
","""event"",""trial"",""time""
""fullscreenenter"",""1"",""1361""
","
","","445.19999998807907","","","","real_trial","2021-07-27 12:10:30.188","img/card_backs/set1/purple.gif","1","120","1","",""
"casino-fixation","98","357032","0.0-25.0-0.14","231","false","img/card_backs/set1/red.gif","img/card_backs/set1/yellow.gif","img/card_backs/set1/purple.gif","img/card_backs/set1/green.gif","img/card_backs/set2/gray.gif","img/card_backs/set2/blue.gif","img/card_backs/set2/orange.gif","img/card_backs/set2/pink.gif","""event"",""trial"",""time""
""fullscreenenter"",""1"",""1361""
","
","
","""event"",""trial"",""time""
""fullscreenenter"",""1"",""1361""
","
","","null","","null","","fixation","2021-07-27 12:10:30.690","","","","","",""
"card-selection-trial","99","359441","0.0-25.0-1.14","231","false","img/card_backs/set1/red.gif","img/card_backs/set1/yellow.gif","img/card_backs/set1/purple.gif","img/card_backs/set1/green.gif","img/card_backs/set2/gray.gif","img/card_backs/set2/blue.gif","img/card_backs/set2/orange.gif","img/card_backs/set2/pink.gif","""event"",""trial"",""time""
""fullscreenenter"",""1"",""1361""
","
","
","""event"",""trial"",""time""
""fullscreenenter"",""1"",""1361""
","
","","400.89999997615814","","","","real_trial","2021-07-27 12:10:33.099","img/card_backs/set1/purple.gif","2","110","1","",""
"casino-fixation","100","359944","0.0-25.0-0.15","231","false","img/card_backs/set1/red.gif","img/card_backs/set1/yellow.gif","img/card_backs/set1/purple.gif","img/card_backs/set1/green.gif","img/card_backs/set2/gray.gif","img/card_backs/set2/blue.gif","img/card_backs/set2/orange.gif","img/card_backs/set2/pink.gif","""event"",""trial"",""time""
""fullscreenenter"",""1"",""1361""
","
","
","""event"",""trial"",""time""
""fullscreenenter"",""1"",""1361""
","
","","null","","null","","fixation","2021-07-27 12:10:33.602","","","","","",""
"card-selection-trial","101","362322","0.0-25.0-1.15","231","false","img/card_backs/set1/red.gif","img/card_backs/set1/yellow.gif","img/card_backs/set1/purple.gif","img/card_backs/set1/green.gif","img/card_backs/set2/gray.gif","img/card_backs/set2/blue.gif","img/card_backs/set2/orange.gif","img/card_backs/set2/pink.gif","""event"",""trial"",""time""
""fullscreenenter"",""1"",""1361""
","
","
","""event"",""trial"",""time""
""fullscreenenter"",""1"",""1361""
","
","","369.7000000476837","","","","real_trial","2021-07-27 12:10:35.980","img/card_backs/set1/purple.gif","2","-60","1","",""
"casino-fixation","102","362823","0.0-25.0-0.16","231","false","img/card_backs/set1/red.gif","img/card_backs/set1/yellow.gif","img/card_backs/set1/purple.gif","img/card_backs/set1/green.gif","img/card_backs/set2/gray.gif","img/card_backs/set2/blue.gif","img/card_backs/set2/orange.gif","img/card_backs/set2/pink.gif","""event"",""trial"",""time""
""fullscreenenter"",""1"",""1361""
","
","
","""event"",""trial"",""time""
""fullscreenenter"",""1"",""1361""
","
","","null","","null","","fixation","2021-07-27 12:10:36.481","","","","","",""
"card-selection-trial","103","365273","0.0-25.0-1.16","231","false","img/card_backs/set1/red.gif","img/card_backs/set1/yellow.gif","img/card_backs/set1/purple.gif","img/card_backs/set1/green.gif","img/card_backs/set2/gray.gif","img/card_backs/set2/blue.gif","img/card_backs/set2/orange.gif","img/card_backs/set2/pink.gif","""event"",""trial"",""time""
""fullscreenenter"",""1"",""1361""
","
","
","""event"",""trial"",""time""
""fullscreenenter"",""1"",""1361""
","
","","442.60000002384186","","","","real_trial","2021-07-27 12:10:38.931","img/card_backs/set1/purple.gif","3","100","1","",""
"casino-fixation","104","365776","0.0-25.0-0.17","231","false","img/card_backs/set1/red.gif","img/card_backs/set1/yellow.gif","img/card_backs/set1/purple.gif","img/card_backs/set1/green.gif","img/card_backs/set2/gray.gif","img/card_backs/set2/blue.gif","img/card_backs/set2/orange.gif","img/card_backs/set2/pink.gif","""event"",""trial"",""time""
""fullscreenenter"",""1"",""1361""
","
","
","""event"",""trial"",""time""
""fullscreenenter"",""1"",""1361""
","
","","null","","null","","fixation","2021-07-27 12:10:39.434","","","","","",""
"card-selection-trial","105","368263","0.0-25.0-1.17","231","false","img/card_backs/set1/red.gif","img/card_backs/set1/yellow.gif","img/card_backs/set1/purple.gif","img/card_backs/set1/green.gif","img/card_backs/set2/gray.gif","img/card_backs/set2/blue.gif","img/card_backs/set2/orange.gif","img/card_backs/set2/pink.gif","""event"",""trial"",""time""
""fullscreenenter"",""1"",""1361""
","
","
","""event"",""trial"",""time""
""fullscreenenter"",""1"",""1361""
","
","","465.19999998807907","","","","real_trial","2021-07-27 12:10:41.921","img/card_backs/set1/purple.gif","0","-70","1","",""
"casino-fixation","106","368765","0.0-25.0-0.18","231","false","img/card_backs/set1/red.gif","img/card_backs/set1/yellow.gif","img/card_backs/set1/purple.gif","img/card_backs/set1/green.gif","img/card_backs/set2/gray.gif","img/card_backs/set2/blue.gif","img/card_backs/set2/orange.gif","img/card_backs/set2/pink.gif","""event"",""trial"",""time""
""fullscreenenter"",""1"",""1361""
","
","
","""event"",""trial"",""time""
""fullscreenenter"",""1"",""1361""
","
","","null","","null","","fixation","2021-07-27 12:10:42.423","","","","","",""
"card-selection-trial","107","371152","0.0-25.0-1.18","231","false","img/card_backs/set1/red.gif","img/card_backs/set1/yellow.gif","img/card_backs/set1/purple.gif","img/card_backs/set1/green.gif","img/card_backs/set2/gray.gif","img/card_backs/set2/blue.gif","img/card_backs/set2/orange.gif","img/card_backs/set2/pink.gif","""event"",""trial"",""time""
""fullscreenenter"",""1"",""1361""
","
","
","""event"",""trial"",""time""
""fullscreenenter"",""1"",""1361""
","
","","380.10000002384186","","","","real_trial","2021-07-27 12:10:44.811","img/card_backs/set1/purple.gif","3","-70","1","",""
"casino-fixation","108","371654","0.0-25.0-0.19","231","false","img/card_backs/set1/red.gif","img/card_backs/set1/yellow.gif","img/card_backs/set1/purple.gif","img/card_backs/set1/green.gif","img/card_backs/set2/gray.gif","img/card_backs/set2/blue.gif","img/card_backs/set2/orange.gif","img/card_backs/set2/pink.gif","""event"",""trial"",""time""
""fullscreenenter"",""1"",""1361""
","
","
","""event"",""trial"",""time""
""fullscreenenter"",""1"",""1361""
","
","","null","","null","","fixation","2021-07-27 12:10:45.312","","","","","",""
"card-selection-trial","109","374313","0.0-25.0-1.19","231","false","img/card_backs/set1/red.gif","img/card_backs/set1/yellow.gif","img/card_backs/set1/purple.gif","img/card_backs/set1/green.gif","img/card_backs/set2/gray.gif","img/card_backs/set2/blue.gif","img/card_backs/set2/orange.gif","img/card_backs/set2/pink.gif","""event"",""trial"",""time""
""fullscreenenter"",""1"",""1361""
","
","
","""event"",""trial"",""time""
""fullscreenenter"",""1"",""1361""
","
","","649","","","","real_trial","2021-07-27 12:10:47.971","img/card_backs/set1/purple.gif","1","120","1","",""
"casino-fixation","110","374815","0.0-25.0-0.20","231","false","img/card_backs/set1/red.gif","img/card_backs/set1/yellow.gif","img/card_backs/set1/purple.gif","img/card_backs/set1/green.gif","img/card_backs/set2/gray.gif","img/card_backs/set2/blue.gif","img/card_backs/set2/orange.gif","img/card_backs/set2/pink.gif","""event"",""trial"",""time""
""fullscreenenter"",""1"",""1361""
","
","
","""event"",""trial"",""time""
""fullscreenenter"",""1"",""1361""
","
","","null","","null","","fixation","2021-07-27 12:10:48.473","","","","","",""
"card-selection-trial","111","378280","0.0-25.0-1.20","231","false","img/card_backs/set1/red.gif","img/card_backs/set1/yellow.gif","img/card_backs/set1/purple.gif","img/card_backs/set1/green.gif","img/card_backs/set2/gray.gif","img/card_backs/set2/blue.gif","img/card_backs/set2/orange.gif","img/card_backs/set2/pink.gif","""event"",""trial"",""time""
""fullscreenenter"",""1"",""1361""
","
","
","""event"",""trial"",""time""
""fullscreenenter"",""1"",""1361""
","
","","1458.199999988079","","","","real_trial","2021-07-27 12:10:51.938","img/card_backs/set1/green.gif","3","-70","1","",""
"casino-fixation","112","378782","0.0-25.0-0.21","231","false","img/card_backs/set1/red.gif","img/card_backs/set1/yellow.gif","img/card_backs/set1/purple.gif","img/card_backs/set1/green.gif","img/card_backs/set2/gray.gif","img/card_backs/set2/blue.gif","img/card_backs/set2/orange.gif","img/card_backs/set2/pink.gif","""event"",""trial"",""time""
""fullscreenenter"",""1"",""1361""
","
","
","""event"",""trial"",""time""
""fullscreenenter"",""1"",""1361""
","
","","null","","null","","fixation","2021-07-27 12:10:52.441","","","","","",""
"card-selection-trial","113","381297","0.0-25.0-1.21","231","false","img/card_backs/set1/red.gif","img/card_backs/set1/yellow.gif","img/card_backs/set1/purple.gif","img/card_backs/set1/green.gif","img/card_backs/set2/gray.gif","img/card_backs/set2/blue.gif","img/card_backs/set2/orange.gif","img/card_backs/set2/pink.gif","""event"",""trial"",""time""
""fullscreenenter"",""1"",""1361""
","
","
","""event"",""trial"",""time""
""fullscreenenter"",""1"",""1361""
","
","","506.30000001192093","","","","real_trial","2021-07-27 12:10:54.955","img/card_backs/set1/purple.gif","2","-50","1","",""
"casino-fixation","114","381800","0.0-25.0-0.22","231","false","img/card_backs/set1/red.gif","img/card_backs/set1/yellow.gif","img/card_backs/set1/purple.gif","img/card_backs/set1/green.gif","img/card_backs/set2/gray.gif","img/card_backs/set2/blue.gif","img/card_backs/set2/orange.gif","img/card_backs/set2/pink.gif","""event"",""trial"",""time""
""fullscreenenter"",""1"",""1361""
","
","
","""event"",""trial"",""time""
""fullscreenenter"",""1"",""1361""
","
","","null","","null","","fixation","2021-07-27 12:10:55.458","","","","","",""
"card-selection-trial","115","384057","0.0-25.0-1.22","231","false","img/card_backs/set1/red.gif","img/card_backs/set1/yellow.gif","img/card_backs/set1/purple.gif","img/card_backs/set1/green.gif","img/card_backs/set2/gray.gif","img/card_backs/set2/blue.gif","img/card_backs/set2/orange.gif","img/card_backs/set2/pink.gif","""event"",""trial"",""time""
""fullscreenenter"",""1"",""1361""
","
","
","""event"",""trial"",""time""
""fullscreenenter"",""1"",""1361""
","
","","248.39999997615814","","","","real_trial","2021-07-27 12:10:57.715","img/card_backs/set1/yellow.gif","0","200","1","",""
"casino-fixation","116","384558","0.0-25.0-0.23","231","false","img/card_backs/set1/red.gif","img/card_backs/set1/yellow.gif","img/card_backs/set1/purple.gif","img/card_backs/set1/green.gif","img/card_backs/set2/gray.gif","img/card_backs/set2/blue.gif","img/card_backs/set2/orange.gif","img/card_backs/set2/pink.gif","""event"",""trial"",""time""
""fullscreenenter"",""1"",""1361""
","
","
","""event"",""trial"",""time""
""fullscreenenter"",""1"",""1361""
","
","","null","","null","","fixation","2021-07-27 12:10:58.216","","","","","",""
"card-selection-trial","117","387152","0.0-25.0-1.23","231","false","img/card_backs/set1/red.gif","img/card_backs/set1/yellow.gif","img/card_backs/set1/purple.gif","img/card_backs/set1/green.gif","img/card_backs/set2/gray.gif","img/card_backs/set2/blue.gif","img/card_backs/set2/orange.gif","img/card_backs/set2/pink.gif","""event"",""trial"",""time""
""fullscreenenter"",""1"",""1361""
","
","
","""event"",""trial"",""time""
""fullscreenenter"",""1"",""1361""
","
","","587","","","","real_trial","2021-07-27 12:11:00.810","img/card_backs/set1/yellow.gif","1","190","1","",""
"casino-fixation","118","387654","0.0-25.0-0.24","231","false","img/card_backs/set1/red.gif","img/card_backs/set1/yellow.gif","img/card_backs/set1/purple.gif","img/card_backs/set1/green.gif","img/card_backs/set2/gray.gif","img/card_backs/set2/blue.gif","img/card_backs/set2/orange.gif","img/card_backs/set2/pink.gif","""event"",""trial"",""time""
""fullscreenenter"",""1"",""1361""
","
","
","""event"",""trial"",""time""
""fullscreenenter"",""1"",""1361""
","
","","null","","null","","fixation","2021-07-27 12:11:01.312","","","","","",""
"card-selection-trial","119","390256","0.0-25.0-1.24","231","false","img/card_backs/set1/red.gif","img/card_backs/set1/yellow.gif","img/card_backs/set1/purple.gif","img/card_backs/set1/green.gif","img/card_backs/set2/gray.gif","img/card_backs/set2/blue.gif","img/card_backs/set2/orange.gif","img/card_backs/set2/pink.gif","""event"",""trial"",""time""
""fullscreenenter"",""1"",""1361""
","
","
","""event"",""trial"",""time""
""fullscreenenter"",""1"",""1361""
","
","","594.9000000357628","","","","real_trial","2021-07-27 12:11:03.914","img/card_backs/set1/yellow.gif","3","-230","1","",""
"casino-fixation","120","390758","0.0-25.0-0.25","231","false","img/card_backs/set1/red.gif","img/card_backs/set1/yellow.gif","img/card_backs/set1/purple.gif","img/card_backs/set1/green.gif","img/card_backs/set2/gray.gif","img/card_backs/set2/blue.gif","img/card_backs/set2/orange.gif","img/card_backs/set2/pink.gif","""event"",""trial"",""time""
""fullscreenenter"",""1"",""1361""
","
","
","""event"",""trial"",""time""
""fullscreenenter"",""1"",""1361""
","
","","null","","null","","fixation","2021-07-27 12:11:04.416","","","","","",""
"card-selection-trial","121","393216","0.0-25.0-1.25","231","false","img/card_backs/set1/red.gif","img/card_backs/set1/yellow.gif","img/card_backs/set1/purple.gif","img/card_backs/set1/green.gif","img/card_backs/set2/gray.gif","img/card_backs/set2/blue.gif","img/card_backs/set2/orange.gif","img/card_backs/set2/pink.gif","""event"",""trial"",""time""
""fullscreenenter"",""1"",""1361""
","
","
","""event"",""trial"",""time""
""fullscreenenter"",""1"",""1361""
","
","","450.39999997615814","","","","real_trial","2021-07-27 12:11:06.874","img/card_backs/set1/yellow.gif","0","-240","1","",""
"casino-fixation","122","393718","0.0-25.0-0.26","231","false","img/card_backs/set1/red.gif","img/card_backs/set1/yellow.gif","img/card_backs/set1/purple.gif","img/card_backs/set1/green.gif","img/card_backs/set2/gray.gif","img/card_backs/set2/blue.gif","img/card_backs/set2/orange.gif","img/card_backs/set2/pink.gif","""event"",""trial"",""time""
""fullscreenenter"",""1"",""1361""
","
","
","""event"",""trial"",""time""
""fullscreenenter"",""1"",""1361""
","
","","null","","null","","fixation","2021-07-27 12:11:07.376","","","","","",""
"card-selection-trial","123","396105","0.0-25.0-1.26","231","false","img/card_backs/set1/red.gif","img/card_backs/set1/yellow.gif","img/card_backs/set1/purple.gif","img/card_backs/set1/green.gif","img/card_backs/set2/gray.gif","img/card_backs/set2/blue.gif","img/card_backs/set2/orange.gif","img/card_backs/set2/pink.gif","""event"",""trial"",""time""
""fullscreenenter"",""1"",""1361""
","
","
","""event"",""trial"",""time""
""fullscreenenter"",""1"",""1361""
","
","","379.39999997615814","","","","real_trial","2021-07-27 12:11:09.763","img/card_backs/set1/yellow.gif","0","-240","1","",""
"casino-fixation","124","396607","0.0-25.0-0.27","231","false","img/card_backs/set1/red.gif","img/card_backs/set1/yellow.gif","img/card_backs/set1/purple.gif","img/card_backs/set1/green.gif","img/card_backs/set2/gray.gif","img/card_backs/set2/blue.gif","img/card_backs/set2/orange.gif","img/card_backs/set2/pink.gif","""event"",""trial"",""time""
""fullscreenenter"",""1"",""1361""
","
","
","""event"",""trial"",""time""
""fullscreenenter"",""1"",""1361""
","
","","null","","null","","fixation","2021-07-27 12:11:10.265","","","","","",""
"card-selection-trial","125","399025","0.0-25.0-1.27","231","false","img/card_backs/set1/red.gif","img/card_backs/set1/yellow.gif","img/card_backs/set1/purple.gif","img/card_backs/set1/green.gif","img/card_backs/set2/gray.gif","img/card_backs/set2/blue.gif","img/card_backs/set2/orange.gif","img/card_backs/set2/pink.gif","""event"",""trial"",""time""
""fullscreenenter"",""1"",""1361""
","
","
","""event"",""trial"",""time""
""fullscreenenter"",""1"",""1361""
","
","","410.10000002384186","","","","real_trial","2021-07-27 12:11:12.683","img/card_backs/set1/red.gif","0","-250","1","",""
"casino-fixation","126","399527","0.0-25.0-0.28","231","false","img/card_backs/set1/red.gif","img/card_backs/set1/yellow.gif","img/card_backs/set1/purple.gif","img/card_backs/set1/green.gif","img/card_backs/set2/gray.gif","img/card_backs/set2/blue.gif","img/card_backs/set2/orange.gif","img/card_backs/set2/pink.gif","""event"",""trial"",""time""
""fullscreenenter"",""1"",""1361""
","
","
","""event"",""trial"",""time""
""fullscreenenter"",""1"",""1361""
","
","","null","","null","","fixation","2021-07-27 12:11:13.185","","","","","",""
"card-selection-trial","127","402314","0.0-25.0-1.28","231","false","img/card_backs/set1/red.gif","img/card_backs/set1/yellow.gif","img/card_backs/set1/purple.gif","img/card_backs/set1/green.gif","img/card_backs/set2/gray.gif","img/card_backs/set2/blue.gif","img/card_backs/set2/orange.gif","img/card_backs/set2/pink.gif","""event"",""trial"",""time""
""fullscreenenter"",""1"",""1361""
","
","
","""event"",""trial"",""time""
""fullscreenenter"",""1"",""1361""
","
","","779.1999999880791","","","","real_trial","2021-07-27 12:11:15.972","img/card_backs/set1/purple.gif","3","110","1","",""
"casino-fixation","128","402816","0.0-25.0-0.29","231","false","img/card_backs/set1/red.gif","img/card_backs/set1/yellow.gif","img/card_backs/set1/purple.gif","img/card_backs/set1/green.gif","img/card_backs/set2/gray.gif","img/card_backs/set2/blue.gif","img/card_backs/set2/orange.gif","img/card_backs/set2/pink.gif","""event"",""trial"",""time""
""fullscreenenter"",""1"",""1361""
","
","
","""event"",""trial"",""time""
""fullscreenenter"",""1"",""1361""
","
","","null","","null","","fixation","2021-07-27 12:11:16.474","","","","","",""
"card-selection-trial","129","405350","0.0-25.0-1.29","231","false","img/card_backs/set1/red.gif","img/card_backs/set1/yellow.gif","img/card_backs/set1/purple.gif","img/card_backs/set1/green.gif","img/card_backs/set2/gray.gif","img/card_backs/set2/blue.gif","img/card_backs/set2/orange.gif","img/card_backs/set2/pink.gif","""event"",""trial"",""time""
""fullscreenenter"",""1"",""1361""
","
","
","""event"",""trial"",""time""
""fullscreenenter"",""1"",""1361""
","
","","512.5999999642372","","","","real_trial","2021-07-27 12:11:19.008","img/card_backs/set1/purple.gif","0","-50","1","",""
"casino-fixation","130","405854","0.0-25.0-0.30","231","false","img/card_backs/set1/red.gif","img/card_backs/set1/yellow.gif","img/card_backs/set1/purple.gif","img/card_backs/set1/green.gif","img/card_backs/set2/gray.gif","img/card_backs/set2/blue.gif","img/card_backs/set2/orange.gif","img/card_backs/set2/pink.gif","""event"",""trial"",""time""
""fullscreenenter"",""1"",""1361""
","
","
","""event"",""trial"",""time""
""fullscreenenter"",""1"",""1361""
","
","","null","","null","","fixation","2021-07-27 12:11:19.512","","","","","",""
"card-selection-trial","131","408391","0.0-25.0-1.30","231","false","img/card_backs/set1/red.gif","img/card_backs/set1/yellow.gif","img/card_backs/set1/purple.gif","img/card_backs/set1/green.gif","img/card_backs/set2/gray.gif","img/card_backs/set2/blue.gif","img/card_backs/set2/orange.gif","img/card_backs/set2/pink.gif","""event"",""trial"",""time""
""fullscreenenter"",""1"",""1361""
","
","
","""event"",""trial"",""time""
""fullscreenenter"",""1"",""1361""
","
","","530","","","","real_trial","2021-07-27 12:11:22.049","img/card_backs/set1/purple.gif","2","-50","1","",""
"casino-fixation","132","408894","0.0-25.0-0.31","231","false","img/card_backs/set1/red.gif","img/card_backs/set1/yellow.gif","img/card_backs/set1/purple.gif","img/card_backs/set1/green.gif","img/card_backs/set2/gray.gif","img/card_backs/set2/blue.gif","img/card_backs/set2/orange.gif","img/card_backs/set2/pink.gif","""event"",""trial"",""time""
""fullscreenenter"",""1"",""1361""
","
","
","""event"",""trial"",""time""
""fullscreenenter"",""1"",""1361""
","
","","null","","null","","fixation","2021-07-27 12:11:22.552","","","","","",""
"card-selection-trial","133","411297","0.0-25.0-1.31","231","false","img/card_backs/set1/red.gif","img/card_backs/set1/yellow.gif","img/card_backs/set1/purple.gif","img/card_backs/set1/green.gif","img/card_backs/set2/gray.gif","img/card_backs/set2/blue.gif","img/card_backs/set2/orange.gif","img/card_backs/set2/pink.gif","""event"",""trial"",""time""
""fullscreenenter"",""1"",""1361""
","
","
","""event"",""trial"",""time""
""fullscreenenter"",""1"",""1361""
","
","","394.9000000357628","","","","real_trial","2021-07-27 12:11:24.956","img/card_backs/set1/purple.gif","0","120","1","",""
"casino-fixation","134","411800","0.0-25.0-0.32","231","false","img/card_backs/set1/red.gif","img/card_backs/set1/yellow.gif","img/card_backs/set1/purple.gif","img/card_backs/set1/green.gif","img/card_backs/set2/gray.gif","img/card_backs/set2/blue.gif","img/card_backs/set2/orange.gif","img/card_backs/set2/pink.gif","""event"",""trial"",""time""
""fullscreenenter"",""1"",""1361""
","
","
","""event"",""trial"",""time""
""fullscreenenter"",""1"",""1361""
","
","","null","","null","","fixation","2021-07-27 12:11:25.458","","","","","",""
"card-selection-trial","135","414216","0.0-25.0-1.32","231","false","img/card_backs/set1/red.gif","img/card_backs/set1/yellow.gif","img/card_backs/set1/purple.gif","img/card_backs/set1/green.gif","img/card_backs/set2/gray.gif","img/card_backs/set2/blue.gif","img/card_backs/set2/orange.gif","img/card_backs/set2/pink.gif","""event"",""trial"",""time""
""fullscreenenter"",""1"",""1361""
","
","
","""event"",""trial"",""time""
""fullscreenenter"",""1"",""1361""
","
","","408.80000001192093","","","","real_trial","2021-07-27 12:11:27.874","img/card_backs/set1/purple.gif","2","-70","1","",""
"casino-fixation","136","414717","0.0-25.0-0.33","231","false","img/card_backs/set1/red.gif","img/card_backs/set1/yellow.gif","img/card_backs/set1/purple.gif","img/card_backs/set1/green.gif","img/card_backs/set2/gray.gif","img/card_backs/set2/blue.gif","img/card_backs/set2/orange.gif","img/card_backs/set2/pink.gif","""event"",""trial"",""time""
""fullscreenenter"",""1"",""1361""
","
","
","""event"",""trial"",""time""
""fullscreenenter"",""1"",""1361""
","
","","null","","null","","fixation","2021-07-27 12:11:28.376","","","","","",""
"card-selection-trial","137","417047","0.0-25.0-1.33","231","false","img/card_backs/set1/red.gif","img/card_backs/set1/yellow.gif","img/card_backs/set1/purple.gif","img/card_backs/set1/green.gif","img/card_backs/set2/gray.gif","img/card_backs/set2/blue.gif","img/card_backs/set2/orange.gif","img/card_backs/set2/pink.gif","""event"",""trial"",""time""
""fullscreenenter"",""1"",""1361""
","
","
","""event"",""trial"",""time""
""fullscreenenter"",""1"",""1361""
","
","","321.7000000476837","","","","real_trial","2021-07-27 12:11:30.705","img/card_backs/set1/purple.gif","0","100","1","",""
"casino-fixation","138","417549","0.0-25.0-0.34","231","false","img/card_backs/set1/red.gif","img/card_backs/set1/yellow.gif","img/card_backs/set1/purple.gif","img/card_backs/set1/green.gif","img/card_backs/set2/gray.gif","img/card_backs/set2/blue.gif","img/card_backs/set2/orange.gif","img/card_backs/set2/pink.gif","""event"",""trial"",""time""
""fullscreenenter"",""1"",""1361""
","
","
","""event"",""trial"",""time""
""fullscreenenter"",""1"",""1361""
","
","","null","","null","","fixation","2021-07-27 12:11:31.207","","","","","",""
"card-selection-trial","139","419945","0.0-25.0-1.34","231","false","img/card_backs/set1/red.gif","img/card_backs/set1/yellow.gif","img/card_backs/set1/purple.gif","img/card_backs/set1/green.gif","img/card_backs/set2/gray.gif","img/card_backs/set2/blue.gif","img/card_backs/set2/orange.gif","img/card_backs/set2/pink.gif","""event"",""trial"",""time""
""fullscreenenter"",""1"",""1361""
","
","
","""event"",""trial"",""time""
""fullscreenenter"",""1"",""1361""
","
","","387.80000001192093","","","","real_trial","2021-07-27 12:11:33.603","img/card_backs/set1/purple.gif","0","110","1","",""
"casino-fixation","140","420447","0.0-25.0-0.35","231","false","img/card_backs/set1/red.gif","img/card_backs/set1/yellow.gif","img/card_backs/set1/purple.gif","img/card_backs/set1/green.gif","img/card_backs/set2/gray.gif","img/card_backs/set2/blue.gif","img/card_backs/set2/orange.gif","img/card_backs/set2/pink.gif","""event"",""trial"",""time""
""fullscreenenter"",""1"",""1361""
","
","
","""event"",""trial"",""time""
""fullscreenenter"",""1"",""1361""
","
","","null","","null","","fixation","2021-07-27 12:11:34.105","","","","","",""
"card-selection-trial","141","422833","0.0-25.0-1.35","231","false","img/card_backs/set1/red.gif","img/card_backs/set1/yellow.gif","img/card_backs/set1/purple.gif","img/card_backs/set1/green.gif","img/card_backs/set2/gray.gif","img/card_backs/set2/blue.gif","img/card_backs/set2/orange.gif","img/card_backs/set2/pink.gif","""event"",""trial"",""time""
""fullscreenenter"",""1"",""1361""
","
","
","""event"",""trial"",""time""
""fullscreenenter"",""1"",""1361""
","
","","377.89999997615814","","","","real_trial","2021-07-27 12:11:36.491","img/card_backs/set1/purple.gif","2","-60","1","",""
"casino-fixation","142","423335","0.0-25.0-0.36","231","false","img/card_backs/set1/red.gif","img/card_backs/set1/yellow.gif","img/card_backs/set1/purple.gif","img/card_backs/set1/green.gif","img/card_backs/set2/gray.gif","img/card_backs/set2/blue.gif","img/card_backs/set2/orange.gif","img/card_backs/set2/pink.gif","""event"",""trial"",""time""
""fullscreenenter"",""1"",""1361""
","
","
","""event"",""trial"",""time""
""fullscreenenter"",""1"",""1361""
","
","","null","","null","","fixation","2021-07-27 12:11:36.994","","","","","",""
"card-selection-trial","143","425818","0.0-25.0-1.36","231","false","img/card_backs/set1/red.gif","img/card_backs/set1/yellow.gif","img/card_backs/set1/purple.gif","img/card_backs/set1/green.gif","img/card_backs/set2/gray.gif","img/card_backs/set2/blue.gif","img/card_backs/set2/orange.gif","img/card_backs/set2/pink.gif","""event"",""trial"",""time""
""fullscreenenter"",""1"",""1361""
","
","
","""event"",""trial"",""time""
""fullscreenenter"",""1"",""1361""
","
","","473.69999998807907","","","","real_trial","2021-07-27 12:11:39.476","img/card_backs/set1/purple.gif","2","-60","1","",""
"casino-fixation","144","426320","0.0-25.0-0.37","231","false","img/card_backs/set1/red.gif","img/card_backs/set1/yellow.gif","img/card_backs/set1/purple.gif","img/card_backs/set1/green.gif","img/card_backs/set2/gray.gif","img/card_backs/set2/blue.gif","img/card_backs/set2/orange.gif","img/card_backs/set2/pink.gif","""event"",""trial"",""time""
""fullscreenenter"",""1"",""1361""
","
","
","""event"",""trial"",""time""
""fullscreenenter"",""1"",""1361""
","
","","null","","null","","fixation","2021-07-27 12:11:39.978","","","","","",""
"card-selection-trial","145","428769","0.0-25.0-1.37","231","false","img/card_backs/set1/red.gif","img/card_backs/set1/yellow.gif","img/card_backs/set1/purple.gif","img/card_backs/set1/green.gif","img/card_backs/set2/gray.gif","img/card_backs/set2/blue.gif","img/card_backs/set2/orange.gif","img/card_backs/set2/pink.gif","""event"",""trial"",""time""
""fullscreenenter"",""1"",""1361""
","
","
","""event"",""trial"",""time""
""fullscreenenter"",""1"",""1361""
","
","","441.2999999523163","","","","real_trial","2021-07-27 12:11:42.427","img/card_backs/set1/purple.gif","0","120","1","",""
"casino-fixation","146","429271","0.0-25.0-0.38","231","false","img/card_backs/set1/red.gif","img/card_backs/set1/yellow.gif","img/card_backs/set1/purple.gif","img/card_backs/set1/green.gif","img/card_backs/set2/gray.gif","img/card_backs/set2/blue.gif","img/card_backs/set2/orange.gif","img/card_backs/set2/pink.gif","""event"",""trial"",""time""
""fullscreenenter"",""1"",""1361""
","
","
","""event"",""trial"",""time""
""fullscreenenter"",""1"",""1361""
","
","","null","","null","","fixation","2021-07-27 12:11:42.929","","","","","",""
"card-selection-trial","147","431672","0.0-25.0-1.38","231","false","img/card_backs/set1/red.gif","img/card_backs/set1/yellow.gif","img/card_backs/set1/purple.gif","img/card_backs/set1/green.gif","img/card_backs/set2/gray.gif","img/card_backs/set2/blue.gif","img/card_backs/set2/orange.gif","img/card_backs/set2/pink.gif","""event"",""trial"",""time""
""fullscreenenter"",""1"",""1361""
","
","
","""event"",""trial"",""time""
""fullscreenenter"",""1"",""1361""
","
","","392.80000001192093","","","","real_trial","2021-07-27 12:11:45.330","img/card_backs/set1/purple.gif","0","-70","1","",""
"casino-fixation","148","432175","0.0-25.0-0.39","231","false","img/card_backs/set1/red.gif","img/card_backs/set1/yellow.gif","img/card_backs/set1/purple.gif","img/card_backs/set1/green.gif","img/card_backs/set2/gray.gif","img/card_backs/set2/blue.gif","img/card_backs/set2/orange.gif","img/card_backs/set2/pink.gif","""event"",""trial"",""time""
""fullscreenenter"",""1"",""1361""
","
","
","""event"",""trial"",""time""
""fullscreenenter"",""1"",""1361""
","
","","null","","null","","fixation","2021-07-27 12:11:45.833","","","","","",""
"card-selection-trial","149","434586","0.0-25.0-1.39","231","false","img/card_backs/set1/red.gif","img/card_backs/set1/yellow.gif","img/card_backs/set1/purple.gif","img/card_backs/set1/green.gif","img/card_backs/set2/gray.gif","img/card_backs/set2/blue.gif","img/card_backs/set2/orange.gif","img/card_backs/set2/pink.gif","""event"",""trial"",""time""
""fullscreenenter"",""1"",""1361""
","
","
","""event"",""trial"",""time""
""fullscreenenter"",""1"",""1361""
","
","","403.19999998807907","","","","real_trial","2021-07-27 12:11:48.244","img/card_backs/set1/purple.gif","1","-60","1","",""
"casino-fixation","150","435088","0.0-25.0-0.40","231","false","img/card_backs/set1/red.gif","img/card_backs/set1/yellow.gif","img/card_backs/set1/purple.gif","img/card_backs/set1/green.gif","img/card_backs/set2/gray.gif","img/card_backs/set2/blue.gif","img/card_backs/set2/orange.gif","img/card_backs/set2/pink.gif","""event"",""trial"",""time""
""fullscreenenter"",""1"",""1361""
","
","
","""event"",""trial"",""time""
""fullscreenenter"",""1"",""1361""
","
","","null","","null","","fixation","2021-07-27 12:11:48.746","","","","","",""
"card-selection-trial","151","437505","0.0-25.0-1.40","231","false","img/card_backs/set1/red.gif","img/card_backs/set1/yellow.gif","img/card_backs/set1/purple.gif","img/card_backs/set1/green.gif","img/card_backs/set2/gray.gif","img/card_backs/set2/blue.gif","img/card_backs/set2/orange.gif","img/card_backs/set2/pink.gif","""event"",""trial"",""time""
""fullscreenenter"",""1"",""1361""
","
","
","""event"",""trial"",""time""
""fullscreenenter"",""1"",""1361""
","
","","409.5","","","","real_trial","2021-07-27 12:11:51.163","img/card_backs/set1/purple.gif","2","120","1","",""
"casino-fixation","152","438008","0.0-25.0-0.41","231","false","img/card_backs/set1/red.gif","img/card_backs/set1/yellow.gif","img/card_backs/set1/purple.gif","img/card_backs/set1/green.gif","img/card_backs/set2/gray.gif","img/card_backs/set2/blue.gif","img/card_backs/set2/orange.gif","img/card_backs/set2/pink.gif","""event"",""trial"",""time""
""fullscreenenter"",""1"",""1361""
","
","
","""event"",""trial"",""time""
""fullscreenenter"",""1"",""1361""
","
","","null","","null","","fixation","2021-07-27 12:11:51.667","","","","","",""
"card-selection-trial","153","440466","0.0-25.0-1.41","231","false","img/card_backs/set1/red.gif","img/card_backs/set1/yellow.gif","img/card_backs/set1/purple.gif","img/card_backs/set1/green.gif","img/card_backs/set2/gray.gif","img/card_backs/set2/blue.gif","img/card_backs/set2/orange.gif","img/card_backs/set2/pink.gif","""event"",""trial"",""time""
""fullscreenenter"",""1"",""1361""
","
","
","""event"",""trial"",""time""
""fullscreenenter"",""1"",""1361""
","
","","448.4000000357628","","","","real_trial","2021-07-27 12:11:54.124","img/card_backs/set1/purple.gif","2","120","1","",""
"casino-fixation","154","440968","0.0-25.0-0.42","231","false","img/card_backs/set1/red.gif","img/card_backs/set1/yellow.gif","img/card_backs/set1/purple.gif","img/card_backs/set1/green.gif","img/card_backs/set2/gray.gif","img/card_backs/set2/blue.gif","img/card_backs/set2/orange.gif","img/card_backs/set2/pink.gif","""event"",""trial"",""time""
""fullscreenenter"",""1"",""1361""
","
","
","""event"",""trial"",""time""
""fullscreenenter"",""1"",""1361""
","
","","null","","null","","fixation","2021-07-27 12:11:54.626","","","","","",""
"card-selection-trial","155","443514","0.0-25.0-1.42","231","false","img/card_backs/set1/red.gif","img/card_backs/set1/yellow.gif","img/card_backs/set1/purple.gif","img/card_backs/set1/green.gif","img/card_backs/set2/gray.gif","img/card_backs/set2/blue.gif","img/card_backs/set2/orange.gif","img/card_backs/set2/pink.gif","""event"",""trial"",""time""
""fullscreenenter"",""1"",""1361""
","
","
","""event"",""trial"",""time""
""fullscreenenter"",""1"",""1361""
","
","","538.1999999880791","","","","real_trial","2021-07-27 12:11:57.172","img/card_backs/set1/purple.gif","3","-70","1","",""
"casino-fixation","156","444018","0.0-25.0-0.43","231","false","img/card_backs/set1/red.gif","img/card_backs/set1/yellow.gif","img/card_backs/set1/purple.gif","img/card_backs/set1/green.gif","img/card_backs/set2/gray.gif","img/card_backs/set2/blue.gif","img/card_backs/set2/orange.gif","img/card_backs/set2/pink.gif","""event"",""trial"",""time""
""fullscreenenter"",""1"",""1361""
","
","
","""event"",""trial"",""time""
""fullscreenenter"",""1"",""1361""
","
","","null","","null","","fixation","2021-07-27 12:11:57.676","","","","","",""
"card-selection-trial","157","446649","0.0-25.0-1.43","231","false","img/card_backs/set1/red.gif","img/card_backs/set1/yellow.gif","img/card_backs/set1/purple.gif","img/card_backs/set1/green.gif","img/card_backs/set2/gray.gif","img/card_backs/set2/blue.gif","img/card_backs/set2/orange.gif","img/card_backs/set2/pink.gif","""event"",""trial"",""time""
""fullscreenenter"",""1"",""1361""
","
","
","""event"",""trial"",""time""
""fullscreenenter"",""1"",""1361""
","
","","624","","","","real_trial","2021-07-27 12:12:00.308","img/card_backs/set1/purple.gif","1","120","1","",""
"casino-fixation","158","447151","0.0-25.0-0.44","231","false","img/card_backs/set1/red.gif","img/card_backs/set1/yellow.gif","img/card_backs/set1/purple.gif","img/card_backs/set1/green.gif","img/card_backs/set2/gray.gif","img/card_backs/set2/blue.gif","img/card_backs/set2/orange.gif","img/card_backs/set2/pink.gif","""event"",""trial"",""time""
""fullscreenenter"",""1"",""1361""
","
","
","""event"",""trial"",""time""
""fullscreenenter"",""1"",""1361""
","
","","null","","null","","fixation","2021-07-27 12:12:00.809","","","","","",""
"card-selection-trial","159","449625","0.0-25.0-1.44","231","false","img/card_backs/set1/red.gif","img/card_backs/set1/yellow.gif","img/card_backs/set1/purple.gif","img/card_backs/set1/green.gif","img/card_backs/set2/gray.gif","img/card_backs/set2/blue.gif","img/card_backs/set2/orange.gif","img/card_backs/set2/pink.gif","""event"",""trial"",""time""
""fullscreenenter"",""1"",""1361""
","
","
","""event"",""trial"",""time""
""fullscreenenter"",""1"",""1361""
","
","","466.30000001192093","","","","real_trial","2021-07-27 12:12:03.283","img/card_backs/set1/purple.gif","0","-70","1","",""
"casino-fixation","160","450127","0.0-25.0-0.45","231","false","img/card_backs/set1/red.gif","img/card_backs/set1/yellow.gif","img/card_backs/set1/purple.gif","img/card_backs/set1/green.gif","img/card_backs/set2/gray.gif","img/card_backs/set2/blue.gif","img/card_backs/set2/orange.gif","img/card_backs/set2/pink.gif","""event"",""trial"",""time""
""fullscreenenter"",""1"",""1361""
","
","
","""event"",""trial"",""time""
""fullscreenenter"",""1"",""1361""
","
","","null","","null","","fixation","2021-07-27 12:12:03.786","","","","","",""
"card-selection-trial","161","452647","0.0-25.0-1.45","231","false","img/card_backs/set1/red.gif","img/card_backs/set1/yellow.gif","img/card_backs/set1/purple.gif","img/card_backs/set1/green.gif","img/card_backs/set2/gray.gif","img/card_backs/set2/blue.gif","img/card_backs/set2/orange.gif","img/card_backs/set2/pink.gif","""event"",""trial"",""time""
""fullscreenenter"",""1"",""1361""
","
","
","""event"",""trial"",""time""
""fullscreenenter"",""1"",""1361""
","
","","513.1999999880791","","","","real_trial","2021-07-27 12:12:06.305","img/card_backs/set1/purple.gif","2","-50","1","",""
"casino-fixation","162","453148","0.0-25.0-0.46","231","false","img/card_backs/set1/red.gif","img/card_backs/set1/yellow.gif","img/card_backs/set1/purple.gif","img/card_backs/set1/green.gif","img/card_backs/set2/gray.gif","img/card_backs/set2/blue.gif","img/card_backs/set2/orange.gif","img/card_backs/set2/pink.gif","""event"",""trial"",""time""
""fullscreenenter"",""1"",""1361""
","
","
","""event"",""trial"",""time""
""fullscreenenter"",""1"",""1361""
","
","","null","","null","","fixation","2021-07-27 12:12:06.806","","","","","",""
"card-selection-trial","163","455559","0.0-25.0-1.46","231","false","img/card_backs/set1/red.gif","img/card_backs/set1/yellow.gif","img/card_backs/set1/purple.gif","img/card_backs/set1/green.gif","img/card_backs/set2/gray.gif","img/card_backs/set2/blue.gif","img/card_backs/set2/orange.gif","img/card_backs/set2/pink.gif","""event"",""trial"",""time""
""fullscreenenter"",""1"",""1361""
","
","
","""event"",""trial"",""time""
""fullscreenenter"",""1"",""1361""
","
","","407.39999997615814","","","","real_trial","2021-07-27 12:12:09.217","img/card_backs/set1/green.gif","2","-50","1","",""
"casino-fixation","164","456062","0.0-25.0-0.47","231","false","img/card_backs/set1/red.gif","img/card_backs/set1/yellow.gif","img/card_backs/set1/purple.gif","img/card_backs/set1/green.gif","img/card_backs/set2/gray.gif","img/card_backs/set2/blue.gif","img/card_backs/set2/orange.gif","img/card_backs/set2/pink.gif","""event"",""trial"",""time""
""fullscreenenter"",""1"",""1361""
","
","
","""event"",""trial"",""time""
""fullscreenenter"",""1"",""1361""
","
","","null","","null","","fixation","2021-07-27 12:12:09.720","","","","","",""
"card-selection-trial","165","458465","0.0-25.0-1.47","231","false","img/card_backs/set1/red.gif","img/card_backs/set1/yellow.gif","img/card_backs/set1/purple.gif","img/card_backs/set1/green.gif","img/card_backs/set2/gray.gif","img/card_backs/set2/blue.gif","img/card_backs/set2/orange.gif","img/card_backs/set2/pink.gif","""event"",""trial"",""time""
""fullscreenenter"",""1"",""1361""
","
","
","""event"",""trial"",""time""
""fullscreenenter"",""1"",""1361""
","
","","395.80000001192093","","","","real_trial","2021-07-27 12:12:12.123","img/card_backs/set1/purple.gif","0","-60","1","",""
"casino-fixation","166","458968","0.0-25.0-0.48","231","false","img/card_backs/set1/red.gif","img/card_backs/set1/yellow.gif","img/card_backs/set1/purple.gif","img/card_backs/set1/green.gif","img/card_backs/set2/gray.gif","img/card_backs/set2/blue.gif","img/card_backs/set2/orange.gif","img/card_backs/set2/pink.gif","""event"",""trial"",""time""
""fullscreenenter"",""1"",""1361""
","
","
","""event"",""trial"",""time""
""fullscreenenter"",""1"",""1361""
","
","","null","","null","","fixation","2021-07-27 12:12:12.626","","","","","",""
"card-selection-trial","167","461378","0.0-25.0-1.48","231","false","img/card_backs/set1/red.gif","img/card_backs/set1/yellow.gif","img/card_backs/set1/purple.gif","img/card_backs/set1/green.gif","img/card_backs/set2/gray.gif","img/card_backs/set2/blue.gif","img/card_backs/set2/orange.gif","img/card_backs/set2/pink.gif","""event"",""trial"",""time""
""fullscreenenter"",""1"",""1361""
","
","
","""event"",""trial"",""time""
""fullscreenenter"",""1"",""1361""
","
