"trial_type","trial_index","time_elapsed","internal_node_id","sub_id","risk_good_first","block1_A","block1_B","block1_C","block1_D","block2_A","block2_B","block2_C","block2_D","interactions","blur_events","focus_events","fullscreenenter_events","fullscreenexit_events","success","rt","stimulus","key_press","button_pressed","task_part","timestamp","card_choice","choice_position","points_earned","block","correct","response"
"pavlovia","0","18","0.0-0.0","A110","false","img/card_backs/set1/yellow.gif","img/card_backs/set1/green.gif","img/card_backs/set1/red.gif","img/card_backs/set1/purple.gif","img/card_backs/set2/pink.gif","img/card_backs/set2/orange.gif","img/card_backs/set2/blue.gif","img/card_backs/set2/gray.gif","""event"",""trial"",""time""
""fullscreenenter"",""1"",""7256""
","
","
","""event"",""trial"",""time""
""fullscreenenter"",""1"",""7256""
","
","","","","","","","","","","","","",""
"fullscreen","1","8203","0.0-1.0","A110","false","img/card_backs/set1/yellow.gif","img/card_backs/set1/green.gif","img/card_backs/set1/red.gif","img/card_backs/set1/purple.gif","img/card_backs/set2/pink.gif","img/card_backs/set2/orange.gif","img/card_backs/set2/blue.gif","img/card_backs/set2/gray.gif","""event"",""trial"",""time""
""fullscreenenter"",""1"",""7256""
","
","
","""event"",""trial"",""time""
""fullscreenenter"",""1"",""7256""
","
","true","","","","","","","","","","","",""
"audio-keyboard-response","2","13991","0.0-2.0","A110","false","img/card_backs/set1/yellow.gif","img/card_backs/set1/green.gif","img/card_backs/set1/red.gif","img/card_backs/set1/purple.gif","img/card_backs/set2/pink.gif","img/card_backs/set2/orange.gif","img/card_backs/set2/blue.gif","img/card_backs/set2/gray.gif","""event"",""trial"",""time""
""fullscreenenter"",""1"",""7256""
","
","
","""event"",""trial"",""time""
""fullscreenenter"",""1"",""7256""
","
","","5709","audio/beep_loop.wav","32","","","","","","","","",""
"audio-button-response","3","16067","0.0-3.0","A110","false","img/card_backs/set1/yellow.gif","img/card_backs/set1/green.gif","img/card_backs/set1/red.gif","img/card_backs/set1/purple.gif","img/card_backs/set2/pink.gif","img/card_backs/set2/orange.gif","img/card_backs/set2/blue.gif","img/card_backs/set2/gray.gif","""event"",""trial"",""time""
""fullscreenenter"",""1"",""7256""
","
","
","""event"",""trial"",""time""
""fullscreenenter"",""1"",""7256""
","
","","NaN","audio/turtle.mp3","","3","","","","","","","",""
"audio-button-response","4","19892","0.0-4.0","A110","false","img/card_backs/set1/yellow.gif","img/card_backs/set1/green.gif","img/card_backs/set1/red.gif","img/card_backs/set1/purple.gif","img/card_backs/set2/pink.gif","img/card_backs/set2/orange.gif","img/card_backs/set2/blue.gif","img/card_backs/set2/gray.gif","""event"",""trial"",""time""
""fullscreenenter"",""1"",""7256""
","
","
","""event"",""trial"",""time""
""fullscreenenter"",""1"",""7256""
","
","","NaN","audio/shark.mp3","","2","","","","","","","",""
"fullscreen","5","23723","0.0-5.0","A110","false","img/card_backs/set1/yellow.gif","img/card_backs/set1/green.gif","img/card_backs/set1/red.gif","img/card_backs/set1/purple.gif","img/card_backs/set2/pink.gif","img/card_backs/set2/orange.gif","img/card_backs/set2/blue.gif","img/card_backs/set2/gray.gif","""event"",""trial"",""time""
""fullscreenenter"",""1"",""7256""
","
","
","""event"",""trial"",""time""
""fullscreenenter"",""1"",""7256""
","
","true","","","","","","","","","","","",""
"casino-keyboard-response","6","27283","0.0-6.0-0.0","A110","false","img/card_backs/set1/yellow.gif","img/card_backs/set1/green.gif","img/card_backs/set1/red.gif","img/card_backs/set1/purple.gif","img/card_backs/set2/pink.gif","img/card_backs/set2/orange.gif","img/card_backs/set2/blue.gif","img/card_backs/set2/gray.gif","""event"",""trial"",""time""
""fullscreenenter"",""1"",""7256""
","
","
","""event"",""trial"",""time""
""fullscreenenter"",""1"",""7256""
","
","","3552.9650000007678","Welcome to the casino!","71","","instructions","2021-04-23 18:44:23.062","","","","","",""
"casino-keyboard-response","7","36715","0.0-6.0-0.1","A110","false","img/card_backs/set1/yellow.gif","img/card_backs/set1/green.gif","img/card_backs/set1/red.gif","img/card_backs/set1/purple.gif","img/card_backs/set2/pink.gif","img/card_backs/set2/orange.gif","img/card_backs/set2/blue.gif","img/card_backs/set2/gray.gif","""event"",""trial"",""time""
""fullscreenenter"",""1"",""7256""
","
","
","""event"",""trial"",""time""
""fullscreenenter"",""1"",""7256""
","
","","9427.564999999959","Today you will be playing a game to earn tokens. </br> At the end of the experiment, you will be paid a bonus based on how many tokens you win. ","69","","instructions","2021-04-23 18:44:32.493","","","","","",""
"casino-keyboard-response","8","44847","0.0-6.0-0.2","A110","false","img/card_backs/set1/yellow.gif","img/card_backs/set1/green.gif","img/card_backs/set1/red.gif","img/card_backs/set1/purple.gif","img/card_backs/set2/pink.gif","img/card_backs/set2/orange.gif","img/card_backs/set2/blue.gif","img/card_backs/set2/gray.gif","""event"",""trial"",""time""
""fullscreenenter"",""1"",""7256""
","
","
","""event"",""trial"",""time""
""fullscreenenter"",""1"",""7256""
","
","","8128.174999999828","On every turn, you will be shown four different decks of cards. </br> You need to select a card from one of the four decks.  ","75","","instructions","2021-04-23 18:44:40.625","","","","","",""
"casino-keyboard-response","9","51700","0.0-6.0-0.3","A110","false","img/card_backs/set1/yellow.gif","img/card_backs/set1/green.gif","img/card_backs/set1/red.gif","img/card_backs/set1/purple.gif","img/card_backs/set2/pink.gif","img/card_backs/set2/orange.gif","img/card_backs/set2/blue.gif","img/card_backs/set2/gray.gif","""event"",""trial"",""time""
""fullscreenenter"",""1"",""7256""
","
","
","""event"",""trial"",""time""
""fullscreenenter"",""1"",""7256""
","
","","6849.165000001449","On the next screen, you will see what the decks will look like. ","66","","instructions","2021-04-23 18:44:47.478","","","","","",""
"card-selection-trial","10","55727","0.0-7.0-0.0","A110","false","img/card_backs/set1/yellow.gif","img/card_backs/set1/green.gif","img/card_backs/set1/red.gif","img/card_backs/set1/purple.gif","img/card_backs/set2/pink.gif","img/card_backs/set2/orange.gif","img/card_backs/set2/blue.gif","img/card_backs/set2/gray.gif","""event"",""trial"",""time""
""fullscreenenter"",""1"",""7256""
","
","
","""event"",""trial"",""time""
""fullscreenenter"",""1"",""7256""
","
","","null","","","","practice","2021-04-23 18:44:51.506","null","null","null","0","",""
"casino-keyboard-response","11","64313","0.0-8.0-0.0","A110","false","img/card_backs/set1/yellow.gif","img/card_backs/set1/green.gif","img/card_backs/set1/red.gif","img/card_backs/set1/purple.gif","img/card_backs/set2/pink.gif","img/card_backs/set2/orange.gif","img/card_backs/set2/blue.gif","img/card_backs/set2/gray.gif","""event"",""trial"",""time""
""fullscreenenter"",""1"",""7256""
","
","
","""event"",""trial"",""time""
""fullscreenenter"",""1"",""7256""
","
","","8582.17500000137","You should pick a card from a deck using the '2', '4', '6', and '8' keys at the top of the keyboard.","85","","instructions","2021-04-23 18:45:00.092","","","","","",""
"casino-keyboard-response","12","69697","0.0-8.0-0.1","A110","false","img/card_backs/set1/yellow.gif","img/card_backs/set1/green.gif","img/card_backs/set1/red.gif","img/card_backs/set1/purple.gif","img/card_backs/set2/pink.gif","img/card_backs/set2/orange.gif","img/card_backs/set2/blue.gif","img/card_backs/set2/gray.gif","""event"",""trial"",""time""
""fullscreenenter"",""1"",""7256""
","
","
","""event"",""trial"",""time""
""fullscreenenter"",""1"",""7256""
","
","","5379.684999999881","Once you select a card, it will turn over and you will see how many tokens you earned.","83","","instructions","2021-04-23 18:45:05.475","","","","","",""
"casino-keyboard-response","13","95065","0.0-8.0-0.2","A110","false","img/card_backs/set1/yellow.gif","img/card_backs/set1/green.gif","img/card_backs/set1/red.gif","img/card_backs/set1/purple.gif","img/card_backs/set2/pink.gif","img/card_backs/set2/orange.gif","img/card_backs/set2/blue.gif","img/card_backs/set2/gray.gif","""event"",""trial"",""time""
""fullscreenenter"",""1"",""7256""
","
","
","""event"",""trial"",""time""
""fullscreenenter"",""1"",""7256""
","
","","25364.770000000135","Let's try practicing that! </br> First, try to put your fingers over the '2', '4', '6', and '8' keys. </br>  You can use whatever fingers are most comfortable for you. Try to find a comfortable position now. ","50","","instructions","2021-04-23 18:45:30.843","","","","","",""
"casino-keyboard-response","14","102025","0.0-8.0-0.3","A110","false","img/card_backs/set1/yellow.gif","img/card_backs/set1/green.gif","img/card_backs/set1/red.gif","img/card_backs/set1/purple.gif","img/card_backs/set2/pink.gif","img/card_backs/set2/orange.gif","img/card_backs/set2/blue.gif","img/card_backs/set2/gray.gif","""event"",""trial"",""time""
""fullscreenenter"",""1"",""7256""
","
","
","""event"",""trial"",""time""
""fullscreenenter"",""1"",""7256""
","
","","6956.61999999902","Okay ready? </br> On the next screen, press '2' to select the left deck. ","50","","instructions","2021-04-23 18:45:37.803","","","","","",""
"card-selection-trial","15","105835","0.0-9.0-0.0","A110","false","img/card_backs/set1/yellow.gif","img/card_backs/set1/green.gif","img/card_backs/set1/red.gif","img/card_backs/set1/purple.gif","img/card_backs/set2/pink.gif","img/card_backs/set2/orange.gif","img/card_backs/set2/blue.gif","img/card_backs/set2/gray.gif","""event"",""trial"",""time""
""fullscreenenter"",""1"",""7256""
","
","
","""event"",""trial"",""time""
""fullscreenenter"",""1"",""7256""
","
","","1730.434999999503","","","","practice_card_selection","2021-04-23 18:45:41.615","img/practice_cards/backs/dark_green.gif","0","200","","",""
"casino-keyboard-response","16","111857","0.0-10.0-0.0","A110","false","img/card_backs/set1/yellow.gif","img/card_backs/set1/green.gif","img/card_backs/set1/red.gif","img/card_backs/set1/purple.gif","img/card_backs/set2/pink.gif","img/card_backs/set2/orange.gif","img/card_backs/set2/blue.gif","img/card_backs/set2/gray.gif","""event"",""trial"",""time""
""fullscreenenter"",""1"",""7256""
","
","
","""event"",""trial"",""time""
""fullscreenenter"",""1"",""7256""
","
","","6018.205000000307","Great! Now on the next screen, try pressing '6' to select the third deck.","54","","instructions","2021-04-23 18:45:47.635","","","","","",""
"card-selection-trial","17","114645","0.0-11.0-0.0","A110","false","img/card_backs/set1/yellow.gif","img/card_backs/set1/green.gif","img/card_backs/set1/red.gif","img/card_backs/set1/purple.gif","img/card_backs/set2/pink.gif","img/card_backs/set2/orange.gif","img/card_backs/set2/blue.gif","img/card_backs/set2/gray.gif","""event"",""trial"",""time""
""fullscreenenter"",""1"",""7256""
","
","
","""event"",""trial"",""time""
""fullscreenenter"",""1"",""7256""
","
","","762.2150000006659","","","","practice_card_selection","2021-04-23 18:45:50.423","img/practice_cards/backs/brown.gif","2","100","","",""
"casino-keyboard-response","18","119431","0.0-12.0-0.0","A110","false","img/card_backs/set1/yellow.gif","img/card_backs/set1/green.gif","img/card_backs/set1/red.gif","img/card_backs/set1/purple.gif","img/card_backs/set2/pink.gif","img/card_backs/set2/orange.gif","img/card_backs/set2/blue.gif","img/card_backs/set2/gray.gif","""event"",""trial"",""time""
""fullscreenenter"",""1"",""7256""
","
","
","""event"",""trial"",""time""
""fullscreenenter"",""1"",""7256""
","
","","4784.279999999853","Now on the next screen, try pressing '4' to select the second deck.","52","","instructions","2021-04-23 18:45:55.210","","","","","",""
"card-selection-trial","19","121975","0.0-13.0-0.0","A110","false","img/card_backs/set1/yellow.gif","img/card_backs/set1/green.gif","img/card_backs/set1/red.gif","img/card_backs/set1/purple.gif","img/card_backs/set2/pink.gif","img/card_backs/set2/orange.gif","img/card_backs/set2/blue.gif","img/card_backs/set2/gray.gif","""event"",""trial"",""time""
""fullscreenenter"",""1"",""7256""
","
","
","""event"",""trial"",""time""
""fullscreenenter"",""1"",""7256""
","
","","527.035000000993","","","","practice_card_selection","2021-04-23 18:45:57.753","img/practice_cards/backs/dark_blue.gif","1","-200","","",""
"casino-keyboard-response","20","127124","0.0-14.0-0.0","A110","false","img/card_backs/set1/yellow.gif","img/card_backs/set1/green.gif","img/card_backs/set1/red.gif","img/card_backs/set1/purple.gif","img/card_backs/set2/pink.gif","img/card_backs/set2/orange.gif","img/card_backs/set2/blue.gif","img/card_backs/set2/gray.gif","""event"",""trial"",""time""
""fullscreenenter"",""1"",""7256""
","
","
","""event"",""trial"",""time""
""fullscreenenter"",""1"",""7256""
","
","","5146.394999999786","Finally, try pressing '8' to select the deck all the way on the right.","56","","instructions","2021-04-23 18:46:02.902","","","","","",""
"card-selection-trial","21","129580","0.0-15.0-0.0","A110","false","img/card_backs/set1/yellow.gif","img/card_backs/set1/green.gif","img/card_backs/set1/red.gif","img/card_backs/set1/purple.gif","img/card_backs/set2/pink.gif","img/card_backs/set2/orange.gif","img/card_backs/set2/blue.gif","img/card_backs/set2/gray.gif","""event"",""trial"",""time""
""fullscreenenter"",""1"",""7256""
","
","
","""event"",""trial"",""time""
""fullscreenenter"",""1"",""7256""
","
","","440.0299999997369","","","","practice_card_selection","2021-04-23 18:46:05.358","img/practice_cards/backs/dark_blue.gif","3","-200","","",""
"casino-keyboard-response","22","133707","0.0-16.0-0.0","A110","false","img/card_backs/set1/yellow.gif","img/card_backs/set1/green.gif","img/card_backs/set1/red.gif","img/card_backs/set1/purple.gif","img/card_backs/set2/pink.gif","img/card_backs/set2/orange.gif","img/card_backs/set2/blue.gif","img/card_backs/set2/gray.gif","""event"",""trial"",""time""
""fullscreenenter"",""1"",""7256""
","
","
","""event"",""trial"",""time""
""fullscreenenter"",""1"",""7256""
","
","","4125.390000001062","Great! It seems like you are getting the hang of this.","80","","instructions","2021-04-23 18:46:09.485","","","","","",""
"casino-keyboard-response","23","140910","0.0-16.0-0.1","A110","false","img/card_backs/set1/yellow.gif","img/card_backs/set1/green.gif","img/card_backs/set1/red.gif","img/card_backs/set1/purple.gif","img/card_backs/set2/pink.gif","img/card_backs/set2/orange.gif","img/card_backs/set2/blue.gif","img/card_backs/set2/gray.gif","""event"",""trial"",""time""
""fullscreenenter"",""1"",""7256""
","
","
","""event"",""trial"",""time""
""fullscreenenter"",""1"",""7256""
","
","","7199.814999999944","You may have noticed that some cards will cause you to <b> win </b> tokens while other cards will cause you to <b> lose </b>  tokens.","70","","instructions","2021-04-23 18:46:16.688","","","","","",""
"casino-keyboard-response","24","149082","0.0-16.0-0.2","A110","false","img/card_backs/set1/yellow.gif","img/card_backs/set1/green.gif","img/card_backs/set1/red.gif","img/card_backs/set1/purple.gif","img/card_backs/set2/pink.gif","img/card_backs/set2/orange.gif","img/card_backs/set2/blue.gif","img/card_backs/set2/gray.gif","""event"",""trial"",""time""
""fullscreenenter"",""1"",""7256""
","
","
","""event"",""trial"",""time""
""fullscreenenter"",""1"",""7256""
","
","","8168.385000000853","Each deck has a mix of cards that will cause you to win and lose tokens. </br> However, the cards in each colored deck are different.","73","","instructions","2021-04-23 18:46:24.860","","","","","",""
"casino-keyboard-response","25","157399","0.0-16.0-0.3","A110","false","img/card_backs/set1/yellow.gif","img/card_backs/set1/green.gif","img/card_backs/set1/red.gif","img/card_backs/set1/purple.gif","img/card_backs/set2/pink.gif","img/card_backs/set2/orange.gif","img/card_backs/set2/blue.gif","img/card_backs/set2/gray.gif","""event"",""trial"",""time""
""fullscreenenter"",""1"",""7256""
","
","
","""event"",""trial"",""time""
""fullscreenenter"",""1"",""7256""
","
","","8313.364999999962","Some colored decks are luckier than others. </br> If you choose the lucky decks, you will earn more tokens than if you choose the unlucky decks.","69","","instructions","2021-04-23 18:46:33.177","","","","","",""
"casino-keyboard-response","26","164540","0.0-16.0-0.4","A110","false","img/card_backs/set1/yellow.gif","img/card_backs/set1/green.gif","img/card_backs/set1/red.gif","img/card_backs/set1/purple.gif","img/card_backs/set2/pink.gif","img/card_backs/set2/orange.gif","img/card_backs/set2/blue.gif","img/card_backs/set2/gray.gif","""event"",""trial"",""time""
""fullscreenenter"",""1"",""7256""
","
","
","""event"",""trial"",""time""
""fullscreenenter"",""1"",""7256""
","
","","7137.1949999993085","You should try to figure out which decks are lucky. </br> Then, try to choose the lucky decks so you can win the most tokens.","87","","instructions","2021-04-23 18:46:40.318","","","","","",""
"casino-keyboard-response","27","177136","0.0-16.0-0.5","A110","false","img/card_backs/set1/yellow.gif","img/card_backs/set1/green.gif","img/card_backs/set1/red.gif","img/card_backs/set1/purple.gif","img/card_backs/set2/pink.gif","img/card_backs/set2/orange.gif","img/card_backs/set2/blue.gif","img/card_backs/set2/gray.gif","""event"",""trial"",""time""
""fullscreenenter"",""1"",""7256""
","
","
","""event"",""trial"",""time""
""fullscreenenter"",""1"",""7256""
","
","","12592.479999999341","To make it trickier, the casino dealer will switch the locations of the decks on every turn. </br> The color of the deck determines how lucky it is. The location does not matter.","88","","instructions","2021-04-23 18:46:52.914","","","","","",""
"casino-keyboard-response","28","186306","0.0-16.0-0.6","A110","false","img/card_backs/set1/yellow.gif","img/card_backs/set1/green.gif","img/card_backs/set1/red.gif","img/card_backs/set1/purple.gif","img/card_backs/set2/pink.gif","img/card_backs/set2/orange.gif","img/card_backs/set2/blue.gif","img/card_backs/set2/gray.gif","""event"",""trial"",""time""
""fullscreenenter"",""1"",""7256""
","
","
","""event"",""trial"",""time""
""fullscreenenter"",""1"",""7256""
","
","","9166.445000000735","The mix of cards in each colored deck will stay the same throughout the game. </br> That means that a deck that is lucky early on will stay lucky.","79","","instructions","2021-04-23 18:47:02.084","","","","","",""
"casino-keyboard-response","29","194224","0.0-16.0-0.7","A110","false","img/card_backs/set1/yellow.gif","img/card_backs/set1/green.gif","img/card_backs/set1/red.gif","img/card_backs/set1/purple.gif","img/card_backs/set2/pink.gif","img/card_backs/set2/orange.gif","img/card_backs/set2/blue.gif","img/card_backs/set2/gray.gif","""event"",""trial"",""time""
""fullscreenenter"",""1"",""7256""
","
","
","""event"",""trial"",""time""
""fullscreenenter"",""1"",""7256""
","
","","7915.005000000761","Remember though, all the decks have a <b> mix </b> of both <b> good </b> and <b> bad </b> cards so it may take a couple of turns to figure out if a deck is lucky.","69","","instructions","2021-04-23 18:47:10.002","","","","","",""
"casino-keyboard-response","30","202407","0.0-16.0-0.8","A110","false","img/card_backs/set1/yellow.gif","img/card_backs/set1/green.gif","img/card_backs/set1/red.gif","img/card_backs/set1/purple.gif","img/card_backs/set2/pink.gif","img/card_backs/set2/orange.gif","img/card_backs/set2/blue.gif","img/card_backs/set2/gray.gif","""event"",""trial"",""time""
""fullscreenenter"",""1"",""7256""
","
","
","""event"",""trial"",""time""
""fullscreenenter"",""1"",""7256""
","
","","8178.775000000314","At the end of the game, you will be paid bonus money based on how many tokens you win. </br> If you win more tokens, you will earn more money!","72","","instructions","2021-04-23 18:47:18.185","","","","","",""
"casino-keyboard-response","31","212465","0.0-16.0-0.9","A110","false","img/card_backs/set1/yellow.gif","img/card_backs/set1/green.gif","img/card_backs/set1/red.gif","img/card_backs/set1/purple.gif","img/card_backs/set2/pink.gif","img/card_backs/set2/orange.gif","img/card_backs/set2/blue.gif","img/card_backs/set2/gray.gif","""event"",""trial"",""time""
""fullscreenenter"",""1"",""7256""
","
","
","""event"",""trial"",""time""
""fullscreenenter"",""1"",""7256""
","
","","10054.340000000608","You will never <b> lose </b> money. </br> If you end up with fewer than 0 tokens, you will earn $0 of bonus money, but you will still be paid for playing the game.","83","","instructions","2021-04-23 18:47:28.244","","","","","",""
"casino-keyboard-response","32","216695","0.0-16.0-0.10","A110","false","img/card_backs/set1/yellow.gif","img/card_backs/set1/green.gif","img/card_backs/set1/red.gif","img/card_backs/set1/purple.gif","img/card_backs/set2/pink.gif","img/card_backs/set2/orange.gif","img/card_backs/set2/blue.gif","img/card_backs/set2/gray.gif","""event"",""trial"",""time""
""fullscreenenter"",""1"",""7256""
","
","
","""event"",""trial"",""time""
""fullscreenenter"",""1"",""7256""
","
","","4224.740000001446","You will have 10 seconds to make each choice.","82","","instructions","2021-04-23 18:47:32.473","","","","","",""
"casino-keyboard-response","33","224794","0.0-16.0-0.11","A110","false","img/card_backs/set1/yellow.gif","img/card_backs/set1/green.gif","img/card_backs/set1/red.gif","img/card_backs/set1/purple.gif","img/card_backs/set2/pink.gif","img/card_backs/set2/orange.gif","img/card_backs/set2/blue.gif","img/card_backs/set2/gray.gif","""event"",""trial"",""time""
""fullscreenenter"",""1"",""7256""
","
","
","""event"",""trial"",""time""
""fullscreenenter"",""1"",""7256""
","
","","8093.380000000267","Before you play the game for real, you will play with practice decks. </br> The tokens you earn during practice won't count toward your total.","86","","instructions","2021-04-23 18:47:40.572","","","","","",""
"casino-keyboard-response","34","236072","0.0-16.0-0.12","A110","false","img/card_backs/set1/yellow.gif","img/card_backs/set1/green.gif","img/card_backs/set1/red.gif","img/card_backs/set1/purple.gif","img/card_backs/set2/pink.gif","img/card_backs/set2/orange.gif","img/card_backs/set2/blue.gif","img/card_backs/set2/gray.gif","""event"",""trial"",""time""
""fullscreenenter"",""1"",""7256""
","
","
","""event"",""trial"",""time""
""fullscreenenter"",""1"",""7256""
","
","","11274.969999998575","Ready? Remember, use the '2', '4', '6', and '8' keys to select the decks. </br> Put your fingers on those keys now and then press '2' to begin.","50","","instructions","2021-04-23 18:47:51.850","","","","","",""
"casino-fixation","35","236578","0.0-17.0-0.0","A110","false","img/card_backs/set1/yellow.gif","img/card_backs/set1/green.gif","img/card_backs/set1/red.gif","img/card_backs/set1/purple.gif","img/card_backs/set2/pink.gif","img/card_backs/set2/orange.gif","img/card_backs/set2/blue.gif","img/card_backs/set2/gray.gif","""event"",""trial"",""time""
""fullscreenenter"",""1"",""7256""
","
","
","""event"",""trial"",""time""
""fullscreenenter"",""1"",""7256""
","
","","null","","null","","fixation","2021-04-23 18:47:52.357","","","","","",""
"card-selection-trial","36","241417","0.0-17.0-1.0","A110","false","img/card_backs/set1/yellow.gif","img/card_backs/set1/green.gif","img/card_backs/set1/red.gif","img/card_backs/set1/purple.gif","img/card_backs/set2/pink.gif","img/card_backs/set2/orange.gif","img/card_backs/set2/blue.gif","img/card_backs/set2/gray.gif","""event"",""trial"",""time""
""fullscreenenter"",""1"",""7256""
","
","
","""event"",""trial"",""time""
""fullscreenenter"",""1"",""7256""
","
","","2812.8500000002678","","","","practice","2021-04-23 18:47:57.195","img/practice_cards/backs/brown.gif","0","100","0","",""
"casino-fixation","37","241930","0.0-17.0-0.1","A110","false","img/card_backs/set1/yellow.gif","img/card_backs/set1/green.gif","img/card_backs/set1/red.gif","img/card_backs/set1/purple.gif","img/card_backs/set2/pink.gif","img/card_backs/set2/orange.gif","img/card_backs/set2/blue.gif","img/card_backs/set2/gray.gif","""event"",""trial"",""time""
""fullscreenenter"",""1"",""7256""
","
","
","""event"",""trial"",""time""
""fullscreenenter"",""1"",""7256""
","
","","null","","null","","fixation","2021-04-23 18:47:57.708","","","","","",""
"card-selection-trial","38","245734","0.0-17.0-1.1","A110","false","img/card_backs/set1/yellow.gif","img/card_backs/set1/green.gif","img/card_backs/set1/red.gif","img/card_backs/set1/purple.gif","img/card_backs/set2/pink.gif","img/card_backs/set2/orange.gif","img/card_backs/set2/blue.gif","img/card_backs/set2/gray.gif","""event"",""trial"",""time""
""fullscreenenter"",""1"",""7256""
","
","
","""event"",""trial"",""time""
""fullscreenenter"",""1"",""7256""
","
","","1782.4700000000885","","","","practice","2021-04-23 18:48:01.512","img/practice_cards/backs/dark_blue.gif","1","200","0","",""
"casino-fixation","39","246246","0.0-17.0-0.2","A110","false","img/card_backs/set1/yellow.gif","img/card_backs/set1/green.gif","img/card_backs/set1/red.gif","img/card_backs/set1/purple.gif","img/card_backs/set2/pink.gif","img/card_backs/set2/orange.gif","img/card_backs/set2/blue.gif","img/card_backs/set2/gray.gif","""event"",""trial"",""time""
""fullscreenenter"",""1"",""7256""
","
","
","""event"",""trial"",""time""
""fullscreenenter"",""1"",""7256""
","
","","null","","null","","fixation","2021-04-23 18:48:02.024","","","","","",""
"card-selection-trial","40","249277","0.0-17.0-1.2","A110","false","img/card_backs/set1/yellow.gif","img/card_backs/set1/green.gif","img/card_backs/set1/red.gif","img/card_backs/set1/purple.gif","img/card_backs/set2/pink.gif","img/card_backs/set2/orange.gif","img/card_backs/set2/blue.gif","img/card_backs/set2/gray.gif","""event"",""trial"",""time""
""fullscreenenter"",""1"",""7256""
","
","
","""event"",""trial"",""time""
""fullscreenenter"",""1"",""7256""
","
","","1012.445000000298","","","","practice","2021-04-23 18:48:05.055","img/practice_cards/backs/dark_green.gif","2","200","0","",""
"casino-fixation","41","249784","0.0-17.0-0.3","A110","false","img/card_backs/set1/yellow.gif","img/card_backs/set1/green.gif","img/card_backs/set1/red.gif","img/card_backs/set1/purple.gif","img/card_backs/set2/pink.gif","img/card_backs/set2/orange.gif","img/card_backs/set2/blue.gif","img/card_backs/set2/gray.gif","""event"",""trial"",""time""
""fullscreenenter"",""1"",""7256""
","
","
","""event"",""trial"",""time""
""fullscreenenter"",""1"",""7256""
","
","","null","","null","","fixation","2021-04-23 18:48:05.563","","","","","",""
"card-selection-trial","42","252778","0.0-17.0-1.3","A110","false","img/card_backs/set1/yellow.gif","img/card_backs/set1/green.gif","img/card_backs/set1/red.gif","img/card_backs/set1/purple.gif","img/card_backs/set2/pink.gif","img/card_backs/set2/orange.gif","img/card_backs/set2/blue.gif","img/card_backs/set2/gray.gif","""event"",""trial"",""time""
""fullscreenenter"",""1"",""7256""
","
","
","""event"",""trial"",""time""
""fullscreenenter"",""1"",""7256""
","
","","972.9250000000466","","","","practice","2021-04-23 18:48:08.556","img/practice_cards/backs/black.gif","0","100","0","",""
"casino-fixation","43","253290","0.0-17.0-0.4","A110","false","img/card_backs/set1/yellow.gif","img/card_backs/set1/green.gif","img/card_backs/set1/red.gif","img/card_backs/set1/purple.gif","img/card_backs/set2/pink.gif","img/card_backs/set2/orange.gif","img/card_backs/set2/blue.gif","img/card_backs/set2/gray.gif","""event"",""trial"",""time""
""fullscreenenter"",""1"",""7256""
","
","
","""event"",""trial"",""time""
""fullscreenenter"",""1"",""7256""
","
","","null","","null","","fixation","2021-04-23 18:48:09.068","","","","","",""
"card-selection-trial","44","256182","0.0-17.0-1.4","A110","false","img/card_backs/set1/yellow.gif","img/card_backs/set1/green.gif","img/card_backs/set1/red.gif","img/card_backs/set1/purple.gif","img/card_backs/set2/pink.gif","img/card_backs/set2/orange.gif","img/card_backs/set2/blue.gif","img/card_backs/set2/gray.gif","""event"",""trial"",""time""
""fullscreenenter"",""1"",""7256""
","
","
","""event"",""trial"",""time""
""fullscreenenter"",""1"",""7256""
","
","","867.6549999999697","","","","practice","2021-04-23 18:48:11.960","img/practice_cards/backs/brown.gif","1","-100","0","",""
"casino-fixation","45","256694","0.0-17.0-0.5","A110","false","img/card_backs/set1/yellow.gif","img/card_backs/set1/green.gif","img/card_backs/set1/red.gif","img/card_backs/set1/purple.gif","img/card_backs/set2/pink.gif","img/card_backs/set2/orange.gif","img/card_backs/set2/blue.gif","img/card_backs/set2/gray.gif","""event"",""trial"",""time""
""fullscreenenter"",""1"",""7256""
","
","
","""event"",""trial"",""time""
""fullscreenenter"",""1"",""7256""
","
","","null","","null","","fixation","2021-04-23 18:48:12.472","","","","","",""
"card-selection-trial","46","259607","0.0-17.0-1.5","A110","false","img/card_backs/set1/yellow.gif","img/card_backs/set1/green.gif","img/card_backs/set1/red.gif","img/card_backs/set1/purple.gif","img/card_backs/set2/pink.gif","img/card_backs/set2/orange.gif","img/card_backs/set2/blue.gif","img/card_backs/set2/gray.gif","""event"",""trial"",""time""
""fullscreenenter"",""1"",""7256""
","
","
","""event"",""trial"",""time""
""fullscreenenter"",""1"",""7256""
","
","","897.1750000001048","","","","practice","2021-04-23 18:48:15.385","img/practice_cards/backs/brown.gif","3","-100","0","",""
"casino-fixation","47","260119","0.0-17.0-0.6","A110","false","img/card_backs/set1/yellow.gif","img/card_backs/set1/green.gif","img/card_backs/set1/red.gif","img/card_backs/set1/purple.gif","img/card_backs/set2/pink.gif","img/card_backs/set2/orange.gif","img/card_backs/set2/blue.gif","img/card_backs/set2/gray.gif","""event"",""trial"",""time""
""fullscreenenter"",""1"",""7256""
","
","
","""event"",""trial"",""time""
""fullscreenenter"",""1"",""7256""
","
","","null","","null","","fixation","2021-04-23 18:48:15.898","","","","","",""
"card-selection-trial","48","262482","0.0-17.0-1.6","A110","false","img/card_backs/set1/yellow.gif","img/card_backs/set1/green.gif","img/card_backs/set1/red.gif","img/card_backs/set1/purple.gif","img/card_backs/set2/pink.gif","img/card_backs/set2/orange.gif","img/card_backs/set2/blue.gif","img/card_backs/set2/gray.gif","""event"",""trial"",""time""
""fullscreenenter"",""1"",""7256""
","
","
","""event"",""trial"",""time""
""fullscreenenter"",""1"",""7256""
","
","","342.155000000319","","","","practice","2021-04-23 18:48:18.260","img/practice_cards/backs/brown.gif","2","-100","0","",""
"casino-fixation","49","262996","0.0-17.0-0.7","A110","false","img/card_backs/set1/yellow.gif","img/card_backs/set1/green.gif","img/card_backs/set1/red.gif","img/card_backs/set1/purple.gif","img/card_backs/set2/pink.gif","img/card_backs/set2/orange.gif","img/card_backs/set2/blue.gif","img/card_backs/set2/gray.gif","""event"",""trial"",""time""
""fullscreenenter"",""1"",""7256""
","
","
","""event"",""trial"",""time""
""fullscreenenter"",""1"",""7256""
","
","","null","","null","","fixation","2021-04-23 18:48:18.774","","","","","",""
"card-selection-trial","50","265872","0.0-17.0-1.7","A110","false","img/card_backs/set1/yellow.gif","img/card_backs/set1/green.gif","img/card_backs/set1/red.gif","img/card_backs/set1/purple.gif","img/card_backs/set2/pink.gif","img/card_backs/set2/orange.gif","img/card_backs/set2/blue.gif","img/card_backs/set2/gray.gif","""event"",""trial"",""time""
""fullscreenenter"",""1"",""7256""
","
","
","""event"",""trial"",""time""
""fullscreenenter"",""1"",""7256""
","
","","857.3200000009383","","","","practice","2021-04-23 18:48:21.650","img/practice_cards/backs/brown.gif","0","100","0","",""
"casino-fixation","51","266375","0.0-17.0-0.8","A110","false","img/card_backs/set1/yellow.gif","img/card_backs/set1/green.gif","img/card_backs/set1/red.gif","img/card_backs/set1/purple.gif","img/card_backs/set2/pink.gif","img/card_backs/set2/orange.gif","img/card_backs/set2/blue.gif","img/card_backs/set2/gray.gif","""event"",""trial"",""time""
""fullscreenenter"",""1"",""7256""
","
","
","""event"",""trial"",""time""
""fullscreenenter"",""1"",""7256""
","
","","null","","null","","fixation","2021-04-23 18:48:22.153","","","","","",""
"card-selection-trial","52","268908","0.0-17.0-1.8","A110","false","img/card_backs/set1/yellow.gif","img/card_backs/set1/green.gif","img/card_backs/set1/red.gif","img/card_backs/set1/purple.gif","img/card_backs/set2/pink.gif","img/card_backs/set2/orange.gif","img/card_backs/set2/blue.gif","img/card_backs/set2/gray.gif","""event"",""trial"",""time""
""fullscreenenter"",""1"",""7256""
","
","
","""event"",""trial"",""time""
""fullscreenenter"",""1"",""7256""
","
","","522.8099999986007","","","","practice","2021-04-23 18:48:24.686","img/practice_cards/backs/black.gif","1","-100","0","",""
"casino-fixation","53","269411","0.0-17.0-0.9","A110","false","img/card_backs/set1/yellow.gif","img/card_backs/set1/green.gif","img/card_backs/set1/red.gif","img/card_backs/set1/purple.gif","img/card_backs/set2/pink.gif","img/card_backs/set2/orange.gif","img/card_backs/set2/blue.gif","img/card_backs/set2/gray.gif","""event"",""trial"",""time""
""fullscreenenter"",""1"",""7256""
","
","
","""event"",""trial"",""time""
""fullscreenenter"",""1"",""7256""
","
","","null","","null","","fixation","2021-04-23 18:48:25.189","","","","","",""
"card-selection-trial","54","271919","0.0-17.0-1.9","A110","false","img/card_backs/set1/yellow.gif","img/card_backs/set1/green.gif","img/card_backs/set1/red.gif","img/card_backs/set1/purple.gif","img/card_backs/set2/pink.gif","img/card_backs/set2/orange.gif","img/card_backs/set2/blue.gif","img/card_backs/set2/gray.gif","""event"",""trial"",""time""
""fullscreenenter"",""1"",""7256""
","
","
","""event"",""trial"",""time""
""fullscreenenter"",""1"",""7256""
","
","","497.0699999994249","","","","practice","2021-04-23 18:48:27.697","img/practice_cards/backs/brown.gif","2","-100","0","",""
"casino-keyboard-response","55","275094","0.0-18.0","A110","false","img/card_backs/set1/yellow.gif","img/card_backs/set1/green.gif","img/card_backs/set1/red.gif","img/card_backs/set1/purple.gif","img/card_backs/set2/pink.gif","img/card_backs/set2/orange.gif","img/card_backs/set2/blue.gif","img/card_backs/set2/gray.gif","""event"",""trial"",""time""
""fullscreenenter"",""1"",""7256""
","
","
","""event"",""trial"",""time""
""fullscreenenter"",""1"",""7256""
","
","","3172.695000001113","You earned 200 tokens during the practice round!","82","","","2021-04-23 18:48:30.873","","","","","",""
"casino-keyboard-response","56","280536","0.0-19.0-0.0","A110","false","img/card_backs/set1/yellow.gif","img/card_backs/set1/green.gif","img/card_backs/set1/red.gif","img/card_backs/set1/purple.gif","img/card_backs/set2/pink.gif","img/card_backs/set2/orange.gif","img/card_backs/set2/blue.gif","img/card_backs/set2/gray.gif","""event"",""trial"",""time""
""fullscreenenter"",""1"",""7256""
","
","
","""event"",""trial"",""time""
""fullscreenenter"",""1"",""7256""
","
","","5436.670000000915","Nice job! You are almost ready to play the real game.","86","","instructions","2021-04-23 18:48:36.314","","","","","",""
"casino-keyboard-response","57","287791","0.0-19.0-0.1","A110","false","img/card_backs/set1/yellow.gif","img/card_backs/set1/green.gif","img/card_backs/set1/red.gif","img/card_backs/set1/purple.gif","img/card_backs/set2/pink.gif","img/card_backs/set2/orange.gif","img/card_backs/set2/blue.gif","img/card_backs/set2/gray.gif","""event"",""trial"",""time""
""fullscreenenter"",""1"",""7256""
","
","
","""event"",""trial"",""time""
""fullscreenenter"",""1"",""7256""
","
","","7251.820000001288","You will play two rounds of the real game. In each round, you will pick 100 cards in total.","73","","instructions","2021-04-23 18:48:43.569","","","","","",""
"casino-keyboard-response","58","291765","0.0-19.0-0.2","A110","false","img/card_backs/set1/yellow.gif","img/card_backs/set1/green.gif","img/card_backs/set1/red.gif","img/card_backs/set1/purple.gif","img/card_backs/set2/pink.gif","img/card_backs/set2/orange.gif","img/card_backs/set2/blue.gif","img/card_backs/set2/gray.gif","""event"",""trial"",""time""
""fullscreenenter"",""1"",""7256""
","
","
","""event"",""trial"",""time""
""fullscreenenter"",""1"",""7256""
","
","","3970.9100000000326","We are now going to ask you some questions about how the game works.","66","","instructions","2021-04-23 18:48:47.543","","","","","",""
"casino-keyboard-response","59","297992","0.0-19.0-0.3","A110","false","img/card_backs/set1/yellow.gif","img/card_backs/set1/green.gif","img/card_backs/set1/red.gif","img/card_backs/set1/purple.gif","img/card_backs/set2/pink.gif","img/card_backs/set2/orange.gif","img/card_backs/set2/blue.gif","img/card_backs/set2/gray.gif","""event"",""trial"",""time""
""fullscreenenter"",""1"",""7256""
","
","
","""event"",""trial"",""time""
""fullscreenenter"",""1"",""7256""
","
","","6223.635000000242","Answer carefully. You will not be able to begin the game until you answer them correctly.","67","","instructions","2021-04-23 18:48:53.770","","","","","",""
"casino-comp_q","60","305824","0.0-20.0-0.0","A110","false","img/card_backs/set1/yellow.gif","img/card_backs/set1/green.gif","img/card_backs/set1/red.gif","img/card_backs/set1/purple.gif","img/card_backs/set2/pink.gif","img/card_backs/set2/orange.gif","img/card_backs/set2/blue.gif","img/card_backs/set2/gray.gif","""event"",""trial"",""time""
""fullscreenenter"",""1"",""7256""
","
","
","""event"",""trial"",""time""
""fullscreenenter"",""1"",""7256""
","
","","7827.789999999339","True or False: All the decks have some cards that cause you to win tokens and some cards that cause you to lose tokens.","84","","","2021-04-23 18:49:01.606","","","","","",""
"casino-keyboard-response","61","309466","0.0-20.0-1.0","A110","false","img/card_backs/set1/yellow.gif","img/card_backs/set1/green.gif","img/card_backs/set1/red.gif","img/card_backs/set1/purple.gif","img/card_backs/set2/pink.gif","img/card_backs/set2/orange.gif","img/card_backs/set2/blue.gif","img/card_backs/set2/gray.gif","""event"",""trial"",""time""
""fullscreenenter"",""1"",""7256""
","
","
","""event"",""trial"",""time""
""fullscreenenter"",""1"",""7256""
","
","","3634.425000000163","True is correct! All the decks have a mix of winning and losing cards.","77","","","2021-04-23 18:49:05.245","","","","","true",""
"casino-comp_q","62","313967","0.0-21.0-0.0","A110","false","img/card_backs/set1/yellow.gif","img/card_backs/set1/green.gif","img/card_backs/set1/red.gif","img/card_backs/set1/purple.gif","img/card_backs/set2/pink.gif","img/card_backs/set2/orange.gif","img/card_backs/set2/blue.gif","img/card_backs/set2/gray.gif","""event"",""trial"",""time""
""fullscreenenter"",""1"",""7256""
","
","
","""event"",""trial"",""time""
""fullscreenenter"",""1"",""7256""
","
","","4496.194999999716","True or False: You will have as much time as you want to make your response.","70","","","2021-04-23 18:49:09.745","","","","","",""
"casino-keyboard-response","63","316791","0.0-21.0-1.0","A110","false","img/card_backs/set1/yellow.gif","img/card_backs/set1/green.gif","img/card_backs/set1/red.gif","img/card_backs/set1/purple.gif","img/card_backs/set2/pink.gif","img/card_backs/set2/orange.gif","img/card_backs/set2/blue.gif","img/card_backs/set2/gray.gif","""event"",""trial"",""time""
""fullscreenenter"",""1"",""7256""
","
","
","""event"",""trial"",""time""
""fullscreenenter"",""1"",""7256""
","
","","2817.269999999553","False is correct! You will only have 10 seconds to make each choice.","75","","","2021-04-23 18:49:12.569","","","","","true",""
"casino-comp_q","64","319589","0.0-22.0-0.0","A110","false","img/card_backs/set1/yellow.gif","img/card_backs/set1/green.gif","img/card_backs/set1/red.gif","img/card_backs/set1/purple.gif","img/card_backs/set2/pink.gif","img/card_backs/set2/orange.gif","img/card_backs/set2/blue.gif","img/card_backs/set2/gray.gif","""event"",""trial"",""time""
""fullscreenenter"",""1"",""7256""
","
","
","""event"",""trial"",""time""
""fullscreenenter"",""1"",""7256""
","
","","2794.5899999995017","True or False: The location of the deck determines how lucky it is.","70","","","2021-04-23 18:49:15.367","","","","","",""
"casino-keyboard-response","65","323552","0.0-22.0-1.0","A110","false","img/card_backs/set1/yellow.gif","img/card_backs/set1/green.gif","img/card_backs/set1/red.gif","img/card_backs/set1/purple.gif","img/card_backs/set2/pink.gif","img/card_backs/set2/orange.gif","img/card_backs/set2/blue.gif","img/card_backs/set2/gray.gif","""event"",""trial"",""time""
""fullscreenenter"",""1"",""7256""
","
","
","""event"",""trial"",""time""
""fullscreenenter"",""1"",""7256""
","
","","3960.9099999997998","False is correct! The <i>color</i>  of the deck determines how lucky or unlucky it is.","68","","","2021-04-23 18:49:19.330","","","","","true",""
"casino-keyboard-response","66","327589","0.0-23.0-0.0","A110","false","img/card_backs/set1/yellow.gif","img/card_backs/set1/green.gif","img/card_backs/set1/red.gif","img/card_backs/set1/purple.gif","img/card_backs/set2/pink.gif","img/card_backs/set2/orange.gif","img/card_backs/set2/blue.gif","img/card_backs/set2/gray.gif","""event"",""trial"",""time""
""fullscreenenter"",""1"",""7256""
","
","
","""event"",""trial"",""time""
""fullscreenenter"",""1"",""7256""
","
","","4032.4400000008754","Great job! Now it's time to start the real game.","82","","instructions","2021-04-23 18:49:23.367","","","","","",""
"casino-keyboard-response","67","332685","0.0-23.0-0.1","A110","false","img/card_backs/set1/yellow.gif","img/card_backs/set1/green.gif","img/card_backs/set1/red.gif","img/card_backs/set1/purple.gif","img/card_backs/set2/pink.gif","img/card_backs/set2/orange.gif","img/card_backs/set2/blue.gif","img/card_backs/set2/gray.gif","""event"",""trial"",""time""
""fullscreenenter"",""1"",""7256""
","
","
","""event"",""trial"",""time""
""fullscreenenter"",""1"",""7256""
","
","","5092.339999999269","Before we start, we're going to head into a new room of the casino.","86","","instructions","2021-04-23 18:49:28.463","","","","","",""
"casino-keyboard-response","68","339113","0.0-24.0-0.0","A110","false","img/card_backs/set1/yellow.gif","img/card_backs/set1/green.gif","img/card_backs/set1/red.gif","img/card_backs/set1/purple.gif","img/card_backs/set2/pink.gif","img/card_backs/set2/orange.gif","img/card_backs/set2/blue.gif","img/card_backs/set2/gray.gif","""event"",""trial"",""time""
""fullscreenenter"",""1"",""7256""
","
","
","""event"",""trial"",""time""
""fullscreenenter"",""1"",""7256""
","
","","6425.540000000154","Here we are! The real game will use different cards, but the rules will be the same.","71","","instructions","2021-04-23 18:49:34.891","","","","","",""
"casino-keyboard-response","69","349675","0.0-24.0-0.1","A110","false","img/card_backs/set1/yellow.gif","img/card_backs/set1/green.gif","img/card_backs/set1/red.gif","img/card_backs/set1/purple.gif","img/card_backs/set2/pink.gif","img/card_backs/set2/orange.gif","img/card_backs/set2/blue.gif","img/card_backs/set2/gray.gif","""event"",""trial"",""time""
""fullscreenenter"",""1"",""7256""
","
","
","""event"",""trial"",""time""
""fullscreenenter"",""1"",""7256""
","
","","10558.404999999737","Ready? Put your fingers over the '2', '4', 6', and '8' keys so you are ready to play the game. </br> Then press 2 to start.","50","","instructions","2021-04-23 18:49:45.453","","","","","",""
"casino-fixation","70","350182","0.0-25.0-0.0","A110","false","img/card_backs/set1/yellow.gif","img/card_backs/set1/green.gif","img/card_backs/set1/red.gif","img/card_backs/set1/purple.gif","img/card_backs/set2/pink.gif","img/card_backs/set2/orange.gif","img/card_backs/set2/blue.gif","img/card_backs/set2/gray.gif","""event"",""trial"",""time""
""fullscreenenter"",""1"",""7256""
","
","
","""event"",""trial"",""time""
""fullscreenenter"",""1"",""7256""
","
","","null","","null","","fixation","2021-04-23 18:49:45.960","","","","","",""
"card-selection-trial","71","353701","0.0-25.0-1.0","A110","false","img/card_backs/set1/yellow.gif","img/card_backs/set1/green.gif","img/card_backs/set1/red.gif","img/card_backs/set1/purple.gif","img/card_backs/set2/pink.gif","img/card_backs/set2/orange.gif","img/card_backs/set2/blue.gif","img/card_backs/set2/gray.gif","""event"",""trial"",""time""
""fullscreenenter"",""1"",""7256""
","
","
","""event"",""trial"",""time""
""fullscreenenter"",""1"",""7256""
","
","","1502.5699999987846","","","","real_trial","2021-04-23 18:49:49.479","img/card_backs/set1/green.gif","0","200","1","",""
"casino-fixation","72","354209","0.0-25.0-0.1","A110","false","img/card_backs/set1/yellow.gif","img/card_backs/set1/green.gif","img/card_backs/set1/red.gif","img/card_backs/set1/purple.gif","img/card_backs/set2/pink.gif","img/card_backs/set2/orange.gif","img/card_backs/set2/blue.gif","img/card_backs/set2/gray.gif","""event"",""trial"",""time""
""fullscreenenter"",""1"",""7256""
","
","
","""event"",""trial"",""time""
""fullscreenenter"",""1"",""7256""
","
","","null","","null","","fixation","2021-04-23 18:49:49.988","","","","","",""
"card-selection-trial","73","357104","0.0-25.0-1.1","A110","false","img/card_backs/set1/yellow.gif","img/card_backs/set1/green.gif","img/card_backs/set1/red.gif","img/card_backs/set1/purple.gif","img/card_backs/set2/pink.gif","img/card_backs/set2/orange.gif","img/card_backs/set2/blue.gif","img/card_backs/set2/gray.gif","""event"",""trial"",""time""
""fullscreenenter"",""1"",""7256""
","
","
","""event"",""trial"",""time""
""fullscreenenter"",""1"",""7256""
","
","","878.9850000011502","","","","real_trial","2021-04-23 18:49:52.883","img/card_backs/set1/red.gif","3","120","1","",""
"casino-fixation","74","357615","0.0-25.0-0.2","A110","false","img/card_backs/set1/yellow.gif","img/card_backs/set1/green.gif","img/card_backs/set1/red.gif","img/card_backs/set1/purple.gif","img/card_backs/set2/pink.gif","img/card_backs/set2/orange.gif","img/card_backs/set2/blue.gif","img/card_backs/set2/gray.gif","""event"",""trial"",""time""
""fullscreenenter"",""1"",""7256""
","
","
","""event"",""trial"",""time""
""fullscreenenter"",""1"",""7256""
","
","","null","","null","","fixation","2021-04-23 18:49:53.393","","","","","",""
"card-selection-trial","75","360082","0.0-25.0-1.2","A110","false","img/card_backs/set1/yellow.gif","img/card_backs/set1/green.gif","img/card_backs/set1/red.gif","img/card_backs/set1/purple.gif","img/card_backs/set2/pink.gif","img/card_backs/set2/orange.gif","img/card_backs/set2/blue.gif","img/card_backs/set2/gray.gif","""event"",""trial"",""time""
""fullscreenenter"",""1"",""7256""
","
","
","""event"",""trial"",""time""
""fullscreenenter"",""1"",""7256""
","
","","445.0950000009616","","","","real_trial","2021-04-23 18:49:55.860","img/card_backs/set1/red.gif","2","-50","1","",""
"casino-fixation","76","360592","0.0-25.0-0.3","A110","false","img/card_backs/set1/yellow.gif","img/card_backs/set1/green.gif","img/card_backs/set1/red.gif","img/card_backs/set1/purple.gif","img/card_backs/set2/pink.gif","img/card_backs/set2/orange.gif","img/card_backs/set2/blue.gif","img/card_backs/set2/gray.gif","""event"",""trial"",""time""
""fullscreenenter"",""1"",""7256""
","
","
","""event"",""trial"",""time""
""fullscreenenter"",""1"",""7256""
","
","","null","","null","","fixation","2021-04-23 18:49:56.371","","","","","",""
"card-selection-trial","77","362997","0.0-25.0-1.3","A110","false","img/card_backs/set1/yellow.gif","img/card_backs/set1/green.gif","img/card_backs/set1/red.gif","img/card_backs/set1/purple.gif","img/card_backs/set2/pink.gif","img/card_backs/set2/orange.gif","img/card_backs/set2/blue.gif","img/card_backs/set2/gray.gif","""event"",""trial"",""time""
""fullscreenenter"",""1"",""7256""
","
","
","""event"",""trial"",""time""
""fullscreenenter"",""1"",""7256""
","
","","390.39000000047963","","","","real_trial","2021-04-23 18:49:58.776","img/card_backs/set1/red.gif","1","-60","1","",""
"casino-fixation","78","363510","0.0-25.0-0.4","A110","false","img/card_backs/set1/yellow.gif","img/card_backs/set1/green.gif","img/card_backs/set1/red.gif","img/card_backs/set1/purple.gif","img/card_backs/set2/pink.gif","img/card_backs/set2/orange.gif","img/card_backs/set2/blue.gif","img/card_backs/set2/gray.gif","""event"",""trial"",""time""
""fullscreenenter"",""1"",""7256""
","
","
","""event"",""trial"",""time""
""fullscreenenter"",""1"",""7256""
","
","","null","","null","","fixation","2021-04-23 18:49:59.288","","","","","",""
"card-selection-trial","79","366160","0.0-25.0-1.4","A110","false","img/card_backs/set1/yellow.gif","img/card_backs/set1/green.gif","img/card_backs/set1/red.gif","img/card_backs/set1/purple.gif","img/card_backs/set2/pink.gif","img/card_backs/set2/orange.gif","img/card_backs/set2/blue.gif","img/card_backs/set2/gray.gif","""event"",""trial"",""time""
""fullscreenenter"",""1"",""7256""
","
","
","""event"",""trial"",""time""
""fullscreenenter"",""1"",""7256""
","
","","627.8650000003981","","","","real_trial","2021-04-23 18:50:01.938","img/card_backs/set1/purple.gif","0","100","1","",""
"casino-fixation","80","366674","0.0-25.0-0.5","A110","false","img/card_backs/set1/yellow.gif","img/card_backs/set1/green.gif","img/card_backs/set1/red.gif","img/card_backs/set1/purple.gif","img/card_backs/set2/pink.gif","img/card_backs/set2/orange.gif","img/card_backs/set2/blue.gif","img/card_backs/set2/gray.gif","""event"",""trial"",""time""
""fullscreenenter"",""1"",""7256""
","
","
","""event"",""trial"",""time""
""fullscreenenter"",""1"",""7256""
","
","","null","","null","","fixation","2021-04-23 18:50:02.452","","","","","",""
"card-selection-trial","81","369161","0.0-25.0-1.5","A110","false","img/card_backs/set1/yellow.gif","img/card_backs/set1/green.gif","img/card_backs/set1/red.gif","img/card_backs/set1/purple.gif","img/card_backs/set2/pink.gif","img/card_backs/set2/orange.gif","img/card_backs/set2/blue.gif","img/card_backs/set2/gray.gif","""event"",""trial"",""time""
""fullscreenenter"",""1"",""7256""
","
","
","""event"",""trial"",""time""
""fullscreenenter"",""1"",""7256""
","
","","468.50500000076136","","","","real_trial","2021-04-23 18:50:04.939","img/card_backs/set1/red.gif","0","-50","1","",""
"casino-fixation","82","369676","0.0-25.0-0.6","A110","false","img/card_backs/set1/yellow.gif","img/card_backs/set1/green.gif","img/card_backs/set1/red.gif","img/card_backs/set1/purple.gif","img/card_backs/set2/pink.gif","img/card_backs/set2/orange.gif","img/card_backs/set2/blue.gif","img/card_backs/set2/gray.gif","""event"",""trial"",""time""
""fullscreenenter"",""1"",""7256""
","
","
","""event"",""trial"",""time""
""fullscreenenter"",""1"",""7256""
","
","","null","","null","","fixation","2021-04-23 18:50:05.454","","","","","",""
"card-selection-trial","83","372459","0.0-25.0-1.6","A110","false","img/card_backs/set1/yellow.gif","img/card_backs/set1/green.gif","img/card_backs/set1/red.gif","img/card_backs/set1/purple.gif","img/card_backs/set2/pink.gif","img/card_backs/set2/orange.gif","img/card_backs/set2/blue.gif","img/card_backs/set2/gray.gif","""event"",""trial"",""time""
""fullscreenenter"",""1"",""7256""
","
","
","""event"",""trial"",""time""
""fullscreenenter"",""1"",""7256""
","
","","771.9500000002445","","","","real_trial","2021-04-23 18:50:08.237","img/card_backs/set1/red.gif","3","110","1","",""
"casino-fixation","84","372970","0.0-25.0-0.7","A110","false","img/card_backs/set1/yellow.gif","img/card_backs/set1/green.gif","img/card_backs/set1/red.gif","img/card_backs/set1/purple.gif","img/card_backs/set2/pink.gif","img/card_backs/set2/orange.gif","img/card_backs/set2/blue.gif","img/card_backs/set2/gray.gif","""event"",""trial"",""time""
""fullscreenenter"",""1"",""7256""
","
","
","""event"",""trial"",""time""
""fullscreenenter"",""1"",""7256""
","
","","null","","null","","fixation","2021-04-23 18:50:08.748","","","","","",""
"card-selection-trial","85","380142","0.0-25.0-1.7","A110","false","img/card_backs/set1/yellow.gif","img/card_backs/set1/green.gif","img/card_backs/set1/red.gif","img/card_backs/set1/purple.gif","img/card_backs/set2/pink.gif","img/card_backs/set2/orange.gif","img/card_backs/set2/blue.gif","img/card_backs/set2/gray.gif","""event"",""trial"",""time""
""fullscreenenter"",""1"",""7256""
","
","
","""event"",""trial"",""time""
""fullscreenenter"",""1"",""7256""
","
","","5159.100000000792","","","","real_trial","2021-04-23 18:50:15.921","img/card_backs/set1/yellow.gif","3","-230","1","",""
"casino-fixation","86","380647","0.0-25.0-0.8","A110","false","img/card_backs/set1/yellow.gif","img/card_backs/set1/green.gif","img/card_backs/set1/red.gif","img/card_backs/set1/purple.gif","img/card_backs/set2/pink.gif","img/card_backs/set2/orange.gif","img/card_backs/set2/blue.gif","img/card_backs/set2/gray.gif","""event"",""trial"",""time""
""fullscreenenter"",""1"",""7256""
","
","
","""event"",""trial"",""time""
""fullscreenenter"",""1"",""7256""
","
","","null","","null","","fixation","2021-04-23 18:50:16.425","","","","","",""
"card-selection-trial","87","388014","0.0-25.0-1.8","A110","false","img/card_backs/set1/yellow.gif","img/card_backs/set1/green.gif","img/card_backs/set1/red.gif","img/card_backs/set1/purple.gif","img/card_backs/set2/pink.gif","img/card_backs/set2/orange.gif","img/card_backs/set2/blue.gif","img/card_backs/set2/gray.gif","""event"",""trial"",""time""
""fullscreenenter"",""1"",""7256""
","
","
","""event"",""trial"",""time""
""fullscreenenter"",""1"",""7256""
","
","","5355.095000000787","","","","real_trial","2021-04-23 18:50:23.792","img/card_backs/set1/purple.gif","1","100","1","",""
"casino-fixation","88","388517","0.0-25.0-0.9","A110","false","img/card_backs/set1/yellow.gif","img/card_backs/set1/green.gif","img/card_backs/set1/red.gif","img/card_backs/set1/purple.gif","img/card_backs/set2/pink.gif","img/card_backs/set2/orange.gif","img/card_backs/set2/blue.gif","img/card_backs/set2/gray.gif","""event"",""trial"",""time""
""fullscreenenter"",""1"",""7256""
","
","
","""event"",""trial"",""time""
""fullscreenenter"",""1"",""7256""
","
","","null","","null","","fixation","2021-04-23 18:50:24.296","","","","","",""
"card-selection-trial","89","393350","0.0-25.0-1.9","A110","false","img/card_backs/set1/yellow.gif","img/card_backs/set1/green.gif","img/card_backs/set1/red.gif","img/card_backs/set1/purple.gif","img/card_backs/set2/pink.gif","img/card_backs/set2/orange.gif","img/card_backs/set2/blue.gif","img/card_backs/set2/gray.gif","""event"",""trial"",""time""
""fullscreenenter"",""1"",""7256""
","
","
","""event"",""trial"",""time""
""fullscreenenter"",""1"",""7256""
","
","","2816.034999999858","","","","real_trial","2021-04-23 18:50:29.128","img/card_backs/set1/green.gif","0","200","1","",""
"casino-fixation","90","393854","0.0-25.0-0.10","A110","false","img/card_backs/set1/yellow.gif","img/card_backs/set1/green.gif","img/card_backs/set1/red.gif","img/card_backs/set1/purple.gif","img/card_backs/set2/pink.gif","img/card_backs/set2/orange.gif","img/card_backs/set2/blue.gif","img/card_backs/set2/gray.gif","""event"",""trial"",""time""
""fullscreenenter"",""1"",""7256""
","
","
","""event"",""trial"",""time""
""fullscreenenter"",""1"",""7256""
","
","","null","","null","","fixation","2021-04-23 18:50:29.632","","","","","",""
"card-selection-trial","91","396577","0.0-25.0-1.10","A110","false","img/card_backs/set1/yellow.gif","img/card_backs/set1/green.gif","img/card_backs/set1/red.gif","img/card_backs/set1/purple.gif","img/card_backs/set2/pink.gif","img/card_backs/set2/orange.gif","img/card_backs/set2/blue.gif","img/card_backs/set2/gray.gif","""event"",""trial"",""time""
""fullscreenenter"",""1"",""7256""
","
","
","""event"",""trial"",""time""
""fullscreenenter"",""1"",""7256""
","
","","698.5999999996857","","","","real_trial","2021-04-23 18:50:32.356","img/card_backs/set1/green.gif","0","-240","1","",""
"casino-fixation","92","397081","0.0-25.0-0.11","A110","false","img/card_backs/set1/yellow.gif","img/card_backs/set1/green.gif","img/card_backs/set1/red.gif","img/card_backs/set1/purple.gif","img/card_backs/set2/pink.gif","img/card_backs/set2/orange.gif","img/card_backs/set2/blue.gif","img/card_backs/set2/gray.gif","""event"",""trial"",""time""
""fullscreenenter"",""1"",""7256""
","
","
","""event"",""trial"",""time""
""fullscreenenter"",""1"",""7256""
","
","","null","","null","","fixation","2021-04-23 18:50:32.859","","","","","",""
"card-selection-trial","93","401942","0.0-25.0-1.11","A110","false","img/card_backs/set1/yellow.gif","img/card_backs/set1/green.gif","img/card_backs/set1/red.gif","img/card_backs/set1/purple.gif","img/card_backs/set2/pink.gif","img/card_backs/set2/orange.gif","img/card_backs/set2/blue.gif","img/card_backs/set2/gray.gif","""event"",""trial"",""time""
""fullscreenenter"",""1"",""7256""
","
","
","""event"",""trial"",""time""
""fullscreenenter"",""1"",""7256""
","
","","2833.98500000115","","","","real_trial","2021-04-23 18:50:37.720","img/card_backs/set1/purple.gif","1","110","1","",""
"casino-fixation","94","402446","0.0-25.0-0.12","A110","false","img/card_backs/set1/yellow.gif","img/card_backs/set1/green.gif","img/card_backs/set1/red.gif","img/card_backs/set1/purple.gif","img/card_backs/set2/pink.gif","img/card_backs/set2/orange.gif","img/card_backs/set2/blue.gif","img/card_backs/set2/gray.gif","""event"",""trial"",""time""
""fullscreenenter"",""1"",""7256""
","
","
","""event"",""trial"",""time""
""fullscreenenter"",""1"",""7256""
","
","","null","","null","","fixation","2021-04-23 18:50:38.224","","","","","",""
"card-selection-trial","95","405800","0.0-25.0-1.12","A110","false","img/card_backs/set1/yellow.gif","img/card_backs/set1/green.gif","img/card_backs/set1/red.gif","img/card_backs/set1/purple.gif","img/card_backs/set2/pink.gif","img/card_backs/set2/orange.gif","img/card_backs/set2/blue.gif","img/card_backs/set2/gray.gif","""event"",""trial"",""time""
""fullscreenenter"",""1"",""7256""
","
","
","""event"",""trial"",""time""
""fullscreenenter"",""1"",""7256""
","
","","1340.3799999996554","","","","real_trial","2021-04-23 18:50:41.578","img/card_backs/set1/purple.gif","3","110","1","",""
"casino-fixation","96","406304","0.0-25.0-0.13","A110","false","img/card_backs/set1/yellow.gif","img/card_backs/set1/green.gif","img/card_backs/set1/red.gif","img/card_backs/set1/purple.gif","img/card_backs/set2/pink.gif","img/card_backs/set2/orange.gif","img/card_backs/set2/blue.gif","img/card_backs/set2/gray.gif","""event"",""trial"",""time""
""fullscreenenter"",""1"",""7256""
","
","
","""event"",""trial"",""time""
""fullscreenenter"",""1"",""7256""
","
","","null","","null","","fixation","2021-04-23 18:50:42.082","","","","","",""
"card-selection-trial","97","409542","0.0-25.0-1.13","A110","false","img/card_backs/set1/yellow.gif","img/card_backs/set1/green.gif","img/card_backs/set1/red.gif","img/card_backs/set1/purple.gif","img/card_backs/set2/pink.gif","img/card_backs/set2/orange.gif","img/card_backs/set2/blue.gif","img/card_backs/set2/gray.gif","""event"",""trial"",""time""
""fullscreenenter"",""1"",""7256""
","
","
","""event"",""trial"",""time""
""fullscreenenter"",""1"",""7256""
","
","","1226.3500000007916","","","","real_trial","2021-04-23 18:50:45.320","img/card_backs/set1/purple.gif","2","-60","1","",""
"casino-fixation","98","410045","0.0-25.0-0.14","A110","false","img/card_backs/set1/yellow.gif","img/card_backs/set1/green.gif","img/card_backs/set1/red.gif","img/card_backs/set1/purple.gif","img/card_backs/set2/pink.gif","img/card_backs/set2/orange.gif","img/card_backs/set2/blue.gif","img/card_backs/set2/gray.gif","""event"",""trial"",""time""
""fullscreenenter"",""1"",""7256""
","
","
","""event"",""trial"",""time""
""fullscreenenter"",""1"",""7256""
","
","","null","","null","","fixation","2021-04-23 18:50:45.823","","","","","",""
"card-selection-trial","99","416561","0.0-25.0-1.14","A110","false","img/card_backs/set1/yellow.gif","img/card_backs/set1/green.gif","img/card_backs/set1/red.gif","img/card_backs/set1/purple.gif","img/card_backs/set2/pink.gif","img/card_backs/set2/orange.gif","img/card_backs/set2/blue.gif","img/card_backs/set2/gray.gif","""event"",""trial"",""time""
""fullscreenenter"",""1"",""7256""
","
","
","""event"",""trial"",""time""
""fullscreenenter"",""1"",""7256""
","
","","4504.16500000027","","","","real_trial","2021-04-23 18:50:52.339","img/card_backs/set1/purple.gif","0","120","1","",""
"casino-fixation","100","417066","0.0-25.0-0.15","A110","false","img/card_backs/set1/yellow.gif","img/card_backs/set1/green.gif","img/card_backs/set1/red.gif","img/card_backs/set1/purple.gif","img/card_backs/set2/pink.gif","img/card_backs/set2/orange.gif","img/card_backs/set2/blue.gif","img/card_backs/set2/gray.gif","""event"",""trial"",""time""
""fullscreenenter"",""1"",""7256""
","
","
","""event"",""trial"",""time""
""fullscreenenter"",""1"",""7256""
","
","","null","","null","","fixation","2021-04-23 18:50:52.844","","","","","",""
"card-selection-trial","101","421876","0.0-25.0-1.15","A110","false","img/card_backs/set1/yellow.gif","img/card_backs/set1/green.gif","img/card_backs/set1/red.gif","img/card_backs/set1/purple.gif","img/card_backs/set2/pink.gif","img/card_backs/set2/orange.gif","img/card_backs/set2/blue.gif","img/card_backs/set2/gray.gif","""event"",""trial"",""time""
""fullscreenenter"",""1"",""7256""
","
","
","""event"",""trial"",""time""
""fullscreenenter"",""1"",""7256""
","
","","2800.295000000915","","","","real_trial","2021-04-23 18:50:57.654","img/card_backs/set1/purple.gif","2","110","1","",""
"casino-fixation","102","422380","0.0-25.0-0.16","A110","false","img/card_backs/set1/yellow.gif","img/card_backs/set1/green.gif","img/card_backs/set1/red.gif","img/card_backs/set1/purple.gif","img/card_backs/set2/pink.gif","img/card_backs/set2/orange.gif","img/card_backs/set2/blue.gif","img/card_backs/set2/gray.gif","""event"",""trial"",""time""
""fullscreenenter"",""1"",""7256""
","
","
","""event"",""trial"",""time""
""fullscreenenter"",""1"",""7256""
","
","","null","","null","","fixation","2021-04-23 18:50:58.158","","","","","",""
"card-selection-trial","103","426187","0.0-25.0-1.16","A110","false","img/card_backs/set1/yellow.gif","img/card_backs/set1/green.gif","img/card_backs/set1/red.gif","img/card_backs/set1/purple.gif","img/card_backs/set2/pink.gif","img/card_backs/set2/orange.gif","img/card_backs/set2/blue.gif","img/card_backs/set2/gray.gif","""event"",""trial"",""time""
""fullscreenenter"",""1"",""7256""
","
","
","""event"",""trial"",""time""
""fullscreenenter"",""1"",""7256""
","
","","1793.7949999995762","","","","real_trial","2021-04-23 18:51:01.965","img/card_backs/set1/red.gif","3","-50","1","",""
"casino-fixation","104","426691","0.0-25.0-0.17","A110","false","img/card_backs/set1/yellow.gif","img/card_backs/set1/green.gif","img/card_backs/set1/red.gif","img/card_backs/set1/purple.gif","img/card_backs/set2/pink.gif","img/card_backs/set2/orange.gif","img/card_backs/set2/blue.gif","img/card_backs/set2/gray.gif","""event"",""trial"",""time""
""fullscreenenter"",""1"",""7256""
","
","
","""event"",""trial"",""time""
""fullscreenenter"",""1"",""7256""
","
","","null","","null","","fixation","2021-04-23 18:51:02.469","","","","","",""
"card-selection-trial","105","433252","0.0-25.0-1.17","A110","false","img/card_backs/set1/yellow.gif","img/card_backs/set1/green.gif","img/card_backs/set1/red.gif","img/card_backs/set1/purple.gif","img/card_backs/set2/pink.gif","img/card_backs/set2/orange.gif","img/card_backs/set2/blue.gif","img/card_backs/set2/gray.gif","""event"",""trial"",""time""
""fullscreenenter"",""1"",""7256""
","
","
","""event"",""trial"",""time""
""fullscreenenter"",""1"",""7256""
","
","","4548.935000000696","","","","real_trial","2021-04-23 18:51:09.030","img/card_backs/set1/green.gif","3","-240","1","",""
"casino-fixation","106","433756","0.0-25.0-0.18","A110","false","img/card_backs/set1/yellow.gif","img/card_backs/set1/green.gif","img/card_backs/set1/red.gif","img/card_backs/set1/purple.gif","img/card_backs/set2/pink.gif","img/card_backs/set2/orange.gif","img/card_backs/set2/blue.gif","img/card_backs/set2/gray.gif","""event"",""trial"",""time""
""fullscreenenter"",""1"",""7256""
","
","
","""event"",""trial"",""time""
""fullscreenenter"",""1"",""7256""
","
","","null","","null","","fixation","2021-04-23 18:51:09.534","","","","","",""
"card-selection-trial","107","437029","0.0-25.0-1.18","A110","false","img/card_backs/set1/yellow.gif","img/card_backs/set1/green.gif","img/card_backs/set1/red.gif","img/card_backs/set1/purple.gif","img/card_backs/set2/pink.gif","img/card_backs/set2/orange.gif","img/card_backs/set2/blue.gif","img/card_backs/set2/gray.gif","""event"",""trial"",""time""
""fullscreenenter"",""1"",""7256""
","
","
","""event"",""trial"",""time""
""fullscreenenter"",""1"",""7256""
","
","","1262.3599999988219","","","","real_trial","2021-04-23 18:51:12.808","img/card_backs/set1/purple.gif","2","110","1","",""
"casino-fixation","108","437533","0.0-25.0-0.19","A110","false","img/card_backs/set1/yellow.gif","img/card_backs/set1/green.gif","img/card_backs/set1/red.gif","img/card_backs/set1/purple.gif","img/card_backs/set2/pink.gif","img/card_backs/set2/orange.gif","img/card_backs/set2/blue.gif","img/card_backs/set2/gray.gif","""event"",""trial"",""time""
""fullscreenenter"",""1"",""7256""
","
","
","""event"",""trial"",""time""
""fullscreenenter"",""1"",""7256""
","
","","null","","null","","fixation","2021-04-23 18:51:13.312","","","","","",""
"card-selection-trial","109","440269","0.0-25.0-1.19","A110","false","img/card_backs/set1/yellow.gif","img/card_backs/set1/green.gif","img/card_backs/set1/red.gif","img/card_backs/set1/purple.gif","img/card_backs/set2/pink.gif","img/card_backs/set2/orange.gif","img/card_backs/set2/blue.gif","img/card_backs/set2/gray.gif","""event"",""trial"",""time""
""fullscreenenter"",""1"",""7256""
","
","
","""event"",""trial"",""time""
""fullscreenenter"",""1"",""7256""
","
","","723.9750000007916","","","","real_trial","2021-04-23 18:51:16.047","img/card_backs/set1/purple.gif","3","120","1","",""
"casino-fixation","110","440784","0.0-25.0-0.20","A110","false","img/card_backs/set1/yellow.gif","img/card_backs/set1/green.gif","img/card_backs/set1/red.gif","img/card_backs/set1/purple.gif","img/card_backs/set2/pink.gif","img/card_backs/set2/orange.gif","img/card_backs/set2/blue.gif","img/card_backs/set2/gray.gif","""event"",""trial"",""time""
""fullscreenenter"",""1"",""7256""
","
","
","""event"",""trial"",""time""
""fullscreenenter"",""1"",""7256""
","
","","null","","null","","fixation","2021-04-23 18:51:16.562","","","","","",""
"card-selection-trial","111","443709","0.0-25.0-1.20","A110","false","img/card_backs/set1/yellow.gif","img/card_backs/set1/green.gif","img/card_backs/set1/red.gif","img/card_backs/set1/purple.gif","img/card_backs/set2/pink.gif","img/card_backs/set2/orange.gif","img/card_backs/set2/blue.gif","img/card_backs/set2/gray.gif","""event"",""trial"",""time""
""fullscreenenter"",""1"",""7256""
","
","
","""event"",""trial"",""time""
""fullscreenenter"",""1"",""7256""
","
","","914.1749999999302","","","","real_trial","2021-04-23 18:51:19.487","img/card_backs/set1/purple.gif","2","110","1","",""
"casino-fixation","112","444212","0.0-25.0-0.21","A110","false","img/card_backs/set1/yellow.gif","img/card_backs/set1/green.gif","img/card_backs/set1/red.gif","img/card_backs/set1/purple.gif","img/card_backs/set2/pink.gif","img/card_backs/set2/orange.gif","img/card_backs/set2/blue.gif","img/card_backs/set2/gray.gif","""event"",""trial"",""time""
""fullscreenenter"",""1"",""7256""
","
","
","""event"",""trial"",""time""
""fullscreenenter"",""1"",""7256""
","
","","null","","null","","fixation","2021-04-23 18:51:19.990","","","","","",""
"card-selection-trial","113","446951","0.0-25.0-1.21","A110","false","img/card_backs/set1/yellow.gif","img/card_backs/set1/green.gif","img/card_backs/set1/red.gif","img/card_backs/set1/purple.gif","img/card_backs/set2/pink.gif","img/card_backs/set2/orange.gif","img/card_backs/set2/blue.gif","img/card_backs/set2/gray.gif","""event"",""trial"",""time""
""fullscreenenter"",""1"",""7256""
","
","
","""event"",""trial"",""time""
""fullscreenenter"",""1"",""7256""
","
","","726.7449999999371","","","","real_trial","2021-04-23 18:51:22.729","img/card_backs/set1/purple.gif","1","-60","1","",""
"casino-fixation","114","447454","0.0-25.0-0.22","A110","false","img/card_backs/set1/yellow.gif","img/card_backs/set1/green.gif","img/card_backs/set1/red.gif","img/card_backs/set1/purple.gif","img/card_backs/set2/pink.gif","img/card_backs/set2/orange.gif","img/card_backs/set2/blue.gif","img/card_backs/set2/gray.gif","""event"",""trial"",""time""
""fullscreenenter"",""1"",""7256""
","
","
","""event"",""trial"",""time""
""fullscreenenter"",""1"",""7256""
","
","","null","","null","","fixation","2021-04-23 18:51:23.232","","","","","",""
"card-selection-trial","115","450229","0.0-25.0-1.22","A110","false","img/card_backs/set1/yellow.gif","img/card_backs/set1/green.gif","img/card_backs/set1/red.gif","img/card_backs/set1/purple.gif","img/card_backs/set2/pink.gif","img/card_backs/set2/orange.gif","img/card_backs/set2/blue.gif","img/card_backs/set2/gray.gif","""event"",""trial"",""time""
""fullscreenenter"",""1"",""7256""
","
","
","""event"",""trial"",""time""
""fullscreenenter"",""1"",""7256""
","
","","763.3900000001304","","","","real_trial","2021-04-23 18:51:26.007","img/card_backs/set1/purple.gif","0","-50","1","",""
"casino-fixation","116","450732","0.0-25.0-0.23","A110","false","img/card_backs/set1/yellow.gif","img/card_backs/set1/green.gif","img/card_backs/set1/red.gif","img/card_backs/set1/purple.gif","img/card_backs/set2/pink.gif","img/card_backs/set2/orange.gif","img/card_backs/set2/blue.gif","img/card_backs/set2/gray.gif","""event"",""trial"",""time""
""fullscreenenter"",""1"",""7256""
","
","
","""event"",""trial"",""time""
""fullscreenenter"",""1"",""7256""
","
","","null","","null","","fixation","2021-04-23 18:51:26.511","","","","","",""
"card-selection-trial","117","456072","0.0-25.0-1.23","A110","false","img/card_backs/set1/yellow.gif","img/card_backs/set1/green.gif","img/card_backs/set1/red.gif","img/card_backs/set1/purple.gif","img/card_backs/set2/pink.gif","img/card_backs/set2/orange.gif","img/card_backs/set2/blue.gif","img/card_backs/set2/gray.gif","""event"",""trial"",""time""
""fullscreenenter"",""1"",""7256""
","
","
","""event"",""trial"",""time""
""fullscreenenter"",""1"",""7256""
","
","","3328.1750000005704","","","","real_trial","2021-04-23 18:51:31.850","img/card_backs/set1/yellow.gif","2","180","1","",""
"casino-fixation","118","456576","0.0-25.0-0.24","A110","false","img/card_backs/set1/yellow.gif","img/card_backs/set1/green.gif","img/card_backs/set1/red.gif","img/card_backs/set1/purple.gif","img/card_backs/set2/pink.gif","img/card_backs/set2/orange.gif","img/card_backs/set2/blue.gif","img/card_backs/set2/gray.gif","""event"",""trial"",""time""
""fullscreenenter"",""1"",""7256""
","
","
","""event"",""trial"",""time""
""fullscreenenter"",""1"",""7256""
","
","","null","","null","","fixation","2021-04-23 18:51:32.354","","","","","",""
"card-selection-trial","119","459582","0.0-25.0-1.24","A110","false","img/card_backs/set1/yellow.gif","img/card_backs/set1/green.gif","img/card_backs/set1/red.gif","img/card_backs/set1/purple.gif","img/card_backs/set2/pink.gif","img/card_backs/set2/orange.gif","img/card_backs/set2/blue.gif","img/card_backs/set2/gray.gif","""event"",""trial"",""time""
""fullscreenenter"",""1"",""7256""
","
","
","""event"",""trial"",""time""
""fullscreenenter"",""1"",""7256""
","
","","994.6600000003236","","","","real_trial","2021-04-23 18:51:35.360","img/card_backs/set1/yellow.gif","1","-240","1","",""
"casino-fixation","120","460084","0.0-25.0-0.25","A110","false","img/card_backs/set1/yellow.gif","img/card_backs/set1/green.gif","img/card_backs/set1/red.gif","img/card_backs/set1/purple.gif","img/card_backs/set2/pink.gif","img/card_backs/set2/orange.gif","img/card_backs/set2/blue.gif","img/card_backs/set2/gray.gif","""event"",""trial"",""time""
""fullscreenenter"",""1"",""7256""
","
","
","""event"",""trial"",""time""
""fullscreenenter"",""1"",""7256""
","
","","null","","null","","fixation","2021-04-23 18:51:35.862","","","","","",""
"card-selection-trial","121","464848","0.0-25.0-1.25","A110","false","img/card_backs/set1/yellow.gif","img/card_backs/set1/green.gif","img/card_backs/set1/red.gif","img/card_backs/set1/purple.gif","img/card_backs/set2/pink.gif","img/card_backs/set2/orange.gif","img/card_backs/set2/blue.gif","img/card_backs/set2/gray.gif","""event"",""trial"",""time""
""fullscreenenter"",""1"",""7256""
","
","
","""event"",""trial"",""time""
""fullscreenenter"",""1"",""7256""
","
","","2751.519999999786","","","","real_trial","2021-04-23 18:51:40.626","img/card_backs/set1/red.gif","0","120","1","",""
"casino-fixation","122","465352","0.0-25.0-0.26","A110","false","img/card_backs/set1/yellow.gif","img/card_backs/set1/green.gif","img/card_backs/set1/red.gif","img/card_backs/set1/purple.gif","img/card_backs/set2/pink.gif","img/card_backs/set2/orange.gif","img/card_backs/set2/blue.gif","img/card_backs/set2/gray.gif","""event"",""trial"",""time""
""fullscreenenter"",""1"",""7256""
","
","
","""event"",""trial"",""time""
""fullscreenenter"",""1"",""7256""
","
","","null","","null","","fixation","2021-04-23 18:51:41.130","","","","","",""
"card-selection-trial","123","468209","0.0-25.0-1.26","A110","false","img/card_backs/set1/yellow.gif","img/card_backs/set1/green.gif","img/card_backs/set1/red.gif","img/card_backs/set1/purple.gif","img/card_backs/set2/pink.gif","img/card_backs/set2/orange.gif","img/card_backs/set2/blue.gif","img/card_backs/set2/gray.gif","""event"",""trial"",""time""
""fullscreenenter"",""1"",""7256""
","
","
","""event"",""trial"",""time""
""fullscreenenter"",""1"",""7256""
","
","","844.840000001539","","","","real_trial","2021-04-23 18:51:43.987","img/card_backs/set1/purple.gif","0","110","1","",""
"casino-fixation","124","468713","0.0-25.0-0.27","A110","false","img/card_backs/set1/yellow.gif","img/card_backs/set1/green.gif","img/card_backs/set1/red.gif","img/card_backs/set1/purple.gif","img/card_backs/set2/pink.gif","img/card_backs/set2/orange.gif","img/card_backs/set2/blue.gif","img/card_backs/set2/gray.gif","""event"",""trial"",""time""
""fullscreenenter"",""1"",""7256""
","
","
","""event"",""trial"",""time""
""fullscreenenter"",""1"",""7256""
","
","","null","","null","","fixation","2021-04-23 18:51:44.491","","","","","",""
"card-selection-trial","125","471350","0.0-25.0-1.27","A110","false","img/card_backs/set1/yellow.gif","img/card_backs/set1/green.gif","img/card_backs/set1/red.gif","img/card_backs/set1/purple.gif","img/card_backs/set2/pink.gif","img/card_backs/set2/orange.gif","img/card_backs/set2/blue.gif","img/card_backs/set2/gray.gif","""event"",""trial"",""time""
""fullscreenenter"",""1"",""7256""
","
","
","""event"",""trial"",""time""
""fullscreenenter"",""1"",""7256""
","
","","622.6150000002235","","","","real_trial","2021-04-23 18:51:47.128","img/card_backs/set1/purple.gif","3","100","1","",""
"casino-fixation","126","471852","0.0-25.0-0.28","A110","false","img/card_backs/set1/yellow.gif","img/card_backs/set1/green.gif","img/card_backs/set1/red.gif","img/card_backs/set1/purple.gif","img/card_backs/set2/pink.gif","img/card_backs/set2/orange.gif","img/card_backs/set2/blue.gif","img/card_backs/set2/gray.gif","""event"",""trial"",""time""
""fullscreenenter"",""1"",""7256""
","
","
","""event"",""trial"",""time""
""fullscreenenter"",""1"",""7256""
","
","","null","","null","","fixation","2021-04-23 18:51:47.633","","","","","",""
"card-selection-trial","127","474885","0.0-25.0-1.28","A110","false","img/card_backs/set1/yellow.gif","img/card_backs/set1/green.gif","img/card_backs/set1/red.gif","img/card_backs/set1/purple.gif","img/card_backs/set2/pink.gif","img/card_backs/set2/orange.gif","img/card_backs/set2/blue.gif","img/card_backs/set2/gray.gif","""event"",""trial"",""time""
""fullscreenenter"",""1"",""7256""
","
","
","""event"",""trial"",""time""
""fullscreenenter"",""1"",""7256""
","
","","1007.109999998589","","","","real_trial","2021-04-23 18:51:50.664","img/card_backs/set1/purple.gif","1","-60","1","",""
"casino-fixation","128","475389","0.0-25.0-0.29","A110","false","img/card_backs/set1/yellow.gif","img/card_backs/set1/green.gif","img/card_backs/set1/red.gif","img/card_backs/set1/purple.gif","img/card_backs/set2/pink.gif","img/card_backs/set2/orange.gif","img/card_backs/set2/blue.gif","img/card_backs/set2/gray.gif","""event"",""trial"",""time""
""fullscreenenter"",""1"",""7256""
","
","
","""event"",""trial"",""time""
""fullscreenenter"",""1"",""7256""
","
","","null","","null","","fixation","2021-04-23 18:51:51.168","","","","","",""
"card-selection-trial","129","477948","0.0-25.0-1.29","A110","false","img/card_backs/set1/yellow.gif","img/card_backs/set1/green.gif","img/card_backs/set1/red.gif","img/card_backs/set1/purple.gif","img/card_backs/set2/pink.gif","img/card_backs/set2/orange.gif","img/card_backs/set2/blue.gif","img/card_backs/set2/gray.gif","""event"",""trial"",""time""
""fullscreenenter"",""1"",""7256""
","
","
","""event"",""trial"",""time""
""fullscreenenter"",""1"",""7256""
","
","","547.234999999986","","","","real_trial","2021-04-23 18:51:53.726","img/card_backs/set1/purple.gif","1","100","1","",""
"casino-fixation","130","478452","0.0-25.0-0.30","A110","false","img/card_backs/set1/yellow.gif","img/card_backs/set1/green.gif","img/card_backs/set1/red.gif","img/card_backs/set1/purple.gif","img/card_backs/set2/pink.gif","img/card_backs/set2/orange.gif","img/card_backs/set2/blue.gif","img/card_backs/set2/gray.gif","""event"",""trial"",""time""
""fullscreenenter"",""1"",""7256""
","
","
","""event"",""trial"",""time""
""fullscreenenter"",""1"",""7256""
","
","","null","","null","","fixation","2021-04-23 18:51:54.230","","","","","",""
"card-selection-trial","131","481171","0.0-25.0-1.30","A110","false","img/card_backs/set1/yellow.gif","img/card_backs/set1/green.gif","img/card_backs/set1/red.gif","img/card_backs/set1/purple.gif","img/card_backs/set2/pink.gif","img/card_backs/set2/orange.gif","img/card_backs/set2/blue.gif","img/card_backs/set2/gray.gif","""event"",""trial"",""time""
""fullscreenenter"",""1"",""7256""
","
","
","""event"",""trial"",""time""
""fullscreenenter"",""1"",""7256""
","
","","707.4750000010827","","","","real_trial","2021-04-23 18:51:56.949","img/card_backs/set1/purple.gif","3","-60","1","",""
"casino-fixation","132","481674","0.0-25.0-0.31","A110","false","img/card_backs/set1/yellow.gif","img/card_backs/set1/green.gif","img/card_backs/set1/red.gif","img/card_backs/set1/purple.gif","img/card_backs/set2/pink.gif","img/card_backs/set2/orange.gif","img/card_backs/set2/blue.gif","img/card_backs/set2/gray.gif","""event"",""trial"",""time""
""fullscreenenter"",""1"",""7256""
","
","
","""event"",""trial"",""time""
""fullscreenenter"",""1"",""7256""
","
","","null","","null","","fixation","2021-04-23 18:51:57.452","","","","","",""
"card-selection-trial","133","485084","0.0-25.0-1.31","A110","false","img/card_backs/set1/yellow.gif","img/card_backs/set1/green.gif","img/card_backs/set1/red.gif","img/card_backs/set1/purple.gif","img/card_backs/set2/pink.gif","img/card_backs/set2/orange.gif","img/card_backs/set2/blue.gif","img/card_backs/set2/gray.gif","""event"",""trial"",""time""
""fullscreenenter"",""1"",""7256""
","
","
","""event"",""trial"",""time""
""fullscreenenter"",""1"",""7256""
","
","","1397.6800000000512","","","","real_trial","2021-04-23 18:52:00.862","img/card_backs/set1/purple.gif","2","-50","1","",""
"casino-fixation","134","485587","0.0-25.0-0.32","A110","false","img/card_backs/set1/yellow.gif","img/card_backs/set1/green.gif","img/card_backs/set1/red.gif","img/card_backs/set1/purple.gif","img/card_backs/set2/pink.gif","img/card_backs/set2/orange.gif","img/card_backs/set2/blue.gif","img/card_backs/set2/gray.gif","""event"",""trial"",""time""
""fullscreenenter"",""1"",""7256""
","
","
","""event"",""trial"",""time""
""fullscreenenter"",""1"",""7256""
","
","","null","","null","","fixation","2021-04-23 18:52:01.365","","","","","",""
"card-selection-trial","135","490267","0.0-25.0-1.32","A110","false","img/card_backs/set1/yellow.gif","img/card_backs/set1/green.gif","img/card_backs/set1/red.gif","img/card_backs/set1/purple.gif","img/card_backs/set2/pink.gif","img/card_backs/set2/orange.gif","img/card_backs/set2/blue.gif","img/card_backs/set2/gray.gif","""event"",""trial"",""time""
""fullscreenenter"",""1"",""7256""
","
","
","""event"",""trial"",""time""
""fullscreenenter"",""1"",""7256""
","
","","2665.7850000010803","","","","real_trial","2021-04-23 18:52:06.045","img/card_backs/set1/green.gif","2","180","1","",""
"casino-fixation","136","490771","0.0-25.0-0.33","A110","false","img/card_backs/set1/yellow.gif","img/card_backs/set1/green.gif","img/card_backs/set1/red.gif","img/card_backs/set1/purple.gif","img/card_backs/set2/pink.gif","img/card_backs/set2/orange.gif","img/card_backs/set2/blue.gif","img/card_backs/set2/gray.gif","""event"",""trial"",""time""
""fullscreenenter"",""1"",""7256""
","
","
","""event"",""trial"",""time""
""fullscreenenter"",""1"",""7256""
","
","","null","","null","","fixation","2021-04-23 18:52:06.549","","","","","",""
"card-selection-trial","137","493482","0.0-25.0-1.33","A110","false","img/card_backs/set1/yellow.gif","img/card_backs/set1/green.gif","img/card_backs/set1/red.gif","img/card_backs/set1/purple.gif","img/card_backs/set2/pink.gif","img/card_backs/set2/orange.gif","img/card_backs/set2/blue.gif","img/card_backs/set2/gray.gif","""event"",""trial"",""time""
""fullscreenenter"",""1"",""7256""
","
","
","""event"",""trial"",""time""
""fullscreenenter"",""1"",""7256""
","
","","699.3599999987055","","","","real_trial","2021-04-23 18:52:09.260","img/card_backs/set1/green.gif","3","200","1","",""
"casino-fixation","138","493986","0.0-25.0-0.34","A110","false","img/card_backs/set1/yellow.gif","img/card_backs/set1/green.gif","img/card_backs/set1/red.gif","img/card_backs/set1/purple.gif","img/card_backs/set2/pink.gif","img/card_backs/set2/orange.gif","img/card_backs/set2/blue.gif","img/card_backs/set2/gray.gif","""event"",""trial"",""time""
""fullscreenenter"",""1"",""7256""
","
","
","""event"",""trial"",""time""
""fullscreenenter"",""1"",""7256""
","
","","null","","null","","fixation","2021-04-23 18:52:09.764","","","","","",""
"card-selection-trial","139","496737","0.0-25.0-1.34","A110","false","img/card_backs/set1/yellow.gif","img/card_backs/set1/green.gif","img/card_backs/set1/red.gif","img/card_backs/set1/purple.gif","img/card_backs/set2/pink.gif","img/card_backs/set2/orange.gif","img/card_backs/set2/blue.gif","img/card_backs/set2/gray.gif","""event"",""trial"",""time""
""fullscreenenter"",""1"",""7256""
","
","
","""event"",""trial"",""time""
""fullscreenenter"",""1"",""7256""
","
","","739.8549999997485","","","","real_trial","2021-04-23 18:52:12.515","img/card_backs/set1/green.gif","3","180","1","",""
"casino-fixation","140","497239","0.0-25.0-0.35","A110","false","img/card_backs/set1/yellow.gif","img/card_backs/set1/green.gif","img/card_backs/set1/red.gif","img/card_backs/set1/purple.gif","img/card_backs/set2/pink.gif","img/card_backs/set2/orange.gif","img/card_backs/set2/blue.gif","img/card_backs/set2/gray.gif","""event"",""trial"",""time""
""fullscreenenter"",""1"",""7256""
","
","
","""event"",""trial"",""time""
""fullscreenenter"",""1"",""7256""
","
","","null","","null","","fixation","2021-04-23 18:52:13.018","","","","","",""
"card-selection-trial","141","500027","0.0-25.0-1.35","A110","false","img/card_backs/set1/yellow.gif","img/card_backs/set1/green.gif","img/card_backs/set1/red.gif","img/card_backs/set1/purple.gif","img/card_backs/set2/pink.gif","img/card_backs/set2/orange.gif","img/card_backs/set2/blue.gif","img/card_backs/set2/gray.gif","""event"",""trial"",""time""
""fullscreenenter"",""1"",""7256""
","
","
","""event"",""trial"",""time""
""fullscreenenter"",""1"",""7256""
","
","","776.3549999999814","","","","real_trial","2021-04-23 18:52:15.806","img/card_backs/set1/green.gif","2","190","1","",""
"casino-fixation","142","500532","0.0-25.0-0.36","A110","false","img/card_backs/set1/yellow.gif","img/card_backs/set1/green.gif","img/card_backs/set1/red.gif","img/card_backs/set1/purple.gif","img/card_backs/set2/pink.gif","img/card_backs/set2/orange.gif","img/card_backs/set2/blue.gif","img/card_backs/set2/gray.gif","""event"",""trial"",""time""
""fullscreenenter"",""1"",""7256""
","
","
","""event"",""trial"",""time""
""fullscreenenter"",""1"",""7256""
","
","","null","","null","","fixation","2021-04-23 18:52:16.310","","","","","",""
"card-selection-trial","143","503210","0.0-25.0-1.36","A110","false","img/card_backs/set1/yellow.gif","img/card_backs/set1/green.gif","img/card_backs/set1/red.gif","img/card_backs/set1/purple.gif","img/card_backs/set2/pink.gif","img/card_backs/set2/orange.gif","img/card_backs/set2/blue.gif","img/card_backs/set2/gray.gif","""event"",""trial"",""time""
""fullscreenenter"",""1"",""7256""
","
","
","""event"",""trial"",""time""
""fullscreenenter"",""1"",""7256""
","
","","665.7399999985937","","","","real_trial","2021-04-23 18:52:18.988","img/card_backs/set1/green.gif","0","-250","1","",""
"casino-fixation","144","503712","0.0-25.0-0.37","A110","false","img/card_backs/set1/yellow.gif","img/card_backs/set1/green.gif","img/card_backs/set1/red.gif","img/card_backs/set1/purple.gif","img/card_backs/set2/pink.gif","img/card_backs/set2/orange.gif","img/card_backs/set2/blue.gif","img/card_backs/set2/gray.gif","""event"",""trial"",""time""
""fullscreenenter"",""1"",""7256""
","
","
","""event"",""trial"",""time""
""fullscreenenter"",""1"",""7256""
","
","","null","","null","","fixation","2021-04-23 18:52:19.490","","","","","",""
"card-selection-trial","145","506281","0.0-25.0-1.37","A110","false","img/card_backs/set1/yellow.gif","img/card_backs/set1/green.gif","img/card_backs/set1/red.gif","img/card_backs/set1/purple.gif","img/card_backs/set2/pink.gif","img/card_backs/set2/orange.gif","img/card_backs/set2/blue.gif","img/card_backs/set2/gray.gif","""event"",""trial"",""time""
""fullscreenenter"",""1"",""7256""
","
","
","""event"",""trial"",""time""
""fullscreenenter"",""1"",""7256""
","
","","556.7449999997625","","","","real_trial","2021-04-23 18:52:22.059","img/card_backs/set1/green.gif","3","-230","1","",""
"casino-fixation","146","506785","0.0-25.0-0.38","A110","false","img/card_backs/set1/yellow.gif","img/card_backs/set1/green.gif","img/card_backs/set1/red.gif","img/card_backs/set1/purple.gif","img/card_backs/set2/pink.gif","img/card_backs/set2/orange.gif","img/card_backs/set2/blue.gif","img/card_backs/set2/gray.gif","""event"",""trial"",""time""
""fullscreenenter"",""1"",""7256""
","
","
","""event"",""trial"",""time""
""fullscreenenter"",""1"",""7256""
","
","","null","","null","","fixation","2021-04-23 18:52:22.563","","","","","",""
"card-selection-trial","147","509818","0.0-25.0-1.38","A110","false","img/card_backs/set1/yellow.gif","img/card_backs/set1/green.gif","img/card_backs/set1/red.gif","img/card_backs/set1/purple.gif","img/card_backs/set2/pink.gif","img/card_backs/set2/orange.gif","img/card_backs/set2/blue.gif","img/card_backs/set2/gray.gif","""event"",""trial"",""time""
""fullscreenenter"",""1"",""7256""
","
","
","""event"",""trial"",""time""
""fullscreenenter"",""1"",""7256""
","
","","1016.7750000000233","","","","real_trial","2021-04-23 18:52:25.596","img/card_backs/set1/green.gif","2","180","1","",""
"casino-fixation","148","510320","0.0-25.0-0.39","A110","false","img/card_backs/set1/yellow.gif","img/card_backs/set1/green.gif","img/card_backs/set1/red.gif","img/card_backs/set1/purple.gif","img/card_backs/set2/pink.gif","img/card_backs/set2/orange.gif","img/card_backs/set2/blue.gif","img/card_backs/set2/gray.gif","""event"",""trial"",""time""
""fullscreenenter"",""1"",""7256""
","
","
","""event"",""trial"",""time""
""fullscreenenter"",""1"",""7256""
","
","","null","","null","","fixation","2021-04-23 18:52:26.098","","","","","",""
"card-selection-trial","149","513104","0.0-25.0-1.39","A110","false","img/card_backs/set1/yellow.gif","img/card_backs/set1/green.gif","img/card_backs/set1/red.gif","img/card_backs/set1/purple.gif","img/card_backs/set2/pink.gif","img/card_backs/set2/orange.gif","img/card_backs/set2/blue.gif","img/card_backs/set2/gray.gif","""event"",""trial"",""time""
""fullscreenenter"",""1"",""7256""
","
","
","""event"",""trial"",""time""
""fullscreenenter"",""1"",""7256""
","
","","762.8000000003958","","","","real_trial","2021-04-23 18:52:28.882","img/card_backs/set1/purple.gif","3","-70","1","",""
"casino-fixation","150","513608","0.0-25.0-0.40","A110","false","img/card_backs/set1/yellow.gif","img/card_backs/set1/green.gif","img/card_backs/set1/red.gif","img/card_backs/set1/purple.gif","img/card_backs/set2/pink.gif","img/card_backs/set2/orange.gif","img/card_backs/set2/blue.gif","img/card_backs/set2/gray.gif","""event"",""trial"",""time""
""fullscreenenter"",""1"",""7256""
","
","
","""event"",""trial"",""time""
""fullscreenenter"",""1"",""7256""
","
","","null","","null","","fixation","2021-04-23 18:52:29.386","","","","","",""
"card-selection-trial","151","516924","0.0-25.0-1.40","A110","false","img/card_backs/set1/yellow.gif","img/card_backs/set1/green.gif","img/card_backs/set1/red.gif","img/card_backs/set1/purple.gif","img/card_backs/set2/pink.gif","img/card_backs/set2/orange.gif","img/card_backs/set2/blue.gif","img/card_backs/set2/gray.gif","""event"",""trial"",""time""
""fullscreenenter"",""1"",""7256""
","
","
","""event"",""trial"",""time""
""fullscreenenter"",""1"",""7256""
","
","","1303.535000000964","","","","real_trial","2021-04-23 18:52:32.702","img/card_backs/set1/purple.gif","0","120","1","",""
"casino-fixation","152","517427","0.0-25.0-0.41","A110","false","img/card_backs/set1/yellow.gif","img/card_backs/set1/green.gif","img/card_backs/set1/red.gif","img/card_backs/set1/purple.gif","img/card_backs/set2/pink.gif","img/card_backs/set2/orange.gif","img/card_backs/set2/blue.gif","img/card_backs/set2/gray.gif","""event"",""trial"",""time""
""fullscreenenter"",""1"",""7256""
","
","
","""event"",""trial"",""time""
""fullscreenenter"",""1"",""7256""
","
","","null","","null","","fixation","2021-04-23 18:52:33.206","","","","","",""
"card-selection-trial","153","521562","0.0-25.0-1.41","A110","false","img/card_backs/set1/yellow.gif","img/card_backs/set1/green.gif","img/card_backs/set1/red.gif","img/card_backs/set1/purple.gif","img/card_backs/set2/pink.gif","img/card_backs/set2/orange.gif","img/card_backs/set2/blue.gif","img/card_backs/set2/gray.gif","""event"",""trial"",""time""
""fullscreenenter"",""1"",""7256""
","
","
","""event"",""trial"",""time""
""fullscreenenter"",""1"",""7256""
","
","","2118.2050000006566","","","","real_trial","2021-04-23 18:52:37.340","img/card_backs/set1/green.gif","3","200","1","",""
"casino-fixation","154","522065","0.0-25.0-0.42","A110","false","img/card_backs/set1/yellow.gif","img/card_backs/set1/green.gif","img/card_backs/set1/red.gif","img/card_backs/set1/purple.gif","img/card_backs/set2/pink.gif","img/card_backs/set2/orange.gif","img/card_backs/set2/blue.gif","img/card_backs/set2/gray.gif","""event"",""trial"",""time""
""fullscreenenter"",""1"",""7256""
","
","
","""event"",""trial"",""time""
""fullscreenenter"",""1"",""7256""
","
","","null","","null","","fixation","2021-04-23 18:52:37.844","","","","","",""
"card-selection-trial","155","526372","0.0-25.0-1.42","A110","false","img/card_backs/set1/yellow.gif","img/card_backs/set1/green.gif","img/card_backs/set1/red.gif","img/card_backs/set1/purple.gif","img/card_backs/set2/pink.gif","img/card_backs/set2/orange.gif","img/card_backs/set2/blue.gif","img/card_backs/set2/gray.gif","""event"",""trial"",""time""
""fullscreenenter"",""1"",""7256""
","
","
","""event"",""trial"",""time""
""fullscreenenter"",""1"",""7256""
","
","","2293.944999999483","","","","real_trial","2021-04-23 18:52:42.150","img/card_backs/set1/purple.gif","1","110","1","",""
"casino-fixation","156","526876","0.0-25.0-0.43","A110","false","img/card_backs/set1/yellow.gif","img/card_backs/set1/green.gif","img/card_backs/set1/red.gif","img/card_backs/set1/purple.gif","img/card_backs/set2/pink.gif","img/card_backs/set2/orange.gif","img/card_backs/set2/blue.gif","img/card_backs/set2/gray.gif","""event"",""trial"",""time""
""fullscreenenter"",""1"",""7256""
","
","
","""event"",""trial"",""time""
""fullscreenenter"",""1"",""7256""
","
","","null","","null","","fixation","2021-04-23 18:52:42.654","","","","","",""
"card-selection-trial","157","531205","0.0-25.0-1.43","A110","false","img/card_backs/set1/yellow.gif","img/card_backs/set1/green.gif","img/card_backs/set1/red.gif","img/card_backs/set1/purple.gif","img/card_backs/set2/pink.gif","img/card_backs/set2/orange.gif","img/card_backs/set2/blue.gif","img/card_backs/set2/gray.gif","""event"",""trial"",""time""
""fullscreenenter"",""1"",""7256""
","
","
","""event"",""trial"",""time""
""fullscreenenter"",""1"",""7256""
","
","","2311.3650000013877","","","","real_trial","2021-04-23 18:52:46.983","img/card_backs/set1/green.gif","2","190","1","",""
"casino-fixation","158","531708","0.0-25.0-0.44","A110","false","img/card_backs/set1/yellow.gif","img/card_backs/set1/green.gif","img/card_backs/set1/red.gif","img/card_backs/set1/purple.gif","img/card_backs/set2/pink.gif","img/card_backs/set2/orange.gif","img/card_backs/set2/blue.gif","img/card_backs/set2/gray.gif","""event"",""trial"",""time""
""fullscreenenter"",""1"",""7256""
","
","
","""event"",""trial"",""time""
""fullscreenenter"",""1"",""7256""
","
","","null","","null","","fixation","2021-04-23 18:52:47.487","","","","","",""
"card-selection-trial","159","534607","0.0-25.0-1.44","A110","false","img/card_backs/set1/yellow.gif","img/card_backs/set1/green.gif","img/card_backs/set1/red.gif","img/card_backs/set1/purple.gif","img/card_backs/set2/pink.gif","img/card_backs/set2/orange.gif","img/card_backs/set2/blue.gif","img/card_backs/set2/gray.gif","""event"",""trial"",""time""
""fullscreenenter"",""1"",""7256""
","
","
","""event"",""trial"",""time""
""fullscreenenter"",""1"",""7256""
","
","","887.5399999998044","","","","real_trial","2021-04-23 18:52:50.386","img/card_backs/set1/red.gif","0","-70","1","",""
"casino-fixation","160","535111","0.0-25.0-0.45","A110","false","img/card_backs/set1/yellow.gif","img/card_backs/set1/green.gif","img/card_backs/set1/red.gif","img/card_backs/set1/purple.gif","img/card_backs/set2/pink.gif","img/card_backs/set2/orange.gif","img/card_backs/set2/blue.gif","img/card_backs/set2/gray.gif","""event"",""trial"",""time""
""fullscreenenter"",""1"",""7256""
","
","
","""event"",""trial"",""time""
""fullscreenenter"",""1"",""7256""
","
","","null","","null","","fixation","2021-04-23 18:52:50.889","","","","","",""
"card-selection-trial","161","538668","0.0-25.0-1.45","A110","false","img/card_backs/set1/yellow.gif","img/card_backs/set1/green.gif","img/card_backs/set1/red.gif","img/card_backs/set1/purple.gif","img/card_backs/set2/pink.gif","img/card_backs/set2/orange.gif","img/card_backs/set2/blue.gif","img/card_backs/set2/gray.gif","""event"",""trial"",""time""
""fullscreenenter"",""1"",""7256""
","
","
","""event"",""trial"",""time""
""fullscreenenter"",""1"",""7256""
","
","","1545.0700000000652","","","","real_trial","2021-04-23 18:52:54.446","img/card_backs/set1/purple.gif","1","100","1","",""
"casino-fixation","162","539172","0.0-25.0-0.46","A110","false","img/card_backs/set1/yellow.gif","img/card_backs/set1/green.gif","img/card_backs/set1/red.gif","img/card_backs/set1/purple.gif","img/card_backs/set2/pink.gif","img/card_backs/set2/orange.gif","img/card_backs/set2/blue.gif","img/card_backs/set2/gray.gif","""event"",""trial"",""time""
""fullscreenenter"",""1"",""7256""
","
","
","""event"",""trial"",""time""
""fullscreenenter"",""1"",""7256""
","
","","null","","null","","fixation","2021-04-23 18:52:54.951","","","","","",""
"card-selection-trial","163","541970","0.0-25.0-1.46","A110","false","img/card_backs/set1/yellow.gif","img/card_backs/set1/green.gif","img/card_backs/set1/red.gif","img/card_backs/set1/purple.gif","img/card_backs/set2/pink.gif","img/card_backs/set2/orange.gif","img/card_backs/set2/blue.gif","img/card_backs/set2/gray.gif","""event"",""trial"",""time""
""fullscreenenter"",""1"",""7256""
","
","
","""event"",""trial"",""time""
""fullscreenenter"",""1"",""7256""
","
","","783.3150000006426","","","","real_trial","2021-04-23 18:52:57.748","img/card_backs/set1/green.gif","2","-240","1","",""
"casino-fixation","164","542473","0.0-25.0-0.47","A110","false","img/card_backs/set1/yellow.gif","img/card_backs/set1/green.gif","img/card_backs/set1/red.gif","img/card_backs/set1/purple.gif","img/card_backs/set2/pink.gif","img/card_backs/set2/orange.gif","img/card_backs/set2/blue.gif","img/card_backs/set2/gray.gif","""event"",""trial"",""time""
""fullscreenenter"",""1"",""7256""
","
","
","""event"",""trial"",""time""
""fullscreenenter"",""1"",""7256""
","
","","null","","null","","fixation","2021-04-23 18:52:58.251","","","","","",""
"card-selection-trial","165","545056","0.0-25.0-1.47","A110","false","img/card_backs/set1/yellow.gif","img/card_backs/set1/green.gif","img/card_backs/set1/red.gif","img/card_backs/set1/purple.gif","img/card_backs/set2/pink.gif","img/card_backs/set2/orange.gif","img/card_backs/set2/blue.gif","img/card_backs/set2/gray.gif","""event"",""trial"",""time""
""fullscreenenter"",""1"",""7256""
","
","
","""event"",""trial"",""time""
""fullscreenenter"",""1"",""7256""
","
","","571.9850000004517","","","","real_trial","2021-04-23 18:53:00.834","img/card_backs/set1/purple.gif","1","-50","1","",""
"casino-fixation","166","545559","0.0-25.0-0.48","A110","false","img/card_backs/set1/yellow.gif","img/card_backs/set1/green.gif","img/card_backs/set1/red.gif","img/card_backs/set1/purple.gif","img/card_backs/set2/pink.gif","img/card_backs/set2/orange.gif","img/card_backs/set2/blue.gif","img/card_backs/set2/gray.gif","""event"",""trial"",""time""
""fullscreenenter"",""1"",""7256""
","
","
","""event"",""trial"",""time""
""fullscreenenter"",""1"",""7256""
","
","","null","","null","","fixation","2021-04-23 18:53:01.337","","","","","",""
