"trial_type","trial_index","time_elapsed","internal_node_id","sub_id","risk_good_first","block1_A","block1_B","block1_C","block1_D","block2_A","block2_B","block2_C","block2_D","interactions","blur_events","focus_events","fullscreenenter_events","fullscreenexit_events","success","rt","stimulus","key_press","button_pressed","task_part","timestamp","card_choice","choice_position","points_earned","block","correct","response"
"pavlovia","0","4","0.0-0.0","924","false","img/card_backs/set1/red.gif","img/card_backs/set1/green.gif","img/card_backs/set1/purple.gif","img/card_backs/set1/yellow.gif","img/card_backs/set2/orange.gif","img/card_backs/set2/blue.gif","img/card_backs/set2/pink.gif","img/card_backs/set2/gray.gif","""event"",""trial"",""time""
""fullscreenenter"",""1"",""3887""
","
","
","""event"",""trial"",""time""
""fullscreenenter"",""1"",""3887""
","
","","","","","","","","","","","","",""
"fullscreen","1","4876","0.0-1.0","924","false","img/card_backs/set1/red.gif","img/card_backs/set1/green.gif","img/card_backs/set1/purple.gif","img/card_backs/set1/yellow.gif","img/card_backs/set2/orange.gif","img/card_backs/set2/blue.gif","img/card_backs/set2/pink.gif","img/card_backs/set2/gray.gif","""event"",""trial"",""time""
""fullscreenenter"",""1"",""3887""
","
","
","""event"",""trial"",""time""
""fullscreenenter"",""1"",""3887""
","
","true","","","","","","","","","","","",""
"audio-keyboard-response","2","6664","0.0-2.0","924","false","img/card_backs/set1/red.gif","img/card_backs/set1/green.gif","img/card_backs/set1/purple.gif","img/card_backs/set1/yellow.gif","img/card_backs/set2/orange.gif","img/card_backs/set2/blue.gif","img/card_backs/set2/pink.gif","img/card_backs/set2/gray.gif","""event"",""trial"",""time""
""fullscreenenter"",""1"",""3887""
","
","
","""event"",""trial"",""time""
""fullscreenenter"",""1"",""3887""
","
","","1660","audio/beep_loop.wav","32","","","","","","","","",""
"audio-button-response","3","8498","0.0-3.0","924","false","img/card_backs/set1/red.gif","img/card_backs/set1/green.gif","img/card_backs/set1/purple.gif","img/card_backs/set1/yellow.gif","img/card_backs/set2/orange.gif","img/card_backs/set2/blue.gif","img/card_backs/set2/pink.gif","img/card_backs/set2/gray.gif","""event"",""trial"",""time""
""fullscreenenter"",""1"",""3887""
","
","
","""event"",""trial"",""time""
""fullscreenenter"",""1"",""3887""
","
","","NaN","audio/turtle.mp3","","3","","","","","","","",""
"audio-button-response","4","10852","0.0-4.0","924","false","img/card_backs/set1/red.gif","img/card_backs/set1/green.gif","img/card_backs/set1/purple.gif","img/card_backs/set1/yellow.gif","img/card_backs/set2/orange.gif","img/card_backs/set2/blue.gif","img/card_backs/set2/pink.gif","img/card_backs/set2/gray.gif","""event"",""trial"",""time""
""fullscreenenter"",""1"",""3887""
","
","
","""event"",""trial"",""time""
""fullscreenenter"",""1"",""3887""
","
","","NaN","audio/shark.mp3","","2","","","","","","","",""
"fullscreen","5","13948","0.0-5.0","924","false","img/card_backs/set1/red.gif","img/card_backs/set1/green.gif","img/card_backs/set1/purple.gif","img/card_backs/set1/yellow.gif","img/card_backs/set2/orange.gif","img/card_backs/set2/blue.gif","img/card_backs/set2/pink.gif","img/card_backs/set2/gray.gif","""event"",""trial"",""time""
""fullscreenenter"",""1"",""3887""
","
","
","""event"",""trial"",""time""
""fullscreenenter"",""1"",""3887""
","
","true","","","","","","","","","","","",""
"casino-keyboard-response","6","17156","0.0-6.0-0.0","924","false","img/card_backs/set1/red.gif","img/card_backs/set1/green.gif","img/card_backs/set1/purple.gif","img/card_backs/set1/yellow.gif","img/card_backs/set2/orange.gif","img/card_backs/set2/blue.gif","img/card_backs/set2/pink.gif","img/card_backs/set2/gray.gif","""event"",""trial"",""time""
""fullscreenenter"",""1"",""3887""
","
","
","""event"",""trial"",""time""
""fullscreenenter"",""1"",""3887""
","
","","3204.599999964237","Welcome to the casino!","71","","instructions","2021-06-17 20:31:50.696","","","","","",""
"casino-keyboard-response","7","26691","0.0-6.0-0.1","924","false","img/card_backs/set1/red.gif","img/card_backs/set1/green.gif","img/card_backs/set1/purple.gif","img/card_backs/set1/yellow.gif","img/card_backs/set2/orange.gif","img/card_backs/set2/blue.gif","img/card_backs/set2/pink.gif","img/card_backs/set2/gray.gif","""event"",""trial"",""time""
""fullscreenenter"",""1"",""3887""
","
","
","""event"",""trial"",""time""
""fullscreenenter"",""1"",""3887""
","
","","9532.300000011921","Today you will be playing a game to earn tokens. </br> At the end of the experiment, you will be paid a bonus based on how many tokens you win. ","69","","instructions","2021-06-17 20:32:00.231","","","","","",""
"casino-keyboard-response","8","33764","0.0-6.0-0.2","924","false","img/card_backs/set1/red.gif","img/card_backs/set1/green.gif","img/card_backs/set1/purple.gif","img/card_backs/set1/yellow.gif","img/card_backs/set2/orange.gif","img/card_backs/set2/blue.gif","img/card_backs/set2/pink.gif","img/card_backs/set2/gray.gif","""event"",""trial"",""time""
""fullscreenenter"",""1"",""3887""
","
","
","""event"",""trial"",""time""
""fullscreenenter"",""1"",""3887""
","
","","7071.799999952316","On every turn, you will be shown four different decks of cards. </br> You need to select a card from one of the four decks.  ","75","","instructions","2021-06-17 20:32:07.305","","","","","",""
"casino-keyboard-response","9","38526","0.0-6.0-0.3","924","false","img/card_backs/set1/red.gif","img/card_backs/set1/green.gif","img/card_backs/set1/purple.gif","img/card_backs/set1/yellow.gif","img/card_backs/set2/orange.gif","img/card_backs/set2/blue.gif","img/card_backs/set2/pink.gif","img/card_backs/set2/gray.gif","""event"",""trial"",""time""
""fullscreenenter"",""1"",""3887""
","
","
","""event"",""trial"",""time""
""fullscreenenter"",""1"",""3887""
","
","","4759.900000035763","On the next screen, you will see what the decks will look like. ","66","","instructions","2021-06-17 20:32:12.066","","","","","",""
"card-selection-trial","10","42534","0.0-7.0-0.0","924","false","img/card_backs/set1/red.gif","img/card_backs/set1/green.gif","img/card_backs/set1/purple.gif","img/card_backs/set1/yellow.gif","img/card_backs/set2/orange.gif","img/card_backs/set2/blue.gif","img/card_backs/set2/pink.gif","img/card_backs/set2/gray.gif","""event"",""trial"",""time""
""fullscreenenter"",""1"",""3887""
","
","
","""event"",""trial"",""time""
""fullscreenenter"",""1"",""3887""
","
","","null","","","","practice","2021-06-17 20:32:16.074","null","null","null","0","",""
"casino-keyboard-response","11","50579","0.0-8.0-0.0","924","false","img/card_backs/set1/red.gif","img/card_backs/set1/green.gif","img/card_backs/set1/purple.gif","img/card_backs/set1/yellow.gif","img/card_backs/set2/orange.gif","img/card_backs/set2/blue.gif","img/card_backs/set2/pink.gif","img/card_backs/set2/gray.gif","""event"",""trial"",""time""
""fullscreenenter"",""1"",""3887""
","
","
","""event"",""trial"",""time""
""fullscreenenter"",""1"",""3887""
","
","","8042.900000035763","You should pick a card from a deck using the '2', '4', '6', and '8' keys at the top of the keyboard.","85","","instructions","2021-06-17 20:32:24.119","","","","","",""
"casino-keyboard-response","12","56019","0.0-8.0-0.1","924","false","img/card_backs/set1/red.gif","img/card_backs/set1/green.gif","img/card_backs/set1/purple.gif","img/card_backs/set1/yellow.gif","img/card_backs/set2/orange.gif","img/card_backs/set2/blue.gif","img/card_backs/set2/pink.gif","img/card_backs/set2/gray.gif","""event"",""trial"",""time""
""fullscreenenter"",""1"",""3887""
","
","
","""event"",""trial"",""time""
""fullscreenenter"",""1"",""3887""
","
","","5438.100000023842","Once you select a card, it will turn over and you will see how many tokens you earned.","83","","instructions","2021-06-17 20:32:29.559","","","","","",""
"casino-keyboard-response","13","70193","0.0-8.0-0.2","924","false","img/card_backs/set1/red.gif","img/card_backs/set1/green.gif","img/card_backs/set1/purple.gif","img/card_backs/set1/yellow.gif","img/card_backs/set2/orange.gif","img/card_backs/set2/blue.gif","img/card_backs/set2/pink.gif","img/card_backs/set2/gray.gif","""event"",""trial"",""time""
""fullscreenenter"",""1"",""3887""
","
","
","""event"",""trial"",""time""
""fullscreenenter"",""1"",""3887""
","
","","14172.299999952316","Let's try practicing that! </br> First, try to put your fingers over the '2', '4', '6', and '8' keys. </br>  You can use whatever fingers are most comfortable for you. Try to find a comfortable position now. ","50","","instructions","2021-06-17 20:32:43.733","","","","","",""
"casino-keyboard-response","14","75735","0.0-8.0-0.3","924","false","img/card_backs/set1/red.gif","img/card_backs/set1/green.gif","img/card_backs/set1/purple.gif","img/card_backs/set1/yellow.gif","img/card_backs/set2/orange.gif","img/card_backs/set2/blue.gif","img/card_backs/set2/pink.gif","img/card_backs/set2/gray.gif","""event"",""trial"",""time""
""fullscreenenter"",""1"",""3887""
","
","
","""event"",""trial"",""time""
""fullscreenenter"",""1"",""3887""
","
","","5539.899999976158","Okay ready? </br> On the next screen, press '2' to select the left deck. ","50","","instructions","2021-06-17 20:32:49.275","","","","","",""
"card-selection-trial","15","78131","0.0-9.0-0.0","924","false","img/card_backs/set1/red.gif","img/card_backs/set1/green.gif","img/card_backs/set1/purple.gif","img/card_backs/set1/yellow.gif","img/card_backs/set2/orange.gif","img/card_backs/set2/blue.gif","img/card_backs/set2/pink.gif","img/card_backs/set2/gray.gif","""event"",""trial"",""time""
""fullscreenenter"",""1"",""3887""
","
","
","""event"",""trial"",""time""
""fullscreenenter"",""1"",""3887""
","
","","372.89999997615814","","","","practice_card_selection","2021-06-17 20:32:51.671","img/practice_cards/backs/black.gif","0","100","","",""
"casino-keyboard-response","16","83766","0.0-10.0-0.0","924","false","img/card_backs/set1/red.gif","img/card_backs/set1/green.gif","img/card_backs/set1/purple.gif","img/card_backs/set1/yellow.gif","img/card_backs/set2/orange.gif","img/card_backs/set2/blue.gif","img/card_backs/set2/pink.gif","img/card_backs/set2/gray.gif","""event"",""trial"",""time""
""fullscreenenter"",""1"",""3887""
","
","
","""event"",""trial"",""time""
""fullscreenenter"",""1"",""3887""
","
","","5633.299999952316","Great! Now on the next screen, try pressing '6' to select the third deck.","54","","instructions","2021-06-17 20:32:57.306","","","","","",""
"card-selection-trial","17","86034","0.0-11.0-0.0","924","false","img/card_backs/set1/red.gif","img/card_backs/set1/green.gif","img/card_backs/set1/purple.gif","img/card_backs/set1/yellow.gif","img/card_backs/set2/orange.gif","img/card_backs/set2/blue.gif","img/card_backs/set2/pink.gif","img/card_backs/set2/gray.gif","""event"",""trial"",""time""
""fullscreenenter"",""1"",""3887""
","
","
","""event"",""trial"",""time""
""fullscreenenter"",""1"",""3887""
","
","","261.39999997615814","","","","practice_card_selection","2021-06-17 20:32:59.574","img/practice_cards/backs/dark_green.gif","2","-200","","",""
"casino-keyboard-response","18","90291","0.0-12.0-0.0","924","false","img/card_backs/set1/red.gif","img/card_backs/set1/green.gif","img/card_backs/set1/purple.gif","img/card_backs/set1/yellow.gif","img/card_backs/set2/orange.gif","img/card_backs/set2/blue.gif","img/card_backs/set2/pink.gif","img/card_backs/set2/gray.gif","""event"",""trial"",""time""
""fullscreenenter"",""1"",""3887""
","
","
","""event"",""trial"",""time""
""fullscreenenter"",""1"",""3887""
","
","","4255.599999964237","Now on the next screen, try pressing '4' to select the second deck.","52","","instructions","2021-06-17 20:33:03.831","","","","","",""
"card-selection-trial","19","92566","0.0-13.0-0.0","924","false","img/card_backs/set1/red.gif","img/card_backs/set1/green.gif","img/card_backs/set1/purple.gif","img/card_backs/set1/yellow.gif","img/card_backs/set2/orange.gif","img/card_backs/set2/blue.gif","img/card_backs/set2/pink.gif","img/card_backs/set2/gray.gif","""event"",""trial"",""time""
""fullscreenenter"",""1"",""3887""
","
","
","""event"",""trial"",""time""
""fullscreenenter"",""1"",""3887""
","
","","267.30000001192093","","","","practice_card_selection","2021-06-17 20:33:06.107","img/practice_cards/backs/brown.gif","1","-100","","",""
"casino-keyboard-response","20","96928","0.0-14.0-0.0","924","false","img/card_backs/set1/red.gif","img/card_backs/set1/green.gif","img/card_backs/set1/purple.gif","img/card_backs/set1/yellow.gif","img/card_backs/set2/orange.gif","img/card_backs/set2/blue.gif","img/card_backs/set2/pink.gif","img/card_backs/set2/gray.gif","""event"",""trial"",""time""
""fullscreenenter"",""1"",""3887""
","
","
","""event"",""trial"",""time""
""fullscreenenter"",""1"",""3887""
","
","","4360.100000023842","Finally, try pressing '8' to select the deck all the way on the right.","56","","instructions","2021-06-17 20:33:10.468","","","","","",""
"card-selection-trial","21","99181","0.0-15.0-0.0","924","false","img/card_backs/set1/red.gif","img/card_backs/set1/green.gif","img/card_backs/set1/purple.gif","img/card_backs/set1/yellow.gif","img/card_backs/set2/orange.gif","img/card_backs/set2/blue.gif","img/card_backs/set2/pink.gif","img/card_backs/set2/gray.gif","""event"",""trial"",""time""
""fullscreenenter"",""1"",""3887""
","
","
","""event"",""trial"",""time""
""fullscreenenter"",""1"",""3887""
","
","","242.69999998807907","","","","practice_card_selection","2021-06-17 20:33:12.721","img/practice_cards/backs/dark_green.gif","3","200","","",""
"casino-keyboard-response","22","103416","0.0-16.0-0.0","924","false","img/card_backs/set1/red.gif","img/card_backs/set1/green.gif","img/card_backs/set1/purple.gif","img/card_backs/set1/yellow.gif","img/card_backs/set2/orange.gif","img/card_backs/set2/blue.gif","img/card_backs/set2/pink.gif","img/card_backs/set2/gray.gif","""event"",""trial"",""time""
""fullscreenenter"",""1"",""3887""
","
","
","""event"",""trial"",""time""
""fullscreenenter"",""1"",""3887""
","
","","4233.300000011921","Great! It seems like you are getting the hang of this.","80","","instructions","2021-06-17 20:33:16.956","","","","","",""
"casino-keyboard-response","23","110712","0.0-16.0-0.1","924","false","img/card_backs/set1/red.gif","img/card_backs/set1/green.gif","img/card_backs/set1/purple.gif","img/card_backs/set1/yellow.gif","img/card_backs/set2/orange.gif","img/card_backs/set2/blue.gif","img/card_backs/set2/pink.gif","img/card_backs/set2/gray.gif","""event"",""trial"",""time""
""fullscreenenter"",""1"",""3887""
","
","
","""event"",""trial"",""time""
""fullscreenenter"",""1"",""3887""
","
","","7294.699999988079","You may have noticed that some cards will cause you to <b> win </b> tokens while other cards will cause you to <b> lose </b>  tokens.","70","","instructions","2021-06-17 20:33:24.253","","","","","",""
"casino-keyboard-response","24","119483","0.0-16.0-0.2","924","false","img/card_backs/set1/red.gif","img/card_backs/set1/green.gif","img/card_backs/set1/purple.gif","img/card_backs/set1/yellow.gif","img/card_backs/set2/orange.gif","img/card_backs/set2/blue.gif","img/card_backs/set2/pink.gif","img/card_backs/set2/gray.gif","""event"",""trial"",""time""
""fullscreenenter"",""1"",""3887""
","
","
","""event"",""trial"",""time""
""fullscreenenter"",""1"",""3887""
","
","","8757.800000011921","Each deck has a mix of cards that will cause you to win and lose tokens. </br> However, the cards in each colored deck are different.","73","","instructions","2021-06-17 20:33:33.023","","","","","",""
"casino-keyboard-response","25","128675","0.0-16.0-0.3","924","false","img/card_backs/set1/red.gif","img/card_backs/set1/green.gif","img/card_backs/set1/purple.gif","img/card_backs/set1/yellow.gif","img/card_backs/set2/orange.gif","img/card_backs/set2/blue.gif","img/card_backs/set2/pink.gif","img/card_backs/set2/gray.gif","""event"",""trial"",""time""
""fullscreenenter"",""1"",""3887""
","
","
","""event"",""trial"",""time""
""fullscreenenter"",""1"",""3887""
","
","","9190.400000035763","Some colored decks are luckier than others. </br> If you choose the lucky decks, you will earn more tokens than if you choose the unlucky decks.","69","","instructions","2021-06-17 20:33:42.215","","","","","",""
"casino-keyboard-response","26","135832","0.0-16.0-0.4","924","false","img/card_backs/set1/red.gif","img/card_backs/set1/green.gif","img/card_backs/set1/purple.gif","img/card_backs/set1/yellow.gif","img/card_backs/set2/orange.gif","img/card_backs/set2/blue.gif","img/card_backs/set2/pink.gif","img/card_backs/set2/gray.gif","""event"",""trial"",""time""
""fullscreenenter"",""1"",""3887""
","
","
","""event"",""trial"",""time""
""fullscreenenter"",""1"",""3887""
","
","","7154.800000011921","You should try to figure out which decks are lucky. </br> Then, try to choose the lucky decks so you can win the most tokens.","87","","instructions","2021-06-17 20:33:49.372","","","","","",""
"casino-keyboard-response","27","147185","0.0-16.0-0.5","924","false","img/card_backs/set1/red.gif","img/card_backs/set1/green.gif","img/card_backs/set1/purple.gif","img/card_backs/set1/yellow.gif","img/card_backs/set2/orange.gif","img/card_backs/set2/blue.gif","img/card_backs/set2/pink.gif","img/card_backs/set2/gray.gif","""event"",""trial"",""time""
""fullscreenenter"",""1"",""3887""
","
","
","""event"",""trial"",""time""
""fullscreenenter"",""1"",""3887""
","
","","11350.300000011921","To make it trickier, the casino dealer will switch the locations of the decks on every turn. </br> The color of the deck determines how lucky it is. The location does not matter.","88","","instructions","2021-06-17 20:34:00.725","","","","","",""
"casino-keyboard-response","28","156685","0.0-16.0-0.6","924","false","img/card_backs/set1/red.gif","img/card_backs/set1/green.gif","img/card_backs/set1/purple.gif","img/card_backs/set1/yellow.gif","img/card_backs/set2/orange.gif","img/card_backs/set2/blue.gif","img/card_backs/set2/pink.gif","img/card_backs/set2/gray.gif","""event"",""trial"",""time""
""fullscreenenter"",""1"",""3887""
","
","
","""event"",""trial"",""time""
""fullscreenenter"",""1"",""3887""
","
","","9497.899999976158","The mix of cards in each colored deck will stay the same throughout the game. </br> That means that a deck that is lucky early on will stay lucky.","79","","instructions","2021-06-17 20:34:10.225","","","","","",""
"casino-keyboard-response","29","164529","0.0-16.0-0.7","924","false","img/card_backs/set1/red.gif","img/card_backs/set1/green.gif","img/card_backs/set1/purple.gif","img/card_backs/set1/yellow.gif","img/card_backs/set2/orange.gif","img/card_backs/set2/blue.gif","img/card_backs/set2/pink.gif","img/card_backs/set2/gray.gif","""event"",""trial"",""time""
""fullscreenenter"",""1"",""3887""
","
","
","""event"",""trial"",""time""
""fullscreenenter"",""1"",""3887""
","
","","7842.599999964237","Remember though, all the decks have a <b> mix </b> of both <b> good </b> and <b> bad </b> cards so it may take a couple of turns to figure out if a deck is lucky.","69","","instructions","2021-06-17 20:34:18.070","","","","","",""
"casino-keyboard-response","30","172736","0.0-16.0-0.8","924","false","img/card_backs/set1/red.gif","img/card_backs/set1/green.gif","img/card_backs/set1/purple.gif","img/card_backs/set1/yellow.gif","img/card_backs/set2/orange.gif","img/card_backs/set2/blue.gif","img/card_backs/set2/pink.gif","img/card_backs/set2/gray.gif","""event"",""trial"",""time""
""fullscreenenter"",""1"",""3887""
","
","
","""event"",""trial"",""time""
""fullscreenenter"",""1"",""3887""
","
","","8204.5","At the end of the game, you will be paid bonus money based on how many tokens you win. </br> If you win more tokens, you will earn more money!","72","","instructions","2021-06-17 20:34:26.276","","","","","",""
"casino-keyboard-response","31","182880","0.0-16.0-0.9","924","false","img/card_backs/set1/red.gif","img/card_backs/set1/green.gif","img/card_backs/set1/purple.gif","img/card_backs/set1/yellow.gif","img/card_backs/set2/orange.gif","img/card_backs/set2/blue.gif","img/card_backs/set2/pink.gif","img/card_backs/set2/gray.gif","""event"",""trial"",""time""
""fullscreenenter"",""1"",""3887""
","
","
","""event"",""trial"",""time""
""fullscreenenter"",""1"",""3887""
","
","","10141.599999964237","You will never <b> lose </b> money. </br> If you end up with fewer than 0 tokens, you will earn $0 of bonus money, but you will still be paid for playing the game.","83","","instructions","2021-06-17 20:34:36.420","","","","","",""
"casino-keyboard-response","32","187286","0.0-16.0-0.10","924","false","img/card_backs/set1/red.gif","img/card_backs/set1/green.gif","img/card_backs/set1/purple.gif","img/card_backs/set1/yellow.gif","img/card_backs/set2/orange.gif","img/card_backs/set2/blue.gif","img/card_backs/set2/pink.gif","img/card_backs/set2/gray.gif","""event"",""trial"",""time""
""fullscreenenter"",""1"",""3887""
","
","
","""event"",""trial"",""time""
""fullscreenenter"",""1"",""3887""
","
","","4404","You will have 10 seconds to make each choice.","82","","instructions","2021-06-17 20:34:40.826","","","","","",""
"casino-keyboard-response","33","195580","0.0-16.0-0.11","924","false","img/card_backs/set1/red.gif","img/card_backs/set1/green.gif","img/card_backs/set1/purple.gif","img/card_backs/set1/yellow.gif","img/card_backs/set2/orange.gif","img/card_backs/set2/blue.gif","img/card_backs/set2/pink.gif","img/card_backs/set2/gray.gif","""event"",""trial"",""time""
""fullscreenenter"",""1"",""3887""
","
","
","""event"",""trial"",""time""
""fullscreenenter"",""1"",""3887""
","
","","8290.5","Before you play the game for real, you will play with practice decks. </br> The tokens you earn during practice won't count toward your total.","86","","instructions","2021-06-17 20:34:49.120","","","","","",""
"casino-keyboard-response","34","207115","0.0-16.0-0.12","924","false","img/card_backs/set1/red.gif","img/card_backs/set1/green.gif","img/card_backs/set1/purple.gif","img/card_backs/set1/yellow.gif","img/card_backs/set2/orange.gif","img/card_backs/set2/blue.gif","img/card_backs/set2/pink.gif","img/card_backs/set2/gray.gif","""event"",""trial"",""time""
""fullscreenenter"",""1"",""3887""
","
","
","""event"",""trial"",""time""
""fullscreenenter"",""1"",""3887""
","
","","11532.900000035763","Ready? Remember, use the '2', '4', '6', and '8' keys to select the decks. </br> Put your fingers on those keys now and then press '2' to begin.","50","","instructions","2021-06-17 20:35:00.655","","","","","",""
"casino-fixation","35","207618","0.0-17.0-0.0","924","false","img/card_backs/set1/red.gif","img/card_backs/set1/green.gif","img/card_backs/set1/purple.gif","img/card_backs/set1/yellow.gif","img/card_backs/set2/orange.gif","img/card_backs/set2/blue.gif","img/card_backs/set2/pink.gif","img/card_backs/set2/gray.gif","""event"",""trial"",""time""
""fullscreenenter"",""1"",""3887""
","
","
","""event"",""trial"",""time""
""fullscreenenter"",""1"",""3887""
","
","","null","","null","","fixation","2021-06-17 20:35:01.158","","","","","",""
"card-selection-trial","36","210222","0.0-17.0-1.0","924","false","img/card_backs/set1/red.gif","img/card_backs/set1/green.gif","img/card_backs/set1/purple.gif","img/card_backs/set1/yellow.gif","img/card_backs/set2/orange.gif","img/card_backs/set2/blue.gif","img/card_backs/set2/pink.gif","img/card_backs/set2/gray.gif","""event"",""trial"",""time""
""fullscreenenter"",""1"",""3887""
","
","
","""event"",""trial"",""time""
""fullscreenenter"",""1"",""3887""
","
","","594.4000000357628","","","","practice","2021-06-17 20:35:03.762","img/practice_cards/backs/dark_green.gif","0","200","0","",""
"casino-fixation","37","210727","0.0-17.0-0.1","924","false","img/card_backs/set1/red.gif","img/card_backs/set1/green.gif","img/card_backs/set1/purple.gif","img/card_backs/set1/yellow.gif","img/card_backs/set2/orange.gif","img/card_backs/set2/blue.gif","img/card_backs/set2/pink.gif","img/card_backs/set2/gray.gif","""event"",""trial"",""time""
""fullscreenenter"",""1"",""3887""
","
","
","""event"",""trial"",""time""
""fullscreenenter"",""1"",""3887""
","
","","null","","null","","fixation","2021-06-17 20:35:04.267","","","","","",""
"card-selection-trial","38","213370","0.0-17.0-1.1","924","false","img/card_backs/set1/red.gif","img/card_backs/set1/green.gif","img/card_backs/set1/purple.gif","img/card_backs/set1/yellow.gif","img/card_backs/set2/orange.gif","img/card_backs/set2/blue.gif","img/card_backs/set2/pink.gif","img/card_backs/set2/gray.gif","""event"",""trial"",""time""
""fullscreenenter"",""1"",""3887""
","
","
","""event"",""trial"",""time""
""fullscreenenter"",""1"",""3887""
","
","","635","","","","practice","2021-06-17 20:35:06.910","img/practice_cards/backs/dark_blue.gif","3","-200","0","",""
"casino-fixation","39","213873","0.0-17.0-0.2","924","false","img/card_backs/set1/red.gif","img/card_backs/set1/green.gif","img/card_backs/set1/purple.gif","img/card_backs/set1/yellow.gif","img/card_backs/set2/orange.gif","img/card_backs/set2/blue.gif","img/card_backs/set2/pink.gif","img/card_backs/set2/gray.gif","""event"",""trial"",""time""
""fullscreenenter"",""1"",""3887""
","
","
","""event"",""trial"",""time""
""fullscreenenter"",""1"",""3887""
","
","","null","","null","","fixation","2021-06-17 20:35:07.413","","","","","",""
"card-selection-trial","40","216967","0.0-17.0-1.2","924","false","img/card_backs/set1/red.gif","img/card_backs/set1/green.gif","img/card_backs/set1/purple.gif","img/card_backs/set1/yellow.gif","img/card_backs/set2/orange.gif","img/card_backs/set2/blue.gif","img/card_backs/set2/pink.gif","img/card_backs/set2/gray.gif","""event"",""trial"",""time""
""fullscreenenter"",""1"",""3887""
","
","
","""event"",""trial"",""time""
""fullscreenenter"",""1"",""3887""
","
","","1086.6000000238419","","","","practice","2021-06-17 20:35:10.508","img/practice_cards/backs/black.gif","1","-100","0","",""
"casino-fixation","41","217472","0.0-17.0-0.3","924","false","img/card_backs/set1/red.gif","img/card_backs/set1/green.gif","img/card_backs/set1/purple.gif","img/card_backs/set1/yellow.gif","img/card_backs/set2/orange.gif","img/card_backs/set2/blue.gif","img/card_backs/set2/pink.gif","img/card_backs/set2/gray.gif","""event"",""trial"",""time""
""fullscreenenter"",""1"",""3887""
","
","
","""event"",""trial"",""time""
""fullscreenenter"",""1"",""3887""
","
","","null","","null","","fixation","2021-06-17 20:35:11.012","","","","","",""
"card-selection-trial","42","219882","0.0-17.0-1.3","924","false","img/card_backs/set1/red.gif","img/card_backs/set1/green.gif","img/card_backs/set1/purple.gif","img/card_backs/set1/yellow.gif","img/card_backs/set2/orange.gif","img/card_backs/set2/blue.gif","img/card_backs/set2/pink.gif","img/card_backs/set2/gray.gif","""event"",""trial"",""time""
""fullscreenenter"",""1"",""3887""
","
","
","""event"",""trial"",""time""
""fullscreenenter"",""1"",""3887""
","
","","403.30000001192093","","","","practice","2021-06-17 20:35:13.422","img/practice_cards/backs/dark_blue.gif","2","-200","0","",""
"casino-fixation","43","220387","0.0-17.0-0.4","924","false","img/card_backs/set1/red.gif","img/card_backs/set1/green.gif","img/card_backs/set1/purple.gif","img/card_backs/set1/yellow.gif","img/card_backs/set2/orange.gif","img/card_backs/set2/blue.gif","img/card_backs/set2/pink.gif","img/card_backs/set2/gray.gif","""event"",""trial"",""time""
""fullscreenenter"",""1"",""3887""
","
","
","""event"",""trial"",""time""
""fullscreenenter"",""1"",""3887""
","
","","null","","null","","fixation","2021-06-17 20:35:13.927","","","","","",""
"card-selection-trial","44","222707","0.0-17.0-1.4","924","false","img/card_backs/set1/red.gif","img/card_backs/set1/green.gif","img/card_backs/set1/purple.gif","img/card_backs/set1/yellow.gif","img/card_backs/set2/orange.gif","img/card_backs/set2/blue.gif","img/card_backs/set2/pink.gif","img/card_backs/set2/gray.gif","""event"",""trial"",""time""
""fullscreenenter"",""1"",""3887""
","
","
","""event"",""trial"",""time""
""fullscreenenter"",""1"",""3887""
","
","","311.19999998807907","","","","practice","2021-06-17 20:35:16.247","img/practice_cards/backs/black.gif","0","-100","0","",""
"casino-fixation","45","223211","0.0-17.0-0.5","924","false","img/card_backs/set1/red.gif","img/card_backs/set1/green.gif","img/card_backs/set1/purple.gif","img/card_backs/set1/yellow.gif","img/card_backs/set2/orange.gif","img/card_backs/set2/blue.gif","img/card_backs/set2/pink.gif","img/card_backs/set2/gray.gif","""event"",""trial"",""time""
""fullscreenenter"",""1"",""3887""
","
","
","""event"",""trial"",""time""
""fullscreenenter"",""1"",""3887""
","
","","null","","null","","fixation","2021-06-17 20:35:16.751","","","","","",""
"card-selection-trial","46","225549","0.0-17.0-1.5","924","false","img/card_backs/set1/red.gif","img/card_backs/set1/green.gif","img/card_backs/set1/purple.gif","img/card_backs/set1/yellow.gif","img/card_backs/set2/orange.gif","img/card_backs/set2/blue.gif","img/card_backs/set2/pink.gif","img/card_backs/set2/gray.gif","""event"",""trial"",""time""
""fullscreenenter"",""1"",""3887""
","
","
","""event"",""trial"",""time""
""fullscreenenter"",""1"",""3887""
","
","","327.5","","","","practice","2021-06-17 20:35:19.089","img/practice_cards/backs/dark_blue.gif","0","-200","0","",""
"casino-fixation","47","226052","0.0-17.0-0.6","924","false","img/card_backs/set1/red.gif","img/card_backs/set1/green.gif","img/card_backs/set1/purple.gif","img/card_backs/set1/yellow.gif","img/card_backs/set2/orange.gif","img/card_backs/set2/blue.gif","img/card_backs/set2/pink.gif","img/card_backs/set2/gray.gif","""event"",""trial"",""time""
""fullscreenenter"",""1"",""3887""
","
","
","""event"",""trial"",""time""
""fullscreenenter"",""1"",""3887""
","
","","null","","null","","fixation","2021-06-17 20:35:19.592","","","","","",""
"card-selection-trial","48","228419","0.0-17.0-1.6","924","false","img/card_backs/set1/red.gif","img/card_backs/set1/green.gif","img/card_backs/set1/purple.gif","img/card_backs/set1/yellow.gif","img/card_backs/set2/orange.gif","img/card_backs/set2/blue.gif","img/card_backs/set2/pink.gif","img/card_backs/set2/gray.gif","""event"",""trial"",""time""
""fullscreenenter"",""1"",""3887""
","
","
","""event"",""trial"",""time""
""fullscreenenter"",""1"",""3887""
","
","","357.9000000357628","","","","practice","2021-06-17 20:35:21.959","img/practice_cards/backs/dark_green.gif","0","-200","0","",""
"casino-fixation","49","228920","0.0-17.0-0.7","924","false","img/card_backs/set1/red.gif","img/card_backs/set1/green.gif","img/card_backs/set1/purple.gif","img/card_backs/set1/yellow.gif","img/card_backs/set2/orange.gif","img/card_backs/set2/blue.gif","img/card_backs/set2/pink.gif","img/card_backs/set2/gray.gif","""event"",""trial"",""time""
""fullscreenenter"",""1"",""3887""
","
","
","""event"",""trial"",""time""
""fullscreenenter"",""1"",""3887""
","
","","null","","null","","fixation","2021-06-17 20:35:22.460","","","","","",""
"card-selection-trial","50","232020","0.0-17.0-1.7","924","false","img/card_backs/set1/red.gif","img/card_backs/set1/green.gif","img/card_backs/set1/purple.gif","img/card_backs/set1/yellow.gif","img/card_backs/set2/orange.gif","img/card_backs/set2/blue.gif","img/card_backs/set2/pink.gif","img/card_backs/set2/gray.gif","""event"",""trial"",""time""
""fullscreenenter"",""1"",""3887""
","
","
","""event"",""trial"",""time""
""fullscreenenter"",""1"",""3887""
","
","","1089.800000011921","","","","practice","2021-06-17 20:35:25.560","img/practice_cards/backs/brown.gif","1","100","0","",""
"casino-fixation","51","232525","0.0-17.0-0.8","924","false","img/card_backs/set1/red.gif","img/card_backs/set1/green.gif","img/card_backs/set1/purple.gif","img/card_backs/set1/yellow.gif","img/card_backs/set2/orange.gif","img/card_backs/set2/blue.gif","img/card_backs/set2/pink.gif","img/card_backs/set2/gray.gif","""event"",""trial"",""time""
""fullscreenenter"",""1"",""3887""
","
","
","""event"",""trial"",""time""
""fullscreenenter"",""1"",""3887""
","
","","null","","null","","fixation","2021-06-17 20:35:26.066","","","","","",""
"card-selection-trial","52","235765","0.0-17.0-1.8","924","false","img/card_backs/set1/red.gif","img/card_backs/set1/green.gif","img/card_backs/set1/purple.gif","img/card_backs/set1/yellow.gif","img/card_backs/set2/orange.gif","img/card_backs/set2/blue.gif","img/card_backs/set2/pink.gif","img/card_backs/set2/gray.gif","""event"",""trial"",""time""
""fullscreenenter"",""1"",""3887""
","
","
","""event"",""trial"",""time""
""fullscreenenter"",""1"",""3887""
","
","","1231.699999988079","","","","practice","2021-06-17 20:35:29.305","img/practice_cards/backs/dark_green.gif","2","200","0","",""
"casino-fixation","53","236269","0.0-17.0-0.9","924","false","img/card_backs/set1/red.gif","img/card_backs/set1/green.gif","img/card_backs/set1/purple.gif","img/card_backs/set1/yellow.gif","img/card_backs/set2/orange.gif","img/card_backs/set2/blue.gif","img/card_backs/set2/pink.gif","img/card_backs/set2/gray.gif","""event"",""trial"",""time""
""fullscreenenter"",""1"",""3887""
","
","
","""event"",""trial"",""time""
""fullscreenenter"",""1"",""3887""
","
","","null","","null","","fixation","2021-06-17 20:35:29.810","","","","","",""
"card-selection-trial","54","238853","0.0-17.0-1.9","924","false","img/card_backs/set1/red.gif","img/card_backs/set1/green.gif","img/card_backs/set1/purple.gif","img/card_backs/set1/yellow.gif","img/card_backs/set2/orange.gif","img/card_backs/set2/blue.gif","img/card_backs/set2/pink.gif","img/card_backs/set2/gray.gif","""event"",""trial"",""time""
""fullscreenenter"",""1"",""3887""
","
","
","""event"",""trial"",""time""
""fullscreenenter"",""1"",""3887""
","
","","574.8999999761581","","","","practice","2021-06-17 20:35:32.393","img/practice_cards/backs/dark_green.gif","3","200","0","",""
"casino-keyboard-response","55","242147","0.0-18.0","924","false","img/card_backs/set1/red.gif","img/card_backs/set1/green.gif","img/card_backs/set1/purple.gif","img/card_backs/set1/yellow.gif","img/card_backs/set2/orange.gif","img/card_backs/set2/blue.gif","img/card_backs/set2/pink.gif","img/card_backs/set2/gray.gif","""event"",""trial"",""time""
""fullscreenenter"",""1"",""3887""
","
","
","""event"",""trial"",""time""
""fullscreenenter"",""1"",""3887""
","
","","3292.300000011921","You earned -300 tokens during the practice round!","82","","","2021-06-17 20:35:35.688","","","","","",""
"casino-keyboard-response","56","246167","0.0-19.0-0.0","924","false","img/card_backs/set1/red.gif","img/card_backs/set1/green.gif","img/card_backs/set1/purple.gif","img/card_backs/set1/yellow.gif","img/card_backs/set2/orange.gif","img/card_backs/set2/blue.gif","img/card_backs/set2/pink.gif","img/card_backs/set2/gray.gif","""event"",""trial"",""time""
""fullscreenenter"",""1"",""3887""
","
","
","""event"",""trial"",""time""
""fullscreenenter"",""1"",""3887""
","
","","4017.7000000476837","Nice job! You are almost ready to play the real game.","86","","instructions","2021-06-17 20:35:39.707","","","","","",""
"casino-keyboard-response","57","252584","0.0-19.0-0.1","924","false","img/card_backs/set1/red.gif","img/card_backs/set1/green.gif","img/card_backs/set1/purple.gif","img/card_backs/set1/yellow.gif","img/card_backs/set2/orange.gif","img/card_backs/set2/blue.gif","img/card_backs/set2/pink.gif","img/card_backs/set2/gray.gif","""event"",""trial"",""time""
""fullscreenenter"",""1"",""3887""
","
","
","""event"",""trial"",""time""
""fullscreenenter"",""1"",""3887""
","
","","6415.5","You will play two rounds of the real game. In each round, you will pick 100 cards in total.","73","","instructions","2021-06-17 20:35:46.124","","","","","",""
"casino-keyboard-response","58","257075","0.0-19.0-0.2","924","false","img/card_backs/set1/red.gif","img/card_backs/set1/green.gif","img/card_backs/set1/purple.gif","img/card_backs/set1/yellow.gif","img/card_backs/set2/orange.gif","img/card_backs/set2/blue.gif","img/card_backs/set2/pink.gif","img/card_backs/set2/gray.gif","""event"",""trial"",""time""
""fullscreenenter"",""1"",""3887""
","
","
","""event"",""trial"",""time""
""fullscreenenter"",""1"",""3887""
","
","","4488.600000023842","We are now going to ask you some questions about how the game works.","66","","instructions","2021-06-17 20:35:50.615","","","","","",""
"casino-keyboard-response","59","263279","0.0-19.0-0.3","924","false","img/card_backs/set1/red.gif","img/card_backs/set1/green.gif","img/card_backs/set1/purple.gif","img/card_backs/set1/yellow.gif","img/card_backs/set2/orange.gif","img/card_backs/set2/blue.gif","img/card_backs/set2/pink.gif","img/card_backs/set2/gray.gif","""event"",""trial"",""time""
""fullscreenenter"",""1"",""3887""
","
","
","""event"",""trial"",""time""
""fullscreenenter"",""1"",""3887""
","
","","6201.600000023842","Answer carefully. You will not be able to begin the game until you answer them correctly.","67","","instructions","2021-06-17 20:35:56.819","","","","","",""
"casino-comp_q","60","272430","0.0-20.0-0.0","924","false","img/card_backs/set1/red.gif","img/card_backs/set1/green.gif","img/card_backs/set1/purple.gif","img/card_backs/set1/yellow.gif","img/card_backs/set2/orange.gif","img/card_backs/set2/blue.gif","img/card_backs/set2/pink.gif","img/card_backs/set2/gray.gif","""event"",""trial"",""time""
""fullscreenenter"",""1"",""3887""
","
","
","""event"",""trial"",""time""
""fullscreenenter"",""1"",""3887""
","
","","9148.600000023842","True or False: All the decks have some cards that cause you to win tokens and some cards that cause you to lose tokens.","84","","","2021-06-17 20:36:05.970","","","","","",""
"casino-keyboard-response","61","277205","0.0-20.0-1.0","924","false","img/card_backs/set1/red.gif","img/card_backs/set1/green.gif","img/card_backs/set1/purple.gif","img/card_backs/set1/yellow.gif","img/card_backs/set2/orange.gif","img/card_backs/set2/blue.gif","img/card_backs/set2/pink.gif","img/card_backs/set2/gray.gif","""event"",""trial"",""time""
""fullscreenenter"",""1"",""3887""
","
","
","""event"",""trial"",""time""
""fullscreenenter"",""1"",""3887""
","
","","4772.899999976158","True is correct! All the decks have a mix of winning and losing cards.","77","","","2021-06-17 20:36:10.746","","","","","true",""
"casino-comp_q","62","281528","0.0-21.0-0.0","924","false","img/card_backs/set1/red.gif","img/card_backs/set1/green.gif","img/card_backs/set1/purple.gif","img/card_backs/set1/yellow.gif","img/card_backs/set2/orange.gif","img/card_backs/set2/blue.gif","img/card_backs/set2/pink.gif","img/card_backs/set2/gray.gif","""event"",""trial"",""time""
""fullscreenenter"",""1"",""3887""
","
","
","""event"",""trial"",""time""
""fullscreenenter"",""1"",""3887""
","
","","4320.399999976158","True or False: You will have as much time as you want to make your response.","70","","","2021-06-17 20:36:15.069","","","","","",""
"casino-keyboard-response","63","284826","0.0-21.0-1.0","924","false","img/card_backs/set1/red.gif","img/card_backs/set1/green.gif","img/card_backs/set1/purple.gif","img/card_backs/set1/yellow.gif","img/card_backs/set2/orange.gif","img/card_backs/set2/blue.gif","img/card_backs/set2/pink.gif","img/card_backs/set2/gray.gif","""event"",""trial"",""time""
""fullscreenenter"",""1"",""3887""
","
","
","""event"",""trial"",""time""
""fullscreenenter"",""1"",""3887""
","
","","3293.900000035763","False is correct! You will only have 10 seconds to make each choice.","75","","","2021-06-17 20:36:18.367","","","","","true",""
"casino-comp_q","64","288613","0.0-22.0-0.0","924","false","img/card_backs/set1/red.gif","img/card_backs/set1/green.gif","img/card_backs/set1/purple.gif","img/card_backs/set1/yellow.gif","img/card_backs/set2/orange.gif","img/card_backs/set2/blue.gif","img/card_backs/set2/pink.gif","img/card_backs/set2/gray.gif","""event"",""trial"",""time""
""fullscreenenter"",""1"",""3887""
","
","
","""event"",""trial"",""time""
""fullscreenenter"",""1"",""3887""
","
","","3783.5","True or False: The location of the deck determines how lucky it is.","70","","","2021-06-17 20:36:22.153","","","","","",""
"casino-keyboard-response","65","293510","0.0-22.0-1.0","924","false","img/card_backs/set1/red.gif","img/card_backs/set1/green.gif","img/card_backs/set1/purple.gif","img/card_backs/set1/yellow.gif","img/card_backs/set2/orange.gif","img/card_backs/set2/blue.gif","img/card_backs/set2/pink.gif","img/card_backs/set2/gray.gif","""event"",""trial"",""time""
""fullscreenenter"",""1"",""3887""
","
","
","""event"",""trial"",""time""
""fullscreenenter"",""1"",""3887""
","
","","4895.800000011921","False is correct! The <i>color</i>  of the deck determines how lucky or unlucky it is.","68","","","2021-06-17 20:36:27.051","","","","","true",""
"casino-keyboard-response","66","298114","0.0-23.0-0.0","924","false","img/card_backs/set1/red.gif","img/card_backs/set1/green.gif","img/card_backs/set1/purple.gif","img/card_backs/set1/yellow.gif","img/card_backs/set2/orange.gif","img/card_backs/set2/blue.gif","img/card_backs/set2/pink.gif","img/card_backs/set2/gray.gif","""event"",""trial"",""time""
""fullscreenenter"",""1"",""3887""
","
","
","""event"",""trial"",""time""
""fullscreenenter"",""1"",""3887""
","
","","4601","Great job! Now it's time to start the real game.","82","","instructions","2021-06-17 20:36:31.654","","","","","",""
"casino-keyboard-response","67","303296","0.0-23.0-0.1","924","false","img/card_backs/set1/red.gif","img/card_backs/set1/green.gif","img/card_backs/set1/purple.gif","img/card_backs/set1/yellow.gif","img/card_backs/set2/orange.gif","img/card_backs/set2/blue.gif","img/card_backs/set2/pink.gif","img/card_backs/set2/gray.gif","""event"",""trial"",""time""
""fullscreenenter"",""1"",""3887""
","
","
","""event"",""trial"",""time""
""fullscreenenter"",""1"",""3887""
","
","","5179.899999976158","Before we start, we're going to head into a new room of the casino.","86","","instructions","2021-06-17 20:36:36.836","","","","","",""
"casino-keyboard-response","68","309510","0.0-24.0-0.0","924","false","img/card_backs/set1/red.gif","img/card_backs/set1/green.gif","img/card_backs/set1/purple.gif","img/card_backs/set1/yellow.gif","img/card_backs/set2/orange.gif","img/card_backs/set2/blue.gif","img/card_backs/set2/pink.gif","img/card_backs/set2/gray.gif","""event"",""trial"",""time""
""fullscreenenter"",""1"",""3887""
","
","
","""event"",""trial"",""time""
""fullscreenenter"",""1"",""3887""
","
","","6212.199999988079","Here we are! The real game will use different cards, but the rules will be the same.","71","","instructions","2021-06-17 20:36:43.051","","","","","",""
"casino-keyboard-response","69","316242","0.0-24.0-0.1","924","false","img/card_backs/set1/red.gif","img/card_backs/set1/green.gif","img/card_backs/set1/purple.gif","img/card_backs/set1/yellow.gif","img/card_backs/set2/orange.gif","img/card_backs/set2/blue.gif","img/card_backs/set2/pink.gif","img/card_backs/set2/gray.gif","""event"",""trial"",""time""
""fullscreenenter"",""1"",""3887""
","
","
","""event"",""trial"",""time""
""fullscreenenter"",""1"",""3887""
","
","","6729.300000011921","Ready? Put your fingers over the '2', '4', 6', and '8' keys so you are ready to play the game. </br> Then press 2 to start.","50","","instructions","2021-06-17 20:36:49.782","","","","","",""
"casino-fixation","70","316746","0.0-25.0-0.0","924","false","img/card_backs/set1/red.gif","img/card_backs/set1/green.gif","img/card_backs/set1/purple.gif","img/card_backs/set1/yellow.gif","img/card_backs/set2/orange.gif","img/card_backs/set2/blue.gif","img/card_backs/set2/pink.gif","img/card_backs/set2/gray.gif","""event"",""trial"",""time""
""fullscreenenter"",""1"",""3887""
","
","
","""event"",""trial"",""time""
""fullscreenenter"",""1"",""3887""
","
","","null","","null","","fixation","2021-06-17 20:36:50.286","","","","","",""
"card-selection-trial","71","319672","0.0-25.0-1.0","924","false","img/card_backs/set1/red.gif","img/card_backs/set1/green.gif","img/card_backs/set1/purple.gif","img/card_backs/set1/yellow.gif","img/card_backs/set2/orange.gif","img/card_backs/set2/blue.gif","img/card_backs/set2/pink.gif","img/card_backs/set2/gray.gif","""event"",""trial"",""time""
""fullscreenenter"",""1"",""3887""
","
","
","""event"",""trial"",""time""
""fullscreenenter"",""1"",""3887""
","
","","906.3999999761581","","","","real_trial","2021-06-17 20:36:53.212","img/card_backs/set1/green.gif","0","200","1","",""
"casino-fixation","72","320177","0.0-25.0-0.1","924","false","img/card_backs/set1/red.gif","img/card_backs/set1/green.gif","img/card_backs/set1/purple.gif","img/card_backs/set1/yellow.gif","img/card_backs/set2/orange.gif","img/card_backs/set2/blue.gif","img/card_backs/set2/pink.gif","img/card_backs/set2/gray.gif","""event"",""trial"",""time""
""fullscreenenter"",""1"",""3887""
","
","
","""event"",""trial"",""time""
""fullscreenenter"",""1"",""3887""
","
","","null","","null","","fixation","2021-06-17 20:36:53.717","","","","","",""
"card-selection-trial","73","323428","0.0-25.0-1.1","924","false","img/card_backs/set1/red.gif","img/card_backs/set1/green.gif","img/card_backs/set1/purple.gif","img/card_backs/set1/yellow.gif","img/card_backs/set2/orange.gif","img/card_backs/set2/blue.gif","img/card_backs/set2/pink.gif","img/card_backs/set2/gray.gif","""event"",""trial"",""time""
""fullscreenenter"",""1"",""3887""
","
","
","""event"",""trial"",""time""
""fullscreenenter"",""1"",""3887""
","
","","1241.199999988079","","","","real_trial","2021-06-17 20:36:56.968","img/card_backs/set1/green.gif","1","-250","1","",""
"casino-fixation","74","323933","0.0-25.0-0.2","924","false","img/card_backs/set1/red.gif","img/card_backs/set1/green.gif","img/card_backs/set1/purple.gif","img/card_backs/set1/yellow.gif","img/card_backs/set2/orange.gif","img/card_backs/set2/blue.gif","img/card_backs/set2/pink.gif","img/card_backs/set2/gray.gif","""event"",""trial"",""time""
""fullscreenenter"",""1"",""3887""
","
","
","""event"",""trial"",""time""
""fullscreenenter"",""1"",""3887""
","
","","null","","null","","fixation","2021-06-17 20:36:57.473","","","","","",""
"card-selection-trial","75","328833","0.0-25.0-1.2","924","false","img/card_backs/set1/red.gif","img/card_backs/set1/green.gif","img/card_backs/set1/purple.gif","img/card_backs/set1/yellow.gif","img/card_backs/set2/orange.gif","img/card_backs/set2/blue.gif","img/card_backs/set2/pink.gif","img/card_backs/set2/gray.gif","""event"",""trial"",""time""
""fullscreenenter"",""1"",""3887""
","
","
","""event"",""trial"",""time""
""fullscreenenter"",""1"",""3887""
","
","","2892.699999988079","","","","real_trial","2021-06-17 20:37:02.373","img/card_backs/set1/green.gif","0","180","1","",""
"casino-fixation","76","329338","0.0-25.0-0.3","924","false","img/card_backs/set1/red.gif","img/card_backs/set1/green.gif","img/card_backs/set1/purple.gif","img/card_backs/set1/yellow.gif","img/card_backs/set2/orange.gif","img/card_backs/set2/blue.gif","img/card_backs/set2/pink.gif","img/card_backs/set2/gray.gif","""event"",""trial"",""time""
""fullscreenenter"",""1"",""3887""
","
","
","""event"",""trial"",""time""
""fullscreenenter"",""1"",""3887""
","
","","null","","null","","fixation","2021-06-17 20:37:02.878","","","","","",""
"card-selection-trial","77","332914","0.0-25.0-1.3","924","false","img/card_backs/set1/red.gif","img/card_backs/set1/green.gif","img/card_backs/set1/purple.gif","img/card_backs/set1/yellow.gif","img/card_backs/set2/orange.gif","img/card_backs/set2/blue.gif","img/card_backs/set2/pink.gif","img/card_backs/set2/gray.gif","""event"",""trial"",""time""
""fullscreenenter"",""1"",""3887""
","
","
","""event"",""trial"",""time""
""fullscreenenter"",""1"",""3887""
","
","","1568.199999988079","","","","real_trial","2021-06-17 20:37:06.454","img/card_backs/set1/green.gif","3","180","1","",""
"casino-fixation","78","333419","0.0-25.0-0.4","924","false","img/card_backs/set1/red.gif","img/card_backs/set1/green.gif","img/card_backs/set1/purple.gif","img/card_backs/set1/yellow.gif","img/card_backs/set2/orange.gif","img/card_backs/set2/blue.gif","img/card_backs/set2/pink.gif","img/card_backs/set2/gray.gif","""event"",""trial"",""time""
""fullscreenenter"",""1"",""3887""
","
","
","""event"",""trial"",""time""
""fullscreenenter"",""1"",""3887""
","
","","null","","null","","fixation","2021-06-17 20:37:06.959","","","","","",""
"card-selection-trial","79","336641","0.0-25.0-1.4","924","false","img/card_backs/set1/red.gif","img/card_backs/set1/green.gif","img/card_backs/set1/purple.gif","img/card_backs/set1/yellow.gif","img/card_backs/set2/orange.gif","img/card_backs/set2/blue.gif","img/card_backs/set2/pink.gif","img/card_backs/set2/gray.gif","""event"",""trial"",""time""
""fullscreenenter"",""1"",""3887""
","
","
","""event"",""trial"",""time""
""fullscreenenter"",""1"",""3887""
","
","","1215.5","","","","real_trial","2021-06-17 20:37:10.181","img/card_backs/set1/green.gif","2","-240","1","",""
"casino-fixation","80","337146","0.0-25.0-0.5","924","false","img/card_backs/set1/red.gif","img/card_backs/set1/green.gif","img/card_backs/set1/purple.gif","img/card_backs/set1/yellow.gif","img/card_backs/set2/orange.gif","img/card_backs/set2/blue.gif","img/card_backs/set2/pink.gif","img/card_backs/set2/gray.gif","""event"",""trial"",""time""
""fullscreenenter"",""1"",""3887""
","
","
","""event"",""trial"",""time""
""fullscreenenter"",""1"",""3887""
","
","","null","","null","","fixation","2021-06-17 20:37:10.686","","","","","",""
"card-selection-trial","81","339927","0.0-25.0-1.5","924","false","img/card_backs/set1/red.gif","img/card_backs/set1/green.gif","img/card_backs/set1/purple.gif","img/card_backs/set1/yellow.gif","img/card_backs/set2/orange.gif","img/card_backs/set2/blue.gif","img/card_backs/set2/pink.gif","img/card_backs/set2/gray.gif","""event"",""trial"",""time""
""fullscreenenter"",""1"",""3887""
","
","
","""event"",""trial"",""time""
""fullscreenenter"",""1"",""3887""
","
","","772.2999999523163","","","","real_trial","2021-06-17 20:37:13.467","img/card_backs/set1/green.gif","0","190","1","",""
"casino-fixation","82","340431","0.0-25.0-0.6","924","false","img/card_backs/set1/red.gif","img/card_backs/set1/green.gif","img/card_backs/set1/purple.gif","img/card_backs/set1/yellow.gif","img/card_backs/set2/orange.gif","img/card_backs/set2/blue.gif","img/card_backs/set2/pink.gif","img/card_backs/set2/gray.gif","""event"",""trial"",""time""
""fullscreenenter"",""1"",""3887""
","
","
","""event"",""trial"",""time""
""fullscreenenter"",""1"",""3887""
","
","","null","","null","","fixation","2021-06-17 20:37:13.971","","","","","",""
"card-selection-trial","83","343320","0.0-25.0-1.6","924","false","img/card_backs/set1/red.gif","img/card_backs/set1/green.gif","img/card_backs/set1/purple.gif","img/card_backs/set1/yellow.gif","img/card_backs/set2/orange.gif","img/card_backs/set2/blue.gif","img/card_backs/set2/pink.gif","img/card_backs/set2/gray.gif","""event"",""trial"",""time""
""fullscreenenter"",""1"",""3887""
","
","
","""event"",""trial"",""time""
""fullscreenenter"",""1"",""3887""
","
","","880","","","","real_trial","2021-06-17 20:37:16.860","img/card_backs/set1/green.gif","1","180","1","",""
"casino-fixation","84","343825","0.0-25.0-0.7","924","false","img/card_backs/set1/red.gif","img/card_backs/set1/green.gif","img/card_backs/set1/purple.gif","img/card_backs/set1/yellow.gif","img/card_backs/set2/orange.gif","img/card_backs/set2/blue.gif","img/card_backs/set2/pink.gif","img/card_backs/set2/gray.gif","""event"",""trial"",""time""
""fullscreenenter"",""1"",""3887""
","
","
","""event"",""trial"",""time""
""fullscreenenter"",""1"",""3887""
","
","","null","","null","","fixation","2021-06-17 20:37:17.365","","","","","",""
"card-selection-trial","85","346521","0.0-25.0-1.7","924","false","img/card_backs/set1/red.gif","img/card_backs/set1/green.gif","img/card_backs/set1/purple.gif","img/card_backs/set1/yellow.gif","img/card_backs/set2/orange.gif","img/card_backs/set2/blue.gif","img/card_backs/set2/pink.gif","img/card_backs/set2/gray.gif","""event"",""trial"",""time""
""fullscreenenter"",""1"",""3887""
","
","
","""event"",""trial"",""time""
""fullscreenenter"",""1"",""3887""
","
","","685.6000000238419","","","","real_trial","2021-06-17 20:37:20.061","img/card_backs/set1/green.gif","0","180","1","",""
"casino-fixation","86","347026","0.0-25.0-0.8","924","false","img/card_backs/set1/red.gif","img/card_backs/set1/green.gif","img/card_backs/set1/purple.gif","img/card_backs/set1/yellow.gif","img/card_backs/set2/orange.gif","img/card_backs/set2/blue.gif","img/card_backs/set2/pink.gif","img/card_backs/set2/gray.gif","""event"",""trial"",""time""
""fullscreenenter"",""1"",""3887""
","
","
","""event"",""trial"",""time""
""fullscreenenter"",""1"",""3887""
","
","","null","","null","","fixation","2021-06-17 20:37:20.566","","","","","",""
"card-selection-trial","87","349842","0.0-25.0-1.8","924","false","img/card_backs/set1/red.gif","img/card_backs/set1/green.gif","img/card_backs/set1/purple.gif","img/card_backs/set1/yellow.gif","img/card_backs/set2/orange.gif","img/card_backs/set2/blue.gif","img/card_backs/set2/pink.gif","img/card_backs/set2/gray.gif","""event"",""trial"",""time""
""fullscreenenter"",""1"",""3887""
","
","
","""event"",""trial"",""time""
""fullscreenenter"",""1"",""3887""
","
","","806.7999999523163","","","","real_trial","2021-06-17 20:37:23.382","img/card_backs/set1/green.gif","3","-230","1","",""
"casino-fixation","88","350347","0.0-25.0-0.9","924","false","img/card_backs/set1/red.gif","img/card_backs/set1/green.gif","img/card_backs/set1/purple.gif","img/card_backs/set1/yellow.gif","img/card_backs/set2/orange.gif","img/card_backs/set2/blue.gif","img/card_backs/set2/pink.gif","img/card_backs/set2/gray.gif","""event"",""trial"",""time""
""fullscreenenter"",""1"",""3887""
","
","
","""event"",""trial"",""time""
""fullscreenenter"",""1"",""3887""
","
","","null","","null","","fixation","2021-06-17 20:37:23.887","","","","","",""
"card-selection-trial","89","353099","0.0-25.0-1.9","924","false","img/card_backs/set1/red.gif","img/card_backs/set1/green.gif","img/card_backs/set1/purple.gif","img/card_backs/set1/yellow.gif","img/card_backs/set2/orange.gif","img/card_backs/set2/blue.gif","img/card_backs/set2/pink.gif","img/card_backs/set2/gray.gif","""event"",""trial"",""time""
""fullscreenenter"",""1"",""3887""
","
","
","""event"",""trial"",""time""
""fullscreenenter"",""1"",""3887""
","
","","741.4000000357628","","","","real_trial","2021-06-17 20:37:26.639","img/card_backs/set1/yellow.gif","0","120","1","",""
"casino-fixation","90","353603","0.0-25.0-0.10","924","false","img/card_backs/set1/red.gif","img/card_backs/set1/green.gif","img/card_backs/set1/purple.gif","img/card_backs/set1/yellow.gif","img/card_backs/set2/orange.gif","img/card_backs/set2/blue.gif","img/card_backs/set2/pink.gif","img/card_backs/set2/gray.gif","""event"",""trial"",""time""
""fullscreenenter"",""1"",""3887""
","
","
","""event"",""trial"",""time""
""fullscreenenter"",""1"",""3887""
","
","","null","","null","","fixation","2021-06-17 20:37:27.143","","","","","",""
"card-selection-trial","91","356773","0.0-25.0-1.10","924","false","img/card_backs/set1/red.gif","img/card_backs/set1/green.gif","img/card_backs/set1/purple.gif","img/card_backs/set1/yellow.gif","img/card_backs/set2/orange.gif","img/card_backs/set2/blue.gif","img/card_backs/set2/pink.gif","img/card_backs/set2/gray.gif","""event"",""trial"",""time""
""fullscreenenter"",""1"",""3887""
","
","
","""event"",""trial"",""time""
""fullscreenenter"",""1"",""3887""
","
","","1160","","","","real_trial","2021-06-17 20:37:30.313","img/card_backs/set1/green.gif","3","-240","1","",""
"casino-fixation","92","357278","0.0-25.0-0.11","924","false","img/card_backs/set1/red.gif","img/card_backs/set1/green.gif","img/card_backs/set1/purple.gif","img/card_backs/set1/yellow.gif","img/card_backs/set2/orange.gif","img/card_backs/set2/blue.gif","img/card_backs/set2/pink.gif","img/card_backs/set2/gray.gif","""event"",""trial"",""time""
""fullscreenenter"",""1"",""3887""
","
","
","""event"",""trial"",""time""
""fullscreenenter"",""1"",""3887""
","
","","null","","null","","fixation","2021-06-17 20:37:30.818","","","","","",""
"card-selection-trial","93","360243","0.0-25.0-1.11","924","false","img/card_backs/set1/red.gif","img/card_backs/set1/green.gif","img/card_backs/set1/purple.gif","img/card_backs/set1/yellow.gif","img/card_backs/set2/orange.gif","img/card_backs/set2/blue.gif","img/card_backs/set2/pink.gif","img/card_backs/set2/gray.gif","""event"",""trial"",""time""
""fullscreenenter"",""1"",""3887""
","
","
","""event"",""trial"",""time""
""fullscreenenter"",""1"",""3887""
","
","","955.8000000119209","","","","real_trial","2021-06-17 20:37:33.783","img/card_backs/set1/green.gif","1","190","1","",""
"casino-fixation","94","360749","0.0-25.0-0.12","924","false","img/card_backs/set1/red.gif","img/card_backs/set1/green.gif","img/card_backs/set1/purple.gif","img/card_backs/set1/yellow.gif","img/card_backs/set2/orange.gif","img/card_backs/set2/blue.gif","img/card_backs/set2/pink.gif","img/card_backs/set2/gray.gif","""event"",""trial"",""time""
""fullscreenenter"",""1"",""3887""
","
","
","""event"",""trial"",""time""
""fullscreenenter"",""1"",""3887""
","
","","null","","null","","fixation","2021-06-17 20:37:34.290","","","","","",""
"card-selection-trial","95","363716","0.0-25.0-1.12","924","false","img/card_backs/set1/red.gif","img/card_backs/set1/green.gif","img/card_backs/set1/purple.gif","img/card_backs/set1/yellow.gif","img/card_backs/set2/orange.gif","img/card_backs/set2/blue.gif","img/card_backs/set2/pink.gif","img/card_backs/set2/gray.gif","""event"",""trial"",""time""
""fullscreenenter"",""1"",""3887""
","
","
","""event"",""trial"",""time""
""fullscreenenter"",""1"",""3887""
","
","","957.8999999761581","","","","real_trial","2021-06-17 20:37:37.256","img/card_backs/set1/green.gif","3","180","1","",""
"casino-fixation","96","364221","0.0-25.0-0.13","924","false","img/card_backs/set1/red.gif","img/card_backs/set1/green.gif","img/card_backs/set1/purple.gif","img/card_backs/set1/yellow.gif","img/card_backs/set2/orange.gif","img/card_backs/set2/blue.gif","img/card_backs/set2/pink.gif","img/card_backs/set2/gray.gif","""event"",""trial"",""time""
""fullscreenenter"",""1"",""3887""
","
","
","""event"",""trial"",""time""
""fullscreenenter"",""1"",""3887""
","
","","null","","null","","fixation","2021-06-17 20:37:37.761","","","","","",""
"card-selection-trial","97","367025","0.0-25.0-1.13","924","false","img/card_backs/set1/red.gif","img/card_backs/set1/green.gif","img/card_backs/set1/purple.gif","img/card_backs/set1/yellow.gif","img/card_backs/set2/orange.gif","img/card_backs/set2/blue.gif","img/card_backs/set2/pink.gif","img/card_backs/set2/gray.gif","""event"",""trial"",""time""
""fullscreenenter"",""1"",""3887""
","
","
","""event"",""trial"",""time""
""fullscreenenter"",""1"",""3887""
","
","","795.3000000119209","","","","real_trial","2021-06-17 20:37:40.565","img/card_backs/set1/green.gif","1","180","1","",""
"casino-fixation","98","367530","0.0-25.0-0.14","924","false","img/card_backs/set1/red.gif","img/card_backs/set1/green.gif","img/card_backs/set1/purple.gif","img/card_backs/set1/yellow.gif","img/card_backs/set2/orange.gif","img/card_backs/set2/blue.gif","img/card_backs/set2/pink.gif","img/card_backs/set2/gray.gif","""event"",""trial"",""time""
""fullscreenenter"",""1"",""3887""
","
","
","""event"",""trial"",""time""
""fullscreenenter"",""1"",""3887""
","
","","null","","null","","fixation","2021-06-17 20:37:41.070","","","","","",""
"card-selection-trial","99","370182","0.0-25.0-1.14","924","false","img/card_backs/set1/red.gif","img/card_backs/set1/green.gif","img/card_backs/set1/purple.gif","img/card_backs/set1/yellow.gif","img/card_backs/set2/orange.gif","img/card_backs/set2/blue.gif","img/card_backs/set2/pink.gif","img/card_backs/set2/gray.gif","""event"",""trial"",""time""
""fullscreenenter"",""1"",""3887""
","
","
","""event"",""trial"",""time""
""fullscreenenter"",""1"",""3887""
","
","","642.2000000476837","","","","real_trial","2021-06-17 20:37:43.722","img/card_backs/set1/green.gif","1","-250","1","",""
"casino-fixation","100","370688","0.0-25.0-0.15","924","false","img/card_backs/set1/red.gif","img/card_backs/set1/green.gif","img/card_backs/set1/purple.gif","img/card_backs/set1/yellow.gif","img/card_backs/set2/orange.gif","img/card_backs/set2/blue.gif","img/card_backs/set2/pink.gif","img/card_backs/set2/gray.gif","""event"",""trial"",""time""
""fullscreenenter"",""1"",""3887""
","
","
","""event"",""trial"",""time""
""fullscreenenter"",""1"",""3887""
","
","","null","","null","","fixation","2021-06-17 20:37:44.228","","","","","",""
"card-selection-trial","101","374038","0.0-25.0-1.15","924","false","img/card_backs/set1/red.gif","img/card_backs/set1/green.gif","img/card_backs/set1/purple.gif","img/card_backs/set1/yellow.gif","img/card_backs/set2/orange.gif","img/card_backs/set2/blue.gif","img/card_backs/set2/pink.gif","img/card_backs/set2/gray.gif","""event"",""trial"",""time""
""fullscreenenter"",""1"",""3887""
","
","
","""event"",""trial"",""time""
""fullscreenenter"",""1"",""3887""
","
","","1339.0999999642372","","","","real_trial","2021-06-17 20:37:47.578","img/card_backs/set1/green.gif","2","200","1","",""
"casino-fixation","102","374543","0.0-25.0-0.16","924","false","img/card_backs/set1/red.gif","img/card_backs/set1/green.gif","img/card_backs/set1/purple.gif","img/card_backs/set1/yellow.gif","img/card_backs/set2/orange.gif","img/card_backs/set2/blue.gif","img/card_backs/set2/pink.gif","img/card_backs/set2/gray.gif","""event"",""trial"",""time""
""fullscreenenter"",""1"",""3887""
","
","
","""event"",""trial"",""time""
""fullscreenenter"",""1"",""3887""
","
","","null","","null","","fixation","2021-06-17 20:37:48.083","","","","","",""
"card-selection-trial","103","377022","0.0-25.0-1.16","924","false","img/card_backs/set1/red.gif","img/card_backs/set1/green.gif","img/card_backs/set1/purple.gif","img/card_backs/set1/yellow.gif","img/card_backs/set2/orange.gif","img/card_backs/set2/blue.gif","img/card_backs/set2/pink.gif","img/card_backs/set2/gray.gif","""event"",""trial"",""time""
""fullscreenenter"",""1"",""3887""
","
","
","""event"",""trial"",""time""
""fullscreenenter"",""1"",""3887""
","
","","472.4000000357628","","","","real_trial","2021-06-17 20:37:50.562","img/card_backs/set1/yellow.gif","0","110","1","",""
"casino-fixation","104","377526","0.0-25.0-0.17","924","false","img/card_backs/set1/red.gif","img/card_backs/set1/green.gif","img/card_backs/set1/purple.gif","img/card_backs/set1/yellow.gif","img/card_backs/set2/orange.gif","img/card_backs/set2/blue.gif","img/card_backs/set2/pink.gif","img/card_backs/set2/gray.gif","""event"",""trial"",""time""
""fullscreenenter"",""1"",""3887""
","
","
","""event"",""trial"",""time""
""fullscreenenter"",""1"",""3887""
","
","","null","","null","","fixation","2021-06-17 20:37:51.066","","","","","",""
"card-selection-trial","105","381097","0.0-25.0-1.17","924","false","img/card_backs/set1/red.gif","img/card_backs/set1/green.gif","img/card_backs/set1/purple.gif","img/card_backs/set1/yellow.gif","img/card_backs/set2/orange.gif","img/card_backs/set2/blue.gif","img/card_backs/set2/pink.gif","img/card_backs/set2/gray.gif","""event"",""trial"",""time""
""fullscreenenter"",""1"",""3887""
","
","
","""event"",""trial"",""time""
""fullscreenenter"",""1"",""3887""
","
","","1559.699999988079","","","","real_trial","2021-06-17 20:37:54.637","img/card_backs/set1/yellow.gif","1","110","1","",""
"casino-fixation","106","381602","0.0-25.0-0.18","924","false","img/card_backs/set1/red.gif","img/card_backs/set1/green.gif","img/card_backs/set1/purple.gif","img/card_backs/set1/yellow.gif","img/card_backs/set2/orange.gif","img/card_backs/set2/blue.gif","img/card_backs/set2/pink.gif","img/card_backs/set2/gray.gif","""event"",""trial"",""time""
""fullscreenenter"",""1"",""3887""
","
","
","""event"",""trial"",""time""
""fullscreenenter"",""1"",""3887""
","
","","null","","null","","fixation","2021-06-17 20:37:55.142","","","","","",""
"card-selection-trial","107","384255","0.0-25.0-1.18","924","false","img/card_backs/set1/red.gif","img/card_backs/set1/green.gif","img/card_backs/set1/purple.gif","img/card_backs/set1/yellow.gif","img/card_backs/set2/orange.gif","img/card_backs/set2/blue.gif","img/card_backs/set2/pink.gif","img/card_backs/set2/gray.gif","""event"",""trial"",""time""
""fullscreenenter"",""1"",""3887""
","
","
","""event"",""trial"",""time""
""fullscreenenter"",""1"",""3887""
","
","","645","","","","real_trial","2021-06-17 20:37:57.795","img/card_backs/set1/yellow.gif","0","100","1","",""
"casino-fixation","108","384760","0.0-25.0-0.19","924","false","img/card_backs/set1/red.gif","img/card_backs/set1/green.gif","img/card_backs/set1/purple.gif","img/card_backs/set1/yellow.gif","img/card_backs/set2/orange.gif","img/card_backs/set2/blue.gif","img/card_backs/set2/pink.gif","img/card_backs/set2/gray.gif","""event"",""trial"",""time""
""fullscreenenter"",""1"",""3887""
","
","
","""event"",""trial"",""time""
""fullscreenenter"",""1"",""3887""
","
","","null","","null","","fixation","2021-06-17 20:37:58.300","","","","","",""
"card-selection-trial","109","388051","0.0-25.0-1.19","924","false","img/card_backs/set1/red.gif","img/card_backs/set1/green.gif","img/card_backs/set1/purple.gif","img/card_backs/set1/yellow.gif","img/card_backs/set2/orange.gif","img/card_backs/set2/blue.gif","img/card_backs/set2/pink.gif","img/card_backs/set2/gray.gif","""event"",""trial"",""time""
""fullscreenenter"",""1"",""3887""
","
","
","""event"",""trial"",""time""
""fullscreenenter"",""1"",""3887""
","
","","1279.9000000357628","","","","real_trial","2021-06-17 20:38:01.591","img/card_backs/set1/yellow.gif","2","120","1","",""
"casino-fixation","110","388556","0.0-25.0-0.20","924","false","img/card_backs/set1/red.gif","img/card_backs/set1/green.gif","img/card_backs/set1/purple.gif","img/card_backs/set1/yellow.gif","img/card_backs/set2/orange.gif","img/card_backs/set2/blue.gif","img/card_backs/set2/pink.gif","img/card_backs/set2/gray.gif","""event"",""trial"",""time""
""fullscreenenter"",""1"",""3887""
","
","
","""event"",""trial"",""time""
""fullscreenenter"",""1"",""3887""
","
","","null","","null","","fixation","2021-06-17 20:38:02.096","","","","","",""
"card-selection-trial","111","392445","0.0-25.0-1.20","924","false","img/card_backs/set1/red.gif","img/card_backs/set1/green.gif","img/card_backs/set1/purple.gif","img/card_backs/set1/yellow.gif","img/card_backs/set2/orange.gif","img/card_backs/set2/blue.gif","img/card_backs/set2/pink.gif","img/card_backs/set2/gray.gif","""event"",""trial"",""time""
""fullscreenenter"",""1"",""3887""
","
","
","""event"",""trial"",""time""
""fullscreenenter"",""1"",""3887""
","
","","1878.0999999642372","","","","real_trial","2021-06-17 20:38:05.985","img/card_backs/set1/yellow.gif","2","-50","1","",""
"casino-fixation","112","392951","0.0-25.0-0.21","924","false","img/card_backs/set1/red.gif","img/card_backs/set1/green.gif","img/card_backs/set1/purple.gif","img/card_backs/set1/yellow.gif","img/card_backs/set2/orange.gif","img/card_backs/set2/blue.gif","img/card_backs/set2/pink.gif","img/card_backs/set2/gray.gif","""event"",""trial"",""time""
""fullscreenenter"",""1"",""3887""
","
","
","""event"",""trial"",""time""
""fullscreenenter"",""1"",""3887""
","
","","null","","null","","fixation","2021-06-17 20:38:06.491","","","","","",""
"card-selection-trial","113","395801","0.0-25.0-1.21","924","false","img/card_backs/set1/red.gif","img/card_backs/set1/green.gif","img/card_backs/set1/purple.gif","img/card_backs/set1/yellow.gif","img/card_backs/set2/orange.gif","img/card_backs/set2/blue.gif","img/card_backs/set2/pink.gif","img/card_backs/set2/gray.gif","""event"",""trial"",""time""
""fullscreenenter"",""1"",""3887""
","
","
","""event"",""trial"",""time""
""fullscreenenter"",""1"",""3887""
","
","","842.9000000357628","","","","real_trial","2021-06-17 20:38:09.341","img/card_backs/set1/yellow.gif","1","-70","1","",""
"casino-fixation","114","396306","0.0-25.0-0.22","924","false","img/card_backs/set1/red.gif","img/card_backs/set1/green.gif","img/card_backs/set1/purple.gif","img/card_backs/set1/yellow.gif","img/card_backs/set2/orange.gif","img/card_backs/set2/blue.gif","img/card_backs/set2/pink.gif","img/card_backs/set2/gray.gif","""event"",""trial"",""time""
""fullscreenenter"",""1"",""3887""
","
","
","""event"",""trial"",""time""
""fullscreenenter"",""1"",""3887""
","
","","null","","null","","fixation","2021-06-17 20:38:09.846","","","","","",""
"card-selection-trial","115","398901","0.0-25.0-1.22","924","false","img/card_backs/set1/red.gif","img/card_backs/set1/green.gif","img/card_backs/set1/purple.gif","img/card_backs/set1/yellow.gif","img/card_backs/set2/orange.gif","img/card_backs/set2/blue.gif","img/card_backs/set2/pink.gif","img/card_backs/set2/gray.gif","""event"",""trial"",""time""
""fullscreenenter"",""1"",""3887""
","
","
","""event"",""trial"",""time""
""fullscreenenter"",""1"",""3887""
","
","","585.8999999761581","","","","real_trial","2021-06-17 20:38:12.441","img/card_backs/set1/yellow.gif","1","-50","1","",""
"casino-fixation","116","399406","0.0-25.0-0.23","924","false","img/card_backs/set1/red.gif","img/card_backs/set1/green.gif","img/card_backs/set1/purple.gif","img/card_backs/set1/yellow.gif","img/card_backs/set2/orange.gif","img/card_backs/set2/blue.gif","img/card_backs/set2/pink.gif","img/card_backs/set2/gray.gif","""event"",""trial"",""time""
""fullscreenenter"",""1"",""3887""
","
","
","""event"",""trial"",""time""
""fullscreenenter"",""1"",""3887""
","
","","null","","null","","fixation","2021-06-17 20:38:12.946","","","","","",""
"card-selection-trial","117","402187","0.0-25.0-1.23","924","false","img/card_backs/set1/red.gif","img/card_backs/set1/green.gif","img/card_backs/set1/purple.gif","img/card_backs/set1/yellow.gif","img/card_backs/set2/orange.gif","img/card_backs/set2/blue.gif","img/card_backs/set2/pink.gif","img/card_backs/set2/gray.gif","""event"",""trial"",""time""
""fullscreenenter"",""1"",""3887""
","
","
","""event"",""trial"",""time""
""fullscreenenter"",""1"",""3887""
","
","","771.1000000238419","","","","real_trial","2021-06-17 20:38:15.727","img/card_backs/set1/yellow.gif","2","100","1","",""
"casino-fixation","118","402692","0.0-25.0-0.24","924","false","img/card_backs/set1/red.gif","img/card_backs/set1/green.gif","img/card_backs/set1/purple.gif","img/card_backs/set1/yellow.gif","img/card_backs/set2/orange.gif","img/card_backs/set2/blue.gif","img/card_backs/set2/pink.gif","img/card_backs/set2/gray.gif","""event"",""trial"",""time""
""fullscreenenter"",""1"",""3887""
","
","
","""event"",""trial"",""time""
""fullscreenenter"",""1"",""3887""
","
","","null","","null","","fixation","2021-06-17 20:38:16.232","","","","","",""
"card-selection-trial","119","405733","0.0-25.0-1.24","924","false","img/card_backs/set1/red.gif","img/card_backs/set1/green.gif","img/card_backs/set1/purple.gif","img/card_backs/set1/yellow.gif","img/card_backs/set2/orange.gif","img/card_backs/set2/blue.gif","img/card_backs/set2/pink.gif","img/card_backs/set2/gray.gif","""event"",""trial"",""time""
""fullscreenenter"",""1"",""3887""
","
","
","""event"",""trial"",""time""
""fullscreenenter"",""1"",""3887""
","
","","1029.9000000357628","","","","real_trial","2021-06-17 20:38:19.273","img/card_backs/set1/yellow.gif","0","120","1","",""
"casino-fixation","120","406239","0.0-25.0-0.25","924","false","img/card_backs/set1/red.gif","img/card_backs/set1/green.gif","img/card_backs/set1/purple.gif","img/card_backs/set1/yellow.gif","img/card_backs/set2/orange.gif","img/card_backs/set2/blue.gif","img/card_backs/set2/pink.gif","img/card_backs/set2/gray.gif","""event"",""trial"",""time""
""fullscreenenter"",""1"",""3887""
","
","
","""event"",""trial"",""time""
""fullscreenenter"",""1"",""3887""
","
","","null","","null","","fixation","2021-06-17 20:38:19.779","","","","","",""
"card-selection-trial","121","408962","0.0-25.0-1.25","924","false","img/card_backs/set1/red.gif","img/card_backs/set1/green.gif","img/card_backs/set1/purple.gif","img/card_backs/set1/yellow.gif","img/card_backs/set2/orange.gif","img/card_backs/set2/blue.gif","img/card_backs/set2/pink.gif","img/card_backs/set2/gray.gif","""event"",""trial"",""time""
""fullscreenenter"",""1"",""3887""
","
","
","""event"",""trial"",""time""
""fullscreenenter"",""1"",""3887""
","
","","712.0999999642372","","","","real_trial","2021-06-17 20:38:22.502","img/card_backs/set1/green.gif","2","-240","1","",""
"casino-fixation","122","409466","0.0-25.0-0.26","924","false","img/card_backs/set1/red.gif","img/card_backs/set1/green.gif","img/card_backs/set1/purple.gif","img/card_backs/set1/yellow.gif","img/card_backs/set2/orange.gif","img/card_backs/set2/blue.gif","img/card_backs/set2/pink.gif","img/card_backs/set2/gray.gif","""event"",""trial"",""time""
""fullscreenenter"",""1"",""3887""
","
","
","""event"",""trial"",""time""
""fullscreenenter"",""1"",""3887""
","
","","null","","null","","fixation","2021-06-17 20:38:23.006","","","","","",""
"card-selection-trial","123","413333","0.0-25.0-1.26","924","false","img/card_backs/set1/red.gif","img/card_backs/set1/green.gif","img/card_backs/set1/purple.gif","img/card_backs/set1/yellow.gif","img/card_backs/set2/orange.gif","img/card_backs/set2/blue.gif","img/card_backs/set2/pink.gif","img/card_backs/set2/gray.gif","""event"",""trial"",""time""
""fullscreenenter"",""1"",""3887""
","
","
","""event"",""trial"",""time""
""fullscreenenter"",""1"",""3887""
","
","","1858.5","","","","real_trial","2021-06-17 20:38:26.873","img/card_backs/set1/yellow.gif","2","-60","1","",""
"casino-fixation","124","413838","0.0-25.0-0.27","924","false","img/card_backs/set1/red.gif","img/card_backs/set1/green.gif","img/card_backs/set1/purple.gif","img/card_backs/set1/yellow.gif","img/card_backs/set2/orange.gif","img/card_backs/set2/blue.gif","img/card_backs/set2/pink.gif","img/card_backs/set2/gray.gif","""event"",""trial"",""time""
""fullscreenenter"",""1"",""3887""
","
","
","""event"",""trial"",""time""
""fullscreenenter"",""1"",""3887""
","
","","null","","null","","fixation","2021-06-17 20:38:27.378","","","","","",""
"card-selection-trial","125","417059","0.0-25.0-1.27","924","false","img/card_backs/set1/red.gif","img/card_backs/set1/green.gif","img/card_backs/set1/purple.gif","img/card_backs/set1/yellow.gif","img/card_backs/set2/orange.gif","img/card_backs/set2/blue.gif","img/card_backs/set2/pink.gif","img/card_backs/set2/gray.gif","""event"",""trial"",""time""
""fullscreenenter"",""1"",""3887""
","
","
","""event"",""trial"",""time""
""fullscreenenter"",""1"",""3887""
","
","","1209.699999988079","","","","real_trial","2021-06-17 20:38:30.599","img/card_backs/set1/red.gif","2","190","1","",""
"casino-fixation","126","417565","0.0-25.0-0.28","924","false","img/card_backs/set1/red.gif","img/card_backs/set1/green.gif","img/card_backs/set1/purple.gif","img/card_backs/set1/yellow.gif","img/card_backs/set2/orange.gif","img/card_backs/set2/blue.gif","img/card_backs/set2/pink.gif","img/card_backs/set2/gray.gif","""event"",""trial"",""time""
""fullscreenenter"",""1"",""3887""
","
","
","""event"",""trial"",""time""
""fullscreenenter"",""1"",""3887""
","
","","null","","null","","fixation","2021-06-17 20:38:31.105","","","","","",""
"card-selection-trial","127","420282","0.0-25.0-1.28","924","false","img/card_backs/set1/red.gif","img/card_backs/set1/green.gif","img/card_backs/set1/purple.gif","img/card_backs/set1/yellow.gif","img/card_backs/set2/orange.gif","img/card_backs/set2/blue.gif","img/card_backs/set2/pink.gif","img/card_backs/set2/gray.gif","""event"",""trial"",""time""
""fullscreenenter"",""1"",""3887""
","
","
","""event"",""trial"",""time""
""fullscreenenter"",""1"",""3887""
","
","","707.5","","","","real_trial","2021-06-17 20:38:33.822","img/card_backs/set1/red.gif","1","-230","1","",""
"casino-fixation","128","420786","0.0-25.0-0.29","924","false","img/card_backs/set1/red.gif","img/card_backs/set1/green.gif","img/card_backs/set1/purple.gif","img/card_backs/set1/yellow.gif","img/card_backs/set2/orange.gif","img/card_backs/set2/blue.gif","img/card_backs/set2/pink.gif","img/card_backs/set2/gray.gif","""event"",""trial"",""time""
""fullscreenenter"",""1"",""3887""
","
","
","""event"",""trial"",""time""
""fullscreenenter"",""1"",""3887""
","
","","null","","null","","fixation","2021-06-17 20:38:34.327","","","","","",""
"card-selection-trial","129","423840","0.0-25.0-1.29","924","false","img/card_backs/set1/red.gif","img/card_backs/set1/green.gif","img/card_backs/set1/purple.gif","img/card_backs/set1/yellow.gif","img/card_backs/set2/orange.gif","img/card_backs/set2/blue.gif","img/card_backs/set2/pink.gif","img/card_backs/set2/gray.gif","""event"",""trial"",""time""
""fullscreenenter"",""1"",""3887""
","
","
","""event"",""trial"",""time""
""fullscreenenter"",""1"",""3887""
","
","","1043.800000011921","","","","real_trial","2021-06-17 20:38:37.380","img/card_backs/set1/green.gif","2","190","1","",""
"casino-fixation","130","424345","0.0-25.0-0.30","924","false","img/card_backs/set1/red.gif","img/card_backs/set1/green.gif","img/card_backs/set1/purple.gif","img/card_backs/set1/yellow.gif","img/card_backs/set2/orange.gif","img/card_backs/set2/blue.gif","img/card_backs/set2/pink.gif","img/card_backs/set2/gray.gif","""event"",""trial"",""time""
""fullscreenenter"",""1"",""3887""
","
","
","""event"",""trial"",""time""
""fullscreenenter"",""1"",""3887""
","
","","null","","null","","fixation","2021-06-17 20:38:37.885","","","","","",""
"card-selection-trial","131","427236","0.0-25.0-1.30","924","false","img/card_backs/set1/red.gif","img/card_backs/set1/green.gif","img/card_backs/set1/purple.gif","img/card_backs/set1/yellow.gif","img/card_backs/set2/orange.gif","img/card_backs/set2/blue.gif","img/card_backs/set2/pink.gif","img/card_backs/set2/gray.gif","""event"",""trial"",""time""
""fullscreenenter"",""1"",""3887""
","
","
","""event"",""trial"",""time""
""fullscreenenter"",""1"",""3887""
","
","","884.3000000119209","","","","real_trial","2021-06-17 20:38:40.776","img/card_backs/set1/green.gif","1","-230","1","",""
"casino-fixation","132","427741","0.0-25.0-0.31","924","false","img/card_backs/set1/red.gif","img/card_backs/set1/green.gif","img/card_backs/set1/purple.gif","img/card_backs/set1/yellow.gif","img/card_backs/set2/orange.gif","img/card_backs/set2/blue.gif","img/card_backs/set2/pink.gif","img/card_backs/set2/gray.gif","""event"",""trial"",""time""
""fullscreenenter"",""1"",""3887""
","
","
","""event"",""trial"",""time""
""fullscreenenter"",""1"",""3887""
","
","","null","","null","","fixation","2021-06-17 20:38:41.281","","","","","",""
"card-selection-trial","133","430650","0.0-25.0-1.31","924","false","img/card_backs/set1/red.gif","img/card_backs/set1/green.gif","img/card_backs/set1/purple.gif","img/card_backs/set1/yellow.gif","img/card_backs/set2/orange.gif","img/card_backs/set2/blue.gif","img/card_backs/set2/pink.gif","img/card_backs/set2/gray.gif","""event"",""trial"",""time""
""fullscreenenter"",""1"",""3887""
","
","
","""event"",""trial"",""time""
""fullscreenenter"",""1"",""3887""
","
","","899.8999999761581","","","","real_trial","2021-06-17 20:38:44.190","img/card_backs/set1/green.gif","2","190","1","",""
"casino-fixation","134","431155","0.0-25.0-0.32","924","false","img/card_backs/set1/red.gif","img/card_backs/set1/green.gif","img/card_backs/set1/purple.gif","img/card_backs/set1/yellow.gif","img/card_backs/set2/orange.gif","img/card_backs/set2/blue.gif","img/card_backs/set2/pink.gif","img/card_backs/set2/gray.gif","""event"",""trial"",""time""
""fullscreenenter"",""1"",""3887""
","
","
","""event"",""trial"",""time""
""fullscreenenter"",""1"",""3887""
","
","","null","","null","","fixation","2021-06-17 20:38:44.695","","","","","",""
"card-selection-trial","135","433732","0.0-25.0-1.32","924","false","img/card_backs/set1/red.gif","img/card_backs/set1/green.gif","img/card_backs/set1/purple.gif","img/card_backs/set1/yellow.gif","img/card_backs/set2/orange.gif","img/card_backs/set2/blue.gif","img/card_backs/set2/pink.gif","img/card_backs/set2/gray.gif","""event"",""trial"",""time""
""fullscreenenter"",""1"",""3887""
","
","
","""event"",""trial"",""time""
""fullscreenenter"",""1"",""3887""
","
","","567.1000000238419","","","","real_trial","2021-06-17 20:38:47.272","img/card_backs/set1/green.gif","1","-230","1","",""
"casino-fixation","136","434237","0.0-25.0-0.33","924","false","img/card_backs/set1/red.gif","img/card_backs/set1/green.gif","img/card_backs/set1/purple.gif","img/card_backs/set1/yellow.gif","img/card_backs/set2/orange.gif","img/card_backs/set2/blue.gif","img/card_backs/set2/pink.gif","img/card_backs/set2/gray.gif","""event"",""trial"",""time""
""fullscreenenter"",""1"",""3887""
","
","
","""event"",""trial"",""time""
""fullscreenenter"",""1"",""3887""
","
","","null","","null","","fixation","2021-06-17 20:38:47.777","","","","","",""
"card-selection-trial","137","436902","0.0-25.0-1.33","924","false","img/card_backs/set1/red.gif","img/card_backs/set1/green.gif","img/card_backs/set1/purple.gif","img/card_backs/set1/yellow.gif","img/card_backs/set2/orange.gif","img/card_backs/set2/blue.gif","img/card_backs/set2/pink.gif","img/card_backs/set2/gray.gif","""event"",""trial"",""time""
""fullscreenenter"",""1"",""3887""
","
","
","""event"",""trial"",""time""
""fullscreenenter"",""1"",""3887""
","
","","656.5","","","","real_trial","2021-06-17 20:38:50.442","img/card_backs/set1/green.gif","1","-240","1","",""
"casino-fixation","138","437405","0.0-25.0-0.34","924","false","img/card_backs/set1/red.gif","img/card_backs/set1/green.gif","img/card_backs/set1/purple.gif","img/card_backs/set1/yellow.gif","img/card_backs/set2/orange.gif","img/card_backs/set2/blue.gif","img/card_backs/set2/pink.gif","img/card_backs/set2/gray.gif","""event"",""trial"",""time""
""fullscreenenter"",""1"",""3887""
","
","
","""event"",""trial"",""time""
""fullscreenenter"",""1"",""3887""
","
","","null","","null","","fixation","2021-06-17 20:38:50.945","","","","","",""
"card-selection-trial","139","439932","0.0-25.0-1.34","924","false","img/card_backs/set1/red.gif","img/card_backs/set1/green.gif","img/card_backs/set1/purple.gif","img/card_backs/set1/yellow.gif","img/card_backs/set2/orange.gif","img/card_backs/set2/blue.gif","img/card_backs/set2/pink.gif","img/card_backs/set2/gray.gif","""event"",""trial"",""time""
""fullscreenenter"",""1"",""3887""
","
","
","""event"",""trial"",""time""
""fullscreenenter"",""1"",""3887""
","
","","518.7999999523163","","","","real_trial","2021-06-17 20:38:53.472","img/card_backs/set1/green.gif","1","200","1","",""
"casino-fixation","140","440437","0.0-25.0-0.35","924","false","img/card_backs/set1/red.gif","img/card_backs/set1/green.gif","img/card_backs/set1/purple.gif","img/card_backs/set1/yellow.gif","img/card_backs/set2/orange.gif","img/card_backs/set2/blue.gif","img/card_backs/set2/pink.gif","img/card_backs/set2/gray.gif","""event"",""trial"",""time""
""fullscreenenter"",""1"",""3887""
","
","
","""event"",""trial"",""time""
""fullscreenenter"",""1"",""3887""
","
","","null","","null","","fixation","2021-06-17 20:38:53.977","","","","","",""
"card-selection-trial","141","443305","0.0-25.0-1.35","924","false","img/card_backs/set1/red.gif","img/card_backs/set1/green.gif","img/card_backs/set1/purple.gif","img/card_backs/set1/yellow.gif","img/card_backs/set2/orange.gif","img/card_backs/set2/blue.gif","img/card_backs/set2/pink.gif","img/card_backs/set2/gray.gif","""event"",""trial"",""time""
""fullscreenenter"",""1"",""3887""
","
","
","""event"",""trial"",""time""
""fullscreenenter"",""1"",""3887""
","
","","857.8000000119209","","","","real_trial","2021-06-17 20:38:56.845","img/card_backs/set1/green.gif","0","-250","1","",""
"casino-fixation","142","443810","0.0-25.0-0.36","924","false","img/card_backs/set1/red.gif","img/card_backs/set1/green.gif","img/card_backs/set1/purple.gif","img/card_backs/set1/yellow.gif","img/card_backs/set2/orange.gif","img/card_backs/set2/blue.gif","img/card_backs/set2/pink.gif","img/card_backs/set2/gray.gif","""event"",""trial"",""time""
""fullscreenenter"",""1"",""3887""
","
","
","""event"",""trial"",""time""
""fullscreenenter"",""1"",""3887""
","
","","null","","null","","fixation","2021-06-17 20:38:57.350","","","","","",""
"card-selection-trial","143","446943","0.0-25.0-1.36","924","false","img/card_backs/set1/red.gif","img/card_backs/set1/green.gif","img/card_backs/set1/purple.gif","img/card_backs/set1/yellow.gif","img/card_backs/set2/orange.gif","img/card_backs/set2/blue.gif","img/card_backs/set2/pink.gif","img/card_backs/set2/gray.gif","""event"",""trial"",""time""
""fullscreenenter"",""1"",""3887""
","
","
","""event"",""trial"",""time""
""fullscreenenter"",""1"",""3887""
","
","","1122.9000000357628","","","","real_trial","2021-06-17 20:39:00.484","img/card_backs/set1/yellow.gif","2","100","1","",""
"casino-fixation","144","447450","0.0-25.0-0.37","924","false","img/card_backs/set1/red.gif","img/card_backs/set1/green.gif","img/card_backs/set1/purple.gif","img/card_backs/set1/yellow.gif","img/card_backs/set2/orange.gif","img/card_backs/set2/blue.gif","img/card_backs/set2/pink.gif","img/card_backs/set2/gray.gif","""event"",""trial"",""time""
""fullscreenenter"",""1"",""3887""
","
","
","""event"",""trial"",""time""
""fullscreenenter"",""1"",""3887""
","
","","null","","null","","fixation","2021-06-17 20:39:00.990","","","","","",""
"card-selection-trial","145","449962","0.0-25.0-1.37","924","false","img/card_backs/set1/red.gif","img/card_backs/set1/green.gif","img/card_backs/set1/purple.gif","img/card_backs/set1/yellow.gif","img/card_backs/set2/orange.gif","img/card_backs/set2/blue.gif","img/card_backs/set2/pink.gif","img/card_backs/set2/gray.gif","""event"",""trial"",""time""
""fullscreenenter"",""1"",""3887""
","
","
","""event"",""trial"",""time""
""fullscreenenter"",""1"",""3887""
","
","","502.5","","","","real_trial","2021-06-17 20:39:03.502","img/card_backs/set1/yellow.gif","2","120","1","",""
"casino-fixation","146","450468","0.0-25.0-0.38","924","false","img/card_backs/set1/red.gif","img/card_backs/set1/green.gif","img/card_backs/set1/purple.gif","img/card_backs/set1/yellow.gif","img/card_backs/set2/orange.gif","img/card_backs/set2/blue.gif","img/card_backs/set2/pink.gif","img/card_backs/set2/gray.gif","""event"",""trial"",""time""
""fullscreenenter"",""1"",""3887""
","
","
","""event"",""trial"",""time""
""fullscreenenter"",""1"",""3887""
","
","","null","","null","","fixation","2021-06-17 20:39:04.008","","","","","",""
"card-selection-trial","147","453114","0.0-25.0-1.38","924","false","img/card_backs/set1/red.gif","img/card_backs/set1/green.gif","img/card_backs/set1/purple.gif","img/card_backs/set1/yellow.gif","img/card_backs/set2/orange.gif","img/card_backs/set2/blue.gif","img/card_backs/set2/pink.gif","img/card_backs/set2/gray.gif","""event"",""trial"",""time""
""fullscreenenter"",""1"",""3887""
","
","
","""event"",""trial"",""time""
""fullscreenenter"",""1"",""3887""
","
","","635.8000000119209","","","","real_trial","2021-06-17 20:39:06.654","img/card_backs/set1/purple.gif","2","-70","1","",""
"casino-fixation","148","453620","0.0-25.0-0.39","924","false","img/card_backs/set1/red.gif","img/card_backs/set1/green.gif","img/card_backs/set1/purple.gif","img/card_backs/set1/yellow.gif","img/card_backs/set2/orange.gif","img/card_backs/set2/blue.gif","img/card_backs/set2/pink.gif","img/card_backs/set2/gray.gif","""event"",""trial"",""time""
""fullscreenenter"",""1"",""3887""
","
","
","""event"",""trial"",""time""
""fullscreenenter"",""1"",""3887""
","
","","null","","null","","fixation","2021-06-17 20:39:07.161","","","","","",""
"card-selection-trial","149","456303","0.0-25.0-1.39","924","false","img/card_backs/set1/red.gif","img/card_backs/set1/green.gif","img/card_backs/set1/purple.gif","img/card_backs/set1/yellow.gif","img/card_backs/set2/orange.gif","img/card_backs/set2/blue.gif","img/card_backs/set2/pink.gif","img/card_backs/set2/gray.gif","""event"",""trial"",""time""
""fullscreenenter"",""1"",""3887""
","
","
","""event"",""trial"",""time""
""fullscreenenter"",""1"",""3887""
","
","","671.2000000476837","","","","real_trial","2021-06-17 20:39:09.843","img/card_backs/set1/yellow.gif","2","-50","1","",""
"casino-fixation","150","456807","0.0-25.0-0.40","924","false","img/card_backs/set1/red.gif","img/card_backs/set1/green.gif","img/card_backs/set1/purple.gif","img/card_backs/set1/yellow.gif","img/card_backs/set2/orange.gif","img/card_backs/set2/blue.gif","img/card_backs/set2/pink.gif","img/card_backs/set2/gray.gif","""event"",""trial"",""time""
""fullscreenenter"",""1"",""3887""
","
","
","""event"",""trial"",""time""
""fullscreenenter"",""1"",""3887""
","
","","null","","null","","fixation","2021-06-17 20:39:10.348","","","","","",""
"card-selection-trial","151","459620","0.0-25.0-1.40","924","false","img/card_backs/set1/red.gif","img/card_backs/set1/green.gif","img/card_backs/set1/purple.gif","img/card_backs/set1/yellow.gif","img/card_backs/set2/orange.gif","img/card_backs/set2/blue.gif","img/card_backs/set2/pink.gif","img/card_backs/set2/gray.gif","""event"",""trial"",""time""
""fullscreenenter"",""1"",""3887""
","
","
","""event"",""trial"",""time""
""fullscreenenter"",""1"",""3887""
","
","","803.5","","","","real_trial","2021-06-17 20:39:13.160","img/card_backs/set1/yellow.gif","3","120","1","",""
"casino-fixation","152","460122","0.0-25.0-0.41","924","false","img/card_backs/set1/red.gif","img/card_backs/set1/green.gif","img/card_backs/set1/purple.gif","img/card_backs/set1/yellow.gif","img/card_backs/set2/orange.gif","img/card_backs/set2/blue.gif","img/card_backs/set2/pink.gif","img/card_backs/set2/gray.gif","""event"",""trial"",""time""
""fullscreenenter"",""1"",""3887""
","
","
","""event"",""trial"",""time""
""fullscreenenter"",""1"",""3887""
","
","","null","","null","","fixation","2021-06-17 20:39:13.663","","","","","",""
"card-selection-trial","153","463159","0.0-25.0-1.41","924","false","img/card_backs/set1/red.gif","img/card_backs/set1/green.gif","img/card_backs/set1/purple.gif","img/card_backs/set1/yellow.gif","img/card_backs/set2/orange.gif","img/card_backs/set2/blue.gif","img/card_backs/set2/pink.gif","img/card_backs/set2/gray.gif","""event"",""trial"",""time""
""fullscreenenter"",""1"",""3887""
","
","
","""event"",""trial"",""time""
""fullscreenenter"",""1"",""3887""
","
","","1025.300000011921","","","","real_trial","2021-06-17 20:39:16.699","img/card_backs/set1/yellow.gif","0","120","1","",""
"casino-fixation","154","463663","0.0-25.0-0.42","924","false","img/card_backs/set1/red.gif","img/card_backs/set1/green.gif","img/card_backs/set1/purple.gif","img/card_backs/set1/yellow.gif","img/card_backs/set2/orange.gif","img/card_backs/set2/blue.gif","img/card_backs/set2/pink.gif","img/card_backs/set2/gray.gif","""event"",""trial"",""time""
""fullscreenenter"",""1"",""3887""
","
","
","""event"",""trial"",""time""
""fullscreenenter"",""1"",""3887""
","
","","null","","null","","fixation","2021-06-17 20:39:17.204","","","","","",""
"card-selection-trial","155","466525","0.0-25.0-1.42","924","false","img/card_backs/set1/red.gif","img/card_backs/set1/green.gif","img/card_backs/set1/purple.gif","img/card_backs/set1/yellow.gif","img/card_backs/set2/orange.gif","img/card_backs/set2/blue.gif","img/card_backs/set2/pink.gif","img/card_backs/set2/gray.gif","""event"",""trial"",""time""
""fullscreenenter"",""1"",""3887""
","
","
","""event"",""trial"",""time""
""fullscreenenter"",""1"",""3887""
","
","","851.8999999761581","","","","real_trial","2021-06-17 20:39:20.066","img/card_backs/set1/yellow.gif","3","120","1","",""
"casino-fixation","156","467030","0.0-25.0-0.43","924","false","img/card_backs/set1/red.gif","img/card_backs/set1/green.gif","img/card_backs/set1/purple.gif","img/card_backs/set1/yellow.gif","img/card_backs/set2/orange.gif","img/card_backs/set2/blue.gif","img/card_backs/set2/pink.gif","img/card_backs/set2/gray.gif","""event"",""trial"",""time""
""fullscreenenter"",""1"",""3887""
","
","
","""event"",""trial"",""time""
""fullscreenenter"",""1"",""3887""
","
","","null","","null","","fixation","2021-06-17 20:39:20.570","","","","","",""
"card-selection-trial","157","469834","0.0-25.0-1.43","924","false","img/card_backs/set1/red.gif","img/card_backs/set1/green.gif","img/card_backs/set1/purple.gif","img/card_backs/set1/yellow.gif","img/card_backs/set2/orange.gif","img/card_backs/set2/blue.gif","img/card_backs/set2/pink.gif","img/card_backs/set2/gray.gif","""event"",""trial"",""time""
""fullscreenenter"",""1"",""3887""
","
","
","""event"",""trial"",""time""
""fullscreenenter"",""1"",""3887""
","
","","796.1999999880791","","","","real_trial","2021-06-17 20:39:23.375","img/card_backs/set1/yellow.gif","0","120","1","",""
"casino-fixation","158","470339","0.0-25.0-0.44","924","false","img/card_backs/set1/red.gif","img/card_backs/set1/green.gif","img/card_backs/set1/purple.gif","img/card_backs/set1/yellow.gif","img/card_backs/set2/orange.gif","img/card_backs/set2/blue.gif","img/card_backs/set2/pink.gif","img/card_backs/set2/gray.gif","""event"",""trial"",""time""
""fullscreenenter"",""1"",""3887""
","
","
","""event"",""trial"",""time""
""fullscreenenter"",""1"",""3887""
","
","","null","","null","","fixation","2021-06-17 20:39:23.879","","","","","",""
"card-selection-trial","159","473335","0.0-25.0-1.44","924","false","img/card_backs/set1/red.gif","img/card_backs/set1/green.gif","img/card_backs/set1/purple.gif","img/card_backs/set1/yellow.gif","img/card_backs/set2/orange.gif","img/card_backs/set2/blue.gif","img/card_backs/set2/pink.gif","img/card_backs/set2/gray.gif","""event"",""trial"",""time""
""fullscreenenter"",""1"",""3887""
","
","
","""event"",""trial"",""time""
""fullscreenenter"",""1"",""3887""
","
","","987.1999999880791","","","","real_trial","2021-06-17 20:39:26.875","img/card_backs/set1/yellow.gif","2","120","1","",""
"casino-fixation","160","473840","0.0-25.0-0.45","924","false","img/card_backs/set1/red.gif","img/card_backs/set1/green.gif","img/card_backs/set1/purple.gif","img/card_backs/set1/yellow.gif","img/card_backs/set2/orange.gif","img/card_backs/set2/blue.gif","img/card_backs/set2/pink.gif","img/card_backs/set2/gray.gif","""event"",""trial"",""time""
""fullscreenenter"",""1"",""3887""
","
","
","""event"",""trial"",""time""
""fullscreenenter"",""1"",""3887""
","
","","null","","null","","fixation","2021-06-17 20:39:27.380","","","","","",""
"card-selection-trial","161","476685","0.0-25.0-1.45","924","false","img/card_backs/set1/red.gif","img/card_backs/set1/green.gif","img/card_backs/set1/purple.gif","img/card_backs/set1/yellow.gif","img/card_backs/set2/orange.gif","img/card_backs/set2/blue.gif","img/card_backs/set2/pink.gif","img/card_backs/set2/gray.gif","""event"",""trial"",""time""
""fullscreenenter"",""1"",""3887""
","
","
","""event"",""trial"",""time""
""fullscreenenter"",""1"",""3887""
","
","","834.1000000238419","","","","real_trial","2021-06-17 20:39:30.225","img/card_backs/set1/yellow.gif","3","120","1","",""
"casino-fixation","162","477189","0.0-25.0-0.46","924","false","img/card_backs/set1/red.gif","img/card_backs/set1/green.gif","img/card_backs/set1/purple.gif","img/card_backs/set1/yellow.gif","img/card_backs/set2/orange.gif","img/card_backs/set2/blue.gif","img/card_backs/set2/pink.gif","img/card_backs/set2/gray.gif","""event"",""trial"",""time""
""fullscreenenter"",""1"",""3887""
","
","
","""event"",""trial"",""time""
""fullscreenenter"",""1"",""3887""
","
","","null","","null","","fixation","2021-06-17 20:39:30.729","","","","","",""
"card-selection-trial","163","480230","0.0-25.0-1.46","924","false","img/card_backs/set1/red.gif","img/card_backs/set1/green.gif","img/card_backs/set1/purple.gif","img/card_backs/set1/yellow.gif","img/card_backs/set2/orange.gif","img/card_backs/set2/blue.gif","img/card_backs/set2/pink.gif","img/card_backs/set2/gray.gif","""event"",""trial"",""time""
""fullscreenenter"",""1"",""3887""
","
","
","""event"",""trial"",""time""
""fullscreenenter"",""1"",""3887""
","
","","1031.300000011921","","","","real_trial","2021-06-17 20:39:33.770","img/card_backs/set1/yellow.gif","3","100","1","",""
"casino-fixation","164","480736","0.0-25.0-0.47","924","false","img/card_backs/set1/red.gif","img/card_backs/set1/green.gif","img/card_backs/set1/purple.gif","img/card_backs/set1/yellow.gif","img/card_backs/set2/orange.gif","img/card_backs/set2/blue.gif","img/card_backs/set2/pink.gif","img/card_backs/set2/gray.gif","""event"",""trial"",""time""
""fullscreenenter"",""1"",""3887""
","
","
","""event"",""trial"",""time""
""fullscreenenter"",""1"",""3887""
","
","","null","","null","","fixation","2021-06-17 20:39:34.276","","","","","",""
"card-selection-trial","165","483622","0.0-25.0-1.47","924","false","img/card_backs/set1/red.gif","img/card_backs/set1/green.gif","img/card_backs/set1/purple.gif","img/card_backs/set1/yellow.gif","img/card_backs/set2/orange.gif","img/card_backs/set2/blue.gif","img/card_backs/set2/pink.gif","img/card_backs/set2/gray.gif","""event"",""trial"",""time""
""fullscreenenter"",""1"",""3887""
","
","
","""event"",""trial"",""time""
""fullscreenenter"",""1"",""3887""
","
","","876.3000000119209","","","","real_trial","2021-06-17 20:39:37.162","img/card_backs/set1/yellow.gif","1","-50","1","",""
"casino-fixation","166","484127","0.0-25.0-0.48","924","false","img/card_backs/set1/red.gif","img/card_backs/set1/green.gif","img/card_backs/set1/purple.gif","img/card_backs/set1/yellow.gif","img/card_backs/set2/orange.gif","img/card_backs/set2/blue.gif","img/card_backs/set2/pink.gif","img/card_backs/set2/gray.gif","""event"",""trial"",""time""
""fullscreenenter"",""1"",""3887""
","
","
","""event"",""trial"",""time""
""fullscreenenter"",""1"",""3887""
","
","","null","","null","","fixation","2021-06-17 20:39:37.667","","","","","",""
"card-selection-trial","167","486878","0.0-25.0-1.48","924","false","img/card_backs/set1/red.gif","img/card_backs/set1/green.gif","img/card_backs/set1/purple.gif","img/card_backs/set1/yellow.gif","img/card_backs/set2/orange.gif","img/card_backs/set2/blue.gif","img/card_backs/set2/pink.gif","img/card_backs/set2/gray.gif","""event"",""trial"",""time""
""fullscreenenter"",""1"",""3887""
","
","
","""event"",""trial"",""time""
""fullscreenenter"",""1"",""3887""
","
