"trial_type","trial_index","time_elapsed","internal_node_id","sub_id","risk_good_first","block1_A","block1_B","block1_C","block1_D","block2_A","block2_B","block2_C","block2_D","interactions","blur_events","focus_events","fullscreenenter_events","fullscreenexit_events","success","rt","stimulus","key_press","button_pressed","task_part","timestamp","card_choice","choice_position","points_earned","block","correct","response"
"pavlovia","0","6","0.0-0.0","A115","false","img/card_backs/set1/purple.gif","img/card_backs/set1/green.gif","img/card_backs/set1/red.gif","img/card_backs/set1/yellow.gif","img/card_backs/set2/gray.gif","img/card_backs/set2/pink.gif","img/card_backs/set2/orange.gif","img/card_backs/set2/blue.gif","""event"",""trial"",""time""
""fullscreenenter"",""1"",""12227""
","
","
","""event"",""trial"",""time""
""fullscreenenter"",""1"",""12227""
","
","","","","","","","","","","","","",""
"fullscreen","1","13158","0.0-1.0","A115","false","img/card_backs/set1/purple.gif","img/card_backs/set1/green.gif","img/card_backs/set1/red.gif","img/card_backs/set1/yellow.gif","img/card_backs/set2/gray.gif","img/card_backs/set2/pink.gif","img/card_backs/set2/orange.gif","img/card_backs/set2/blue.gif","""event"",""trial"",""time""
""fullscreenenter"",""1"",""12227""
","
","
","""event"",""trial"",""time""
""fullscreenenter"",""1"",""12227""
","
","true","","","","","","","","","","","",""
"audio-keyboard-response","2","15587","0.0-2.0","A115","false","img/card_backs/set1/purple.gif","img/card_backs/set1/green.gif","img/card_backs/set1/red.gif","img/card_backs/set1/yellow.gif","img/card_backs/set2/gray.gif","img/card_backs/set2/pink.gif","img/card_backs/set2/orange.gif","img/card_backs/set2/blue.gif","""event"",""trial"",""time""
""fullscreenenter"",""1"",""12227""
","
","
","""event"",""trial"",""time""
""fullscreenenter"",""1"",""12227""
","
","","0","audio/beep_loop.wav","32","","","","","","","","",""
"audio-button-response","3","18339","0.0-3.0","A115","false","img/card_backs/set1/purple.gif","img/card_backs/set1/green.gif","img/card_backs/set1/red.gif","img/card_backs/set1/yellow.gif","img/card_backs/set2/gray.gif","img/card_backs/set2/pink.gif","img/card_backs/set2/orange.gif","img/card_backs/set2/blue.gif","""event"",""trial"",""time""
""fullscreenenter"",""1"",""12227""
","
","
","""event"",""trial"",""time""
""fullscreenenter"",""1"",""12227""
","
","","NaN","audio/turtle.mp3","","3","","","","","","","",""
"audio-button-response","4","20689","0.0-4.0","A115","false","img/card_backs/set1/purple.gif","img/card_backs/set1/green.gif","img/card_backs/set1/red.gif","img/card_backs/set1/yellow.gif","img/card_backs/set2/gray.gif","img/card_backs/set2/pink.gif","img/card_backs/set2/orange.gif","img/card_backs/set2/blue.gif","""event"",""trial"",""time""
""fullscreenenter"",""1"",""12227""
","
","
","""event"",""trial"",""time""
""fullscreenenter"",""1"",""12227""
","
","","NaN","audio/shark.mp3","","2","","","","","","","",""
"fullscreen","5","24227","0.0-5.0","A115","false","img/card_backs/set1/purple.gif","img/card_backs/set1/green.gif","img/card_backs/set1/red.gif","img/card_backs/set1/yellow.gif","img/card_backs/set2/gray.gif","img/card_backs/set2/pink.gif","img/card_backs/set2/orange.gif","img/card_backs/set2/blue.gif","""event"",""trial"",""time""
""fullscreenenter"",""1"",""12227""
","
","
","""event"",""trial"",""time""
""fullscreenenter"",""1"",""12227""
","
","true","","","","","","","","","","","",""
"casino-keyboard-response","6","27205","0.0-6.0-0.0","A115","false","img/card_backs/set1/purple.gif","img/card_backs/set1/green.gif","img/card_backs/set1/red.gif","img/card_backs/set1/yellow.gif","img/card_backs/set2/gray.gif","img/card_backs/set2/pink.gif","img/card_backs/set2/orange.gif","img/card_backs/set2/blue.gif","""event"",""trial"",""time""
""fullscreenenter"",""1"",""12227""
","
","
","""event"",""trial"",""time""
""fullscreenenter"",""1"",""12227""
","
","","2971","Welcome to the casino!","71","","instructions","2021-07-16 19:20:41.701","","","","","",""
"casino-keyboard-response","7","36724","0.0-6.0-0.1","A115","false","img/card_backs/set1/purple.gif","img/card_backs/set1/green.gif","img/card_backs/set1/red.gif","img/card_backs/set1/yellow.gif","img/card_backs/set2/gray.gif","img/card_backs/set2/pink.gif","img/card_backs/set2/orange.gif","img/card_backs/set2/blue.gif","""event"",""trial"",""time""
""fullscreenenter"",""1"",""12227""
","
","
","""event"",""trial"",""time""
""fullscreenenter"",""1"",""12227""
","
","","9516.999999999993","Today you will be playing a game to earn tokens. </br> At the end of the experiment, you will be paid a bonus based on how many tokens you win. ","69","","instructions","2021-07-16 19:20:51.219","","","","","",""
"casino-keyboard-response","8","44421","0.0-6.0-0.2","A115","false","img/card_backs/set1/purple.gif","img/card_backs/set1/green.gif","img/card_backs/set1/red.gif","img/card_backs/set1/yellow.gif","img/card_backs/set2/gray.gif","img/card_backs/set2/pink.gif","img/card_backs/set2/orange.gif","img/card_backs/set2/blue.gif","""event"",""trial"",""time""
""fullscreenenter"",""1"",""12227""
","
","
","""event"",""trial"",""time""
""fullscreenenter"",""1"",""12227""
","
","","7696","On every turn, you will be shown four different decks of cards. </br> You need to select a card from one of the four decks.  ","75","","instructions","2021-07-16 19:20:58.916","","","","","",""
"casino-keyboard-response","9","52178","0.0-6.0-0.3","A115","false","img/card_backs/set1/purple.gif","img/card_backs/set1/green.gif","img/card_backs/set1/red.gif","img/card_backs/set1/yellow.gif","img/card_backs/set2/gray.gif","img/card_backs/set2/pink.gif","img/card_backs/set2/orange.gif","img/card_backs/set2/blue.gif","""event"",""trial"",""time""
""fullscreenenter"",""1"",""12227""
","
","
","""event"",""trial"",""time""
""fullscreenenter"",""1"",""12227""
","
","","7756","On the next screen, you will see what the decks will look like. ","66","","instructions","2021-07-16 19:21:06.673","","","","","",""
"card-selection-trial","10","56182","0.0-7.0-0.0","A115","false","img/card_backs/set1/purple.gif","img/card_backs/set1/green.gif","img/card_backs/set1/red.gif","img/card_backs/set1/yellow.gif","img/card_backs/set2/gray.gif","img/card_backs/set2/pink.gif","img/card_backs/set2/orange.gif","img/card_backs/set2/blue.gif","""event"",""trial"",""time""
""fullscreenenter"",""1"",""12227""
","
","
","""event"",""trial"",""time""
""fullscreenenter"",""1"",""12227""
","
","","null","","","","practice","2021-07-16 19:21:10.677","null","null","null","0","",""
"casino-keyboard-response","11","65105","0.0-8.0-0.0","A115","false","img/card_backs/set1/purple.gif","img/card_backs/set1/green.gif","img/card_backs/set1/red.gif","img/card_backs/set1/yellow.gif","img/card_backs/set2/gray.gif","img/card_backs/set2/pink.gif","img/card_backs/set2/orange.gif","img/card_backs/set2/blue.gif","""event"",""trial"",""time""
""fullscreenenter"",""1"",""12227""
","
","
","""event"",""trial"",""time""
""fullscreenenter"",""1"",""12227""
","
","","8922","You should pick a card from a deck using the '2', '4', '6', and '8' keys at the top of the keyboard.","85","","instructions","2021-07-16 19:21:19.600","","","","","",""
"casino-keyboard-response","12","70602","0.0-8.0-0.1","A115","false","img/card_backs/set1/purple.gif","img/card_backs/set1/green.gif","img/card_backs/set1/red.gif","img/card_backs/set1/yellow.gif","img/card_backs/set2/gray.gif","img/card_backs/set2/pink.gif","img/card_backs/set2/orange.gif","img/card_backs/set2/blue.gif","""event"",""trial"",""time""
""fullscreenenter"",""1"",""12227""
","
","
","""event"",""trial"",""time""
""fullscreenenter"",""1"",""12227""
","
","","5496","Once you select a card, it will turn over and you will see how many tokens you earned.","83","","instructions","2021-07-16 19:21:25.098","","","","","",""
"casino-keyboard-response","13","85306","0.0-8.0-0.2","A115","false","img/card_backs/set1/purple.gif","img/card_backs/set1/green.gif","img/card_backs/set1/red.gif","img/card_backs/set1/yellow.gif","img/card_backs/set2/gray.gif","img/card_backs/set2/pink.gif","img/card_backs/set2/orange.gif","img/card_backs/set2/blue.gif","""event"",""trial"",""time""
""fullscreenenter"",""1"",""12227""
","
","
","""event"",""trial"",""time""
""fullscreenenter"",""1"",""12227""
","
","","14702","Let's try practicing that! </br> First, try to put your fingers over the '2', '4', '6', and '8' keys. </br>  You can use whatever fingers are most comfortable for you. Try to find a comfortable position now. ","50","","instructions","2021-07-16 19:21:39.801","","","","","",""
"casino-keyboard-response","14","91409","0.0-8.0-0.3","A115","false","img/card_backs/set1/purple.gif","img/card_backs/set1/green.gif","img/card_backs/set1/red.gif","img/card_backs/set1/yellow.gif","img/card_backs/set2/gray.gif","img/card_backs/set2/pink.gif","img/card_backs/set2/orange.gif","img/card_backs/set2/blue.gif","""event"",""trial"",""time""
""fullscreenenter"",""1"",""12227""
","
","
","""event"",""trial"",""time""
""fullscreenenter"",""1"",""12227""
","
","","6102.999999999985","Okay ready? </br> On the next screen, press '2' to select the left deck. ","50","","instructions","2021-07-16 19:21:45.904","","","","","",""
"card-selection-trial","15","95918","0.0-9.0-0.0","A115","false","img/card_backs/set1/purple.gif","img/card_backs/set1/green.gif","img/card_backs/set1/red.gif","img/card_backs/set1/yellow.gif","img/card_backs/set2/gray.gif","img/card_backs/set2/pink.gif","img/card_backs/set2/orange.gif","img/card_backs/set2/blue.gif","""event"",""trial"",""time""
""fullscreenenter"",""1"",""12227""
","
","
","""event"",""trial"",""time""
""fullscreenenter"",""1"",""12227""
","
","","2496.9999999999854","","","","practice_card_selection","2021-07-16 19:21:50.413","img/practice_cards/backs/brown.gif","0","100","","",""
"casino-keyboard-response","16","102004","0.0-10.0-0.0","A115","false","img/card_backs/set1/purple.gif","img/card_backs/set1/green.gif","img/card_backs/set1/red.gif","img/card_backs/set1/yellow.gif","img/card_backs/set2/gray.gif","img/card_backs/set2/pink.gif","img/card_backs/set2/orange.gif","img/card_backs/set2/blue.gif","""event"",""trial"",""time""
""fullscreenenter"",""1"",""12227""
","
","
","""event"",""trial"",""time""
""fullscreenenter"",""1"",""12227""
","
","","6084.999999999985","Great! Now on the next screen, try pressing '6' to select the third deck.","54","","instructions","2021-07-16 19:21:56.499","","","","","",""
"card-selection-trial","17","104990","0.0-11.0-0.0","A115","false","img/card_backs/set1/purple.gif","img/card_backs/set1/green.gif","img/card_backs/set1/red.gif","img/card_backs/set1/yellow.gif","img/card_backs/set2/gray.gif","img/card_backs/set2/pink.gif","img/card_backs/set2/orange.gif","img/card_backs/set2/blue.gif","""event"",""trial"",""time""
""fullscreenenter"",""1"",""12227""
","
","
","""event"",""trial"",""time""
""fullscreenenter"",""1"",""12227""
","
","","973","","","","practice_card_selection","2021-07-16 19:21:59.486","img/practice_cards/backs/dark_blue.gif","2","-200","","",""
"casino-keyboard-response","18","110301","0.0-12.0-0.0","A115","false","img/card_backs/set1/purple.gif","img/card_backs/set1/green.gif","img/card_backs/set1/red.gif","img/card_backs/set1/yellow.gif","img/card_backs/set2/gray.gif","img/card_backs/set2/pink.gif","img/card_backs/set2/orange.gif","img/card_backs/set2/blue.gif","""event"",""trial"",""time""
""fullscreenenter"",""1"",""12227""
","
","
","""event"",""trial"",""time""
""fullscreenenter"",""1"",""12227""
","
","","5310","Now on the next screen, try pressing '4' to select the second deck.","52","","instructions","2021-07-16 19:22:04.796","","","","","",""
"card-selection-trial","19","113743","0.0-13.0-0.0","A115","false","img/card_backs/set1/purple.gif","img/card_backs/set1/green.gif","img/card_backs/set1/red.gif","img/card_backs/set1/yellow.gif","img/card_backs/set2/gray.gif","img/card_backs/set2/pink.gif","img/card_backs/set2/orange.gif","img/card_backs/set2/blue.gif","""event"",""trial"",""time""
""fullscreenenter"",""1"",""12227""
","
","
","""event"",""trial"",""time""
""fullscreenenter"",""1"",""12227""
","
","","1431.9999999999854","","","","practice_card_selection","2021-07-16 19:22:08.238","img/practice_cards/backs/dark_blue.gif","1","-200","","",""
"casino-keyboard-response","20","118719","0.0-14.0-0.0","A115","false","img/card_backs/set1/purple.gif","img/card_backs/set1/green.gif","img/card_backs/set1/red.gif","img/card_backs/set1/yellow.gif","img/card_backs/set2/gray.gif","img/card_backs/set2/pink.gif","img/card_backs/set2/orange.gif","img/card_backs/set2/blue.gif","""event"",""trial"",""time""
""fullscreenenter"",""1"",""12227""
","
","
","""event"",""trial"",""time""
""fullscreenenter"",""1"",""12227""
","
","","4974","Finally, try pressing '8' to select the deck all the way on the right.","56","","instructions","2021-07-16 19:22:13.214","","","","","",""
"card-selection-trial","21","121948","0.0-15.0-0.0","A115","false","img/card_backs/set1/purple.gif","img/card_backs/set1/green.gif","img/card_backs/set1/red.gif","img/card_backs/set1/yellow.gif","img/card_backs/set2/gray.gif","img/card_backs/set2/pink.gif","img/card_backs/set2/orange.gif","img/card_backs/set2/blue.gif","""event"",""trial"",""time""
""fullscreenenter"",""1"",""12227""
","
","
","""event"",""trial"",""time""
""fullscreenenter"",""1"",""12227""
","
","","1221.0000000000146","","","","practice_card_selection","2021-07-16 19:22:16.443","img/practice_cards/backs/brown.gif","3","100","","",""
"casino-keyboard-response","22","128495","0.0-16.0-0.0","A115","false","img/card_backs/set1/purple.gif","img/card_backs/set1/green.gif","img/card_backs/set1/red.gif","img/card_backs/set1/yellow.gif","img/card_backs/set2/gray.gif","img/card_backs/set2/pink.gif","img/card_backs/set2/orange.gif","img/card_backs/set2/blue.gif","""event"",""trial"",""time""
""fullscreenenter"",""1"",""12227""
","
","
","""event"",""trial"",""time""
""fullscreenenter"",""1"",""12227""
","
","","6545","Great! It seems like you are getting the hang of this.","80","","instructions","2021-07-16 19:22:22.990","","","","","",""
"casino-keyboard-response","23","136950","0.0-16.0-0.1","A115","false","img/card_backs/set1/purple.gif","img/card_backs/set1/green.gif","img/card_backs/set1/red.gif","img/card_backs/set1/yellow.gif","img/card_backs/set2/gray.gif","img/card_backs/set2/pink.gif","img/card_backs/set2/orange.gif","img/card_backs/set2/blue.gif","""event"",""trial"",""time""
""fullscreenenter"",""1"",""12227""
","
","
","""event"",""trial"",""time""
""fullscreenenter"",""1"",""12227""
","
","","8453.99999999997","You may have noticed that some cards will cause you to <b> win </b> tokens while other cards will cause you to <b> lose </b>  tokens.","70","","instructions","2021-07-16 19:22:31.445","","","","","",""
"casino-keyboard-response","24","146664","0.0-16.0-0.2","A115","false","img/card_backs/set1/purple.gif","img/card_backs/set1/green.gif","img/card_backs/set1/red.gif","img/card_backs/set1/yellow.gif","img/card_backs/set2/gray.gif","img/card_backs/set2/pink.gif","img/card_backs/set2/orange.gif","img/card_backs/set2/blue.gif","""event"",""trial"",""time""
""fullscreenenter"",""1"",""12227""
","
","
","""event"",""trial"",""time""
""fullscreenenter"",""1"",""12227""
","
","","9714","Each deck has a mix of cards that will cause you to win and lose tokens. </br> However, the cards in each colored deck are different.","73","","instructions","2021-07-16 19:22:41.159","","","","","",""
"casino-keyboard-response","25","156672","0.0-16.0-0.3","A115","false","img/card_backs/set1/purple.gif","img/card_backs/set1/green.gif","img/card_backs/set1/red.gif","img/card_backs/set1/yellow.gif","img/card_backs/set2/gray.gif","img/card_backs/set2/pink.gif","img/card_backs/set2/orange.gif","img/card_backs/set2/blue.gif","""event"",""trial"",""time""
""fullscreenenter"",""1"",""12227""
","
","
","""event"",""trial"",""time""
""fullscreenenter"",""1"",""12227""
","
","","10006","Some colored decks are luckier than others. </br> If you choose the lucky decks, you will earn more tokens than if you choose the unlucky decks.","69","","instructions","2021-07-16 19:22:51.167","","","","","",""
"casino-keyboard-response","26","164612","0.0-16.0-0.4","A115","false","img/card_backs/set1/purple.gif","img/card_backs/set1/green.gif","img/card_backs/set1/red.gif","img/card_backs/set1/yellow.gif","img/card_backs/set2/gray.gif","img/card_backs/set2/pink.gif","img/card_backs/set2/orange.gif","img/card_backs/set2/blue.gif","""event"",""trial"",""time""
""fullscreenenter"",""1"",""12227""
","
","
","""event"",""trial"",""time""
""fullscreenenter"",""1"",""12227""
","
","","7938","You should try to figure out which decks are lucky. </br> Then, try to choose the lucky decks so you can win the most tokens.","87","","instructions","2021-07-16 19:22:59.107","","","","","",""
"casino-keyboard-response","27","176181","0.0-16.0-0.5","A115","false","img/card_backs/set1/purple.gif","img/card_backs/set1/green.gif","img/card_backs/set1/red.gif","img/card_backs/set1/yellow.gif","img/card_backs/set2/gray.gif","img/card_backs/set2/pink.gif","img/card_backs/set2/orange.gif","img/card_backs/set2/blue.gif","""event"",""trial"",""time""
""fullscreenenter"",""1"",""12227""
","
","
","""event"",""trial"",""time""
""fullscreenenter"",""1"",""12227""
","
","","11568.00000000003","To make it trickier, the casino dealer will switch the locations of the decks on every turn. </br> The color of the deck determines how lucky it is. The location does not matter.","88","","instructions","2021-07-16 19:23:10.676","","","","","",""
"casino-keyboard-response","28","185638","0.0-16.0-0.6","A115","false","img/card_backs/set1/purple.gif","img/card_backs/set1/green.gif","img/card_backs/set1/red.gif","img/card_backs/set1/yellow.gif","img/card_backs/set2/gray.gif","img/card_backs/set2/pink.gif","img/card_backs/set2/orange.gif","img/card_backs/set2/blue.gif","""event"",""trial"",""time""
""fullscreenenter"",""1"",""12227""
","
","
","""event"",""trial"",""time""
""fullscreenenter"",""1"",""12227""
","
","","9456","The mix of cards in each colored deck will stay the same throughout the game. </br> That means that a deck that is lucky early on will stay lucky.","79","","instructions","2021-07-16 19:23:20.133","","","","","",""
"casino-keyboard-response","29","198454","0.0-16.0-0.7","A115","false","img/card_backs/set1/purple.gif","img/card_backs/set1/green.gif","img/card_backs/set1/red.gif","img/card_backs/set1/yellow.gif","img/card_backs/set2/gray.gif","img/card_backs/set2/pink.gif","img/card_backs/set2/orange.gif","img/card_backs/set2/blue.gif","""event"",""trial"",""time""
""fullscreenenter"",""1"",""12227""
","
","
","""event"",""trial"",""time""
""fullscreenenter"",""1"",""12227""
","
","","12814.99999999997","Remember though, all the decks have a <b> mix </b> of both <b> good </b> and <b> bad </b> cards so it may take a couple of turns to figure out if a deck is lucky.","69","","instructions","2021-07-16 19:23:32.949","","","","","",""
"casino-keyboard-response","30","213215","0.0-16.0-0.8","A115","false","img/card_backs/set1/purple.gif","img/card_backs/set1/green.gif","img/card_backs/set1/red.gif","img/card_backs/set1/yellow.gif","img/card_backs/set2/gray.gif","img/card_backs/set2/pink.gif","img/card_backs/set2/orange.gif","img/card_backs/set2/blue.gif","""event"",""trial"",""time""
""fullscreenenter"",""1"",""12227""
","
","
","""event"",""trial"",""time""
""fullscreenenter"",""1"",""12227""
","
","","14759.99999999997","At the end of the game, you will be paid bonus money based on how many tokens you win. </br> If you win more tokens, you will earn more money!","72","","instructions","2021-07-16 19:23:47.710","","","","","",""
"casino-keyboard-response","31","225387","0.0-16.0-0.9","A115","false","img/card_backs/set1/purple.gif","img/card_backs/set1/green.gif","img/card_backs/set1/red.gif","img/card_backs/set1/yellow.gif","img/card_backs/set2/gray.gif","img/card_backs/set2/pink.gif","img/card_backs/set2/orange.gif","img/card_backs/set2/blue.gif","""event"",""trial"",""time""
""fullscreenenter"",""1"",""12227""
","
","
","""event"",""trial"",""time""
""fullscreenenter"",""1"",""12227""
","
","","12171","You will never <b> lose </b> money. </br> If you end up with fewer than 0 tokens, you will earn $0 of bonus money, but you will still be paid for playing the game.","83","","instructions","2021-07-16 19:23:59.882","","","","","",""
"casino-keyboard-response","32","232601","0.0-16.0-0.10","A115","false","img/card_backs/set1/purple.gif","img/card_backs/set1/green.gif","img/card_backs/set1/red.gif","img/card_backs/set1/yellow.gif","img/card_backs/set2/gray.gif","img/card_backs/set2/pink.gif","img/card_backs/set2/orange.gif","img/card_backs/set2/blue.gif","""event"",""trial"",""time""
""fullscreenenter"",""1"",""12227""
","
","
","""event"",""trial"",""time""
""fullscreenenter"",""1"",""12227""
","
","","7213","You will have 10 seconds to make each choice.","82","","instructions","2021-07-16 19:24:07.096","","","","","",""
"casino-keyboard-response","33","243406","0.0-16.0-0.11","A115","false","img/card_backs/set1/purple.gif","img/card_backs/set1/green.gif","img/card_backs/set1/red.gif","img/card_backs/set1/yellow.gif","img/card_backs/set2/gray.gif","img/card_backs/set2/pink.gif","img/card_backs/set2/orange.gif","img/card_backs/set2/blue.gif","""event"",""trial"",""time""
""fullscreenenter"",""1"",""12227""
","
","
","""event"",""trial"",""time""
""fullscreenenter"",""1"",""12227""
","
","","10804","Before you play the game for real, you will play with practice decks. </br> The tokens you earn during practice won't count toward your total.","86","","instructions","2021-07-16 19:24:17.901","","","","","",""
"casino-keyboard-response","34","256523","0.0-16.0-0.12","A115","false","img/card_backs/set1/purple.gif","img/card_backs/set1/green.gif","img/card_backs/set1/red.gif","img/card_backs/set1/yellow.gif","img/card_backs/set2/gray.gif","img/card_backs/set2/pink.gif","img/card_backs/set2/orange.gif","img/card_backs/set2/blue.gif","""event"",""trial"",""time""
""fullscreenenter"",""1"",""12227""
","
","
","""event"",""trial"",""time""
""fullscreenenter"",""1"",""12227""
","
","","13115.99999999997","Ready? Remember, use the '2', '4', '6', and '8' keys to select the decks. </br> Put your fingers on those keys now and then press '2' to begin.","50","","instructions","2021-07-16 19:24:31.018","","","","","",""
"casino-fixation","35","257025","0.0-17.0-0.0","A115","false","img/card_backs/set1/purple.gif","img/card_backs/set1/green.gif","img/card_backs/set1/red.gif","img/card_backs/set1/yellow.gif","img/card_backs/set2/gray.gif","img/card_backs/set2/pink.gif","img/card_backs/set2/orange.gif","img/card_backs/set2/blue.gif","""event"",""trial"",""time""
""fullscreenenter"",""1"",""12227""
","
","
","""event"",""trial"",""time""
""fullscreenenter"",""1"",""12227""
","
","","null","","null","","fixation","2021-07-16 19:24:31.520","","","","","",""
"card-selection-trial","36","260406","0.0-17.0-1.0","A115","false","img/card_backs/set1/purple.gif","img/card_backs/set1/green.gif","img/card_backs/set1/red.gif","img/card_backs/set1/yellow.gif","img/card_backs/set2/gray.gif","img/card_backs/set2/pink.gif","img/card_backs/set2/orange.gif","img/card_backs/set2/blue.gif","""event"",""trial"",""time""
""fullscreenenter"",""1"",""12227""
","
","
","""event"",""trial"",""time""
""fullscreenenter"",""1"",""12227""
","
","","1377.0000000000582","","","","practice","2021-07-16 19:24:34.901","img/practice_cards/backs/brown.gif","0","-100","0","",""
"casino-fixation","37","260908","0.0-17.0-0.1","A115","false","img/card_backs/set1/purple.gif","img/card_backs/set1/green.gif","img/card_backs/set1/red.gif","img/card_backs/set1/yellow.gif","img/card_backs/set2/gray.gif","img/card_backs/set2/pink.gif","img/card_backs/set2/orange.gif","img/card_backs/set2/blue.gif","""event"",""trial"",""time""
""fullscreenenter"",""1"",""12227""
","
","
","""event"",""trial"",""time""
""fullscreenenter"",""1"",""12227""
","
","","null","","null","","fixation","2021-07-16 19:24:35.403","","","","","",""
"card-selection-trial","38","264038","0.0-17.0-1.1","A115","false","img/card_backs/set1/purple.gif","img/card_backs/set1/green.gif","img/card_backs/set1/red.gif","img/card_backs/set1/yellow.gif","img/card_backs/set2/gray.gif","img/card_backs/set2/pink.gif","img/card_backs/set2/orange.gif","img/card_backs/set2/blue.gif","""event"",""trial"",""time""
""fullscreenenter"",""1"",""12227""
","
","
","""event"",""trial"",""time""
""fullscreenenter"",""1"",""12227""
","
","","1126","","","","practice","2021-07-16 19:24:38.533","img/practice_cards/backs/dark_green.gif","1","200","0","",""
"casino-fixation","39","264540","0.0-17.0-0.2","A115","false","img/card_backs/set1/purple.gif","img/card_backs/set1/green.gif","img/card_backs/set1/red.gif","img/card_backs/set1/yellow.gif","img/card_backs/set2/gray.gif","img/card_backs/set2/pink.gif","img/card_backs/set2/orange.gif","img/card_backs/set2/blue.gif","""event"",""trial"",""time""
""fullscreenenter"",""1"",""12227""
","
","
","""event"",""trial"",""time""
""fullscreenenter"",""1"",""12227""
","
","","null","","null","","fixation","2021-07-16 19:24:39.035","","","","","",""
"card-selection-trial","40","267131","0.0-17.0-1.2","A115","false","img/card_backs/set1/purple.gif","img/card_backs/set1/green.gif","img/card_backs/set1/red.gif","img/card_backs/set1/yellow.gif","img/card_backs/set2/gray.gif","img/card_backs/set2/pink.gif","img/card_backs/set2/orange.gif","img/card_backs/set2/blue.gif","""event"",""trial"",""time""
""fullscreenenter"",""1"",""12227""
","
","
","""event"",""trial"",""time""
""fullscreenenter"",""1"",""12227""
","
","","589","","","","practice","2021-07-16 19:24:41.626","img/practice_cards/backs/black.gif","2","-100","0","",""
"casino-fixation","41","267633","0.0-17.0-0.3","A115","false","img/card_backs/set1/purple.gif","img/card_backs/set1/green.gif","img/card_backs/set1/red.gif","img/card_backs/set1/yellow.gif","img/card_backs/set2/gray.gif","img/card_backs/set2/pink.gif","img/card_backs/set2/orange.gif","img/card_backs/set2/blue.gif","""event"",""trial"",""time""
""fullscreenenter"",""1"",""12227""
","
","
","""event"",""trial"",""time""
""fullscreenenter"",""1"",""12227""
","
","","null","","null","","fixation","2021-07-16 19:24:42.128","","","","","",""
"card-selection-trial","42","270059","0.0-17.0-1.3","A115","false","img/card_backs/set1/purple.gif","img/card_backs/set1/green.gif","img/card_backs/set1/red.gif","img/card_backs/set1/yellow.gif","img/card_backs/set2/gray.gif","img/card_backs/set2/pink.gif","img/card_backs/set2/orange.gif","img/card_backs/set2/blue.gif","""event"",""trial"",""time""
""fullscreenenter"",""1"",""12227""
","
","
","""event"",""trial"",""time""
""fullscreenenter"",""1"",""12227""
","
","","422","","","","practice","2021-07-16 19:24:44.554","img/practice_cards/backs/dark_green.gif","3","-200","0","",""
"casino-fixation","43","270561","0.0-17.0-0.4","A115","false","img/card_backs/set1/purple.gif","img/card_backs/set1/green.gif","img/card_backs/set1/red.gif","img/card_backs/set1/yellow.gif","img/card_backs/set2/gray.gif","img/card_backs/set2/pink.gif","img/card_backs/set2/orange.gif","img/card_backs/set2/blue.gif","""event"",""trial"",""time""
""fullscreenenter"",""1"",""12227""
","
","
","""event"",""trial"",""time""
""fullscreenenter"",""1"",""12227""
","
","","null","","null","","fixation","2021-07-16 19:24:45.056","","","","","",""
"card-selection-trial","44","273272","0.0-17.0-1.4","A115","false","img/card_backs/set1/purple.gif","img/card_backs/set1/green.gif","img/card_backs/set1/red.gif","img/card_backs/set1/yellow.gif","img/card_backs/set2/gray.gif","img/card_backs/set2/pink.gif","img/card_backs/set2/orange.gif","img/card_backs/set2/blue.gif","""event"",""trial"",""time""
""fullscreenenter"",""1"",""12227""
","
","
","""event"",""trial"",""time""
""fullscreenenter"",""1"",""12227""
","
","","707","","","","practice","2021-07-16 19:24:47.767","img/practice_cards/backs/dark_blue.gif","1","200","0","",""
"casino-fixation","45","273774","0.0-17.0-0.5","A115","false","img/card_backs/set1/purple.gif","img/card_backs/set1/green.gif","img/card_backs/set1/red.gif","img/card_backs/set1/yellow.gif","img/card_backs/set2/gray.gif","img/card_backs/set2/pink.gif","img/card_backs/set2/orange.gif","img/card_backs/set2/blue.gif","""event"",""trial"",""time""
""fullscreenenter"",""1"",""12227""
","
","
","""event"",""trial"",""time""
""fullscreenenter"",""1"",""12227""
","
","","null","","null","","fixation","2021-07-16 19:24:48.270","","","","","",""
"card-selection-trial","46","276294","0.0-17.0-1.5","A115","false","img/card_backs/set1/purple.gif","img/card_backs/set1/green.gif","img/card_backs/set1/red.gif","img/card_backs/set1/yellow.gif","img/card_backs/set2/gray.gif","img/card_backs/set2/pink.gif","img/card_backs/set2/orange.gif","img/card_backs/set2/blue.gif","""event"",""trial"",""time""
""fullscreenenter"",""1"",""12227""
","
","
","""event"",""trial"",""time""
""fullscreenenter"",""1"",""12227""
","
","","517","","","","practice","2021-07-16 19:24:50.790","img/practice_cards/backs/dark_green.gif","1","200","0","",""
"casino-fixation","47","276797","0.0-17.0-0.6","A115","false","img/card_backs/set1/purple.gif","img/card_backs/set1/green.gif","img/card_backs/set1/red.gif","img/card_backs/set1/yellow.gif","img/card_backs/set2/gray.gif","img/card_backs/set2/pink.gif","img/card_backs/set2/orange.gif","img/card_backs/set2/blue.gif","""event"",""trial"",""time""
""fullscreenenter"",""1"",""12227""
","
","
","""event"",""trial"",""time""
""fullscreenenter"",""1"",""12227""
","
","","null","","null","","fixation","2021-07-16 19:24:51.292","","","","","",""
"card-selection-trial","48","279270","0.0-17.0-1.6","A115","false","img/card_backs/set1/purple.gif","img/card_backs/set1/green.gif","img/card_backs/set1/red.gif","img/card_backs/set1/yellow.gif","img/card_backs/set2/gray.gif","img/card_backs/set2/pink.gif","img/card_backs/set2/orange.gif","img/card_backs/set2/blue.gif","""event"",""trial"",""time""
""fullscreenenter"",""1"",""12227""
","
","
","""event"",""trial"",""time""
""fullscreenenter"",""1"",""12227""
","
","","470","","","","practice","2021-07-16 19:24:53.765","img/practice_cards/backs/dark_green.gif","1","-200","0","",""
"casino-fixation","49","279772","0.0-17.0-0.7","A115","false","img/card_backs/set1/purple.gif","img/card_backs/set1/green.gif","img/card_backs/set1/red.gif","img/card_backs/set1/yellow.gif","img/card_backs/set2/gray.gif","img/card_backs/set2/pink.gif","img/card_backs/set2/orange.gif","img/card_backs/set2/blue.gif","""event"",""trial"",""time""
""fullscreenenter"",""1"",""12227""
","
","
","""event"",""trial"",""time""
""fullscreenenter"",""1"",""12227""
","
","","null","","null","","fixation","2021-07-16 19:24:54.267","","","","","",""
"card-selection-trial","50","282314","0.0-17.0-1.7","A115","false","img/card_backs/set1/purple.gif","img/card_backs/set1/green.gif","img/card_backs/set1/red.gif","img/card_backs/set1/yellow.gif","img/card_backs/set2/gray.gif","img/card_backs/set2/pink.gif","img/card_backs/set2/orange.gif","img/card_backs/set2/blue.gif","""event"",""trial"",""time""
""fullscreenenter"",""1"",""12227""
","
","
","""event"",""trial"",""time""
""fullscreenenter"",""1"",""12227""
","
","","539","","","","practice","2021-07-16 19:24:56.809","img/practice_cards/backs/brown.gif","1","-100","0","",""
"casino-fixation","51","282816","0.0-17.0-0.8","A115","false","img/card_backs/set1/purple.gif","img/card_backs/set1/green.gif","img/card_backs/set1/red.gif","img/card_backs/set1/yellow.gif","img/card_backs/set2/gray.gif","img/card_backs/set2/pink.gif","img/card_backs/set2/orange.gif","img/card_backs/set2/blue.gif","""event"",""trial"",""time""
""fullscreenenter"",""1"",""12227""
","
","
","""event"",""trial"",""time""
""fullscreenenter"",""1"",""12227""
","
","","null","","null","","fixation","2021-07-16 19:24:57.311","","","","","",""
"card-selection-trial","52","286040","0.0-17.0-1.8","A115","false","img/card_backs/set1/purple.gif","img/card_backs/set1/green.gif","img/card_backs/set1/red.gif","img/card_backs/set1/yellow.gif","img/card_backs/set2/gray.gif","img/card_backs/set2/pink.gif","img/card_backs/set2/orange.gif","img/card_backs/set2/blue.gif","""event"",""trial"",""time""
""fullscreenenter"",""1"",""12227""
","
","
","""event"",""trial"",""time""
""fullscreenenter"",""1"",""12227""
","
","","1220","","","","practice","2021-07-16 19:25:00.535","img/practice_cards/backs/dark_green.gif","2","200","0","",""
"casino-fixation","53","286542","0.0-17.0-0.9","A115","false","img/card_backs/set1/purple.gif","img/card_backs/set1/green.gif","img/card_backs/set1/red.gif","img/card_backs/set1/yellow.gif","img/card_backs/set2/gray.gif","img/card_backs/set2/pink.gif","img/card_backs/set2/orange.gif","img/card_backs/set2/blue.gif","""event"",""trial"",""time""
""fullscreenenter"",""1"",""12227""
","
","
","""event"",""trial"",""time""
""fullscreenenter"",""1"",""12227""
","
","","null","","null","","fixation","2021-07-16 19:25:01.037","","","","","",""
"card-selection-trial","54","289565","0.0-17.0-1.9","A115","false","img/card_backs/set1/purple.gif","img/card_backs/set1/green.gif","img/card_backs/set1/red.gif","img/card_backs/set1/yellow.gif","img/card_backs/set2/gray.gif","img/card_backs/set2/pink.gif","img/card_backs/set2/orange.gif","img/card_backs/set2/blue.gif","""event"",""trial"",""time""
""fullscreenenter"",""1"",""12227""
","
","
","""event"",""trial"",""time""
""fullscreenenter"",""1"",""12227""
","
","","1019","","","","practice","2021-07-16 19:25:04.060","img/practice_cards/backs/dark_green.gif","1","200","0","",""
"casino-keyboard-response","55","292892","0.0-18.0","A115","false","img/card_backs/set1/purple.gif","img/card_backs/set1/green.gif","img/card_backs/set1/red.gif","img/card_backs/set1/yellow.gif","img/card_backs/set2/gray.gif","img/card_backs/set2/pink.gif","img/card_backs/set2/orange.gif","img/card_backs/set2/blue.gif","""event"",""trial"",""time""
""fullscreenenter"",""1"",""12227""
","
","
","""event"",""trial"",""time""
""fullscreenenter"",""1"",""12227""
","
","","3327","You earned 300 tokens during the practice round!","82","","","2021-07-16 19:25:07.388","","","","","",""
"casino-keyboard-response","56","298802","0.0-19.0-0.0","A115","false","img/card_backs/set1/purple.gif","img/card_backs/set1/green.gif","img/card_backs/set1/red.gif","img/card_backs/set1/yellow.gif","img/card_backs/set2/gray.gif","img/card_backs/set2/pink.gif","img/card_backs/set2/orange.gif","img/card_backs/set2/blue.gif","""event"",""trial"",""time""
""fullscreenenter"",""1"",""12227""
","
","
","""event"",""trial"",""time""
""fullscreenenter"",""1"",""12227""
","
","","5909","Nice job! You are almost ready to play the real game.","86","","instructions","2021-07-16 19:25:13.297","","","","","",""
"casino-keyboard-response","57","305098","0.0-19.0-0.1","A115","false","img/card_backs/set1/purple.gif","img/card_backs/set1/green.gif","img/card_backs/set1/red.gif","img/card_backs/set1/yellow.gif","img/card_backs/set2/gray.gif","img/card_backs/set2/pink.gif","img/card_backs/set2/orange.gif","img/card_backs/set2/blue.gif","""event"",""trial"",""time""
""fullscreenenter"",""1"",""12227""
","
","
","""event"",""trial"",""time""
""fullscreenenter"",""1"",""12227""
","
","","6293.999999999942","You will play two rounds of the real game. In each round, you will pick 100 cards in total.","73","","instructions","2021-07-16 19:25:19.593","","","","","",""
"casino-keyboard-response","58","309319","0.0-19.0-0.2","A115","false","img/card_backs/set1/purple.gif","img/card_backs/set1/green.gif","img/card_backs/set1/red.gif","img/card_backs/set1/yellow.gif","img/card_backs/set2/gray.gif","img/card_backs/set2/pink.gif","img/card_backs/set2/orange.gif","img/card_backs/set2/blue.gif","""event"",""trial"",""time""
""fullscreenenter"",""1"",""12227""
","
","
","""event"",""trial"",""time""
""fullscreenenter"",""1"",""12227""
","
","","4220","We are now going to ask you some questions about how the game works.","66","","instructions","2021-07-16 19:25:23.814","","","","","",""
"casino-keyboard-response","59","315479","0.0-19.0-0.3","A115","false","img/card_backs/set1/purple.gif","img/card_backs/set1/green.gif","img/card_backs/set1/red.gif","img/card_backs/set1/yellow.gif","img/card_backs/set2/gray.gif","img/card_backs/set2/pink.gif","img/card_backs/set2/orange.gif","img/card_backs/set2/blue.gif","""event"",""trial"",""time""
""fullscreenenter"",""1"",""12227""
","
","
","""event"",""trial"",""time""
""fullscreenenter"",""1"",""12227""
","
","","6160","Answer carefully. You will not be able to begin the game until you answer them correctly.","67","","instructions","2021-07-16 19:25:29.974","","","","","",""
"casino-comp_q","60","322576","0.0-20.0-0.0","A115","false","img/card_backs/set1/purple.gif","img/card_backs/set1/green.gif","img/card_backs/set1/red.gif","img/card_backs/set1/yellow.gif","img/card_backs/set2/gray.gif","img/card_backs/set2/pink.gif","img/card_backs/set2/orange.gif","img/card_backs/set2/blue.gif","""event"",""trial"",""time""
""fullscreenenter"",""1"",""12227""
","
","
","""event"",""trial"",""time""
""fullscreenenter"",""1"",""12227""
","
","","7096","True or False: All the decks have some cards that cause you to win tokens and some cards that cause you to lose tokens.","84","","","2021-07-16 19:25:37.071","","","","","",""
"casino-keyboard-response","61","328728","0.0-20.0-1.0","A115","false","img/card_backs/set1/purple.gif","img/card_backs/set1/green.gif","img/card_backs/set1/red.gif","img/card_backs/set1/yellow.gif","img/card_backs/set2/gray.gif","img/card_backs/set2/pink.gif","img/card_backs/set2/orange.gif","img/card_backs/set2/blue.gif","""event"",""trial"",""time""
""fullscreenenter"",""1"",""12227""
","
","
","""event"",""trial"",""time""
""fullscreenenter"",""1"",""12227""
","
","","6149.999999999942","True is correct! All the decks have a mix of winning and losing cards.","77","","","2021-07-16 19:25:43.223","","","","","true",""
"casino-comp_q","62","333551","0.0-21.0-0.0","A115","false","img/card_backs/set1/purple.gif","img/card_backs/set1/green.gif","img/card_backs/set1/red.gif","img/card_backs/set1/yellow.gif","img/card_backs/set2/gray.gif","img/card_backs/set2/pink.gif","img/card_backs/set2/orange.gif","img/card_backs/set2/blue.gif","""event"",""trial"",""time""
""fullscreenenter"",""1"",""12227""
","
","
","""event"",""trial"",""time""
""fullscreenenter"",""1"",""12227""
","
","","4823","True or False: You will have as much time as you want to make your response.","70","","","2021-07-16 19:25:48.046","","","","","",""
"casino-keyboard-response","63","337230","0.0-21.0-1.0","A115","false","img/card_backs/set1/purple.gif","img/card_backs/set1/green.gif","img/card_backs/set1/red.gif","img/card_backs/set1/yellow.gif","img/card_backs/set2/gray.gif","img/card_backs/set2/pink.gif","img/card_backs/set2/orange.gif","img/card_backs/set2/blue.gif","""event"",""trial"",""time""
""fullscreenenter"",""1"",""12227""
","
","
","""event"",""trial"",""time""
""fullscreenenter"",""1"",""12227""
","
","","3678","False is correct! You will only have 10 seconds to make each choice.","75","","","2021-07-16 19:25:51.726","","","","","true",""
"casino-comp_q","64","340426","0.0-22.0-0.0","A115","false","img/card_backs/set1/purple.gif","img/card_backs/set1/green.gif","img/card_backs/set1/red.gif","img/card_backs/set1/yellow.gif","img/card_backs/set2/gray.gif","img/card_backs/set2/pink.gif","img/card_backs/set2/orange.gif","img/card_backs/set2/blue.gif","""event"",""trial"",""time""
""fullscreenenter"",""1"",""12227""
","
","
","""event"",""trial"",""time""
""fullscreenenter"",""1"",""12227""
","
","","3194","True or False: The location of the deck determines how lucky it is.","70","","","2021-07-16 19:25:54.921","","","","","",""
"casino-keyboard-response","65","343973","0.0-22.0-1.0","A115","false","img/card_backs/set1/purple.gif","img/card_backs/set1/green.gif","img/card_backs/set1/red.gif","img/card_backs/set1/yellow.gif","img/card_backs/set2/gray.gif","img/card_backs/set2/pink.gif","img/card_backs/set2/orange.gif","img/card_backs/set2/blue.gif","""event"",""trial"",""time""
""fullscreenenter"",""1"",""12227""
","
","
","""event"",""trial"",""time""
""fullscreenenter"",""1"",""12227""
","
","","3546","False is correct! The <i>color</i>  of the deck determines how lucky or unlucky it is.","68","","","2021-07-16 19:25:58.468","","","","","true",""
"casino-keyboard-response","66","348047","0.0-23.0-0.0","A115","false","img/card_backs/set1/purple.gif","img/card_backs/set1/green.gif","img/card_backs/set1/red.gif","img/card_backs/set1/yellow.gif","img/card_backs/set2/gray.gif","img/card_backs/set2/pink.gif","img/card_backs/set2/orange.gif","img/card_backs/set2/blue.gif","""event"",""trial"",""time""
""fullscreenenter"",""1"",""12227""
","
","
","""event"",""trial"",""time""
""fullscreenenter"",""1"",""12227""
","
","","4073","Great job! Now it's time to start the real game.","82","","instructions","2021-07-16 19:26:02.542","","","","","",""
"casino-keyboard-response","67","353083","0.0-23.0-0.1","A115","false","img/card_backs/set1/purple.gif","img/card_backs/set1/green.gif","img/card_backs/set1/red.gif","img/card_backs/set1/yellow.gif","img/card_backs/set2/gray.gif","img/card_backs/set2/pink.gif","img/card_backs/set2/orange.gif","img/card_backs/set2/blue.gif","""event"",""trial"",""time""
""fullscreenenter"",""1"",""12227""
","
","
","""event"",""trial"",""time""
""fullscreenenter"",""1"",""12227""
","
","","5035","Before we start, we're going to head into a new room of the casino.","86","","instructions","2021-07-16 19:26:07.578","","","","","",""
"casino-keyboard-response","68","359104","0.0-24.0-0.0","A115","false","img/card_backs/set1/purple.gif","img/card_backs/set1/green.gif","img/card_backs/set1/red.gif","img/card_backs/set1/yellow.gif","img/card_backs/set2/gray.gif","img/card_backs/set2/pink.gif","img/card_backs/set2/orange.gif","img/card_backs/set2/blue.gif","""event"",""trial"",""time""
""fullscreenenter"",""1"",""12227""
","
","
","""event"",""trial"",""time""
""fullscreenenter"",""1"",""12227""
","
","","6020","Here we are! The real game will use different cards, but the rules will be the same.","71","","instructions","2021-07-16 19:26:13.599","","","","","",""
"casino-keyboard-response","69","368807","0.0-24.0-0.1","A115","false","img/card_backs/set1/purple.gif","img/card_backs/set1/green.gif","img/card_backs/set1/red.gif","img/card_backs/set1/yellow.gif","img/card_backs/set2/gray.gif","img/card_backs/set2/pink.gif","img/card_backs/set2/orange.gif","img/card_backs/set2/blue.gif","""event"",""trial"",""time""
""fullscreenenter"",""1"",""12227""
","
","
","""event"",""trial"",""time""
""fullscreenenter"",""1"",""12227""
","
","","9702","Ready? Put your fingers over the '2', '4', 6', and '8' keys so you are ready to play the game. </br> Then press 2 to start.","50","","instructions","2021-07-16 19:26:23.302","","","","","",""
"casino-fixation","70","369309","0.0-25.0-0.0","A115","false","img/card_backs/set1/purple.gif","img/card_backs/set1/green.gif","img/card_backs/set1/red.gif","img/card_backs/set1/yellow.gif","img/card_backs/set2/gray.gif","img/card_backs/set2/pink.gif","img/card_backs/set2/orange.gif","img/card_backs/set2/blue.gif","""event"",""trial"",""time""
""fullscreenenter"",""1"",""12227""
","
","
","""event"",""trial"",""time""
""fullscreenenter"",""1"",""12227""
","
","","null","","null","","fixation","2021-07-16 19:26:23.804","","","","","",""
"card-selection-trial","71","372526","0.0-25.0-1.0","A115","false","img/card_backs/set1/purple.gif","img/card_backs/set1/green.gif","img/card_backs/set1/red.gif","img/card_backs/set1/yellow.gif","img/card_backs/set2/gray.gif","img/card_backs/set2/pink.gif","img/card_backs/set2/orange.gif","img/card_backs/set2/blue.gif","""event"",""trial"",""time""
""fullscreenenter"",""1"",""12227""
","
","
","""event"",""trial"",""time""
""fullscreenenter"",""1"",""12227""
","
","","1214.0000000000582","","","","real_trial","2021-07-16 19:26:27.021","img/card_backs/set1/red.gif","0","-60","1","",""
"casino-fixation","72","373028","0.0-25.0-0.1","A115","false","img/card_backs/set1/purple.gif","img/card_backs/set1/green.gif","img/card_backs/set1/red.gif","img/card_backs/set1/yellow.gif","img/card_backs/set2/gray.gif","img/card_backs/set2/pink.gif","img/card_backs/set2/orange.gif","img/card_backs/set2/blue.gif","""event"",""trial"",""time""
""fullscreenenter"",""1"",""12227""
","
","
","""event"",""trial"",""time""
""fullscreenenter"",""1"",""12227""
","
","","null","","null","","fixation","2021-07-16 19:26:27.523","","","","","",""
"card-selection-trial","73","376213","0.0-25.0-1.1","A115","false","img/card_backs/set1/purple.gif","img/card_backs/set1/green.gif","img/card_backs/set1/red.gif","img/card_backs/set1/yellow.gif","img/card_backs/set2/gray.gif","img/card_backs/set2/pink.gif","img/card_backs/set2/orange.gif","img/card_backs/set2/blue.gif","""event"",""trial"",""time""
""fullscreenenter"",""1"",""12227""
","
","
","""event"",""trial"",""time""
""fullscreenenter"",""1"",""12227""
","
","","1181.9999999999418","","","","real_trial","2021-07-16 19:26:30.708","img/card_backs/set1/purple.gif","1","-240","1","",""
"casino-fixation","74","376716","0.0-25.0-0.2","A115","false","img/card_backs/set1/purple.gif","img/card_backs/set1/green.gif","img/card_backs/set1/red.gif","img/card_backs/set1/yellow.gif","img/card_backs/set2/gray.gif","img/card_backs/set2/pink.gif","img/card_backs/set2/orange.gif","img/card_backs/set2/blue.gif","""event"",""trial"",""time""
""fullscreenenter"",""1"",""12227""
","
","
","""event"",""trial"",""time""
""fullscreenenter"",""1"",""12227""
","
","","null","","null","","fixation","2021-07-16 19:26:31.211","","","","","",""
"card-selection-trial","75","380103","0.0-25.0-1.2","A115","false","img/card_backs/set1/purple.gif","img/card_backs/set1/green.gif","img/card_backs/set1/red.gif","img/card_backs/set1/yellow.gif","img/card_backs/set2/gray.gif","img/card_backs/set2/pink.gif","img/card_backs/set2/orange.gif","img/card_backs/set2/blue.gif","""event"",""trial"",""time""
""fullscreenenter"",""1"",""12227""
","
","
","""event"",""trial"",""time""
""fullscreenenter"",""1"",""12227""
","
","","1384.0000000000582","","","","real_trial","2021-07-16 19:26:34.598","img/card_backs/set1/yellow.gif","2","-60","1","",""
"casino-fixation","76","380605","0.0-25.0-0.3","A115","false","img/card_backs/set1/purple.gif","img/card_backs/set1/green.gif","img/card_backs/set1/red.gif","img/card_backs/set1/yellow.gif","img/card_backs/set2/gray.gif","img/card_backs/set2/pink.gif","img/card_backs/set2/orange.gif","img/card_backs/set2/blue.gif","""event"",""trial"",""time""
""fullscreenenter"",""1"",""12227""
","
","
","""event"",""trial"",""time""
""fullscreenenter"",""1"",""12227""
","
","","null","","null","","fixation","2021-07-16 19:26:35.100","","","","","",""
"card-selection-trial","77","383501","0.0-25.0-1.3","A115","false","img/card_backs/set1/purple.gif","img/card_backs/set1/green.gif","img/card_backs/set1/red.gif","img/card_backs/set1/yellow.gif","img/card_backs/set2/gray.gif","img/card_backs/set2/pink.gif","img/card_backs/set2/orange.gif","img/card_backs/set2/blue.gif","""event"",""trial"",""time""
""fullscreenenter"",""1"",""12227""
","
","
","""event"",""trial"",""time""
""fullscreenenter"",""1"",""12227""
","
","","891","","","","real_trial","2021-07-16 19:26:37.996","img/card_backs/set1/red.gif","2","-50","1","",""
"casino-fixation","78","384002","0.0-25.0-0.4","A115","false","img/card_backs/set1/purple.gif","img/card_backs/set1/green.gif","img/card_backs/set1/red.gif","img/card_backs/set1/yellow.gif","img/card_backs/set2/gray.gif","img/card_backs/set2/pink.gif","img/card_backs/set2/orange.gif","img/card_backs/set2/blue.gif","""event"",""trial"",""time""
""fullscreenenter"",""1"",""12227""
","
","
","""event"",""trial"",""time""
""fullscreenenter"",""1"",""12227""
","
","","null","","null","","fixation","2021-07-16 19:26:38.497","","","","","",""
"card-selection-trial","79","387608","0.0-25.0-1.4","A115","false","img/card_backs/set1/purple.gif","img/card_backs/set1/green.gif","img/card_backs/set1/red.gif","img/card_backs/set1/yellow.gif","img/card_backs/set2/gray.gif","img/card_backs/set2/pink.gif","img/card_backs/set2/orange.gif","img/card_backs/set2/blue.gif","""event"",""trial"",""time""
""fullscreenenter"",""1"",""12227""
","
","
","""event"",""trial"",""time""
""fullscreenenter"",""1"",""12227""
","
","","1602","","","","real_trial","2021-07-16 19:26:42.103","img/card_backs/set1/green.gif","0","-240","1","",""
"casino-fixation","80","388111","0.0-25.0-0.5","A115","false","img/card_backs/set1/purple.gif","img/card_backs/set1/green.gif","img/card_backs/set1/red.gif","img/card_backs/set1/yellow.gif","img/card_backs/set2/gray.gif","img/card_backs/set2/pink.gif","img/card_backs/set2/orange.gif","img/card_backs/set2/blue.gif","""event"",""trial"",""time""
""fullscreenenter"",""1"",""12227""
","
","
","""event"",""trial"",""time""
""fullscreenenter"",""1"",""12227""
","
","","null","","null","","fixation","2021-07-16 19:26:42.606","","","","","",""
"card-selection-trial","81","391379","0.0-25.0-1.5","A115","false","img/card_backs/set1/purple.gif","img/card_backs/set1/green.gif","img/card_backs/set1/red.gif","img/card_backs/set1/yellow.gif","img/card_backs/set2/gray.gif","img/card_backs/set2/pink.gif","img/card_backs/set2/orange.gif","img/card_backs/set2/blue.gif","""event"",""trial"",""time""
""fullscreenenter"",""1"",""12227""
","
","
","""event"",""trial"",""time""
""fullscreenenter"",""1"",""12227""
","
","","1265","","","","real_trial","2021-07-16 19:26:45.874","img/card_backs/set1/green.gif","1","-230","1","",""
"casino-fixation","82","391882","0.0-25.0-0.6","A115","false","img/card_backs/set1/purple.gif","img/card_backs/set1/green.gif","img/card_backs/set1/red.gif","img/card_backs/set1/yellow.gif","img/card_backs/set2/gray.gif","img/card_backs/set2/pink.gif","img/card_backs/set2/orange.gif","img/card_backs/set2/blue.gif","""event"",""trial"",""time""
""fullscreenenter"",""1"",""12227""
","
","
","""event"",""trial"",""time""
""fullscreenenter"",""1"",""12227""
","
","","null","","null","","fixation","2021-07-16 19:26:46.377","","","","","",""
"card-selection-trial","83","394837","0.0-25.0-1.6","A115","false","img/card_backs/set1/purple.gif","img/card_backs/set1/green.gif","img/card_backs/set1/red.gif","img/card_backs/set1/yellow.gif","img/card_backs/set2/gray.gif","img/card_backs/set2/pink.gif","img/card_backs/set2/orange.gif","img/card_backs/set2/blue.gif","""event"",""trial"",""time""
""fullscreenenter"",""1"",""12227""
","
","
","""event"",""trial"",""time""
""fullscreenenter"",""1"",""12227""
","
","","951","","","","real_trial","2021-07-16 19:26:49.332","img/card_backs/set1/yellow.gif","0","-60","1","",""
"casino-fixation","84","395339","0.0-25.0-0.7","A115","false","img/card_backs/set1/purple.gif","img/card_backs/set1/green.gif","img/card_backs/set1/red.gif","img/card_backs/set1/yellow.gif","img/card_backs/set2/gray.gif","img/card_backs/set2/pink.gif","img/card_backs/set2/orange.gif","img/card_backs/set2/blue.gif","""event"",""trial"",""time""
""fullscreenenter"",""1"",""12227""
","
","
","""event"",""trial"",""time""
""fullscreenenter"",""1"",""12227""
","
","","null","","null","","fixation","2021-07-16 19:26:49.834","","","","","",""
"card-selection-trial","85","399094","0.0-25.0-1.7","A115","false","img/card_backs/set1/purple.gif","img/card_backs/set1/green.gif","img/card_backs/set1/red.gif","img/card_backs/set1/yellow.gif","img/card_backs/set2/gray.gif","img/card_backs/set2/pink.gif","img/card_backs/set2/orange.gif","img/card_backs/set2/blue.gif","""event"",""trial"",""time""
""fullscreenenter"",""1"",""12227""
","
","
","""event"",""trial"",""time""
""fullscreenenter"",""1"",""12227""
","
","","1751","","","","real_trial","2021-07-16 19:26:53.589","img/card_backs/set1/green.gif","0","200","1","",""
"casino-fixation","86","399596","0.0-25.0-0.8","A115","false","img/card_backs/set1/purple.gif","img/card_backs/set1/green.gif","img/card_backs/set1/red.gif","img/card_backs/set1/yellow.gif","img/card_backs/set2/gray.gif","img/card_backs/set2/pink.gif","img/card_backs/set2/orange.gif","img/card_backs/set2/blue.gif","""event"",""trial"",""time""
""fullscreenenter"",""1"",""12227""
","
","
","""event"",""trial"",""time""
""fullscreenenter"",""1"",""12227""
","
","","null","","null","","fixation","2021-07-16 19:26:54.091","","","","","",""
"card-selection-trial","87","402592","0.0-25.0-1.8","A115","false","img/card_backs/set1/purple.gif","img/card_backs/set1/green.gif","img/card_backs/set1/red.gif","img/card_backs/set1/yellow.gif","img/card_backs/set2/gray.gif","img/card_backs/set2/pink.gif","img/card_backs/set2/orange.gif","img/card_backs/set2/blue.gif","""event"",""trial"",""time""
""fullscreenenter"",""1"",""12227""
","
","
","""event"",""trial"",""time""
""fullscreenenter"",""1"",""12227""
","
","","993","","","","real_trial","2021-07-16 19:26:57.087","img/card_backs/set1/red.gif","3","110","1","",""
"casino-fixation","88","403094","0.0-25.0-0.9","A115","false","img/card_backs/set1/purple.gif","img/card_backs/set1/green.gif","img/card_backs/set1/red.gif","img/card_backs/set1/yellow.gif","img/card_backs/set2/gray.gif","img/card_backs/set2/pink.gif","img/card_backs/set2/orange.gif","img/card_backs/set2/blue.gif","""event"",""trial"",""time""
""fullscreenenter"",""1"",""12227""
","
","
","""event"",""trial"",""time""
""fullscreenenter"",""1"",""12227""
","
","","null","","null","","fixation","2021-07-16 19:26:57.589","","","","","",""
"card-selection-trial","89","406256","0.0-25.0-1.9","A115","false","img/card_backs/set1/purple.gif","img/card_backs/set1/green.gif","img/card_backs/set1/red.gif","img/card_backs/set1/yellow.gif","img/card_backs/set2/gray.gif","img/card_backs/set2/pink.gif","img/card_backs/set2/orange.gif","img/card_backs/set2/blue.gif","""event"",""trial"",""time""
""fullscreenenter"",""1"",""12227""
","
","
","""event"",""trial"",""time""
""fullscreenenter"",""1"",""12227""
","
","","1158","","","","real_trial","2021-07-16 19:27:00.751","img/card_backs/set1/red.gif","1","120","1","",""
"casino-fixation","90","406759","0.0-25.0-0.10","A115","false","img/card_backs/set1/purple.gif","img/card_backs/set1/green.gif","img/card_backs/set1/red.gif","img/card_backs/set1/yellow.gif","img/card_backs/set2/gray.gif","img/card_backs/set2/pink.gif","img/card_backs/set2/orange.gif","img/card_backs/set2/blue.gif","""event"",""trial"",""time""
""fullscreenenter"",""1"",""12227""
","
","
","""event"",""trial"",""time""
""fullscreenenter"",""1"",""12227""
","
","","null","","null","","fixation","2021-07-16 19:27:01.254","","","","","",""
"card-selection-trial","91","409911","0.0-25.0-1.10","A115","false","img/card_backs/set1/purple.gif","img/card_backs/set1/green.gif","img/card_backs/set1/red.gif","img/card_backs/set1/yellow.gif","img/card_backs/set2/gray.gif","img/card_backs/set2/pink.gif","img/card_backs/set2/orange.gif","img/card_backs/set2/blue.gif","""event"",""trial"",""time""
""fullscreenenter"",""1"",""12227""
","
","
","""event"",""trial"",""time""
""fullscreenenter"",""1"",""12227""
","
","","1149","","","","real_trial","2021-07-16 19:27:04.406","img/card_backs/set1/green.gif","3","-250","1","",""
"casino-fixation","92","410412","0.0-25.0-0.11","A115","false","img/card_backs/set1/purple.gif","img/card_backs/set1/green.gif","img/card_backs/set1/red.gif","img/card_backs/set1/yellow.gif","img/card_backs/set2/gray.gif","img/card_backs/set2/pink.gif","img/card_backs/set2/orange.gif","img/card_backs/set2/blue.gif","""event"",""trial"",""time""
""fullscreenenter"",""1"",""12227""
","
","
","""event"",""trial"",""time""
""fullscreenenter"",""1"",""12227""
","
","","null","","null","","fixation","2021-07-16 19:27:04.907","","","","","",""
"card-selection-trial","93","413709","0.0-25.0-1.11","A115","false","img/card_backs/set1/purple.gif","img/card_backs/set1/green.gif","img/card_backs/set1/red.gif","img/card_backs/set1/yellow.gif","img/card_backs/set2/gray.gif","img/card_backs/set2/pink.gif","img/card_backs/set2/orange.gif","img/card_backs/set2/blue.gif","""event"",""trial"",""time""
""fullscreenenter"",""1"",""12227""
","
","
","""event"",""trial"",""time""
""fullscreenenter"",""1"",""12227""
","
","","1294","","","","real_trial","2021-07-16 19:27:08.204","img/card_backs/set1/red.gif","0","-50","1","",""
"casino-fixation","94","414211","0.0-25.0-0.12","A115","false","img/card_backs/set1/purple.gif","img/card_backs/set1/green.gif","img/card_backs/set1/red.gif","img/card_backs/set1/yellow.gif","img/card_backs/set2/gray.gif","img/card_backs/set2/pink.gif","img/card_backs/set2/orange.gif","img/card_backs/set2/blue.gif","""event"",""trial"",""time""
""fullscreenenter"",""1"",""12227""
","
","
","""event"",""trial"",""time""
""fullscreenenter"",""1"",""12227""
","
","","null","","null","","fixation","2021-07-16 19:27:08.706","","","","","",""
"card-selection-trial","95","417297","0.0-25.0-1.12","A115","false","img/card_backs/set1/purple.gif","img/card_backs/set1/green.gif","img/card_backs/set1/red.gif","img/card_backs/set1/yellow.gif","img/card_backs/set2/gray.gif","img/card_backs/set2/pink.gif","img/card_backs/set2/orange.gif","img/card_backs/set2/blue.gif","""event"",""trial"",""time""
""fullscreenenter"",""1"",""12227""
","
","
","""event"",""trial"",""time""
""fullscreenenter"",""1"",""12227""
","
","","1082","","","","real_trial","2021-07-16 19:27:11.792","img/card_backs/set1/red.gif","1","-70","1","",""
"casino-fixation","96","417798","0.0-25.0-0.13","A115","false","img/card_backs/set1/purple.gif","img/card_backs/set1/green.gif","img/card_backs/set1/red.gif","img/card_backs/set1/yellow.gif","img/card_backs/set2/gray.gif","img/card_backs/set2/pink.gif","img/card_backs/set2/orange.gif","img/card_backs/set2/blue.gif","""event"",""trial"",""time""
""fullscreenenter"",""1"",""12227""
","
","
","""event"",""trial"",""time""
""fullscreenenter"",""1"",""12227""
","
","","null","","null","","fixation","2021-07-16 19:27:12.294","","","","","",""
"card-selection-trial","97","420701","0.0-25.0-1.13","A115","false","img/card_backs/set1/purple.gif","img/card_backs/set1/green.gif","img/card_backs/set1/red.gif","img/card_backs/set1/yellow.gif","img/card_backs/set2/gray.gif","img/card_backs/set2/pink.gif","img/card_backs/set2/orange.gif","img/card_backs/set2/blue.gif","""event"",""trial"",""time""
""fullscreenenter"",""1"",""12227""
","
","
","""event"",""trial"",""time""
""fullscreenenter"",""1"",""12227""
","
","","898","","","","real_trial","2021-07-16 19:27:15.196","img/card_backs/set1/red.gif","0","-60","1","",""
"casino-fixation","98","421203","0.0-25.0-0.14","A115","false","img/card_backs/set1/purple.gif","img/card_backs/set1/green.gif","img/card_backs/set1/red.gif","img/card_backs/set1/yellow.gif","img/card_backs/set2/gray.gif","img/card_backs/set2/pink.gif","img/card_backs/set2/orange.gif","img/card_backs/set2/blue.gif","""event"",""trial"",""time""
""fullscreenenter"",""1"",""12227""
","
","
","""event"",""trial"",""time""
""fullscreenenter"",""1"",""12227""
","
","","null","","null","","fixation","2021-07-16 19:27:15.698","","","","","",""
"card-selection-trial","99","424431","0.0-25.0-1.14","A115","false","img/card_backs/set1/purple.gif","img/card_backs/set1/green.gif","img/card_backs/set1/red.gif","img/card_backs/set1/yellow.gif","img/card_backs/set2/gray.gif","img/card_backs/set2/pink.gif","img/card_backs/set2/orange.gif","img/card_backs/set2/blue.gif","""event"",""trial"",""time""
""fullscreenenter"",""1"",""12227""
","
","
","""event"",""trial"",""time""
""fullscreenenter"",""1"",""12227""
","
","","1225","","","","real_trial","2021-07-16 19:27:18.926","img/card_backs/set1/purple.gif","0","-230","1","",""
"casino-fixation","100","424933","0.0-25.0-0.15","A115","false","img/card_backs/set1/purple.gif","img/card_backs/set1/green.gif","img/card_backs/set1/red.gif","img/card_backs/set1/yellow.gif","img/card_backs/set2/gray.gif","img/card_backs/set2/pink.gif","img/card_backs/set2/orange.gif","img/card_backs/set2/blue.gif","""event"",""trial"",""time""
""fullscreenenter"",""1"",""12227""
","
","
","""event"",""trial"",""time""
""fullscreenenter"",""1"",""12227""
","
","","null","","null","","fixation","2021-07-16 19:27:19.428","","","","","",""
"card-selection-trial","101","428824","0.0-25.0-1.15","A115","false","img/card_backs/set1/purple.gif","img/card_backs/set1/green.gif","img/card_backs/set1/red.gif","img/card_backs/set1/yellow.gif","img/card_backs/set2/gray.gif","img/card_backs/set2/pink.gif","img/card_backs/set2/orange.gif","img/card_backs/set2/blue.gif","""event"",""trial"",""time""
""fullscreenenter"",""1"",""12227""
","
","
","""event"",""trial"",""time""
""fullscreenenter"",""1"",""12227""
","
","","1887","","","","real_trial","2021-07-16 19:27:23.319","img/card_backs/set1/yellow.gif","3","110","1","",""
"casino-fixation","102","429327","0.0-25.0-0.16","A115","false","img/card_backs/set1/purple.gif","img/card_backs/set1/green.gif","img/card_backs/set1/red.gif","img/card_backs/set1/yellow.gif","img/card_backs/set2/gray.gif","img/card_backs/set2/pink.gif","img/card_backs/set2/orange.gif","img/card_backs/set2/blue.gif","""event"",""trial"",""time""
""fullscreenenter"",""1"",""12227""
","
","
","""event"",""trial"",""time""
""fullscreenenter"",""1"",""12227""
","
","","null","","null","","fixation","2021-07-16 19:27:23.822","","","","","",""
"card-selection-trial","103","432022","0.0-25.0-1.16","A115","false","img/card_backs/set1/purple.gif","img/card_backs/set1/green.gif","img/card_backs/set1/red.gif","img/card_backs/set1/yellow.gif","img/card_backs/set2/gray.gif","img/card_backs/set2/pink.gif","img/card_backs/set2/orange.gif","img/card_backs/set2/blue.gif","""event"",""trial"",""time""
""fullscreenenter"",""1"",""12227""
","
","
","""event"",""trial"",""time""
""fullscreenenter"",""1"",""12227""
","
","","691","","","","real_trial","2021-07-16 19:27:26.517","img/card_backs/set1/yellow.gif","3","100","1","",""
"casino-fixation","104","432524","0.0-25.0-0.17","A115","false","img/card_backs/set1/purple.gif","img/card_backs/set1/green.gif","img/card_backs/set1/red.gif","img/card_backs/set1/yellow.gif","img/card_backs/set2/gray.gif","img/card_backs/set2/pink.gif","img/card_backs/set2/orange.gif","img/card_backs/set2/blue.gif","""event"",""trial"",""time""
""fullscreenenter"",""1"",""12227""
","
","
","""event"",""trial"",""time""
""fullscreenenter"",""1"",""12227""
","
","","null","","null","","fixation","2021-07-16 19:27:27.019","","","","","",""
"card-selection-trial","105","435485","0.0-25.0-1.17","A115","false","img/card_backs/set1/purple.gif","img/card_backs/set1/green.gif","img/card_backs/set1/red.gif","img/card_backs/set1/yellow.gif","img/card_backs/set2/gray.gif","img/card_backs/set2/pink.gif","img/card_backs/set2/orange.gif","img/card_backs/set2/blue.gif","""event"",""trial"",""time""
""fullscreenenter"",""1"",""12227""
","
","
","""event"",""trial"",""time""
""fullscreenenter"",""1"",""12227""
","
","","956","","","","real_trial","2021-07-16 19:27:29.980","img/card_backs/set1/yellow.gif","2","-70","1","",""
"casino-fixation","106","435987","0.0-25.0-0.18","A115","false","img/card_backs/set1/purple.gif","img/card_backs/set1/green.gif","img/card_backs/set1/red.gif","img/card_backs/set1/yellow.gif","img/card_backs/set2/gray.gif","img/card_backs/set2/pink.gif","img/card_backs/set2/orange.gif","img/card_backs/set2/blue.gif","""event"",""trial"",""time""
""fullscreenenter"",""1"",""12227""
","
","
","""event"",""trial"",""time""
""fullscreenenter"",""1"",""12227""
","
","","null","","null","","fixation","2021-07-16 19:27:30.482","","","","","",""
"card-selection-trial","107","438954","0.0-25.0-1.18","A115","false","img/card_backs/set1/purple.gif","img/card_backs/set1/green.gif","img/card_backs/set1/red.gif","img/card_backs/set1/yellow.gif","img/card_backs/set2/gray.gif","img/card_backs/set2/pink.gif","img/card_backs/set2/orange.gif","img/card_backs/set2/blue.gif","""event"",""trial"",""time""
""fullscreenenter"",""1"",""12227""
","
","
","""event"",""trial"",""time""
""fullscreenenter"",""1"",""12227""
","
","","962","","","","real_trial","2021-07-16 19:27:33.449","img/card_backs/set1/yellow.gif","0","110","1","",""
"casino-fixation","108","439456","0.0-25.0-0.19","A115","false","img/card_backs/set1/purple.gif","img/card_backs/set1/green.gif","img/card_backs/set1/red.gif","img/card_backs/set1/yellow.gif","img/card_backs/set2/gray.gif","img/card_backs/set2/pink.gif","img/card_backs/set2/orange.gif","img/card_backs/set2/blue.gif","""event"",""trial"",""time""
""fullscreenenter"",""1"",""12227""
","
","
","""event"",""trial"",""time""
""fullscreenenter"",""1"",""12227""
","
","","null","","null","","fixation","2021-07-16 19:27:33.951","","","","","",""
"card-selection-trial","109","442320","0.0-25.0-1.19","A115","false","img/card_backs/set1/purple.gif","img/card_backs/set1/green.gif","img/card_backs/set1/red.gif","img/card_backs/set1/yellow.gif","img/card_backs/set2/gray.gif","img/card_backs/set2/pink.gif","img/card_backs/set2/orange.gif","img/card_backs/set2/blue.gif","""event"",""trial"",""time""
""fullscreenenter"",""1"",""12227""
","
","
","""event"",""trial"",""time""
""fullscreenenter"",""1"",""12227""
","
","","861","","","","real_trial","2021-07-16 19:27:36.815","img/card_backs/set1/yellow.gif","2","-50","1","",""
"casino-fixation","110","442822","0.0-25.0-0.20","A115","false","img/card_backs/set1/purple.gif","img/card_backs/set1/green.gif","img/card_backs/set1/red.gif","img/card_backs/set1/yellow.gif","img/card_backs/set2/gray.gif","img/card_backs/set2/pink.gif","img/card_backs/set2/orange.gif","img/card_backs/set2/blue.gif","""event"",""trial"",""time""
""fullscreenenter"",""1"",""12227""
","
","
","""event"",""trial"",""time""
""fullscreenenter"",""1"",""12227""
","
","","null","","null","","fixation","2021-07-16 19:27:37.317","","","","","",""
"card-selection-trial","111","446291","0.0-25.0-1.20","A115","false","img/card_backs/set1/purple.gif","img/card_backs/set1/green.gif","img/card_backs/set1/red.gif","img/card_backs/set1/yellow.gif","img/card_backs/set2/gray.gif","img/card_backs/set2/pink.gif","img/card_backs/set2/orange.gif","img/card_backs/set2/blue.gif","""event"",""trial"",""time""
""fullscreenenter"",""1"",""12227""
","
","
","""event"",""trial"",""time""
""fullscreenenter"",""1"",""12227""
","
","","1465","","","","real_trial","2021-07-16 19:27:40.786","img/card_backs/set1/red.gif","0","120","1","",""
"casino-fixation","112","446793","0.0-25.0-0.21","A115","false","img/card_backs/set1/purple.gif","img/card_backs/set1/green.gif","img/card_backs/set1/red.gif","img/card_backs/set1/yellow.gif","img/card_backs/set2/gray.gif","img/card_backs/set2/pink.gif","img/card_backs/set2/orange.gif","img/card_backs/set2/blue.gif","""event"",""trial"",""time""
""fullscreenenter"",""1"",""12227""
","
","
","""event"",""trial"",""time""
""fullscreenenter"",""1"",""12227""
","
","","null","","null","","fixation","2021-07-16 19:27:41.288","","","","","",""
"card-selection-trial","113","450117","0.0-25.0-1.21","A115","false","img/card_backs/set1/purple.gif","img/card_backs/set1/green.gif","img/card_backs/set1/red.gif","img/card_backs/set1/yellow.gif","img/card_backs/set2/gray.gif","img/card_backs/set2/pink.gif","img/card_backs/set2/orange.gif","img/card_backs/set2/blue.gif","""event"",""trial"",""time""
""fullscreenenter"",""1"",""12227""
","
","
","""event"",""trial"",""time""
""fullscreenenter"",""1"",""12227""
","
","","1320","","","","real_trial","2021-07-16 19:27:44.612","img/card_backs/set1/green.gif","3","180","1","",""
"casino-fixation","114","450619","0.0-25.0-0.22","A115","false","img/card_backs/set1/purple.gif","img/card_backs/set1/green.gif","img/card_backs/set1/red.gif","img/card_backs/set1/yellow.gif","img/card_backs/set2/gray.gif","img/card_backs/set2/pink.gif","img/card_backs/set2/orange.gif","img/card_backs/set2/blue.gif","""event"",""trial"",""time""
""fullscreenenter"",""1"",""12227""
","
","
","""event"",""trial"",""time""
""fullscreenenter"",""1"",""12227""
","
","","null","","null","","fixation","2021-07-16 19:27:45.114","","","","","",""
"card-selection-trial","115","453627","0.0-25.0-1.22","A115","false","img/card_backs/set1/purple.gif","img/card_backs/set1/green.gif","img/card_backs/set1/red.gif","img/card_backs/set1/yellow.gif","img/card_backs/set2/gray.gif","img/card_backs/set2/pink.gif","img/card_backs/set2/orange.gif","img/card_backs/set2/blue.gif","""event"",""trial"",""time""
""fullscreenenter"",""1"",""12227""
","
","
","""event"",""trial"",""time""
""fullscreenenter"",""1"",""12227""
","
","","1004","","","","real_trial","2021-07-16 19:27:48.122","img/card_backs/set1/red.gif","2","110","1","",""
"casino-fixation","116","454129","0.0-25.0-0.23","A115","false","img/card_backs/set1/purple.gif","img/card_backs/set1/green.gif","img/card_backs/set1/red.gif","img/card_backs/set1/yellow.gif","img/card_backs/set2/gray.gif","img/card_backs/set2/pink.gif","img/card_backs/set2/orange.gif","img/card_backs/set2/blue.gif","""event"",""trial"",""time""
""fullscreenenter"",""1"",""12227""
","
","
","""event"",""trial"",""time""
""fullscreenenter"",""1"",""12227""
","
","","null","","null","","fixation","2021-07-16 19:27:48.624","","","","","",""
"card-selection-trial","117","457129","0.0-25.0-1.23","A115","false","img/card_backs/set1/purple.gif","img/card_backs/set1/green.gif","img/card_backs/set1/red.gif","img/card_backs/set1/yellow.gif","img/card_backs/set2/gray.gif","img/card_backs/set2/pink.gif","img/card_backs/set2/orange.gif","img/card_backs/set2/blue.gif","""event"",""trial"",""time""
""fullscreenenter"",""1"",""12227""
","
","
","""event"",""trial"",""time""
""fullscreenenter"",""1"",""12227""
","
","","995.9999999999418","","","","real_trial","2021-07-16 19:27:51.624","img/card_backs/set1/red.gif","3","-60","1","",""
"casino-fixation","118","457631","0.0-25.0-0.24","A115","false","img/card_backs/set1/purple.gif","img/card_backs/set1/green.gif","img/card_backs/set1/red.gif","img/card_backs/set1/yellow.gif","img/card_backs/set2/gray.gif","img/card_backs/set2/pink.gif","img/card_backs/set2/orange.gif","img/card_backs/set2/blue.gif","""event"",""trial"",""time""
""fullscreenenter"",""1"",""12227""
","
","
","""event"",""trial"",""time""
""fullscreenenter"",""1"",""12227""
","
","","null","","null","","fixation","2021-07-16 19:27:52.127","","","","","",""
"card-selection-trial","119","460872","0.0-25.0-1.24","A115","false","img/card_backs/set1/purple.gif","img/card_backs/set1/green.gif","img/card_backs/set1/red.gif","img/card_backs/set1/yellow.gif","img/card_backs/set2/gray.gif","img/card_backs/set2/pink.gif","img/card_backs/set2/orange.gif","img/card_backs/set2/blue.gif","""event"",""trial"",""time""
""fullscreenenter"",""1"",""12227""
","
","
","""event"",""trial"",""time""
""fullscreenenter"",""1"",""12227""
","
","","1238","","","","real_trial","2021-07-16 19:27:55.367","img/card_backs/set1/green.gif","0","-230","1","",""
"casino-fixation","120","461375","0.0-25.0-0.25","A115","false","img/card_backs/set1/purple.gif","img/card_backs/set1/green.gif","img/card_backs/set1/red.gif","img/card_backs/set1/yellow.gif","img/card_backs/set2/gray.gif","img/card_backs/set2/pink.gif","img/card_backs/set2/orange.gif","img/card_backs/set2/blue.gif","""event"",""trial"",""time""
""fullscreenenter"",""1"",""12227""
","
","
","""event"",""trial"",""time""
""fullscreenenter"",""1"",""12227""
","
","","null","","null","","fixation","2021-07-16 19:27:55.870","","","","","",""
"card-selection-trial","121","463975","0.0-25.0-1.25","A115","false","img/card_backs/set1/purple.gif","img/card_backs/set1/green.gif","img/card_backs/set1/red.gif","img/card_backs/set1/yellow.gif","img/card_backs/set2/gray.gif","img/card_backs/set2/pink.gif","img/card_backs/set2/orange.gif","img/card_backs/set2/blue.gif","""event"",""trial"",""time""
""fullscreenenter"",""1"",""12227""
","
","
","""event"",""trial"",""time""
""fullscreenenter"",""1"",""12227""
","
","","596","","","","real_trial","2021-07-16 19:27:58.470","img/card_backs/set1/yellow.gif","0","100","1","",""
"casino-fixation","122","464478","0.0-25.0-0.26","A115","false","img/card_backs/set1/purple.gif","img/card_backs/set1/green.gif","img/card_backs/set1/red.gif","img/card_backs/set1/yellow.gif","img/card_backs/set2/gray.gif","img/card_backs/set2/pink.gif","img/card_backs/set2/orange.gif","img/card_backs/set2/blue.gif","""event"",""trial"",""time""
""fullscreenenter"",""1"",""12227""
","
","
","""event"",""trial"",""time""
""fullscreenenter"",""1"",""12227""
","
","","null","","null","","fixation","2021-07-16 19:27:58.973","","","","","",""
"card-selection-trial","123","467329","0.0-25.0-1.26","A115","false","img/card_backs/set1/purple.gif","img/card_backs/set1/green.gif","img/card_backs/set1/red.gif","img/card_backs/set1/yellow.gif","img/card_backs/set2/gray.gif","img/card_backs/set2/pink.gif","img/card_backs/set2/orange.gif","img/card_backs/set2/blue.gif","""event"",""trial"",""time""
""fullscreenenter"",""1"",""12227""
","
","
","""event"",""trial"",""time""
""fullscreenenter"",""1"",""12227""
","
","","848.0000000000582","","","","real_trial","2021-07-16 19:28:01.825","img/card_backs/set1/yellow.gif","2","120","1","",""
"casino-fixation","124","467832","0.0-25.0-0.27","A115","false","img/card_backs/set1/purple.gif","img/card_backs/set1/green.gif","img/card_backs/set1/red.gif","img/card_backs/set1/yellow.gif","img/card_backs/set2/gray.gif","img/card_backs/set2/pink.gif","img/card_backs/set2/orange.gif","img/card_backs/set2/blue.gif","""event"",""trial"",""time""
""fullscreenenter"",""1"",""12227""
","
","
","""event"",""trial"",""time""
""fullscreenenter"",""1"",""12227""
","
","","null","","null","","fixation","2021-07-16 19:28:02.327","","","","","",""
"card-selection-trial","125","470529","0.0-25.0-1.27","A115","false","img/card_backs/set1/purple.gif","img/card_backs/set1/green.gif","img/card_backs/set1/red.gif","img/card_backs/set1/yellow.gif","img/card_backs/set2/gray.gif","img/card_backs/set2/pink.gif","img/card_backs/set2/orange.gif","img/card_backs/set2/blue.gif","""event"",""trial"",""time""
""fullscreenenter"",""1"",""12227""
","
","
","""event"",""trial"",""time""
""fullscreenenter"",""1"",""12227""
","
","","693","","","","real_trial","2021-07-16 19:28:05.024","img/card_backs/set1/yellow.gif","2","-60","1","",""
"casino-fixation","126","471032","0.0-25.0-0.28","A115","false","img/card_backs/set1/purple.gif","img/card_backs/set1/green.gif","img/card_backs/set1/red.gif","img/card_backs/set1/yellow.gif","img/card_backs/set2/gray.gif","img/card_backs/set2/pink.gif","img/card_backs/set2/orange.gif","img/card_backs/set2/blue.gif","""event"",""trial"",""time""
""fullscreenenter"",""1"",""12227""
","
","
","""event"",""trial"",""time""
""fullscreenenter"",""1"",""12227""
","
","","null","","null","","fixation","2021-07-16 19:28:05.527","","","","","",""
"card-selection-trial","127","473529","0.0-25.0-1.28","A115","false","img/card_backs/set1/purple.gif","img/card_backs/set1/green.gif","img/card_backs/set1/red.gif","img/card_backs/set1/yellow.gif","img/card_backs/set2/gray.gif","img/card_backs/set2/pink.gif","img/card_backs/set2/orange.gif","img/card_backs/set2/blue.gif","""event"",""trial"",""time""
""fullscreenenter"",""1"",""12227""
","
","
","""event"",""trial"",""time""
""fullscreenenter"",""1"",""12227""
","
","","494","","","","real_trial","2021-07-16 19:28:08.024","img/card_backs/set1/yellow.gif","2","100","1","",""
"casino-fixation","128","474031","0.0-25.0-0.29","A115","false","img/card_backs/set1/purple.gif","img/card_backs/set1/green.gif","img/card_backs/set1/red.gif","img/card_backs/set1/yellow.gif","img/card_backs/set2/gray.gif","img/card_backs/set2/pink.gif","img/card_backs/set2/orange.gif","img/card_backs/set2/blue.gif","""event"",""trial"",""time""
""fullscreenenter"",""1"",""12227""
","
","
","""event"",""trial"",""time""
""fullscreenenter"",""1"",""12227""
","
","","null","","null","","fixation","2021-07-16 19:28:08.526","","","","","",""
"card-selection-trial","129","477369","0.0-25.0-1.29","A115","false","img/card_backs/set1/purple.gif","img/card_backs/set1/green.gif","img/card_backs/set1/red.gif","img/card_backs/set1/yellow.gif","img/card_backs/set2/gray.gif","img/card_backs/set2/pink.gif","img/card_backs/set2/orange.gif","img/card_backs/set2/blue.gif","""event"",""trial"",""time""
""fullscreenenter"",""1"",""12227""
","
","
","""event"",""trial"",""time""
""fullscreenenter"",""1"",""12227""
","
","","1334","","","","real_trial","2021-07-16 19:28:11.864","img/card_backs/set1/red.gif","2","100","1","",""
"casino-fixation","130","477871","0.0-25.0-0.30","A115","false","img/card_backs/set1/purple.gif","img/card_backs/set1/green.gif","img/card_backs/set1/red.gif","img/card_backs/set1/yellow.gif","img/card_backs/set2/gray.gif","img/card_backs/set2/pink.gif","img/card_backs/set2/orange.gif","img/card_backs/set2/blue.gif","""event"",""trial"",""time""
""fullscreenenter"",""1"",""12227""
","
","
","""event"",""trial"",""time""
""fullscreenenter"",""1"",""12227""
","
","","null","","null","","fixation","2021-07-16 19:28:12.366","","","","","",""
"card-selection-trial","131","482229","0.0-25.0-1.30","A115","false","img/card_backs/set1/purple.gif","img/card_backs/set1/green.gif","img/card_backs/set1/red.gif","img/card_backs/set1/yellow.gif","img/card_backs/set2/gray.gif","img/card_backs/set2/pink.gif","img/card_backs/set2/orange.gif","img/card_backs/set2/blue.gif","""event"",""trial"",""time""
""fullscreenenter"",""1"",""12227""
","
","
","""event"",""trial"",""time""
""fullscreenenter"",""1"",""12227""
","
","","2354.000000000058","","","","real_trial","2021-07-16 19:28:16.724","img/card_backs/set1/yellow.gif","3","-50","1","",""
"casino-fixation","132","482732","0.0-25.0-0.31","A115","false","img/card_backs/set1/purple.gif","img/card_backs/set1/green.gif","img/card_backs/set1/red.gif","img/card_backs/set1/yellow.gif","img/card_backs/set2/gray.gif","img/card_backs/set2/pink.gif","img/card_backs/set2/orange.gif","img/card_backs/set2/blue.gif","""event"",""trial"",""time""
""fullscreenenter"",""1"",""12227""
","
","
","""event"",""trial"",""time""
""fullscreenenter"",""1"",""12227""
","
","","null","","null","","fixation","2021-07-16 19:28:17.227","","","","","",""
"card-selection-trial","133","485844","0.0-25.0-1.31","A115","false","img/card_backs/set1/purple.gif","img/card_backs/set1/green.gif","img/card_backs/set1/red.gif","img/card_backs/set1/yellow.gif","img/card_backs/set2/gray.gif","img/card_backs/set2/pink.gif","img/card_backs/set2/orange.gif","img/card_backs/set2/blue.gif","""event"",""trial"",""time""
""fullscreenenter"",""1"",""12227""
","
","
","""event"",""trial"",""time""
""fullscreenenter"",""1"",""12227""
","
","","1107.9999999999418","","","","real_trial","2021-07-16 19:28:20.339","img/card_backs/set1/red.gif","0","-60","1","",""
"casino-fixation","134","486346","0.0-25.0-0.32","A115","false","img/card_backs/set1/purple.gif","img/card_backs/set1/green.gif","img/card_backs/set1/red.gif","img/card_backs/set1/yellow.gif","img/card_backs/set2/gray.gif","img/card_backs/set2/pink.gif","img/card_backs/set2/orange.gif","img/card_backs/set2/blue.gif","""event"",""trial"",""time""
""fullscreenenter"",""1"",""12227""
","
","
","""event"",""trial"",""time""
""fullscreenenter"",""1"",""12227""
","
","","null","","null","","fixation","2021-07-16 19:28:20.841","","","","","",""
"card-selection-trial","135","489748","0.0-25.0-1.32","A115","false","img/card_backs/set1/purple.gif","img/card_backs/set1/green.gif","img/card_backs/set1/red.gif","img/card_backs/set1/yellow.gif","img/card_backs/set2/gray.gif","img/card_backs/set2/pink.gif","img/card_backs/set2/orange.gif","img/card_backs/set2/blue.gif","""event"",""trial"",""time""
""fullscreenenter"",""1"",""12227""
","
","
","""event"",""trial"",""time""
""fullscreenenter"",""1"",""12227""
","
","","1397","","","","real_trial","2021-07-16 19:28:24.243","img/card_backs/set1/green.gif","2","-240","1","",""
"casino-fixation","136","490250","0.0-25.0-0.33","A115","false","img/card_backs/set1/purple.gif","img/card_backs/set1/green.gif","img/card_backs/set1/red.gif","img/card_backs/set1/yellow.gif","img/card_backs/set2/gray.gif","img/card_backs/set2/pink.gif","img/card_backs/set2/orange.gif","img/card_backs/set2/blue.gif","""event"",""trial"",""time""
""fullscreenenter"",""1"",""12227""
","
","
","""event"",""trial"",""time""
""fullscreenenter"",""1"",""12227""
","
","","null","","null","","fixation","2021-07-16 19:28:24.745","","","","","",""
"card-selection-trial","137","493094","0.0-25.0-1.33","A115","false","img/card_backs/set1/purple.gif","img/card_backs/set1/green.gif","img/card_backs/set1/red.gif","img/card_backs/set1/yellow.gif","img/card_backs/set2/gray.gif","img/card_backs/set2/pink.gif","img/card_backs/set2/orange.gif","img/card_backs/set2/blue.gif","""event"",""trial"",""time""
""fullscreenenter"",""1"",""12227""
","
","
","""event"",""trial"",""time""
""fullscreenenter"",""1"",""12227""
","
","","839","","","","real_trial","2021-07-16 19:28:27.589","img/card_backs/set1/yellow.gif","3","-50","1","",""
"casino-fixation","138","493595","0.0-25.0-0.34","A115","false","img/card_backs/set1/purple.gif","img/card_backs/set1/green.gif","img/card_backs/set1/red.gif","img/card_backs/set1/yellow.gif","img/card_backs/set2/gray.gif","img/card_backs/set2/pink.gif","img/card_backs/set2/orange.gif","img/card_backs/set2/blue.gif","""event"",""trial"",""time""
""fullscreenenter"",""1"",""12227""
","
","
","""event"",""trial"",""time""
""fullscreenenter"",""1"",""12227""
","
","","null","","null","","fixation","2021-07-16 19:28:28.090","","","","","",""
"card-selection-trial","139","496497","0.0-25.0-1.34","A115","false","img/card_backs/set1/purple.gif","img/card_backs/set1/green.gif","img/card_backs/set1/red.gif","img/card_backs/set1/yellow.gif","img/card_backs/set2/gray.gif","img/card_backs/set2/pink.gif","img/card_backs/set2/orange.gif","img/card_backs/set2/blue.gif","""event"",""trial"",""time""
""fullscreenenter"",""1"",""12227""
","
","
","""event"",""trial"",""time""
""fullscreenenter"",""1"",""12227""
","
","","896.9999999999418","","","","real_trial","2021-07-16 19:28:30.992","img/card_backs/set1/purple.gif","0","-230","1","",""
"casino-fixation","140","496998","0.0-25.0-0.35","A115","false","img/card_backs/set1/purple.gif","img/card_backs/set1/green.gif","img/card_backs/set1/red.gif","img/card_backs/set1/yellow.gif","img/card_backs/set2/gray.gif","img/card_backs/set2/pink.gif","img/card_backs/set2/orange.gif","img/card_backs/set2/blue.gif","""event"",""trial"",""time""
""fullscreenenter"",""1"",""12227""
","
","
","""event"",""trial"",""time""
""fullscreenenter"",""1"",""12227""
","
","","null","","null","","fixation","2021-07-16 19:28:31.493","","","","","",""
"card-selection-trial","141","500040","0.0-25.0-1.35","A115","false","img/card_backs/set1/purple.gif","img/card_backs/set1/green.gif","img/card_backs/set1/red.gif","img/card_backs/set1/yellow.gif","img/card_backs/set2/gray.gif","img/card_backs/set2/pink.gif","img/card_backs/set2/orange.gif","img/card_backs/set2/blue.gif","""event"",""trial"",""time""
""fullscreenenter"",""1"",""12227""
","
","
","""event"",""trial"",""time""
""fullscreenenter"",""1"",""12227""
","
","","1038","","","","real_trial","2021-07-16 19:28:34.535","img/card_backs/set1/green.gif","1","-230","1","",""
"casino-fixation","142","500542","0.0-25.0-0.36","A115","false","img/card_backs/set1/purple.gif","img/card_backs/set1/green.gif","img/card_backs/set1/red.gif","img/card_backs/set1/yellow.gif","img/card_backs/set2/gray.gif","img/card_backs/set2/pink.gif","img/card_backs/set2/orange.gif","img/card_backs/set2/blue.gif","""event"",""trial"",""time""
""fullscreenenter"",""1"",""12227""
","
","
","""event"",""trial"",""time""
""fullscreenenter"",""1"",""12227""
","
","","null","","null","","fixation","2021-07-16 19:28:35.037","","","","","",""
"card-selection-trial","143","503331","0.0-25.0-1.36","A115","false","img/card_backs/set1/purple.gif","img/card_backs/set1/green.gif","img/card_backs/set1/red.gif","img/card_backs/set1/yellow.gif","img/card_backs/set2/gray.gif","img/card_backs/set2/pink.gif","img/card_backs/set2/orange.gif","img/card_backs/set2/blue.gif","""event"",""trial"",""time""
""fullscreenenter"",""1"",""12227""
","
","
","""event"",""trial"",""time""
""fullscreenenter"",""1"",""12227""
","
","","784","","","","real_trial","2021-07-16 19:28:37.826","img/card_backs/set1/yellow.gif","2","-50","1","",""
"casino-fixation","144","503832","0.0-25.0-0.37","A115","false","img/card_backs/set1/purple.gif","img/card_backs/set1/green.gif","img/card_backs/set1/red.gif","img/card_backs/set1/yellow.gif","img/card_backs/set2/gray.gif","img/card_backs/set2/pink.gif","img/card_backs/set2/orange.gif","img/card_backs/set2/blue.gif","""event"",""trial"",""time""
""fullscreenenter"",""1"",""12227""
","
","
","""event"",""trial"",""time""
""fullscreenenter"",""1"",""12227""
","
","","null","","null","","fixation","2021-07-16 19:28:38.327","","","","","",""
"card-selection-trial","145","506608","0.0-25.0-1.37","A115","false","img/card_backs/set1/purple.gif","img/card_backs/set1/green.gif","img/card_backs/set1/red.gif","img/card_backs/set1/yellow.gif","img/card_backs/set2/gray.gif","img/card_backs/set2/pink.gif","img/card_backs/set2/orange.gif","img/card_backs/set2/blue.gif","""event"",""trial"",""time""
""fullscreenenter"",""1"",""12227""
","
","
","""event"",""trial"",""time""
""fullscreenenter"",""1"",""12227""
","
","","772.9999999999418","","","","real_trial","2021-07-16 19:28:41.104","img/card_backs/set1/red.gif","3","110","1","",""
"casino-fixation","146","507111","0.0-25.0-0.38","A115","false","img/card_backs/set1/purple.gif","img/card_backs/set1/green.gif","img/card_backs/set1/red.gif","img/card_backs/set1/yellow.gif","img/card_backs/set2/gray.gif","img/card_backs/set2/pink.gif","img/card_backs/set2/orange.gif","img/card_backs/set2/blue.gif","""event"",""trial"",""time""
""fullscreenenter"",""1"",""12227""
","
","
","""event"",""trial"",""time""
""fullscreenenter"",""1"",""12227""
","
","","null","","null","","fixation","2021-07-16 19:28:41.606","","","","","",""
"card-selection-trial","147","509955","0.0-25.0-1.38","A115","false","img/card_backs/set1/purple.gif","img/card_backs/set1/green.gif","img/card_backs/set1/red.gif","img/card_backs/set1/yellow.gif","img/card_backs/set2/gray.gif","img/card_backs/set2/pink.gif","img/card_backs/set2/orange.gif","img/card_backs/set2/blue.gif","""event"",""trial"",""time""
""fullscreenenter"",""1"",""12227""
","
","
","""event"",""trial"",""time""
""fullscreenenter"",""1"",""12227""
","
","","841.0000000000582","","","","real_trial","2021-07-16 19:28:44.450","img/card_backs/set1/red.gif","1","-60","1","",""
"casino-fixation","148","510457","0.0-25.0-0.39","A115","false","img/card_backs/set1/purple.gif","img/card_backs/set1/green.gif","img/card_backs/set1/red.gif","img/card_backs/set1/yellow.gif","img/card_backs/set2/gray.gif","img/card_backs/set2/pink.gif","img/card_backs/set2/orange.gif","img/card_backs/set2/blue.gif","""event"",""trial"",""time""
""fullscreenenter"",""1"",""12227""
","
","
","""event"",""trial"",""time""
""fullscreenenter"",""1"",""12227""
","
","","null","","null","","fixation","2021-07-16 19:28:44.952","","","","","",""
"card-selection-trial","149","513511","0.0-25.0-1.39","A115","false","img/card_backs/set1/purple.gif","img/card_backs/set1/green.gif","img/card_backs/set1/red.gif","img/card_backs/set1/yellow.gif","img/card_backs/set2/gray.gif","img/card_backs/set2/pink.gif","img/card_backs/set2/orange.gif","img/card_backs/set2/blue.gif","""event"",""trial"",""time""
""fullscreenenter"",""1"",""12227""
","
","
","""event"",""trial"",""time""
""fullscreenenter"",""1"",""12227""
","
","","1049.9999999999418","","","","real_trial","2021-07-16 19:28:48.006","img/card_backs/set1/yellow.gif","1","100","1","",""
"casino-fixation","150","514013","0.0-25.0-0.40","A115","false","img/card_backs/set1/purple.gif","img/card_backs/set1/green.gif","img/card_backs/set1/red.gif","img/card_backs/set1/yellow.gif","img/card_backs/set2/gray.gif","img/card_backs/set2/pink.gif","img/card_backs/set2/orange.gif","img/card_backs/set2/blue.gif","""event"",""trial"",""time""
""fullscreenenter"",""1"",""12227""
","
","
","""event"",""trial"",""time""
""fullscreenenter"",""1"",""12227""
","
","","null","","null","","fixation","2021-07-16 19:28:48.508","","","","","",""
"card-selection-trial","151","516649","0.0-25.0-1.40","A115","false","img/card_backs/set1/purple.gif","img/card_backs/set1/green.gif","img/card_backs/set1/red.gif","img/card_backs/set1/yellow.gif","img/card_backs/set2/gray.gif","img/card_backs/set2/pink.gif","img/card_backs/set2/orange.gif","img/card_backs/set2/blue.gif","""event"",""trial"",""time""
""fullscreenenter"",""1"",""12227""
","
","
","""event"",""trial"",""time""
""fullscreenenter"",""1"",""12227""
","
","","633","","","","real_trial","2021-07-16 19:28:51.145","img/card_backs/set1/yellow.gif","0","-50","1","",""
"casino-fixation","152","517152","0.0-25.0-0.41","A115","false","img/card_backs/set1/purple.gif","img/card_backs/set1/green.gif","img/card_backs/set1/red.gif","img/card_backs/set1/yellow.gif","img/card_backs/set2/gray.gif","img/card_backs/set2/pink.gif","img/card_backs/set2/orange.gif","img/card_backs/set2/blue.gif","""event"",""trial"",""time""
""fullscreenenter"",""1"",""12227""
","
","
","""event"",""trial"",""time""
""fullscreenenter"",""1"",""12227""
","
","","null","","null","","fixation","2021-07-16 19:28:51.647","","","","","",""
"card-selection-trial","153","520032","0.0-25.0-1.41","A115","false","img/card_backs/set1/purple.gif","img/card_backs/set1/green.gif","img/card_backs/set1/red.gif","img/card_backs/set1/yellow.gif","img/card_backs/set2/gray.gif","img/card_backs/set2/pink.gif","img/card_backs/set2/orange.gif","img/card_backs/set2/blue.gif","""event"",""trial"",""time""
""fullscreenenter"",""1"",""12227""
","
","
","""event"",""trial"",""time""
""fullscreenenter"",""1"",""12227""
","
","","876","","","","real_trial","2021-07-16 19:28:54.527","img/card_backs/set1/yellow.gif","3","-70","1","",""
"casino-fixation","154","520533","0.0-25.0-0.42","A115","false","img/card_backs/set1/purple.gif","img/card_backs/set1/green.gif","img/card_backs/set1/red.gif","img/card_backs/set1/yellow.gif","img/card_backs/set2/gray.gif","img/card_backs/set2/pink.gif","img/card_backs/set2/orange.gif","img/card_backs/set2/blue.gif","""event"",""trial"",""time""
""fullscreenenter"",""1"",""12227""
","
","
","""event"",""trial"",""time""
""fullscreenenter"",""1"",""12227""
","
","","null","","null","","fixation","2021-07-16 19:28:55.028","","","","","",""
"card-selection-trial","155","524070","0.0-25.0-1.42","A115","false","img/card_backs/set1/purple.gif","img/card_backs/set1/green.gif","img/card_backs/set1/red.gif","img/card_backs/set1/yellow.gif","img/card_backs/set2/gray.gif","img/card_backs/set2/pink.gif","img/card_backs/set2/orange.gif","img/card_backs/set2/blue.gif","""event"",""trial"",""time""
""fullscreenenter"",""1"",""12227""
","
","
","""event"",""trial"",""time""
""fullscreenenter"",""1"",""12227""
","
","","1533","","","","real_trial","2021-07-16 19:28:58.565","img/card_backs/set1/red.gif","3","110","1","",""
"casino-fixation","156","524573","0.0-25.0-0.43","A115","false","img/card_backs/set1/purple.gif","img/card_backs/set1/green.gif","img/card_backs/set1/red.gif","img/card_backs/set1/yellow.gif","img/card_backs/set2/gray.gif","img/card_backs/set2/pink.gif","img/card_backs/set2/orange.gif","img/card_backs/set2/blue.gif","""event"",""trial"",""time""
""fullscreenenter"",""1"",""12227""
","
","
","""event"",""trial"",""time""
""fullscreenenter"",""1"",""12227""
","
","","null","","null","","fixation","2021-07-16 19:28:59.068","","","","","",""
"card-selection-trial","157","527384","0.0-25.0-1.43","A115","false","img/card_backs/set1/purple.gif","img/card_backs/set1/green.gif","img/card_backs/set1/red.gif","img/card_backs/set1/yellow.gif","img/card_backs/set2/gray.gif","img/card_backs/set2/pink.gif","img/card_backs/set2/orange.gif","img/card_backs/set2/blue.gif","""event"",""trial"",""time""
""fullscreenenter"",""1"",""12227""
","
","
","""event"",""trial"",""time""
""fullscreenenter"",""1"",""12227""
","
","","807.0000000001164","","","","real_trial","2021-07-16 19:29:01.879","img/card_backs/set1/red.gif","1","-60","1","",""
"casino-fixation","158","527886","0.0-25.0-0.44","A115","false","img/card_backs/set1/purple.gif","img/card_backs/set1/green.gif","img/card_backs/set1/red.gif","img/card_backs/set1/yellow.gif","img/card_backs/set2/gray.gif","img/card_backs/set2/pink.gif","img/card_backs/set2/orange.gif","img/card_backs/set2/blue.gif","""event"",""trial"",""time""
""fullscreenenter"",""1"",""12227""
","
","
","""event"",""trial"",""time""
""fullscreenenter"",""1"",""12227""
","
","","null","","null","","fixation","2021-07-16 19:29:02.381","","","","","",""
"card-selection-trial","159","531157","0.0-25.0-1.44","A115","false","img/card_backs/set1/purple.gif","img/card_backs/set1/green.gif","img/card_backs/set1/red.gif","img/card_backs/set1/yellow.gif","img/card_backs/set2/gray.gif","img/card_backs/set2/pink.gif","img/card_backs/set2/orange.gif","img/card_backs/set2/blue.gif","""event"",""trial"",""time""
""fullscreenenter"",""1"",""12227""
","
","
","""event"",""trial"",""time""
""fullscreenenter"",""1"",""12227""
","
","","1267","","","","real_trial","2021-07-16 19:29:05.652","img/card_backs/set1/red.gif","2","-50","1","",""
"casino-fixation","160","531658","0.0-25.0-0.45","A115","false","img/card_backs/set1/purple.gif","img/card_backs/set1/green.gif","img/card_backs/set1/red.gif","img/card_backs/set1/yellow.gif","img/card_backs/set2/gray.gif","img/card_backs/set2/pink.gif","img/card_backs/set2/orange.gif","img/card_backs/set2/blue.gif","""event"",""trial"",""time""
""fullscreenenter"",""1"",""12227""
","
","
","""event"",""trial"",""time""
""fullscreenenter"",""1"",""12227""
","
","","null","","null","","fixation","2021-07-16 19:29:06.153","","","","","",""
"card-selection-trial","161","534654","0.0-25.0-1.45","A115","false","img/card_backs/set1/purple.gif","img/card_backs/set1/green.gif","img/card_backs/set1/red.gif","img/card_backs/set1/yellow.gif","img/card_backs/set2/gray.gif","img/card_backs/set2/pink.gif","img/card_backs/set2/orange.gif","img/card_backs/set2/blue.gif","""event"",""trial"",""time""
""fullscreenenter"",""1"",""12227""
","
","
","""event"",""trial"",""time""
""fullscreenenter"",""1"",""12227""
","
","","992","","","","real_trial","2021-07-16 19:29:09.149","img/card_backs/set1/yellow.gif","0","100","1","",""
"casino-fixation","162","535156","0.0-25.0-0.46","A115","false","img/card_backs/set1/purple.gif","img/card_backs/set1/green.gif","img/card_backs/set1/red.gif","img/card_backs/set1/yellow.gif","img/card_backs/set2/gray.gif","img/card_backs/set2/pink.gif","img/card_backs/set2/orange.gif","img/card_backs/set2/blue.gif","""event"",""trial"",""time""
""fullscreenenter"",""1"",""12227""
","
","
","""event"",""trial"",""time""
""fullscreenenter"",""1"",""12227""
","
","","null","","null","","fixation","2021-07-16 19:29:09.652","","","","","",""
"card-selection-trial","163","537685","0.0-25.0-1.46","A115","false","img/card_backs/set1/purple.gif","img/card_backs/set1/green.gif","img/card_backs/set1/red.gif","img/card_backs/set1/yellow.gif","img/card_backs/set2/gray.gif","img/card_backs/set2/pink.gif","img/card_backs/set2/orange.gif","img/card_backs/set2/blue.gif","""event"",""trial"",""time""
""fullscreenenter"",""1"",""12227""
","
","
","""event"",""trial"",""time""
""fullscreenenter"",""1"",""12227""
","
","","524","","","","real_trial","2021-07-16 19:29:12.180","img/card_backs/set1/yellow.gif","0","-70","1","",""
"casino-fixation","164","538187","0.0-25.0-0.47","A115","false","img/card_backs/set1/purple.gif","img/card_backs/set1/green.gif","img/card_backs/set1/red.gif","img/card_backs/set1/yellow.gif","img/card_backs/set2/gray.gif","img/card_backs/set2/pink.gif","img/card_backs/set2/orange.gif","img/card_backs/set2/blue.gif","""event"",""trial"",""time""
""fullscreenenter"",""1"",""12227""
","
","
","""event"",""trial"",""time""
""fullscreenenter"",""1"",""12227""
","
","","null","","null","","fixation","2021-07-16 19:29:12.682","","","","","",""
"card-selection-trial","165","541266","0.0-25.0-1.47","A115","false","img/card_backs/set1/purple.gif","img/card_backs/set1/green.gif","img/card_backs/set1/red.gif","img/card_backs/set1/yellow.gif","img/card_backs/set2/gray.gif","img/card_backs/set2/pink.gif","img/card_backs/set2/orange.gif","img/card_backs/set2/blue.gif","""event"",""trial"",""time""
""fullscreenenter"",""1"",""12227""
","
","
","""event"",""trial"",""time""
""fullscreenenter"",""1"",""12227""
","
","","1074","","","","real_trial","2021-07-16 19:29:15.761","img/card_backs/set1/red.gif","2","100","1","",""
"casino-fixation","166","541768","0.0-25.0-0.48","A115","false","img/card_backs/set1/purple.gif","img/card_backs/set1/green.gif","img/card_backs/set1/red.gif","img/card_backs/set1/yellow.gif","img/card_backs/set2/gray.gif","img/card_backs/set2/pink.gif","img/card_backs/set2/orange.gif","img/card_backs/set2/blue.gif","""event"",""trial"",""time""
""fullscreenenter"",""1"",""12227""
","
","
","""event"",""trial"",""time""
""fullscreenenter"",""1"",""12227""
","
","","null","","null","","fixation","2021-07-16 19:29:16.263","","","","","",""
"card-selection-trial","167","545001","0.0-25.0-1.48","A115","false","img/card_backs/set1/purple.gif","img/card_backs/set1/green.gif","img/card_backs/set1/red.gif","img/card_backs/set1/yellow.gif","img/card_backs/set2/gray.gif","img/card_backs/set2/pink.gif","img/card_backs/set2/orange.gif","img/card_backs/set2/blue.gif","""event"",""trial"",""time""
""fullscreenenter"",""1"",""12227""
","
","
","""event"",""trial"",""time""
""fullscreenenter"",""1"",""12227""
","
","","1228","","","","real_trial","2021-07-16 19:29:19.496","img/card_backs/set1/yellow.gif","3","100","1","",""
