"trial_type","trial_index","time_elapsed","internal_node_id","sub_id","risk_good_first","block1_A","block1_B","block1_C","block1_D","block2_A","block2_B","block2_C","block2_D","interactions","blur_events","focus_events","fullscreenenter_events","fullscreenexit_events","success","rt","stimulus","key_press","button_pressed","task_part","timestamp","card_choice","choice_position","points_earned","block","correct","response"
"pavlovia","0","10","0.0-0.0","A535","true","img/card_backs/set1/purple.gif","img/card_backs/set1/green.gif","img/card_backs/set1/red.gif","img/card_backs/set1/yellow.gif","img/card_backs/set2/orange.gif","img/card_backs/set2/pink.gif","img/card_backs/set2/blue.gif","img/card_backs/set2/gray.gif","""event"",""trial"",""time""
""focus"",""0"",""0""
""fullscreenenter"",""1"",""3388""
","
","""event"",""trial"",""time""
""focus"",""0"",""0""
","""event"",""trial"",""time""
""fullscreenenter"",""1"",""3388""
","
","","","","","","","","","","","","",""
"fullscreen","1","4173","0.0-1.0","A535","true","img/card_backs/set1/purple.gif","img/card_backs/set1/green.gif","img/card_backs/set1/red.gif","img/card_backs/set1/yellow.gif","img/card_backs/set2/orange.gif","img/card_backs/set2/pink.gif","img/card_backs/set2/blue.gif","img/card_backs/set2/gray.gif","""event"",""trial"",""time""
""focus"",""0"",""0""
""fullscreenenter"",""1"",""3388""
","
","""event"",""trial"",""time""
""focus"",""0"",""0""
","""event"",""trial"",""time""
""fullscreenenter"",""1"",""3388""
","
","true","","","","","","","","","","","",""
"audio-keyboard-response","2","5921","0.0-2.0","A535","true","img/card_backs/set1/purple.gif","img/card_backs/set1/green.gif","img/card_backs/set1/red.gif","img/card_backs/set1/yellow.gif","img/card_backs/set2/orange.gif","img/card_backs/set2/pink.gif","img/card_backs/set2/blue.gif","img/card_backs/set2/gray.gif","""event"",""trial"",""time""
""focus"",""0"",""0""
""fullscreenenter"",""1"",""3388""
","
","""event"",""trial"",""time""
""focus"",""0"",""0""
","""event"",""trial"",""time""
""fullscreenenter"",""1"",""3388""
","
","","1747","audio/beep_loop.wav","32","","","","","","","","",""
"audio-button-response","3","7235","0.0-3.0","A535","true","img/card_backs/set1/purple.gif","img/card_backs/set1/green.gif","img/card_backs/set1/red.gif","img/card_backs/set1/yellow.gif","img/card_backs/set2/orange.gif","img/card_backs/set2/pink.gif","img/card_backs/set2/blue.gif","img/card_backs/set2/gray.gif","""event"",""trial"",""time""
""focus"",""0"",""0""
""fullscreenenter"",""1"",""3388""
","
","""event"",""trial"",""time""
""focus"",""0"",""0""
","""event"",""trial"",""time""
""fullscreenenter"",""1"",""3388""
","
","","NaN","audio/turtle.mp3","","3","","","","","","","",""
"audio-button-response","4","9234","0.0-4.0","A535","true","img/card_backs/set1/purple.gif","img/card_backs/set1/green.gif","img/card_backs/set1/red.gif","img/card_backs/set1/yellow.gif","img/card_backs/set2/orange.gif","img/card_backs/set2/pink.gif","img/card_backs/set2/blue.gif","img/card_backs/set2/gray.gif","""event"",""trial"",""time""
""focus"",""0"",""0""
""fullscreenenter"",""1"",""3388""
","
","""event"",""trial"",""time""
""focus"",""0"",""0""
","""event"",""trial"",""time""
""fullscreenenter"",""1"",""3388""
","
","","NaN","audio/shark.mp3","","2","","","","","","","",""
"fullscreen","5","12282","0.0-5.0","A535","true","img/card_backs/set1/purple.gif","img/card_backs/set1/green.gif","img/card_backs/set1/red.gif","img/card_backs/set1/yellow.gif","img/card_backs/set2/orange.gif","img/card_backs/set2/pink.gif","img/card_backs/set2/blue.gif","img/card_backs/set2/gray.gif","""event"",""trial"",""time""
""focus"",""0"",""0""
""fullscreenenter"",""1"",""3388""
","
","""event"",""trial"",""time""
""focus"",""0"",""0""
","""event"",""trial"",""time""
""fullscreenenter"",""1"",""3388""
","
","true","","","","","","","","","","","",""
"casino-keyboard-response","6","15481","0.0-6.0-0.0","A535","true","img/card_backs/set1/purple.gif","img/card_backs/set1/green.gif","img/card_backs/set1/red.gif","img/card_backs/set1/yellow.gif","img/card_backs/set2/orange.gif","img/card_backs/set2/pink.gif","img/card_backs/set2/blue.gif","img/card_backs/set2/gray.gif","""event"",""trial"",""time""
""focus"",""0"",""0""
""fullscreenenter"",""1"",""3388""
","
","""event"",""trial"",""time""
""focus"",""0"",""0""
","""event"",""trial"",""time""
""fullscreenenter"",""1"",""3388""
","
","","3192","Welcome to the casino!","71","","instructions","2021-04-12 13:30:43.830","","","","","",""
"casino-keyboard-response","7","24688","0.0-6.0-0.1","A535","true","img/card_backs/set1/purple.gif","img/card_backs/set1/green.gif","img/card_backs/set1/red.gif","img/card_backs/set1/yellow.gif","img/card_backs/set2/orange.gif","img/card_backs/set2/pink.gif","img/card_backs/set2/blue.gif","img/card_backs/set2/gray.gif","""event"",""trial"",""time""
""focus"",""0"",""0""
""fullscreenenter"",""1"",""3388""
","
","""event"",""trial"",""time""
""focus"",""0"",""0""
","""event"",""trial"",""time""
""fullscreenenter"",""1"",""3388""
","
","","9204","Today you will be playing a game to earn tokens. </br> At the end of the experiment, you will be paid a bonus based on how many tokens you win. ","69","","instructions","2021-04-12 13:30:53.037","","","","","",""
"casino-keyboard-response","8","32599","0.0-6.0-0.2","A535","true","img/card_backs/set1/purple.gif","img/card_backs/set1/green.gif","img/card_backs/set1/red.gif","img/card_backs/set1/yellow.gif","img/card_backs/set2/orange.gif","img/card_backs/set2/pink.gif","img/card_backs/set2/blue.gif","img/card_backs/set2/gray.gif","""event"",""trial"",""time""
""focus"",""0"",""0""
""fullscreenenter"",""1"",""3388""
","
","""event"",""trial"",""time""
""focus"",""0"",""0""
","""event"",""trial"",""time""
""fullscreenenter"",""1"",""3388""
","
","","7906","On every turn, you will be shown four different decks of cards. </br> You need to select a card from one of the four decks.  ","75","","instructions","2021-04-12 13:31:00.948","","","","","",""
"casino-keyboard-response","9","37312","0.0-6.0-0.3","A535","true","img/card_backs/set1/purple.gif","img/card_backs/set1/green.gif","img/card_backs/set1/red.gif","img/card_backs/set1/yellow.gif","img/card_backs/set2/orange.gif","img/card_backs/set2/pink.gif","img/card_backs/set2/blue.gif","img/card_backs/set2/gray.gif","""event"",""trial"",""time""
""focus"",""0"",""0""
""fullscreenenter"",""1"",""3388""
","
","""event"",""trial"",""time""
""focus"",""0"",""0""
","""event"",""trial"",""time""
""fullscreenenter"",""1"",""3388""
","
","","4710","On the next screen, you will see what the decks will look like. ","66","","instructions","2021-04-12 13:31:05.661","","","","","",""
"card-selection-trial","10","41333","0.0-7.0-0.0","A535","true","img/card_backs/set1/purple.gif","img/card_backs/set1/green.gif","img/card_backs/set1/red.gif","img/card_backs/set1/yellow.gif","img/card_backs/set2/orange.gif","img/card_backs/set2/pink.gif","img/card_backs/set2/blue.gif","img/card_backs/set2/gray.gif","""event"",""trial"",""time""
""focus"",""0"",""0""
""fullscreenenter"",""1"",""3388""
","
","""event"",""trial"",""time""
""focus"",""0"",""0""
","""event"",""trial"",""time""
""fullscreenenter"",""1"",""3388""
","
","","null","","","","practice","2021-04-12 13:31:09.682","null","null","null","0","",""
"casino-keyboard-response","11","48567","0.0-8.0-0.0","A535","true","img/card_backs/set1/purple.gif","img/card_backs/set1/green.gif","img/card_backs/set1/red.gif","img/card_backs/set1/yellow.gif","img/card_backs/set2/orange.gif","img/card_backs/set2/pink.gif","img/card_backs/set2/blue.gif","img/card_backs/set2/gray.gif","""event"",""trial"",""time""
""focus"",""0"",""0""
""fullscreenenter"",""1"",""3388""
","
","""event"",""trial"",""time""
""focus"",""0"",""0""
","""event"",""trial"",""time""
""fullscreenenter"",""1"",""3388""
","
","","7231","You should pick a card from a deck using the '2', '4', '6', and '8' keys at the top of the keyboard.","85","","instructions","2021-04-12 13:31:16.916","","","","","",""
"casino-keyboard-response","12","53342","0.0-8.0-0.1","A535","true","img/card_backs/set1/purple.gif","img/card_backs/set1/green.gif","img/card_backs/set1/red.gif","img/card_backs/set1/yellow.gif","img/card_backs/set2/orange.gif","img/card_backs/set2/pink.gif","img/card_backs/set2/blue.gif","img/card_backs/set2/gray.gif","""event"",""trial"",""time""
""focus"",""0"",""0""
""fullscreenenter"",""1"",""3388""
","
","""event"",""trial"",""time""
""focus"",""0"",""0""
","""event"",""trial"",""time""
""fullscreenenter"",""1"",""3388""
","
","","4773","Once you select a card, it will turn over and you will see how many tokens you earned.","83","","instructions","2021-04-12 13:31:21.691","","","","","",""
"casino-keyboard-response","13","67847","0.0-8.0-0.2","A535","true","img/card_backs/set1/purple.gif","img/card_backs/set1/green.gif","img/card_backs/set1/red.gif","img/card_backs/set1/yellow.gif","img/card_backs/set2/orange.gif","img/card_backs/set2/pink.gif","img/card_backs/set2/blue.gif","img/card_backs/set2/gray.gif","""event"",""trial"",""time""
""focus"",""0"",""0""
""fullscreenenter"",""1"",""3388""
","
","""event"",""trial"",""time""
""focus"",""0"",""0""
","""event"",""trial"",""time""
""fullscreenenter"",""1"",""3388""
","
","","14503","Let's try practicing that! </br> First, try to put your fingers over the '2', '4', '6', and '8' keys. </br>  You can use whatever fingers are most comfortable for you. Try to find a comfortable position now. ","50","","instructions","2021-04-12 13:31:36.196","","","","","",""
"casino-keyboard-response","14","72823","0.0-8.0-0.3","A535","true","img/card_backs/set1/purple.gif","img/card_backs/set1/green.gif","img/card_backs/set1/red.gif","img/card_backs/set1/yellow.gif","img/card_backs/set2/orange.gif","img/card_backs/set2/pink.gif","img/card_backs/set2/blue.gif","img/card_backs/set2/gray.gif","""event"",""trial"",""time""
""focus"",""0"",""0""
""fullscreenenter"",""1"",""3388""
","
","""event"",""trial"",""time""
""focus"",""0"",""0""
","""event"",""trial"",""time""
""fullscreenenter"",""1"",""3388""
","
","","4973","Okay ready? </br> On the next screen, press '2' to select the left deck. ","50","","instructions","2021-04-12 13:31:41.172","","","","","",""
"card-selection-trial","15","75840","0.0-9.0-0.0","A535","true","img/card_backs/set1/purple.gif","img/card_backs/set1/green.gif","img/card_backs/set1/red.gif","img/card_backs/set1/yellow.gif","img/card_backs/set2/orange.gif","img/card_backs/set2/pink.gif","img/card_backs/set2/blue.gif","img/card_backs/set2/gray.gif","""event"",""trial"",""time""
""focus"",""0"",""0""
""fullscreenenter"",""1"",""3388""
","
","""event"",""trial"",""time""
""focus"",""0"",""0""
","""event"",""trial"",""time""
""fullscreenenter"",""1"",""3388""
","
","","997","","","","practice_card_selection","2021-04-12 13:31:44.189","img/practice_cards/backs/dark_green.gif","0","200","","",""
"casino-keyboard-response","16","81542","0.0-10.0-0.0","A535","true","img/card_backs/set1/purple.gif","img/card_backs/set1/green.gif","img/card_backs/set1/red.gif","img/card_backs/set1/yellow.gif","img/card_backs/set2/orange.gif","img/card_backs/set2/pink.gif","img/card_backs/set2/blue.gif","img/card_backs/set2/gray.gif","""event"",""trial"",""time""
""focus"",""0"",""0""
""fullscreenenter"",""1"",""3388""
","
","""event"",""trial"",""time""
""focus"",""0"",""0""
","""event"",""trial"",""time""
""fullscreenenter"",""1"",""3388""
","
","","5701","Great! Now on the next screen, try pressing '6' to select the third deck.","54","","instructions","2021-04-12 13:31:49.891","","","","","",""
"card-selection-trial","17","84103","0.0-11.0-0.0","A535","true","img/card_backs/set1/purple.gif","img/card_backs/set1/green.gif","img/card_backs/set1/red.gif","img/card_backs/set1/yellow.gif","img/card_backs/set2/orange.gif","img/card_backs/set2/pink.gif","img/card_backs/set2/blue.gif","img/card_backs/set2/gray.gif","""event"",""trial"",""time""
""focus"",""0"",""0""
""fullscreenenter"",""1"",""3388""
","
","""event"",""trial"",""time""
""focus"",""0"",""0""
","""event"",""trial"",""time""
""fullscreenenter"",""1"",""3388""
","
","","555","","","","practice_card_selection","2021-04-12 13:31:52.453","img/practice_cards/backs/brown.gif","2","100","","",""
"casino-keyboard-response","18","88646","0.0-12.0-0.0","A535","true","img/card_backs/set1/purple.gif","img/card_backs/set1/green.gif","img/card_backs/set1/red.gif","img/card_backs/set1/yellow.gif","img/card_backs/set2/orange.gif","img/card_backs/set2/pink.gif","img/card_backs/set2/blue.gif","img/card_backs/set2/gray.gif","""event"",""trial"",""time""
""focus"",""0"",""0""
""fullscreenenter"",""1"",""3388""
","
","""event"",""trial"",""time""
""focus"",""0"",""0""
","""event"",""trial"",""time""
""fullscreenenter"",""1"",""3388""
","
","","4541","Now on the next screen, try pressing '4' to select the second deck.","52","","instructions","2021-04-12 13:31:56.995","","","","","",""
"card-selection-trial","19","91308","0.0-13.0-0.0","A535","true","img/card_backs/set1/purple.gif","img/card_backs/set1/green.gif","img/card_backs/set1/red.gif","img/card_backs/set1/yellow.gif","img/card_backs/set2/orange.gif","img/card_backs/set2/pink.gif","img/card_backs/set2/blue.gif","img/card_backs/set2/gray.gif","""event"",""trial"",""time""
""focus"",""0"",""0""
""fullscreenenter"",""1"",""3388""
","
","""event"",""trial"",""time""
""focus"",""0"",""0""
","""event"",""trial"",""time""
""fullscreenenter"",""1"",""3388""
","
","","651","","","","practice_card_selection","2021-04-12 13:31:59.657","img/practice_cards/backs/brown.gif","1","100","","",""
"casino-keyboard-response","20","95918","0.0-14.0-0.0","A535","true","img/card_backs/set1/purple.gif","img/card_backs/set1/green.gif","img/card_backs/set1/red.gif","img/card_backs/set1/yellow.gif","img/card_backs/set2/orange.gif","img/card_backs/set2/pink.gif","img/card_backs/set2/blue.gif","img/card_backs/set2/gray.gif","""event"",""trial"",""time""
""focus"",""0"",""0""
""fullscreenenter"",""1"",""3388""
","
","""event"",""trial"",""time""
""focus"",""0"",""0""
","""event"",""trial"",""time""
""fullscreenenter"",""1"",""3388""
","
","","4608","Finally, try pressing '8' to select the deck all the way on the right.","56","","instructions","2021-04-12 13:32:04.268","","","","","",""
"card-selection-trial","21","98561","0.0-15.0-0.0","A535","true","img/card_backs/set1/purple.gif","img/card_backs/set1/green.gif","img/card_backs/set1/red.gif","img/card_backs/set1/yellow.gif","img/card_backs/set2/orange.gif","img/card_backs/set2/pink.gif","img/card_backs/set2/blue.gif","img/card_backs/set2/gray.gif","""event"",""trial"",""time""
""focus"",""0"",""0""
""fullscreenenter"",""1"",""3388""
","
","""event"",""trial"",""time""
""focus"",""0"",""0""
","""event"",""trial"",""time""
""fullscreenenter"",""1"",""3388""
","
","","629","","","","practice_card_selection","2021-04-12 13:32:06.910","img/practice_cards/backs/dark_blue.gif","3","200","","",""
"casino-keyboard-response","22","102494","0.0-16.0-0.0","A535","true","img/card_backs/set1/purple.gif","img/card_backs/set1/green.gif","img/card_backs/set1/red.gif","img/card_backs/set1/yellow.gif","img/card_backs/set2/orange.gif","img/card_backs/set2/pink.gif","img/card_backs/set2/blue.gif","img/card_backs/set2/gray.gif","""event"",""trial"",""time""
""focus"",""0"",""0""
""fullscreenenter"",""1"",""3388""
","
","""event"",""trial"",""time""
""focus"",""0"",""0""
","""event"",""trial"",""time""
""fullscreenenter"",""1"",""3388""
","
","","3932","Great! It seems like you are getting the hang of this.","80","","instructions","2021-04-12 13:32:10.843","","","","","",""
"casino-keyboard-response","23","109926","0.0-16.0-0.1","A535","true","img/card_backs/set1/purple.gif","img/card_backs/set1/green.gif","img/card_backs/set1/red.gif","img/card_backs/set1/yellow.gif","img/card_backs/set2/orange.gif","img/card_backs/set2/pink.gif","img/card_backs/set2/blue.gif","img/card_backs/set2/gray.gif","""event"",""trial"",""time""
""focus"",""0"",""0""
""fullscreenenter"",""1"",""3388""
","
","""event"",""trial"",""time""
""focus"",""0"",""0""
","""event"",""trial"",""time""
""fullscreenenter"",""1"",""3388""
","
","","7430","You may have noticed that some cards will cause you to <b> win </b> tokens while other cards will cause you to <b> lose </b>  tokens.","70","","instructions","2021-04-12 13:32:18.275","","","","","",""
"casino-keyboard-response","24","118166","0.0-16.0-0.2","A535","true","img/card_backs/set1/purple.gif","img/card_backs/set1/green.gif","img/card_backs/set1/red.gif","img/card_backs/set1/yellow.gif","img/card_backs/set2/orange.gif","img/card_backs/set2/pink.gif","img/card_backs/set2/blue.gif","img/card_backs/set2/gray.gif","""event"",""trial"",""time""
""focus"",""0"",""0""
""fullscreenenter"",""1"",""3388""
","
","""event"",""trial"",""time""
""focus"",""0"",""0""
","""event"",""trial"",""time""
""fullscreenenter"",""1"",""3388""
","
","","8239","Each deck has a mix of cards that will cause you to win and lose tokens. </br> However, the cards in each colored deck are different.","73","","instructions","2021-04-12 13:32:26.515","","","","","",""
"casino-keyboard-response","25","126526","0.0-16.0-0.3","A535","true","img/card_backs/set1/purple.gif","img/card_backs/set1/green.gif","img/card_backs/set1/red.gif","img/card_backs/set1/yellow.gif","img/card_backs/set2/orange.gif","img/card_backs/set2/pink.gif","img/card_backs/set2/blue.gif","img/card_backs/set2/gray.gif","""event"",""trial"",""time""
""focus"",""0"",""0""
""fullscreenenter"",""1"",""3388""
","
","""event"",""trial"",""time""
""focus"",""0"",""0""
","""event"",""trial"",""time""
""fullscreenenter"",""1"",""3388""
","
","","8358","Some colored decks are luckier than others. </br> If you choose the lucky decks, you will earn more tokens than if you choose the unlucky decks.","69","","instructions","2021-04-12 13:32:34.876","","","","","",""
"casino-keyboard-response","26","133742","0.0-16.0-0.4","A535","true","img/card_backs/set1/purple.gif","img/card_backs/set1/green.gif","img/card_backs/set1/red.gif","img/card_backs/set1/yellow.gif","img/card_backs/set2/orange.gif","img/card_backs/set2/pink.gif","img/card_backs/set2/blue.gif","img/card_backs/set2/gray.gif","""event"",""trial"",""time""
""focus"",""0"",""0""
""fullscreenenter"",""1"",""3388""
","
","""event"",""trial"",""time""
""focus"",""0"",""0""
","""event"",""trial"",""time""
""fullscreenenter"",""1"",""3388""
","
","","7213","You should try to figure out which decks are lucky. </br> Then, try to choose the lucky decks so you can win the most tokens.","87","","instructions","2021-04-12 13:32:42.091","","","","","",""
"casino-keyboard-response","27","144590","0.0-16.0-0.5","A535","true","img/card_backs/set1/purple.gif","img/card_backs/set1/green.gif","img/card_backs/set1/red.gif","img/card_backs/set1/yellow.gif","img/card_backs/set2/orange.gif","img/card_backs/set2/pink.gif","img/card_backs/set2/blue.gif","img/card_backs/set2/gray.gif","""event"",""trial"",""time""
""focus"",""0"",""0""
""fullscreenenter"",""1"",""3388""
","
","""event"",""trial"",""time""
""focus"",""0"",""0""
","""event"",""trial"",""time""
""fullscreenenter"",""1"",""3388""
","
","","10845","To make it trickier, the casino dealer will switch the locations of the decks on every turn. </br> The color of the deck determines how lucky it is. The location does not matter.","88","","instructions","2021-04-12 13:32:52.939","","","","","",""
"casino-keyboard-response","28","153533","0.0-16.0-0.6","A535","true","img/card_backs/set1/purple.gif","img/card_backs/set1/green.gif","img/card_backs/set1/red.gif","img/card_backs/set1/yellow.gif","img/card_backs/set2/orange.gif","img/card_backs/set2/pink.gif","img/card_backs/set2/blue.gif","img/card_backs/set2/gray.gif","""event"",""trial"",""time""
""focus"",""0"",""0""
""fullscreenenter"",""1"",""3388""
","
","""event"",""trial"",""time""
""focus"",""0"",""0""
","""event"",""trial"",""time""
""fullscreenenter"",""1"",""3388""
","
","","8942","The mix of cards in each colored deck will stay the same throughout the game. </br> That means that a deck that is lucky early on will stay lucky.","79","","instructions","2021-04-12 13:33:01.882","","","","","",""
"casino-keyboard-response","29","161478","0.0-16.0-0.7","A535","true","img/card_backs/set1/purple.gif","img/card_backs/set1/green.gif","img/card_backs/set1/red.gif","img/card_backs/set1/yellow.gif","img/card_backs/set2/orange.gif","img/card_backs/set2/pink.gif","img/card_backs/set2/blue.gif","img/card_backs/set2/gray.gif","""event"",""trial"",""time""
""focus"",""0"",""0""
""fullscreenenter"",""1"",""3388""
","
","""event"",""trial"",""time""
""focus"",""0"",""0""
","""event"",""trial"",""time""
""fullscreenenter"",""1"",""3388""
","
","","7942","Remember though, all the decks have a <b> mix </b> of both <b> good </b> and <b> bad </b> cards so it may take a couple of turns to figure out if a deck is lucky.","69","","instructions","2021-04-12 13:33:09.827","","","","","",""
"casino-keyboard-response","30","169350","0.0-16.0-0.8","A535","true","img/card_backs/set1/purple.gif","img/card_backs/set1/green.gif","img/card_backs/set1/red.gif","img/card_backs/set1/yellow.gif","img/card_backs/set2/orange.gif","img/card_backs/set2/pink.gif","img/card_backs/set2/blue.gif","img/card_backs/set2/gray.gif","""event"",""trial"",""time""
""focus"",""0"",""0""
""fullscreenenter"",""1"",""3388""
","
","""event"",""trial"",""time""
""focus"",""0"",""0""
","""event"",""trial"",""time""
""fullscreenenter"",""1"",""3388""
","
","","7870","At the end of the game, you will be paid bonus money based on how many tokens you win. </br> If you win more tokens, you will earn more money!","72","","instructions","2021-04-12 13:33:17.699","","","","","",""
"casino-keyboard-response","31","179118","0.0-16.0-0.9","A535","true","img/card_backs/set1/purple.gif","img/card_backs/set1/green.gif","img/card_backs/set1/red.gif","img/card_backs/set1/yellow.gif","img/card_backs/set2/orange.gif","img/card_backs/set2/pink.gif","img/card_backs/set2/blue.gif","img/card_backs/set2/gray.gif","""event"",""trial"",""time""
""focus"",""0"",""0""
""fullscreenenter"",""1"",""3388""
","
","""event"",""trial"",""time""
""focus"",""0"",""0""
","""event"",""trial"",""time""
""fullscreenenter"",""1"",""3388""
","
","","9766","You will never <b> lose </b> money. </br> If you end up with fewer than 0 tokens, you will earn $0 of bonus money, but you will still be paid for playing the game.","83","","instructions","2021-04-12 13:33:27.467","","","","","",""
"casino-keyboard-response","32","182949","0.0-16.0-0.10","A535","true","img/card_backs/set1/purple.gif","img/card_backs/set1/green.gif","img/card_backs/set1/red.gif","img/card_backs/set1/yellow.gif","img/card_backs/set2/orange.gif","img/card_backs/set2/pink.gif","img/card_backs/set2/blue.gif","img/card_backs/set2/gray.gif","""event"",""trial"",""time""
""focus"",""0"",""0""
""fullscreenenter"",""1"",""3388""
","
","""event"",""trial"",""time""
""focus"",""0"",""0""
","""event"",""trial"",""time""
""fullscreenenter"",""1"",""3388""
","
","","3829","You will have 10 seconds to make each choice.","82","","instructions","2021-04-12 13:33:31.298","","","","","",""
"casino-keyboard-response","33","190894","0.0-16.0-0.11","A535","true","img/card_backs/set1/purple.gif","img/card_backs/set1/green.gif","img/card_backs/set1/red.gif","img/card_backs/set1/yellow.gif","img/card_backs/set2/orange.gif","img/card_backs/set2/pink.gif","img/card_backs/set2/blue.gif","img/card_backs/set2/gray.gif","""event"",""trial"",""time""
""focus"",""0"",""0""
""fullscreenenter"",""1"",""3388""
","
","""event"",""trial"",""time""
""focus"",""0"",""0""
","""event"",""trial"",""time""
""fullscreenenter"",""1"",""3388""
","
","","7943","Before you play the game for real, you will play with practice decks. </br> The tokens you earn during practice won't count toward your total.","86","","instructions","2021-04-12 13:33:39.243","","","","","",""
"casino-keyboard-response","34","202381","0.0-16.0-0.12","A535","true","img/card_backs/set1/purple.gif","img/card_backs/set1/green.gif","img/card_backs/set1/red.gif","img/card_backs/set1/yellow.gif","img/card_backs/set2/orange.gif","img/card_backs/set2/pink.gif","img/card_backs/set2/blue.gif","img/card_backs/set2/gray.gif","""event"",""trial"",""time""
""focus"",""0"",""0""
""fullscreenenter"",""1"",""3388""
","
","""event"",""trial"",""time""
""focus"",""0"",""0""
","""event"",""trial"",""time""
""fullscreenenter"",""1"",""3388""
","
","","11486","Ready? Remember, use the '2', '4', '6', and '8' keys to select the decks. </br> Put your fingers on those keys now and then press '2' to begin.","50","","instructions","2021-04-12 13:33:50.730","","","","","",""
"casino-fixation","35","202897","0.0-17.0-0.0","A535","true","img/card_backs/set1/purple.gif","img/card_backs/set1/green.gif","img/card_backs/set1/red.gif","img/card_backs/set1/yellow.gif","img/card_backs/set2/orange.gif","img/card_backs/set2/pink.gif","img/card_backs/set2/blue.gif","img/card_backs/set2/gray.gif","""event"",""trial"",""time""
""focus"",""0"",""0""
""fullscreenenter"",""1"",""3388""
","
","""event"",""trial"",""time""
""focus"",""0"",""0""
","""event"",""trial"",""time""
""fullscreenenter"",""1"",""3388""
","
","","null","","null","","fixation","2021-04-12 13:33:51.246","","","","","",""
"card-selection-trial","36","205909","0.0-17.0-1.0","A535","true","img/card_backs/set1/purple.gif","img/card_backs/set1/green.gif","img/card_backs/set1/red.gif","img/card_backs/set1/yellow.gif","img/card_backs/set2/orange.gif","img/card_backs/set2/pink.gif","img/card_backs/set2/blue.gif","img/card_backs/set2/gray.gif","""event"",""trial"",""time""
""focus"",""0"",""0""
""fullscreenenter"",""1"",""3388""
","
","""event"",""trial"",""time""
""focus"",""0"",""0""
","""event"",""trial"",""time""
""fullscreenenter"",""1"",""3388""
","
","","989","","","","practice","2021-04-12 13:33:54.258","img/practice_cards/backs/brown.gif","0","100","0","",""
"casino-fixation","37","206415","0.0-17.0-0.1","A535","true","img/card_backs/set1/purple.gif","img/card_backs/set1/green.gif","img/card_backs/set1/red.gif","img/card_backs/set1/yellow.gif","img/card_backs/set2/orange.gif","img/card_backs/set2/pink.gif","img/card_backs/set2/blue.gif","img/card_backs/set2/gray.gif","""event"",""trial"",""time""
""focus"",""0"",""0""
""fullscreenenter"",""1"",""3388""
","
","""event"",""trial"",""time""
""focus"",""0"",""0""
","""event"",""trial"",""time""
""fullscreenenter"",""1"",""3388""
","
","","null","","null","","fixation","2021-04-12 13:33:54.764","","","","","",""
"card-selection-trial","38","210290","0.0-17.0-1.1","A535","true","img/card_backs/set1/purple.gif","img/card_backs/set1/green.gif","img/card_backs/set1/red.gif","img/card_backs/set1/yellow.gif","img/card_backs/set2/orange.gif","img/card_backs/set2/pink.gif","img/card_backs/set2/blue.gif","img/card_backs/set2/gray.gif","""event"",""trial"",""time""
""focus"",""0"",""0""
""fullscreenenter"",""1"",""3388""
","
","""event"",""trial"",""time""
""focus"",""0"",""0""
","""event"",""trial"",""time""
""fullscreenenter"",""1"",""3388""
","
","","1855","","","","practice","2021-04-12 13:33:58.640","img/practice_cards/backs/dark_blue.gif","3","200","0","",""
"casino-fixation","39","210806","0.0-17.0-0.2","A535","true","img/card_backs/set1/purple.gif","img/card_backs/set1/green.gif","img/card_backs/set1/red.gif","img/card_backs/set1/yellow.gif","img/card_backs/set2/orange.gif","img/card_backs/set2/pink.gif","img/card_backs/set2/blue.gif","img/card_backs/set2/gray.gif","""event"",""trial"",""time""
""focus"",""0"",""0""
""fullscreenenter"",""1"",""3388""
","
","""event"",""trial"",""time""
""focus"",""0"",""0""
","""event"",""trial"",""time""
""fullscreenenter"",""1"",""3388""
","
","","null","","null","","fixation","2021-04-12 13:33:59.155","","","","","",""
"card-selection-trial","40","214617","0.0-17.0-1.2","A535","true","img/card_backs/set1/purple.gif","img/card_backs/set1/green.gif","img/card_backs/set1/red.gif","img/card_backs/set1/yellow.gif","img/card_backs/set2/orange.gif","img/card_backs/set2/pink.gif","img/card_backs/set2/blue.gif","img/card_backs/set2/gray.gif","""event"",""trial"",""time""
""focus"",""0"",""0""
""fullscreenenter"",""1"",""3388""
","
","""event"",""trial"",""time""
""focus"",""0"",""0""
","""event"",""trial"",""time""
""fullscreenenter"",""1"",""3388""
","
","","1794","","","","practice","2021-04-12 13:34:02.966","img/practice_cards/backs/black.gif","3","-100","0","",""
"casino-fixation","41","215132","0.0-17.0-0.3","A535","true","img/card_backs/set1/purple.gif","img/card_backs/set1/green.gif","img/card_backs/set1/red.gif","img/card_backs/set1/yellow.gif","img/card_backs/set2/orange.gif","img/card_backs/set2/pink.gif","img/card_backs/set2/blue.gif","img/card_backs/set2/gray.gif","""event"",""trial"",""time""
""focus"",""0"",""0""
""fullscreenenter"",""1"",""3388""
","
","""event"",""trial"",""time""
""focus"",""0"",""0""
","""event"",""trial"",""time""
""fullscreenenter"",""1"",""3388""
","
","","null","","null","","fixation","2021-04-12 13:34:03.481","","","","","",""
"card-selection-trial","42","218241","0.0-17.0-1.3","A535","true","img/card_backs/set1/purple.gif","img/card_backs/set1/green.gif","img/card_backs/set1/red.gif","img/card_backs/set1/yellow.gif","img/card_backs/set2/orange.gif","img/card_backs/set2/pink.gif","img/card_backs/set2/blue.gif","img/card_backs/set2/gray.gif","""event"",""trial"",""time""
""focus"",""0"",""0""
""fullscreenenter"",""1"",""3388""
","
","""event"",""trial"",""time""
""focus"",""0"",""0""
","""event"",""trial"",""time""
""fullscreenenter"",""1"",""3388""
","
","","1099","","","","practice","2021-04-12 13:34:06.590","img/practice_cards/backs/brown.gif","1","-100","0","",""
"casino-fixation","43","218751","0.0-17.0-0.4","A535","true","img/card_backs/set1/purple.gif","img/card_backs/set1/green.gif","img/card_backs/set1/red.gif","img/card_backs/set1/yellow.gif","img/card_backs/set2/orange.gif","img/card_backs/set2/pink.gif","img/card_backs/set2/blue.gif","img/card_backs/set2/gray.gif","""event"",""trial"",""time""
""focus"",""0"",""0""
""fullscreenenter"",""1"",""3388""
","
","""event"",""trial"",""time""
""focus"",""0"",""0""
","""event"",""trial"",""time""
""fullscreenenter"",""1"",""3388""
","
","","null","","null","","fixation","2021-04-12 13:34:07.100","","","","","",""
"card-selection-trial","44","221859","0.0-17.0-1.4","A535","true","img/card_backs/set1/purple.gif","img/card_backs/set1/green.gif","img/card_backs/set1/red.gif","img/card_backs/set1/yellow.gif","img/card_backs/set2/orange.gif","img/card_backs/set2/pink.gif","img/card_backs/set2/blue.gif","img/card_backs/set2/gray.gif","""event"",""trial"",""time""
""focus"",""0"",""0""
""fullscreenenter"",""1"",""3388""
","
","""event"",""trial"",""time""
""focus"",""0"",""0""
","""event"",""trial"",""time""
""fullscreenenter"",""1"",""3388""
","
","","1097","","","","practice","2021-04-12 13:34:10.208","img/practice_cards/backs/black.gif","0","100","0","",""
"casino-fixation","45","222362","0.0-17.0-0.5","A535","true","img/card_backs/set1/purple.gif","img/card_backs/set1/green.gif","img/card_backs/set1/red.gif","img/card_backs/set1/yellow.gif","img/card_backs/set2/orange.gif","img/card_backs/set2/pink.gif","img/card_backs/set2/blue.gif","img/card_backs/set2/gray.gif","""event"",""trial"",""time""
""focus"",""0"",""0""
""fullscreenenter"",""1"",""3388""
","
","""event"",""trial"",""time""
""focus"",""0"",""0""
","""event"",""trial"",""time""
""fullscreenenter"",""1"",""3388""
","
","","null","","null","","fixation","2021-04-12 13:34:10.711","","","","","",""
"card-selection-trial","46","225257","0.0-17.0-1.5","A535","true","img/card_backs/set1/purple.gif","img/card_backs/set1/green.gif","img/card_backs/set1/red.gif","img/card_backs/set1/yellow.gif","img/card_backs/set2/orange.gif","img/card_backs/set2/pink.gif","img/card_backs/set2/blue.gif","img/card_backs/set2/gray.gif","""event"",""trial"",""time""
""focus"",""0"",""0""
""fullscreenenter"",""1"",""3388""
","
","""event"",""trial"",""time""
""focus"",""0"",""0""
","""event"",""trial"",""time""
""fullscreenenter"",""1"",""3388""
","
","","886","","","","practice","2021-04-12 13:34:13.606","img/practice_cards/backs/dark_blue.gif","2","200","0","",""
"casino-fixation","47","225772","0.0-17.0-0.6","A535","true","img/card_backs/set1/purple.gif","img/card_backs/set1/green.gif","img/card_backs/set1/red.gif","img/card_backs/set1/yellow.gif","img/card_backs/set2/orange.gif","img/card_backs/set2/pink.gif","img/card_backs/set2/blue.gif","img/card_backs/set2/gray.gif","""event"",""trial"",""time""
""focus"",""0"",""0""
""fullscreenenter"",""1"",""3388""
","
","""event"",""trial"",""time""
""focus"",""0"",""0""
","""event"",""trial"",""time""
""fullscreenenter"",""1"",""3388""
","
","","null","","null","","fixation","2021-04-12 13:34:14.122","","","","","",""
"card-selection-trial","48","229044","0.0-17.0-1.6","A535","true","img/card_backs/set1/purple.gif","img/card_backs/set1/green.gif","img/card_backs/set1/red.gif","img/card_backs/set1/yellow.gif","img/card_backs/set2/orange.gif","img/card_backs/set2/pink.gif","img/card_backs/set2/blue.gif","img/card_backs/set2/gray.gif","""event"",""trial"",""time""
""focus"",""0"",""0""
""fullscreenenter"",""1"",""3388""
","
","""event"",""trial"",""time""
""focus"",""0"",""0""
","""event"",""trial"",""time""
""fullscreenenter"",""1"",""3388""
","
","","1258","","","","practice","2021-04-12 13:34:17.393","img/practice_cards/backs/brown.gif","2","100","0","",""
"casino-fixation","49","229560","0.0-17.0-0.7","A535","true","img/card_backs/set1/purple.gif","img/card_backs/set1/green.gif","img/card_backs/set1/red.gif","img/card_backs/set1/yellow.gif","img/card_backs/set2/orange.gif","img/card_backs/set2/pink.gif","img/card_backs/set2/blue.gif","img/card_backs/set2/gray.gif","""event"",""trial"",""time""
""focus"",""0"",""0""
""fullscreenenter"",""1"",""3388""
","
","""event"",""trial"",""time""
""focus"",""0"",""0""
","""event"",""trial"",""time""
""fullscreenenter"",""1"",""3388""
","
","","null","","null","","fixation","2021-04-12 13:34:17.909","","","","","",""
"card-selection-trial","50","232632","0.0-17.0-1.7","A535","true","img/card_backs/set1/purple.gif","img/card_backs/set1/green.gif","img/card_backs/set1/red.gif","img/card_backs/set1/yellow.gif","img/card_backs/set2/orange.gif","img/card_backs/set2/pink.gif","img/card_backs/set2/blue.gif","img/card_backs/set2/gray.gif","""event"",""trial"",""time""
""focus"",""0"",""0""
""fullscreenenter"",""1"",""3388""
","
","""event"",""trial"",""time""
""focus"",""0"",""0""
","""event"",""trial"",""time""
""fullscreenenter"",""1"",""3388""
","
","","1062","","","","practice","2021-04-12 13:34:20.982","img/practice_cards/backs/dark_green.gif","1","-200","0","",""
"casino-fixation","51","233135","0.0-17.0-0.8","A535","true","img/card_backs/set1/purple.gif","img/card_backs/set1/green.gif","img/card_backs/set1/red.gif","img/card_backs/set1/yellow.gif","img/card_backs/set2/orange.gif","img/card_backs/set2/pink.gif","img/card_backs/set2/blue.gif","img/card_backs/set2/gray.gif","""event"",""trial"",""time""
""focus"",""0"",""0""
""fullscreenenter"",""1"",""3388""
","
","""event"",""trial"",""time""
""focus"",""0"",""0""
","""event"",""trial"",""time""
""fullscreenenter"",""1"",""3388""
","
","","null","","null","","fixation","2021-04-12 13:34:21.485","","","","","",""
"card-selection-trial","52","236079","0.0-17.0-1.8","A535","true","img/card_backs/set1/purple.gif","img/card_backs/set1/green.gif","img/card_backs/set1/red.gif","img/card_backs/set1/yellow.gif","img/card_backs/set2/orange.gif","img/card_backs/set2/pink.gif","img/card_backs/set2/blue.gif","img/card_backs/set2/gray.gif","""event"",""trial"",""time""
""focus"",""0"",""0""
""fullscreenenter"",""1"",""3388""
","
","""event"",""trial"",""time""
""focus"",""0"",""0""
","""event"",""trial"",""time""
""fullscreenenter"",""1"",""3388""
","
","","934","","","","practice","2021-04-12 13:34:24.429","img/practice_cards/backs/brown.gif","0","100","0","",""
"casino-fixation","53","236595","0.0-17.0-0.9","A535","true","img/card_backs/set1/purple.gif","img/card_backs/set1/green.gif","img/card_backs/set1/red.gif","img/card_backs/set1/yellow.gif","img/card_backs/set2/orange.gif","img/card_backs/set2/pink.gif","img/card_backs/set2/blue.gif","img/card_backs/set2/gray.gif","""event"",""trial"",""time""
""focus"",""0"",""0""
""fullscreenenter"",""1"",""3388""
","
","""event"",""trial"",""time""
""focus"",""0"",""0""
","""event"",""trial"",""time""
""fullscreenenter"",""1"",""3388""
","
","","null","","null","","fixation","2021-04-12 13:34:24.944","","","","","",""
"card-selection-trial","54","240111","0.0-17.0-1.9","A535","true","img/card_backs/set1/purple.gif","img/card_backs/set1/green.gif","img/card_backs/set1/red.gif","img/card_backs/set1/yellow.gif","img/card_backs/set2/orange.gif","img/card_backs/set2/pink.gif","img/card_backs/set2/blue.gif","img/card_backs/set2/gray.gif","""event"",""trial"",""time""
""focus"",""0"",""0""
""fullscreenenter"",""1"",""3388""
","
","""event"",""trial"",""time""
""focus"",""0"",""0""
","""event"",""trial"",""time""
""fullscreenenter"",""1"",""3388""
","
","","1507","","","","practice","2021-04-12 13:34:28.460","img/practice_cards/backs/black.gif","3","-100","0","",""
"casino-keyboard-response","55","243477","0.0-18.0","A535","true","img/card_backs/set1/purple.gif","img/card_backs/set1/green.gif","img/card_backs/set1/red.gif","img/card_backs/set1/yellow.gif","img/card_backs/set2/orange.gif","img/card_backs/set2/pink.gif","img/card_backs/set2/blue.gif","img/card_backs/set2/gray.gif","""event"",""trial"",""time""
""focus"",""0"",""0""
""fullscreenenter"",""1"",""3388""
","
","""event"",""trial"",""time""
""focus"",""0"",""0""
","""event"",""trial"",""time""
""fullscreenenter"",""1"",""3388""
","
","","3364","You earned 300 tokens during the practice round!","82","","","2021-04-12 13:34:31.826","","","","","",""
"casino-keyboard-response","56","248149","0.0-19.0-0.0","A535","true","img/card_backs/set1/purple.gif","img/card_backs/set1/green.gif","img/card_backs/set1/red.gif","img/card_backs/set1/yellow.gif","img/card_backs/set2/orange.gif","img/card_backs/set2/pink.gif","img/card_backs/set2/blue.gif","img/card_backs/set2/gray.gif","""event"",""trial"",""time""
""focus"",""0"",""0""
""fullscreenenter"",""1"",""3388""
","
","""event"",""trial"",""time""
""focus"",""0"",""0""
","""event"",""trial"",""time""
""fullscreenenter"",""1"",""3388""
","
","","4670","Nice job! You are almost ready to play the real game.","86","","instructions","2021-04-12 13:34:36.498","","","","","",""
"casino-keyboard-response","57","253877","0.0-19.0-0.1","A535","true","img/card_backs/set1/purple.gif","img/card_backs/set1/green.gif","img/card_backs/set1/red.gif","img/card_backs/set1/yellow.gif","img/card_backs/set2/orange.gif","img/card_backs/set2/pink.gif","img/card_backs/set2/blue.gif","img/card_backs/set2/gray.gif","""event"",""trial"",""time""
""focus"",""0"",""0""
""fullscreenenter"",""1"",""3388""
","
","""event"",""trial"",""time""
""focus"",""0"",""0""
","""event"",""trial"",""time""
""fullscreenenter"",""1"",""3388""
","
","","5727","You will play two rounds of the real game. In each round, you will pick 100 cards in total.","73","","instructions","2021-04-12 13:34:42.226","","","","","",""
"casino-keyboard-response","58","257661","0.0-19.0-0.2","A535","true","img/card_backs/set1/purple.gif","img/card_backs/set1/green.gif","img/card_backs/set1/red.gif","img/card_backs/set1/yellow.gif","img/card_backs/set2/orange.gif","img/card_backs/set2/pink.gif","img/card_backs/set2/blue.gif","img/card_backs/set2/gray.gif","""event"",""trial"",""time""
""focus"",""0"",""0""
""fullscreenenter"",""1"",""3388""
","
","""event"",""trial"",""time""
""focus"",""0"",""0""
","""event"",""trial"",""time""
""fullscreenenter"",""1"",""3388""
","
","","3783","We are now going to ask you some questions about how the game works.","66","","instructions","2021-04-12 13:34:46.010","","","","","",""
"casino-keyboard-response","59","263468","0.0-19.0-0.3","A535","true","img/card_backs/set1/purple.gif","img/card_backs/set1/green.gif","img/card_backs/set1/red.gif","img/card_backs/set1/yellow.gif","img/card_backs/set2/orange.gif","img/card_backs/set2/pink.gif","img/card_backs/set2/blue.gif","img/card_backs/set2/gray.gif","""event"",""trial"",""time""
""focus"",""0"",""0""
""fullscreenenter"",""1"",""3388""
","
","""event"",""trial"",""time""
""focus"",""0"",""0""
","""event"",""trial"",""time""
""fullscreenenter"",""1"",""3388""
","
","","5807","Answer carefully. You will not be able to begin the game until you answer them correctly.","67","","instructions","2021-04-12 13:34:51.817","","","","","",""
"casino-comp_q","60","270700","0.0-20.0-0.0","A535","true","img/card_backs/set1/purple.gif","img/card_backs/set1/green.gif","img/card_backs/set1/red.gif","img/card_backs/set1/yellow.gif","img/card_backs/set2/orange.gif","img/card_backs/set2/pink.gif","img/card_backs/set2/blue.gif","img/card_backs/set2/gray.gif","""event"",""trial"",""time""
""focus"",""0"",""0""
""fullscreenenter"",""1"",""3388""
","
","""event"",""trial"",""time""
""focus"",""0"",""0""
","""event"",""trial"",""time""
""fullscreenenter"",""1"",""3388""
","
","","7230","True or False: All the decks have some cards that cause you to win tokens and some cards that cause you to lose tokens.","84","","","2021-04-12 13:34:59.050","","","","","",""
"casino-keyboard-response","61","275164","0.0-20.0-1.0","A535","true","img/card_backs/set1/purple.gif","img/card_backs/set1/green.gif","img/card_backs/set1/red.gif","img/card_backs/set1/yellow.gif","img/card_backs/set2/orange.gif","img/card_backs/set2/pink.gif","img/card_backs/set2/blue.gif","img/card_backs/set2/gray.gif","""event"",""trial"",""time""
""focus"",""0"",""0""
""fullscreenenter"",""1"",""3388""
","
","""event"",""trial"",""time""
""focus"",""0"",""0""
","""event"",""trial"",""time""
""fullscreenenter"",""1"",""3388""
","
","","4461","True is correct! All the decks have a mix of winning and losing cards.","77","","","2021-04-12 13:35:03.513","","","","","true",""
"casino-comp_q","62","279556","0.0-21.0-0.0","A535","true","img/card_backs/set1/purple.gif","img/card_backs/set1/green.gif","img/card_backs/set1/red.gif","img/card_backs/set1/yellow.gif","img/card_backs/set2/orange.gif","img/card_backs/set2/pink.gif","img/card_backs/set2/blue.gif","img/card_backs/set2/gray.gif","""event"",""trial"",""time""
""focus"",""0"",""0""
""fullscreenenter"",""1"",""3388""
","
","""event"",""trial"",""time""
""focus"",""0"",""0""
","""event"",""trial"",""time""
""fullscreenenter"",""1"",""3388""
","
","","4389","True or False: You will have as much time as you want to make your response.","70","","","2021-04-12 13:35:07.905","","","","","",""
"casino-keyboard-response","63","283252","0.0-21.0-1.0","A535","true","img/card_backs/set1/purple.gif","img/card_backs/set1/green.gif","img/card_backs/set1/red.gif","img/card_backs/set1/yellow.gif","img/card_backs/set2/orange.gif","img/card_backs/set2/pink.gif","img/card_backs/set2/blue.gif","img/card_backs/set2/gray.gif","""event"",""trial"",""time""
""focus"",""0"",""0""
""fullscreenenter"",""1"",""3388""
","
","""event"",""trial"",""time""
""focus"",""0"",""0""
","""event"",""trial"",""time""
""fullscreenenter"",""1"",""3388""
","
","","3694","False is correct! You will only have 10 seconds to make each choice.","75","","","2021-04-12 13:35:11.601","","","","","true",""
"casino-comp_q","64","287660","0.0-22.0-0.0","A535","true","img/card_backs/set1/purple.gif","img/card_backs/set1/green.gif","img/card_backs/set1/red.gif","img/card_backs/set1/yellow.gif","img/card_backs/set2/orange.gif","img/card_backs/set2/pink.gif","img/card_backs/set2/blue.gif","img/card_backs/set2/gray.gif","""event"",""trial"",""time""
""focus"",""0"",""0""
""fullscreenenter"",""1"",""3388""
","
","""event"",""trial"",""time""
""focus"",""0"",""0""
","""event"",""trial"",""time""
""fullscreenenter"",""1"",""3388""
","
","","4405","True or False: The location of the deck determines how lucky it is.","70","","","2021-04-12 13:35:16.009","","","","","",""
"casino-keyboard-response","65","292436","0.0-22.0-1.0","A535","true","img/card_backs/set1/purple.gif","img/card_backs/set1/green.gif","img/card_backs/set1/red.gif","img/card_backs/set1/yellow.gif","img/card_backs/set2/orange.gif","img/card_backs/set2/pink.gif","img/card_backs/set2/blue.gif","img/card_backs/set2/gray.gif","""event"",""trial"",""time""
""focus"",""0"",""0""
""fullscreenenter"",""1"",""3388""
","
","""event"",""trial"",""time""
""focus"",""0"",""0""
","""event"",""trial"",""time""
""fullscreenenter"",""1"",""3388""
","
","","4774","False is correct! The <i>color</i>  of the deck determines how lucky or unlucky it is.","68","","","2021-04-12 13:35:20.785","","","","","true",""
"casino-keyboard-response","66","296643","0.0-23.0-0.0","A535","true","img/card_backs/set1/purple.gif","img/card_backs/set1/green.gif","img/card_backs/set1/red.gif","img/card_backs/set1/yellow.gif","img/card_backs/set2/orange.gif","img/card_backs/set2/pink.gif","img/card_backs/set2/blue.gif","img/card_backs/set2/gray.gif","""event"",""trial"",""time""
""focus"",""0"",""0""
""fullscreenenter"",""1"",""3388""
","
","""event"",""trial"",""time""
""focus"",""0"",""0""
","""event"",""trial"",""time""
""fullscreenenter"",""1"",""3388""
","
","","4205","Great job! Now it's time to start the real game.","82","","instructions","2021-04-12 13:35:24.993","","","","","",""
"casino-keyboard-response","67","301580","0.0-23.0-0.1","A535","true","img/card_backs/set1/purple.gif","img/card_backs/set1/green.gif","img/card_backs/set1/red.gif","img/card_backs/set1/yellow.gif","img/card_backs/set2/orange.gif","img/card_backs/set2/pink.gif","img/card_backs/set2/blue.gif","img/card_backs/set2/gray.gif","""event"",""trial"",""time""
""focus"",""0"",""0""
""fullscreenenter"",""1"",""3388""
","
","""event"",""trial"",""time""
""focus"",""0"",""0""
","""event"",""trial"",""time""
""fullscreenenter"",""1"",""3388""
","
","","4934","Before we start, we're going to head into a new room of the casino.","86","","instructions","2021-04-12 13:35:29.929","","","","","",""
"casino-keyboard-response","68","307397","0.0-24.0-0.0","A535","true","img/card_backs/set1/purple.gif","img/card_backs/set1/green.gif","img/card_backs/set1/red.gif","img/card_backs/set1/yellow.gif","img/card_backs/set2/orange.gif","img/card_backs/set2/pink.gif","img/card_backs/set2/blue.gif","img/card_backs/set2/gray.gif","""event"",""trial"",""time""
""focus"",""0"",""0""
""fullscreenenter"",""1"",""3388""
","
","""event"",""trial"",""time""
""focus"",""0"",""0""
","""event"",""trial"",""time""
""fullscreenenter"",""1"",""3388""
","
","","5814","Here we are! The real game will use different cards, but the rules will be the same.","71","","instructions","2021-04-12 13:35:35.746","","","","","",""
"casino-keyboard-response","69","316548","0.0-24.0-0.1","A535","true","img/card_backs/set1/purple.gif","img/card_backs/set1/green.gif","img/card_backs/set1/red.gif","img/card_backs/set1/yellow.gif","img/card_backs/set2/orange.gif","img/card_backs/set2/pink.gif","img/card_backs/set2/blue.gif","img/card_backs/set2/gray.gif","""event"",""trial"",""time""
""focus"",""0"",""0""
""fullscreenenter"",""1"",""3388""
","
","""event"",""trial"",""time""
""focus"",""0"",""0""
","""event"",""trial"",""time""
""fullscreenenter"",""1"",""3388""
","
","","9150","Ready? Put your fingers over the '2', '4', 6', and '8' keys so you are ready to play the game. </br> Then press 2 to start.","50","","instructions","2021-04-12 13:35:44.897","","","","","",""
"casino-fixation","70","317050","0.0-25.0-0.0","A535","true","img/card_backs/set1/purple.gif","img/card_backs/set1/green.gif","img/card_backs/set1/red.gif","img/card_backs/set1/yellow.gif","img/card_backs/set2/orange.gif","img/card_backs/set2/pink.gif","img/card_backs/set2/blue.gif","img/card_backs/set2/gray.gif","""event"",""trial"",""time""
""focus"",""0"",""0""
""fullscreenenter"",""1"",""3388""
","
","""event"",""trial"",""time""
""focus"",""0"",""0""
","""event"",""trial"",""time""
""fullscreenenter"",""1"",""3388""
","
","","null","","null","","fixation","2021-04-12 13:35:45.400","","","","","",""
"card-selection-trial","71","320421","0.0-25.0-1.0","A535","true","img/card_backs/set1/purple.gif","img/card_backs/set1/green.gif","img/card_backs/set1/red.gif","img/card_backs/set1/yellow.gif","img/card_backs/set2/orange.gif","img/card_backs/set2/pink.gif","img/card_backs/set2/blue.gif","img/card_backs/set2/gray.gif","""event"",""trial"",""time""
""focus"",""0"",""0""
""fullscreenenter"",""1"",""3388""
","
","""event"",""trial"",""time""
""focus"",""0"",""0""
","""event"",""trial"",""time""
""fullscreenenter"",""1"",""3388""
","
","","1353","","","","real_trial","2021-04-12 13:35:48.770","img/card_backs/set1/red.gif","0","40","1","",""
"casino-fixation","72","320937","0.0-25.0-0.1","A535","true","img/card_backs/set1/purple.gif","img/card_backs/set1/green.gif","img/card_backs/set1/red.gif","img/card_backs/set1/yellow.gif","img/card_backs/set2/orange.gif","img/card_backs/set2/pink.gif","img/card_backs/set2/blue.gif","img/card_backs/set2/gray.gif","""event"",""trial"",""time""
""focus"",""0"",""0""
""fullscreenenter"",""1"",""3388""
","
","""event"",""trial"",""time""
""focus"",""0"",""0""
","""event"",""trial"",""time""
""fullscreenenter"",""1"",""3388""
","
","","null","","null","","fixation","2021-04-12 13:35:49.286","","","","","",""
"card-selection-trial","73","323664","0.0-25.0-1.1","A535","true","img/card_backs/set1/purple.gif","img/card_backs/set1/green.gif","img/card_backs/set1/red.gif","img/card_backs/set1/yellow.gif","img/card_backs/set2/orange.gif","img/card_backs/set2/pink.gif","img/card_backs/set2/blue.gif","img/card_backs/set2/gray.gif","""event"",""trial"",""time""
""focus"",""0"",""0""
""fullscreenenter"",""1"",""3388""
","
","""event"",""trial"",""time""
""focus"",""0"",""0""
","""event"",""trial"",""time""
""fullscreenenter"",""1"",""3388""
","
","","710","","","","real_trial","2021-04-12 13:35:52.013","img/card_backs/set1/yellow.gif","0","60","1","",""
"casino-fixation","74","324172","0.0-25.0-0.2","A535","true","img/card_backs/set1/purple.gif","img/card_backs/set1/green.gif","img/card_backs/set1/red.gif","img/card_backs/set1/yellow.gif","img/card_backs/set2/orange.gif","img/card_backs/set2/pink.gif","img/card_backs/set2/blue.gif","img/card_backs/set2/gray.gif","""event"",""trial"",""time""
""focus"",""0"",""0""
""fullscreenenter"",""1"",""3388""
","
","""event"",""trial"",""time""
""focus"",""0"",""0""
","""event"",""trial"",""time""
""fullscreenenter"",""1"",""3388""
","
","","null","","null","","fixation","2021-04-12 13:35:52.522","","","","","",""
"card-selection-trial","75","327699","0.0-25.0-1.2","A535","true","img/card_backs/set1/purple.gif","img/card_backs/set1/green.gif","img/card_backs/set1/red.gif","img/card_backs/set1/yellow.gif","img/card_backs/set2/orange.gif","img/card_backs/set2/pink.gif","img/card_backs/set2/blue.gif","img/card_backs/set2/gray.gif","""event"",""trial"",""time""
""focus"",""0"",""0""
""fullscreenenter"",""1"",""3388""
","
","""event"",""trial"",""time""
""focus"",""0"",""0""
","""event"",""trial"",""time""
""fullscreenenter"",""1"",""3388""
","
","","1513","","","","real_trial","2021-04-12 13:35:56.049","img/card_backs/set1/purple.gif","3","-190","1","",""
"casino-fixation","76","328208","0.0-25.0-0.3","A535","true","img/card_backs/set1/purple.gif","img/card_backs/set1/green.gif","img/card_backs/set1/red.gif","img/card_backs/set1/yellow.gif","img/card_backs/set2/orange.gif","img/card_backs/set2/pink.gif","img/card_backs/set2/blue.gif","img/card_backs/set2/gray.gif","""event"",""trial"",""time""
""focus"",""0"",""0""
""fullscreenenter"",""1"",""3388""
","
","""event"",""trial"",""time""
""focus"",""0"",""0""
","""event"",""trial"",""time""
""fullscreenenter"",""1"",""3388""
","
","","null","","null","","fixation","2021-04-12 13:35:56.558","","","","","",""
"card-selection-trial","77","331071","0.0-25.0-1.3","A535","true","img/card_backs/set1/purple.gif","img/card_backs/set1/green.gif","img/card_backs/set1/red.gif","img/card_backs/set1/yellow.gif","img/card_backs/set2/orange.gif","img/card_backs/set2/pink.gif","img/card_backs/set2/blue.gif","img/card_backs/set2/gray.gif","""event"",""trial"",""time""
""focus"",""0"",""0""
""fullscreenenter"",""1"",""3388""
","
","""event"",""trial"",""time""
""focus"",""0"",""0""
","""event"",""trial"",""time""
""fullscreenenter"",""1"",""3388""
","
","","853","","","","real_trial","2021-04-12 13:35:59.420","img/card_backs/set1/yellow.gif","1","40","1","",""
"casino-fixation","78","331579","0.0-25.0-0.4","A535","true","img/card_backs/set1/purple.gif","img/card_backs/set1/green.gif","img/card_backs/set1/red.gif","img/card_backs/set1/yellow.gif","img/card_backs/set2/orange.gif","img/card_backs/set2/pink.gif","img/card_backs/set2/blue.gif","img/card_backs/set2/gray.gif","""event"",""trial"",""time""
""focus"",""0"",""0""
""fullscreenenter"",""1"",""3388""
","
","""event"",""trial"",""time""
""focus"",""0"",""0""
","""event"",""trial"",""time""
""fullscreenenter"",""1"",""3388""
","
","","null","","null","","fixation","2021-04-12 13:35:59.928","","","","","",""
"card-selection-trial","79","334738","0.0-25.0-1.4","A535","true","img/card_backs/set1/purple.gif","img/card_backs/set1/green.gif","img/card_backs/set1/red.gif","img/card_backs/set1/yellow.gif","img/card_backs/set2/orange.gif","img/card_backs/set2/pink.gif","img/card_backs/set2/blue.gif","img/card_backs/set2/gray.gif","""event"",""trial"",""time""
""focus"",""0"",""0""
""fullscreenenter"",""1"",""3388""
","
","""event"",""trial"",""time""
""focus"",""0"",""0""
","""event"",""trial"",""time""
""fullscreenenter"",""1"",""3388""
","
","","1140","","","","real_trial","2021-04-12 13:36:03.087","img/card_backs/set1/purple.gif","0","240","1","",""
"casino-fixation","80","335255","0.0-25.0-0.5","A535","true","img/card_backs/set1/purple.gif","img/card_backs/set1/green.gif","img/card_backs/set1/red.gif","img/card_backs/set1/yellow.gif","img/card_backs/set2/orange.gif","img/card_backs/set2/pink.gif","img/card_backs/set2/blue.gif","img/card_backs/set2/gray.gif","""event"",""trial"",""time""
""focus"",""0"",""0""
""fullscreenenter"",""1"",""3388""
","
","""event"",""trial"",""time""
""focus"",""0"",""0""
","""event"",""trial"",""time""
""fullscreenenter"",""1"",""3388""
","
","","null","","null","","fixation","2021-04-12 13:36:03.604","","","","","",""
"card-selection-trial","81","337952","0.0-25.0-1.5","A535","true","img/card_backs/set1/purple.gif","img/card_backs/set1/green.gif","img/card_backs/set1/red.gif","img/card_backs/set1/yellow.gif","img/card_backs/set2/orange.gif","img/card_backs/set2/pink.gif","img/card_backs/set2/blue.gif","img/card_backs/set2/gray.gif","""event"",""trial"",""time""
""focus"",""0"",""0""
""fullscreenenter"",""1"",""3388""
","
","""event"",""trial"",""time""
""focus"",""0"",""0""
","""event"",""trial"",""time""
""fullscreenenter"",""1"",""3388""
","
","","686","","","","real_trial","2021-04-12 13:36:06.301","img/card_backs/set1/purple.gif","0","-210","1","",""
"casino-fixation","82","338457","0.0-25.0-0.6","A535","true","img/card_backs/set1/purple.gif","img/card_backs/set1/green.gif","img/card_backs/set1/red.gif","img/card_backs/set1/yellow.gif","img/card_backs/set2/orange.gif","img/card_backs/set2/pink.gif","img/card_backs/set2/blue.gif","img/card_backs/set2/gray.gif","""event"",""trial"",""time""
""focus"",""0"",""0""
""fullscreenenter"",""1"",""3388""
","
","""event"",""trial"",""time""
""focus"",""0"",""0""
","""event"",""trial"",""time""
""fullscreenenter"",""1"",""3388""
","
","","null","","null","","fixation","2021-04-12 13:36:06.806","","","","","",""
"card-selection-trial","83","341928","0.0-25.0-1.6","A535","true","img/card_backs/set1/purple.gif","img/card_backs/set1/green.gif","img/card_backs/set1/red.gif","img/card_backs/set1/yellow.gif","img/card_backs/set2/orange.gif","img/card_backs/set2/pink.gif","img/card_backs/set2/blue.gif","img/card_backs/set2/gray.gif","""event"",""trial"",""time""
""focus"",""0"",""0""
""fullscreenenter"",""1"",""3388""
","
","""event"",""trial"",""time""
""focus"",""0"",""0""
","""event"",""trial"",""time""
""fullscreenenter"",""1"",""3388""
","
","","1460","","","","real_trial","2021-04-12 13:36:10.277","img/card_backs/set1/yellow.gif","0","-100","1","",""
"casino-fixation","84","342440","0.0-25.0-0.7","A535","true","img/card_backs/set1/purple.gif","img/card_backs/set1/green.gif","img/card_backs/set1/red.gif","img/card_backs/set1/yellow.gif","img/card_backs/set2/orange.gif","img/card_backs/set2/pink.gif","img/card_backs/set2/blue.gif","img/card_backs/set2/gray.gif","""event"",""trial"",""time""
""focus"",""0"",""0""
""fullscreenenter"",""1"",""3388""
","
","""event"",""trial"",""time""
""focus"",""0"",""0""
","""event"",""trial"",""time""
""fullscreenenter"",""1"",""3388""
","
","","null","","null","","fixation","2021-04-12 13:36:10.789","","","","","",""
"card-selection-trial","85","345507","0.0-25.0-1.7","A535","true","img/card_backs/set1/purple.gif","img/card_backs/set1/green.gif","img/card_backs/set1/red.gif","img/card_backs/set1/yellow.gif","img/card_backs/set2/orange.gif","img/card_backs/set2/pink.gif","img/card_backs/set2/blue.gif","img/card_backs/set2/gray.gif","""event"",""trial"",""time""
""focus"",""0"",""0""
""fullscreenenter"",""1"",""3388""
","
","""event"",""trial"",""time""
""focus"",""0"",""0""
","""event"",""trial"",""time""
""fullscreenenter"",""1"",""3388""
","
","","1054","","","","real_trial","2021-04-12 13:36:13.856","img/card_backs/set1/purple.gif","3","250","1","",""
"casino-fixation","86","346018","0.0-25.0-0.8","A535","true","img/card_backs/set1/purple.gif","img/card_backs/set1/green.gif","img/card_backs/set1/red.gif","img/card_backs/set1/yellow.gif","img/card_backs/set2/orange.gif","img/card_backs/set2/pink.gif","img/card_backs/set2/blue.gif","img/card_backs/set2/gray.gif","""event"",""trial"",""time""
""focus"",""0"",""0""
""fullscreenenter"",""1"",""3388""
","
","""event"",""trial"",""time""
""focus"",""0"",""0""
","""event"",""trial"",""time""
""fullscreenenter"",""1"",""3388""
","
","","null","","null","","fixation","2021-04-12 13:36:14.367","","","","","",""
"card-selection-trial","87","349007","0.0-25.0-1.8","A535","true","img/card_backs/set1/purple.gif","img/card_backs/set1/green.gif","img/card_backs/set1/red.gif","img/card_backs/set1/yellow.gif","img/card_backs/set2/orange.gif","img/card_backs/set2/pink.gif","img/card_backs/set2/blue.gif","img/card_backs/set2/gray.gif","""event"",""trial"",""time""
""focus"",""0"",""0""
""fullscreenenter"",""1"",""3388""
","
","""event"",""trial"",""time""
""focus"",""0"",""0""
","""event"",""trial"",""time""
""fullscreenenter"",""1"",""3388""
","
","","980","","","","real_trial","2021-04-12 13:36:17.356","img/card_backs/set1/purple.gif","2","260","1","",""
"casino-fixation","88","349522","0.0-25.0-0.9","A535","true","img/card_backs/set1/purple.gif","img/card_backs/set1/green.gif","img/card_backs/set1/red.gif","img/card_backs/set1/yellow.gif","img/card_backs/set2/orange.gif","img/card_backs/set2/pink.gif","img/card_backs/set2/blue.gif","img/card_backs/set2/gray.gif","""event"",""trial"",""time""
""focus"",""0"",""0""
""fullscreenenter"",""1"",""3388""
","
","""event"",""trial"",""time""
""focus"",""0"",""0""
","""event"",""trial"",""time""
""fullscreenenter"",""1"",""3388""
","
","","null","","null","","fixation","2021-04-12 13:36:17.871","","","","","",""
"card-selection-trial","89","352819","0.0-25.0-1.9","A535","true","img/card_backs/set1/purple.gif","img/card_backs/set1/green.gif","img/card_backs/set1/red.gif","img/card_backs/set1/yellow.gif","img/card_backs/set2/orange.gif","img/card_backs/set2/pink.gif","img/card_backs/set2/blue.gif","img/card_backs/set2/gray.gif","""event"",""trial"",""time""
""focus"",""0"",""0""
""fullscreenenter"",""1"",""3388""
","
","""event"",""trial"",""time""
""focus"",""0"",""0""
","""event"",""trial"",""time""
""fullscreenenter"",""1"",""3388""
","
","","1282","","","","real_trial","2021-04-12 13:36:21.168","img/card_backs/set1/red.gif","1","-100","1","",""
"casino-fixation","90","353335","0.0-25.0-0.10","A535","true","img/card_backs/set1/purple.gif","img/card_backs/set1/green.gif","img/card_backs/set1/red.gif","img/card_backs/set1/yellow.gif","img/card_backs/set2/orange.gif","img/card_backs/set2/pink.gif","img/card_backs/set2/blue.gif","img/card_backs/set2/gray.gif","""event"",""trial"",""time""
""focus"",""0"",""0""
""fullscreenenter"",""1"",""3388""
","
","""event"",""trial"",""time""
""focus"",""0"",""0""
","""event"",""trial"",""time""
""fullscreenenter"",""1"",""3388""
","
","","null","","null","","fixation","2021-04-12 13:36:21.684","","","","","",""
"card-selection-trial","91","357069","0.0-25.0-1.10","A535","true","img/card_backs/set1/purple.gif","img/card_backs/set1/green.gif","img/card_backs/set1/red.gif","img/card_backs/set1/yellow.gif","img/card_backs/set2/orange.gif","img/card_backs/set2/pink.gif","img/card_backs/set2/blue.gif","img/card_backs/set2/gray.gif","""event"",""trial"",""time""
""focus"",""0"",""0""
""fullscreenenter"",""1"",""3388""
","
","""event"",""trial"",""time""
""focus"",""0"",""0""
","""event"",""trial"",""time""
""fullscreenenter"",""1"",""3388""
","
","","1719","","","","real_trial","2021-04-12 13:36:25.419","img/card_backs/set1/green.gif","2","-200","1","",""
"casino-fixation","92","357585","0.0-25.0-0.11","A535","true","img/card_backs/set1/purple.gif","img/card_backs/set1/green.gif","img/card_backs/set1/red.gif","img/card_backs/set1/yellow.gif","img/card_backs/set2/orange.gif","img/card_backs/set2/pink.gif","img/card_backs/set2/blue.gif","img/card_backs/set2/gray.gif","""event"",""trial"",""time""
""focus"",""0"",""0""
""fullscreenenter"",""1"",""3388""
","
","""event"",""trial"",""time""
""focus"",""0"",""0""
","""event"",""trial"",""time""
""fullscreenenter"",""1"",""3388""
","
","","null","","null","","fixation","2021-04-12 13:36:25.934","","","","","",""
"card-selection-trial","93","360580","0.0-25.0-1.11","A535","true","img/card_backs/set1/purple.gif","img/card_backs/set1/green.gif","img/card_backs/set1/red.gif","img/card_backs/set1/yellow.gif","img/card_backs/set2/orange.gif","img/card_backs/set2/pink.gif","img/card_backs/set2/blue.gif","img/card_backs/set2/gray.gif","""event"",""trial"",""time""
""focus"",""0"",""0""
""fullscreenenter"",""1"",""3388""
","
","""event"",""trial"",""time""
""focus"",""0"",""0""
","""event"",""trial"",""time""
""fullscreenenter"",""1"",""3388""
","
","","987","","","","real_trial","2021-04-12 13:36:28.929","img/card_backs/set1/green.gif","3","250","1","",""
"casino-fixation","94","361090","0.0-25.0-0.12","A535","true","img/card_backs/set1/purple.gif","img/card_backs/set1/green.gif","img/card_backs/set1/red.gif","img/card_backs/set1/yellow.gif","img/card_backs/set2/orange.gif","img/card_backs/set2/pink.gif","img/card_backs/set2/blue.gif","img/card_backs/set2/gray.gif","""event"",""trial"",""time""
""focus"",""0"",""0""
""fullscreenenter"",""1"",""3388""
","
","""event"",""trial"",""time""
""focus"",""0"",""0""
","""event"",""trial"",""time""
""fullscreenenter"",""1"",""3388""
","
","","null","","null","","fixation","2021-04-12 13:36:29.439","","","","","",""
"card-selection-trial","95","364033","0.0-25.0-1.12","A535","true","img/card_backs/set1/purple.gif","img/card_backs/set1/green.gif","img/card_backs/set1/red.gif","img/card_backs/set1/yellow.gif","img/card_backs/set2/orange.gif","img/card_backs/set2/pink.gif","img/card_backs/set2/blue.gif","img/card_backs/set2/gray.gif","""event"",""trial"",""time""
""focus"",""0"",""0""
""fullscreenenter"",""1"",""3388""
","
","""event"",""trial"",""time""
""focus"",""0"",""0""
","""event"",""trial"",""time""
""fullscreenenter"",""1"",""3388""
","
","","923","","","","real_trial","2021-04-12 13:36:32.382","img/card_backs/set1/purple.gif","3","250","1","",""
"casino-fixation","96","364548","0.0-25.0-0.13","A535","true","img/card_backs/set1/purple.gif","img/card_backs/set1/green.gif","img/card_backs/set1/red.gif","img/card_backs/set1/yellow.gif","img/card_backs/set2/orange.gif","img/card_backs/set2/pink.gif","img/card_backs/set2/blue.gif","img/card_backs/set2/gray.gif","""event"",""trial"",""time""
""focus"",""0"",""0""
""fullscreenenter"",""1"",""3388""
","
","""event"",""trial"",""time""
""focus"",""0"",""0""
","""event"",""trial"",""time""
""fullscreenenter"",""1"",""3388""
","
","","null","","null","","fixation","2021-04-12 13:36:32.897","","","","","",""
"card-selection-trial","97","367974","0.0-25.0-1.13","A535","true","img/card_backs/set1/purple.gif","img/card_backs/set1/green.gif","img/card_backs/set1/red.gif","img/card_backs/set1/yellow.gif","img/card_backs/set2/orange.gif","img/card_backs/set2/pink.gif","img/card_backs/set2/blue.gif","img/card_backs/set2/gray.gif","""event"",""trial"",""time""
""focus"",""0"",""0""
""fullscreenenter"",""1"",""3388""
","
","""event"",""trial"",""time""
""focus"",""0"",""0""
","""event"",""trial"",""time""
""fullscreenenter"",""1"",""3388""
","
","","1417","","","","real_trial","2021-04-12 13:36:36.323","img/card_backs/set1/purple.gif","1","-210","1","",""
"casino-fixation","98","368482","0.0-25.0-0.14","A535","true","img/card_backs/set1/purple.gif","img/card_backs/set1/green.gif","img/card_backs/set1/red.gif","img/card_backs/set1/yellow.gif","img/card_backs/set2/orange.gif","img/card_backs/set2/pink.gif","img/card_backs/set2/blue.gif","img/card_backs/set2/gray.gif","""event"",""trial"",""time""
""focus"",""0"",""0""
""fullscreenenter"",""1"",""3388""
","
","""event"",""trial"",""time""
""focus"",""0"",""0""
","""event"",""trial"",""time""
""fullscreenenter"",""1"",""3388""
","
","","null","","null","","fixation","2021-04-12 13:36:36.832","","","","","",""
"card-selection-trial","99","372151","0.0-25.0-1.14","A535","true","img/card_backs/set1/purple.gif","img/card_backs/set1/green.gif","img/card_backs/set1/red.gif","img/card_backs/set1/yellow.gif","img/card_backs/set2/orange.gif","img/card_backs/set2/pink.gif","img/card_backs/set2/blue.gif","img/card_backs/set2/gray.gif","""event"",""trial"",""time""
""focus"",""0"",""0""
""fullscreenenter"",""1"",""3388""
","
","""event"",""trial"",""time""
""focus"",""0"",""0""
","""event"",""trial"",""time""
""fullscreenenter"",""1"",""3388""
","
","","1651","","","","real_trial","2021-04-12 13:36:40.500","img/card_backs/set1/red.gif","0","50","1","",""
"casino-fixation","100","372661","0.0-25.0-0.15","A535","true","img/card_backs/set1/purple.gif","img/card_backs/set1/green.gif","img/card_backs/set1/red.gif","img/card_backs/set1/yellow.gif","img/card_backs/set2/orange.gif","img/card_backs/set2/pink.gif","img/card_backs/set2/blue.gif","img/card_backs/set2/gray.gif","""event"",""trial"",""time""
""focus"",""0"",""0""
""fullscreenenter"",""1"",""3388""
","
","""event"",""trial"",""time""
""focus"",""0"",""0""
","""event"",""trial"",""time""
""fullscreenenter"",""1"",""3388""
","
","","null","","null","","fixation","2021-04-12 13:36:41.010","","","","","",""
"card-selection-trial","101","376481","0.0-25.0-1.15","A535","true","img/card_backs/set1/purple.gif","img/card_backs/set1/green.gif","img/card_backs/set1/red.gif","img/card_backs/set1/yellow.gif","img/card_backs/set2/orange.gif","img/card_backs/set2/pink.gif","img/card_backs/set2/blue.gif","img/card_backs/set2/gray.gif","""event"",""trial"",""time""
""focus"",""0"",""0""
""fullscreenenter"",""1"",""3388""
","
","""event"",""trial"",""time""
""focus"",""0"",""0""
","""event"",""trial"",""time""
""fullscreenenter"",""1"",""3388""
","
","","1809","","","","real_trial","2021-04-12 13:36:44.830","img/card_backs/set1/green.gif","2","-190","1","",""
"casino-fixation","102","376987","0.0-25.0-0.16","A535","true","img/card_backs/set1/purple.gif","img/card_backs/set1/green.gif","img/card_backs/set1/red.gif","img/card_backs/set1/yellow.gif","img/card_backs/set2/orange.gif","img/card_backs/set2/pink.gif","img/card_backs/set2/blue.gif","img/card_backs/set2/gray.gif","""event"",""trial"",""time""
""focus"",""0"",""0""
""fullscreenenter"",""1"",""3388""
","
","""event"",""trial"",""time""
""focus"",""0"",""0""
","""event"",""trial"",""time""
""fullscreenenter"",""1"",""3388""
","
","","null","","null","","fixation","2021-04-12 13:36:45.336","","","","","",""
"card-selection-trial","103","380092","0.0-25.0-1.16","A535","true","img/card_backs/set1/purple.gif","img/card_backs/set1/green.gif","img/card_backs/set1/red.gif","img/card_backs/set1/yellow.gif","img/card_backs/set2/orange.gif","img/card_backs/set2/pink.gif","img/card_backs/set2/blue.gif","img/card_backs/set2/gray.gif","""event"",""trial"",""time""
""focus"",""0"",""0""
""fullscreenenter"",""1"",""3388""
","
","""event"",""trial"",""time""
""focus"",""0"",""0""
","""event"",""trial"",""time""
""fullscreenenter"",""1"",""3388""
","
","","1095","","","","real_trial","2021-04-12 13:36:48.442","img/card_backs/set1/green.gif","3","-210","1","",""
"casino-fixation","104","380606","0.0-25.0-0.17","A535","true","img/card_backs/set1/purple.gif","img/card_backs/set1/green.gif","img/card_backs/set1/red.gif","img/card_backs/set1/yellow.gif","img/card_backs/set2/orange.gif","img/card_backs/set2/pink.gif","img/card_backs/set2/blue.gif","img/card_backs/set2/gray.gif","""event"",""trial"",""time""
""focus"",""0"",""0""
""fullscreenenter"",""1"",""3388""
","
","""event"",""trial"",""time""
""focus"",""0"",""0""
","""event"",""trial"",""time""
""fullscreenenter"",""1"",""3388""
","
","","null","","null","","fixation","2021-04-12 13:36:48.956","","","","","",""
"card-selection-trial","105","383851","0.0-25.0-1.17","A535","true","img/card_backs/set1/purple.gif","img/card_backs/set1/green.gif","img/card_backs/set1/red.gif","img/card_backs/set1/yellow.gif","img/card_backs/set2/orange.gif","img/card_backs/set2/pink.gif","img/card_backs/set2/blue.gif","img/card_backs/set2/gray.gif","""event"",""trial"",""time""
""focus"",""0"",""0""
""fullscreenenter"",""1"",""3388""
","
","""event"",""trial"",""time""
""focus"",""0"",""0""
","""event"",""trial"",""time""
""fullscreenenter"",""1"",""3388""
","
","","1230","","","","real_trial","2021-04-12 13:36:52.200","img/card_backs/set1/green.gif","3","240","1","",""
"casino-fixation","106","384366","0.0-25.0-0.18","A535","true","img/card_backs/set1/purple.gif","img/card_backs/set1/green.gif","img/card_backs/set1/red.gif","img/card_backs/set1/yellow.gif","img/card_backs/set2/orange.gif","img/card_backs/set2/pink.gif","img/card_backs/set2/blue.gif","img/card_backs/set2/gray.gif","""event"",""trial"",""time""
""focus"",""0"",""0""
""fullscreenenter"",""1"",""3388""
","
","""event"",""trial"",""time""
""focus"",""0"",""0""
","""event"",""trial"",""time""
""fullscreenenter"",""1"",""3388""
","
","","null","","null","","fixation","2021-04-12 13:36:52.715","","","","","",""
"card-selection-trial","107","387641","0.0-25.0-1.18","A535","true","img/card_backs/set1/purple.gif","img/card_backs/set1/green.gif","img/card_backs/set1/red.gif","img/card_backs/set1/yellow.gif","img/card_backs/set2/orange.gif","img/card_backs/set2/pink.gif","img/card_backs/set2/blue.gif","img/card_backs/set2/gray.gif","""event"",""trial"",""time""
""focus"",""0"",""0""
""fullscreenenter"",""1"",""3388""
","
","""event"",""trial"",""time""
""focus"",""0"",""0""
","""event"",""trial"",""time""
""fullscreenenter"",""1"",""3388""
","
","","1255","","","","real_trial","2021-04-12 13:36:55.991","img/card_backs/set1/purple.gif","0","260","1","",""
"casino-fixation","108","388150","0.0-25.0-0.19","A535","true","img/card_backs/set1/purple.gif","img/card_backs/set1/green.gif","img/card_backs/set1/red.gif","img/card_backs/set1/yellow.gif","img/card_backs/set2/orange.gif","img/card_backs/set2/pink.gif","img/card_backs/set2/blue.gif","img/card_backs/set2/gray.gif","""event"",""trial"",""time""
""focus"",""0"",""0""
""fullscreenenter"",""1"",""3388""
","
","""event"",""trial"",""time""
""focus"",""0"",""0""
","""event"",""trial"",""time""
""fullscreenenter"",""1"",""3388""
","
","","null","","null","","fixation","2021-04-12 13:36:56.499","","","","","",""
"card-selection-trial","109","390987","0.0-25.0-1.19","A535","true","img/card_backs/set1/purple.gif","img/card_backs/set1/green.gif","img/card_backs/set1/red.gif","img/card_backs/set1/yellow.gif","img/card_backs/set2/orange.gif","img/card_backs/set2/pink.gif","img/card_backs/set2/blue.gif","img/card_backs/set2/gray.gif","""event"",""trial"",""time""
""focus"",""0"",""0""
""fullscreenenter"",""1"",""3388""
","
","""event"",""trial"",""time""
""focus"",""0"",""0""
","""event"",""trial"",""time""
""fullscreenenter"",""1"",""3388""
","
","","824","","","","real_trial","2021-04-12 13:36:59.337","img/card_backs/set1/green.gif","2","250","1","",""
"casino-fixation","110","391503","0.0-25.0-0.20","A535","true","img/card_backs/set1/purple.gif","img/card_backs/set1/green.gif","img/card_backs/set1/red.gif","img/card_backs/set1/yellow.gif","img/card_backs/set2/orange.gif","img/card_backs/set2/pink.gif","img/card_backs/set2/blue.gif","img/card_backs/set2/gray.gif","""event"",""trial"",""time""
""focus"",""0"",""0""
""fullscreenenter"",""1"",""3388""
","
","""event"",""trial"",""time""
""focus"",""0"",""0""
","""event"",""trial"",""time""
""fullscreenenter"",""1"",""3388""
","
","","null","","null","","fixation","2021-04-12 13:36:59.852","","","","","",""
"card-selection-trial","111","394317","0.0-25.0-1.20","A535","true","img/card_backs/set1/purple.gif","img/card_backs/set1/green.gif","img/card_backs/set1/red.gif","img/card_backs/set1/yellow.gif","img/card_backs/set2/orange.gif","img/card_backs/set2/pink.gif","img/card_backs/set2/blue.gif","img/card_backs/set2/gray.gif","""event"",""trial"",""time""
""focus"",""0"",""0""
""fullscreenenter"",""1"",""3388""
","
","""event"",""trial"",""time""
""focus"",""0"",""0""
","""event"",""trial"",""time""
""fullscreenenter"",""1"",""3388""
","
","","806","","","","real_trial","2021-04-12 13:37:02.667","img/card_backs/set1/red.gif","1","60","1","",""
"casino-fixation","112","394823","0.0-25.0-0.21","A535","true","img/card_backs/set1/purple.gif","img/card_backs/set1/green.gif","img/card_backs/set1/red.gif","img/card_backs/set1/yellow.gif","img/card_backs/set2/orange.gif","img/card_backs/set2/pink.gif","img/card_backs/set2/blue.gif","img/card_backs/set2/gray.gif","""event"",""trial"",""time""
""focus"",""0"",""0""
""fullscreenenter"",""1"",""3388""
","
","""event"",""trial"",""time""
""focus"",""0"",""0""
","""event"",""trial"",""time""
""fullscreenenter"",""1"",""3388""
","
","","null","","null","","fixation","2021-04-12 13:37:03.172","","","","","",""
"card-selection-trial","113","397775","0.0-25.0-1.21","A535","true","img/card_backs/set1/purple.gif","img/card_backs/set1/green.gif","img/card_backs/set1/red.gif","img/card_backs/set1/yellow.gif","img/card_backs/set2/orange.gif","img/card_backs/set2/pink.gif","img/card_backs/set2/blue.gif","img/card_backs/set2/gray.gif","""event"",""trial"",""time""
""focus"",""0"",""0""
""fullscreenenter"",""1"",""3388""
","
","""event"",""trial"",""time""
""focus"",""0"",""0""
","""event"",""trial"",""time""
""fullscreenenter"",""1"",""3388""
","
","","933","","","","real_trial","2021-04-12 13:37:06.124","img/card_backs/set1/green.gif","0","250","1","",""
"casino-fixation","114","398290","0.0-25.0-0.22","A535","true","img/card_backs/set1/purple.gif","img/card_backs/set1/green.gif","img/card_backs/set1/red.gif","img/card_backs/set1/yellow.gif","img/card_backs/set2/orange.gif","img/card_backs/set2/pink.gif","img/card_backs/set2/blue.gif","img/card_backs/set2/gray.gif","""event"",""trial"",""time""
""focus"",""0"",""0""
""fullscreenenter"",""1"",""3388""
","
","""event"",""trial"",""time""
""focus"",""0"",""0""
","""event"",""trial"",""time""
""fullscreenenter"",""1"",""3388""
","
","","null","","null","","fixation","2021-04-12 13:37:06.639","","","","","",""
"card-selection-trial","115","400841","0.0-25.0-1.22","A535","true","img/card_backs/set1/purple.gif","img/card_backs/set1/green.gif","img/card_backs/set1/red.gif","img/card_backs/set1/yellow.gif","img/card_backs/set2/orange.gif","img/card_backs/set2/pink.gif","img/card_backs/set2/blue.gif","img/card_backs/set2/gray.gif","""event"",""trial"",""time""
""focus"",""0"",""0""
""fullscreenenter"",""1"",""3388""
","
","""event"",""trial"",""time""
""focus"",""0"",""0""
","""event"",""trial"",""time""
""fullscreenenter"",""1"",""3388""
","
","","538","","","","real_trial","2021-04-12 13:37:09.190","img/card_backs/set1/red.gif","3","40","1","",""
"casino-fixation","116","401342","0.0-25.0-0.23","A535","true","img/card_backs/set1/purple.gif","img/card_backs/set1/green.gif","img/card_backs/set1/red.gif","img/card_backs/set1/yellow.gif","img/card_backs/set2/orange.gif","img/card_backs/set2/pink.gif","img/card_backs/set2/blue.gif","img/card_backs/set2/gray.gif","""event"",""trial"",""time""
""focus"",""0"",""0""
""fullscreenenter"",""1"",""3388""
","
","""event"",""trial"",""time""
""focus"",""0"",""0""
","""event"",""trial"",""time""
""fullscreenenter"",""1"",""3388""
","
","","null","","null","","fixation","2021-04-12 13:37:09.691","","","","","",""
"card-selection-trial","117","404127","0.0-25.0-1.23","A535","true","img/card_backs/set1/purple.gif","img/card_backs/set1/green.gif","img/card_backs/set1/red.gif","img/card_backs/set1/yellow.gif","img/card_backs/set2/orange.gif","img/card_backs/set2/pink.gif","img/card_backs/set2/blue.gif","img/card_backs/set2/gray.gif","""event"",""trial"",""time""
""focus"",""0"",""0""
""fullscreenenter"",""1"",""3388""
","
","""event"",""trial"",""time""
""focus"",""0"",""0""
","""event"",""trial"",""time""
""fullscreenenter"",""1"",""3388""
","
","","767","","","","real_trial","2021-04-12 13:37:12.477","img/card_backs/set1/green.gif","3","250","1","",""
"casino-fixation","118","404635","0.0-25.0-0.24","A535","true","img/card_backs/set1/purple.gif","img/card_backs/set1/green.gif","img/card_backs/set1/red.gif","img/card_backs/set1/yellow.gif","img/card_backs/set2/orange.gif","img/card_backs/set2/pink.gif","img/card_backs/set2/blue.gif","img/card_backs/set2/gray.gif","""event"",""trial"",""time""
""focus"",""0"",""0""
""fullscreenenter"",""1"",""3388""
","
","""event"",""trial"",""time""
""focus"",""0"",""0""
","""event"",""trial"",""time""
""fullscreenenter"",""1"",""3388""
","
","","null","","null","","fixation","2021-04-12 13:37:12.985","","","","","",""
"card-selection-trial","119","407285","0.0-25.0-1.24","A535","true","img/card_backs/set1/purple.gif","img/card_backs/set1/green.gif","img/card_backs/set1/red.gif","img/card_backs/set1/yellow.gif","img/card_backs/set2/orange.gif","img/card_backs/set2/pink.gif","img/card_backs/set2/blue.gif","img/card_backs/set2/gray.gif","""event"",""trial"",""time""
""focus"",""0"",""0""
""fullscreenenter"",""1"",""3388""
","
","""event"",""trial"",""time""
""focus"",""0"",""0""
","""event"",""trial"",""time""
""fullscreenenter"",""1"",""3388""
","
","","641","","","","real_trial","2021-04-12 13:37:15.635","img/card_backs/set1/purple.gif","2","-200","1","",""
"casino-fixation","120","407787","0.0-25.0-0.25","A535","true","img/card_backs/set1/purple.gif","img/card_backs/set1/green.gif","img/card_backs/set1/red.gif","img/card_backs/set1/yellow.gif","img/card_backs/set2/orange.gif","img/card_backs/set2/pink.gif","img/card_backs/set2/blue.gif","img/card_backs/set2/gray.gif","""event"",""trial"",""time""
""focus"",""0"",""0""
""fullscreenenter"",""1"",""3388""
","
","""event"",""trial"",""time""
""focus"",""0"",""0""
","""event"",""trial"",""time""
""fullscreenenter"",""1"",""3388""
","
","","null","","null","","fixation","2021-04-12 13:37:16.137","","","","","",""
"card-selection-trial","121","410301","0.0-25.0-1.25","A535","true","img/card_backs/set1/purple.gif","img/card_backs/set1/green.gif","img/card_backs/set1/red.gif","img/card_backs/set1/yellow.gif","img/card_backs/set2/orange.gif","img/card_backs/set2/pink.gif","img/card_backs/set2/blue.gif","img/card_backs/set2/gray.gif","""event"",""trial"",""time""
""focus"",""0"",""0""
""fullscreenenter"",""1"",""3388""
","
","""event"",""trial"",""time""
""focus"",""0"",""0""
","""event"",""trial"",""time""
""fullscreenenter"",""1"",""3388""
","
","","498","","","","real_trial","2021-04-12 13:37:18.651","img/card_backs/set1/green.gif","1","-210","1","",""
"casino-fixation","122","410808","0.0-25.0-0.26","A535","true","img/card_backs/set1/purple.gif","img/card_backs/set1/green.gif","img/card_backs/set1/red.gif","img/card_backs/set1/yellow.gif","img/card_backs/set2/orange.gif","img/card_backs/set2/pink.gif","img/card_backs/set2/blue.gif","img/card_backs/set2/gray.gif","""event"",""trial"",""time""
""focus"",""0"",""0""
""fullscreenenter"",""1"",""3388""
","
","""event"",""trial"",""time""
""focus"",""0"",""0""
","""event"",""trial"",""time""
""fullscreenenter"",""1"",""3388""
","
","","null","","null","","fixation","2021-04-12 13:37:19.157","","","","","",""
"card-selection-trial","123","413376","0.0-25.0-1.26","A535","true","img/card_backs/set1/purple.gif","img/card_backs/set1/green.gif","img/card_backs/set1/red.gif","img/card_backs/set1/yellow.gif","img/card_backs/set2/orange.gif","img/card_backs/set2/pink.gif","img/card_backs/set2/blue.gif","img/card_backs/set2/gray.gif","""event"",""trial"",""time""
""focus"",""0"",""0""
""fullscreenenter"",""1"",""3388""
","
","""event"",""trial"",""time""
""focus"",""0"",""0""
","""event"",""trial"",""time""
""fullscreenenter"",""1"",""3388""
","
","","547","","","","real_trial","2021-04-12 13:37:21.725","img/card_backs/set1/green.gif","0","240","1","",""
"casino-fixation","124","413891","0.0-25.0-0.27","A535","true","img/card_backs/set1/purple.gif","img/card_backs/set1/green.gif","img/card_backs/set1/red.gif","img/card_backs/set1/yellow.gif","img/card_backs/set2/orange.gif","img/card_backs/set2/pink.gif","img/card_backs/set2/blue.gif","img/card_backs/set2/gray.gif","""event"",""trial"",""time""
""focus"",""0"",""0""
""fullscreenenter"",""1"",""3388""
","
","""event"",""trial"",""time""
""focus"",""0"",""0""
","""event"",""trial"",""time""
""fullscreenenter"",""1"",""3388""
","
","","null","","null","","fixation","2021-04-12 13:37:22.240","","","","","",""
"card-selection-trial","125","416213","0.0-25.0-1.27","A535","true","img/card_backs/set1/purple.gif","img/card_backs/set1/green.gif","img/card_backs/set1/red.gif","img/card_backs/set1/yellow.gif","img/card_backs/set2/orange.gif","img/card_backs/set2/pink.gif","img/card_backs/set2/blue.gif","img/card_backs/set2/gray.gif","""event"",""trial"",""time""
""focus"",""0"",""0""
""fullscreenenter"",""1"",""3388""
","
","""event"",""trial"",""time""
""focus"",""0"",""0""
","""event"",""trial"",""time""
""fullscreenenter"",""1"",""3388""
","
","","304","","","","real_trial","2021-04-12 13:37:24.563","img/card_backs/set1/yellow.gif","2","40","1","",""
"casino-fixation","126","416720","0.0-25.0-0.28","A535","true","img/card_backs/set1/purple.gif","img/card_backs/set1/green.gif","img/card_backs/set1/red.gif","img/card_backs/set1/yellow.gif","img/card_backs/set2/orange.gif","img/card_backs/set2/pink.gif","img/card_backs/set2/blue.gif","img/card_backs/set2/gray.gif","""event"",""trial"",""time""
""focus"",""0"",""0""
""fullscreenenter"",""1"",""3388""
","
","""event"",""trial"",""time""
""focus"",""0"",""0""
","""event"",""trial"",""time""
""fullscreenenter"",""1"",""3388""
","
","","null","","null","","fixation","2021-04-12 13:37:25.069","","","","","",""
"card-selection-trial","127","419121","0.0-25.0-1.28","A535","true","img/card_backs/set1/purple.gif","img/card_backs/set1/green.gif","img/card_backs/set1/red.gif","img/card_backs/set1/yellow.gif","img/card_backs/set2/orange.gif","img/card_backs/set2/pink.gif","img/card_backs/set2/blue.gif","img/card_backs/set2/gray.gif","""event"",""trial"",""time""
""focus"",""0"",""0""
""fullscreenenter"",""1"",""3388""
","
","""event"",""trial"",""time""
""focus"",""0"",""0""
","""event"",""trial"",""time""
""fullscreenenter"",""1"",""3388""
","
","","381","","","","real_trial","2021-04-12 13:37:27.470","img/card_backs/set1/yellow.gif","1","-100","1","",""
"casino-fixation","128","419630","0.0-25.0-0.29","A535","true","img/card_backs/set1/purple.gif","img/card_backs/set1/green.gif","img/card_backs/set1/red.gif","img/card_backs/set1/yellow.gif","img/card_backs/set2/orange.gif","img/card_backs/set2/pink.gif","img/card_backs/set2/blue.gif","img/card_backs/set2/gray.gif","""event"",""trial"",""time""
""focus"",""0"",""0""
""fullscreenenter"",""1"",""3388""
","
","""event"",""trial"",""time""
""focus"",""0"",""0""
","""event"",""trial"",""time""
""fullscreenenter"",""1"",""3388""
","
","","null","","null","","fixation","2021-04-12 13:37:27.980","","","","","",""
"card-selection-trial","129","422070","0.0-25.0-1.29","A535","true","img/card_backs/set1/purple.gif","img/card_backs/set1/green.gif","img/card_backs/set1/red.gif","img/card_backs/set1/yellow.gif","img/card_backs/set2/orange.gif","img/card_backs/set2/pink.gif","img/card_backs/set2/blue.gif","img/card_backs/set2/gray.gif","""event"",""trial"",""time""
""focus"",""0"",""0""
""fullscreenenter"",""1"",""3388""
","
","""event"",""trial"",""time""
""focus"",""0"",""0""
","""event"",""trial"",""time""
""fullscreenenter"",""1"",""3388""
","
","","431","","","","real_trial","2021-04-12 13:37:30.419","img/card_backs/set1/purple.gif","2","-210","1","",""
"casino-fixation","130","422574","0.0-25.0-0.30","A535","true","img/card_backs/set1/purple.gif","img/card_backs/set1/green.gif","img/card_backs/set1/red.gif","img/card_backs/set1/yellow.gif","img/card_backs/set2/orange.gif","img/card_backs/set2/pink.gif","img/card_backs/set2/blue.gif","img/card_backs/set2/gray.gif","""event"",""trial"",""time""
""focus"",""0"",""0""
""fullscreenenter"",""1"",""3388""
","
","""event"",""trial"",""time""
""focus"",""0"",""0""
","""event"",""trial"",""time""
""fullscreenenter"",""1"",""3388""
","
","","null","","null","","fixation","2021-04-12 13:37:30.924","","","","","",""
"card-selection-trial","131","424930","0.0-25.0-1.30","A535","true","img/card_backs/set1/purple.gif","img/card_backs/set1/green.gif","img/card_backs/set1/red.gif","img/card_backs/set1/yellow.gif","img/card_backs/set2/orange.gif","img/card_backs/set2/pink.gif","img/card_backs/set2/blue.gif","img/card_backs/set2/gray.gif","""event"",""trial"",""time""
""focus"",""0"",""0""
""fullscreenenter"",""1"",""3388""
","
","""event"",""trial"",""time""
""focus"",""0"",""0""
","""event"",""trial"",""time""
""fullscreenenter"",""1"",""3388""
","
","","333","","","","real_trial","2021-04-12 13:37:33.280","img/card_backs/set1/green.gif","0","-210","1","",""
"casino-fixation","132","425443","0.0-25.0-0.31","A535","true","img/card_backs/set1/purple.gif","img/card_backs/set1/green.gif","img/card_backs/set1/red.gif","img/card_backs/set1/yellow.gif","img/card_backs/set2/orange.gif","img/card_backs/set2/pink.gif","img/card_backs/set2/blue.gif","img/card_backs/set2/gray.gif","""event"",""trial"",""time""
""focus"",""0"",""0""
""fullscreenenter"",""1"",""3388""
","
","""event"",""trial"",""time""
""focus"",""0"",""0""
","""event"",""trial"",""time""
""fullscreenenter"",""1"",""3388""
","
","","null","","null","","fixation","2021-04-12 13:37:33.792","","","","","",""
"card-selection-trial","133","427692","0.0-25.0-1.31","A535","true","img/card_backs/set1/purple.gif","img/card_backs/set1/green.gif","img/card_backs/set1/red.gif","img/card_backs/set1/yellow.gif","img/card_backs/set2/orange.gif","img/card_backs/set2/pink.gif","img/card_backs/set2/blue.gif","img/card_backs/set2/gray.gif","""event"",""trial"",""time""
""focus"",""0"",""0""
""fullscreenenter"",""1"",""3388""
","
","""event"",""trial"",""time""
""focus"",""0"",""0""
","""event"",""trial"",""time""
""fullscreenenter"",""1"",""3388""
","
","","242","","","","real_trial","2021-04-12 13:37:36.041","img/card_backs/set1/red.gif","3","-90","1","",""
"casino-fixation","134","428201","0.0-25.0-0.32","A535","true","img/card_backs/set1/purple.gif","img/card_backs/set1/green.gif","img/card_backs/set1/red.gif","img/card_backs/set1/yellow.gif","img/card_backs/set2/orange.gif","img/card_backs/set2/pink.gif","img/card_backs/set2/blue.gif","img/card_backs/set2/gray.gif","""event"",""trial"",""time""
""focus"",""0"",""0""
""fullscreenenter"",""1"",""3388""
","
","""event"",""trial"",""time""
""focus"",""0"",""0""
","""event"",""trial"",""time""
""fullscreenenter"",""1"",""3388""
","
","","null","","null","","fixation","2021-04-12 13:37:36.550","","","","","",""
"card-selection-trial","135","430823","0.0-25.0-1.32","A535","true","img/card_backs/set1/purple.gif","img/card_backs/set1/green.gif","img/card_backs/set1/red.gif","img/card_backs/set1/yellow.gif","img/card_backs/set2/orange.gif","img/card_backs/set2/pink.gif","img/card_backs/set2/blue.gif","img/card_backs/set2/gray.gif","""event"",""trial"",""time""
""focus"",""0"",""0""
""fullscreenenter"",""1"",""3388""
","
","""event"",""trial"",""time""
""focus"",""0"",""0""
","""event"",""trial"",""time""
""fullscreenenter"",""1"",""3388""
","
","","603","","","","real_trial","2021-04-12 13:37:39.172","img/card_backs/set1/red.gif","1","40","1","",""
"casino-fixation","136","431331","0.0-25.0-0.33","A535","true","img/card_backs/set1/purple.gif","img/card_backs/set1/green.gif","img/card_backs/set1/red.gif","img/card_backs/set1/yellow.gif","img/card_backs/set2/orange.gif","img/card_backs/set2/pink.gif","img/card_backs/set2/blue.gif","img/card_backs/set2/gray.gif","""event"",""trial"",""time""
""focus"",""0"",""0""
""fullscreenenter"",""1"",""3388""
","
","""event"",""trial"",""time""
""focus"",""0"",""0""
","""event"",""trial"",""time""
""fullscreenenter"",""1"",""3388""
","
","","null","","null","","fixation","2021-04-12 13:37:39.680","","","","","",""
"card-selection-trial","137","434000","0.0-25.0-1.33","A535","true","img/card_backs/set1/purple.gif","img/card_backs/set1/green.gif","img/card_backs/set1/red.gif","img/card_backs/set1/yellow.gif","img/card_backs/set2/orange.gif","img/card_backs/set2/pink.gif","img/card_backs/set2/blue.gif","img/card_backs/set2/gray.gif","""event"",""trial"",""time""
""focus"",""0"",""0""
""fullscreenenter"",""1"",""3388""
","
","""event"",""trial"",""time""
""focus"",""0"",""0""
","""event"",""trial"",""time""
""fullscreenenter"",""1"",""3388""
","
","","650","","","","real_trial","2021-04-12 13:37:42.349","img/card_backs/set1/purple.gif","3","-200","1","",""
"casino-fixation","138","434508","0.0-25.0-0.34","A535","true","img/card_backs/set1/purple.gif","img/card_backs/set1/green.gif","img/card_backs/set1/red.gif","img/card_backs/set1/yellow.gif","img/card_backs/set2/orange.gif","img/card_backs/set2/pink.gif","img/card_backs/set2/blue.gif","img/card_backs/set2/gray.gif","""event"",""trial"",""time""
""focus"",""0"",""0""
""fullscreenenter"",""1"",""3388""
","
","""event"",""trial"",""time""
""focus"",""0"",""0""
","""event"",""trial"",""time""
""fullscreenenter"",""1"",""3388""
","
","","null","","null","","fixation","2021-04-12 13:37:42.858","","","","","",""
"card-selection-trial","139","437167","0.0-25.0-1.34","A535","true","img/card_backs/set1/purple.gif","img/card_backs/set1/green.gif","img/card_backs/set1/red.gif","img/card_backs/set1/yellow.gif","img/card_backs/set2/orange.gif","img/card_backs/set2/pink.gif","img/card_backs/set2/blue.gif","img/card_backs/set2/gray.gif","""event"",""trial"",""time""
""focus"",""0"",""0""
""fullscreenenter"",""1"",""3388""
","
","""event"",""trial"",""time""
""focus"",""0"",""0""
","""event"",""trial"",""time""
""fullscreenenter"",""1"",""3388""
","
","","641","","","","real_trial","2021-04-12 13:37:45.517","img/card_backs/set1/yellow.gif","2","-90","1","",""
"casino-fixation","140","437676","0.0-25.0-0.35","A535","true","img/card_backs/set1/purple.gif","img/card_backs/set1/green.gif","img/card_backs/set1/red.gif","img/card_backs/set1/yellow.gif","img/card_backs/set2/orange.gif","img/card_backs/set2/pink.gif","img/card_backs/set2/blue.gif","img/card_backs/set2/gray.gif","""event"",""trial"",""time""
""focus"",""0"",""0""
""fullscreenenter"",""1"",""3388""
","
","""event"",""trial"",""time""
""focus"",""0"",""0""
","""event"",""trial"",""time""
""fullscreenenter"",""1"",""3388""
","
","","null","","null","","fixation","2021-04-12 13:37:46.026","","","","","",""
"card-selection-trial","141","440306","0.0-25.0-1.35","A535","true","img/card_backs/set1/purple.gif","img/card_backs/set1/green.gif","img/card_backs/set1/red.gif","img/card_backs/set1/yellow.gif","img/card_backs/set2/orange.gif","img/card_backs/set2/pink.gif","img/card_backs/set2/blue.gif","img/card_backs/set2/gray.gif","""event"",""trial"",""time""
""focus"",""0"",""0""
""fullscreenenter"",""1"",""3388""
","
","""event"",""trial"",""time""
""focus"",""0"",""0""
","""event"",""trial"",""time""
""fullscreenenter"",""1"",""3388""
","
","","616","","","","real_trial","2021-04-12 13:37:48.655","img/card_backs/set1/purple.gif","2","-210","1","",""
"casino-fixation","142","440811","0.0-25.0-0.36","A535","true","img/card_backs/set1/purple.gif","img/card_backs/set1/green.gif","img/card_backs/set1/red.gif","img/card_backs/set1/yellow.gif","img/card_backs/set2/orange.gif","img/card_backs/set2/pink.gif","img/card_backs/set2/blue.gif","img/card_backs/set2/gray.gif","""event"",""trial"",""time""
""focus"",""0"",""0""
""fullscreenenter"",""1"",""3388""
","
","""event"",""trial"",""time""
""focus"",""0"",""0""
","""event"",""trial"",""time""
""fullscreenenter"",""1"",""3388""
","
","","null","","null","","fixation","2021-04-12 13:37:49.160","","","","","",""
"card-selection-trial","143","443637","0.0-25.0-1.36","A535","true","img/card_backs/set1/purple.gif","img/card_backs/set1/green.gif","img/card_backs/set1/red.gif","img/card_backs/set1/yellow.gif","img/card_backs/set2/orange.gif","img/card_backs/set2/pink.gif","img/card_backs/set2/blue.gif","img/card_backs/set2/gray.gif","""event"",""trial"",""time""
""focus"",""0"",""0""
""fullscreenenter"",""1"",""3388""
","
","""event"",""trial"",""time""
""focus"",""0"",""0""
","""event"",""trial"",""time""
""fullscreenenter"",""1"",""3388""
","
","","809","","","","real_trial","2021-04-12 13:37:51.986","img/card_backs/set1/red.gif","1","-100","1","",""
"casino-fixation","144","444153","0.0-25.0-0.37","A535","true","img/card_backs/set1/purple.gif","img/card_backs/set1/green.gif","img/card_backs/set1/red.gif","img/card_backs/set1/yellow.gif","img/card_backs/set2/orange.gif","img/card_backs/set2/pink.gif","img/card_backs/set2/blue.gif","img/card_backs/set2/gray.gif","""event"",""trial"",""time""
""focus"",""0"",""0""
""fullscreenenter"",""1"",""3388""
","
","""event"",""trial"",""time""
""focus"",""0"",""0""
","""event"",""trial"",""time""
""fullscreenenter"",""1"",""3388""
","
","","null","","null","","fixation","2021-04-12 13:37:52.502","","","","","",""
"card-selection-trial","145","446498","0.0-25.0-1.37","A535","true","img/card_backs/set1/purple.gif","img/card_backs/set1/green.gif","img/card_backs/set1/red.gif","img/card_backs/set1/yellow.gif","img/card_backs/set2/orange.gif","img/card_backs/set2/pink.gif","img/card_backs/set2/blue.gif","img/card_backs/set2/gray.gif","""event"",""trial"",""time""
""focus"",""0"",""0""
""fullscreenenter"",""1"",""3388""
","
","""event"",""trial"",""time""
""focus"",""0"",""0""
","""event"",""trial"",""time""
""fullscreenenter"",""1"",""3388""
","
","","331","","","","real_trial","2021-04-12 13:37:54.848","img/card_backs/set1/green.gif","3","250","1","",""
"casino-fixation","146","447007","0.0-25.0-0.38","A535","true","img/card_backs/set1/purple.gif","img/card_backs/set1/green.gif","img/card_backs/set1/red.gif","img/card_backs/set1/yellow.gif","img/card_backs/set2/orange.gif","img/card_backs/set2/pink.gif","img/card_backs/set2/blue.gif","img/card_backs/set2/gray.gif","""event"",""trial"",""time""
""focus"",""0"",""0""
""fullscreenenter"",""1"",""3388""
","
","""event"",""trial"",""time""
""focus"",""0"",""0""
","""event"",""trial"",""time""
""fullscreenenter"",""1"",""3388""
","
","","null","","null","","fixation","2021-04-12 13:37:55.357","","","","","",""
"card-selection-trial","147","449377","0.0-25.0-1.38","A535","true","img/card_backs/set1/purple.gif","img/card_backs/set1/green.gif","img/card_backs/set1/red.gif","img/card_backs/set1/yellow.gif","img/card_backs/set2/orange.gif","img/card_backs/set2/pink.gif","img/card_backs/set2/blue.gif","img/card_backs/set2/gray.gif","""event"",""trial"",""time""
""focus"",""0"",""0""
""fullscreenenter"",""1"",""3388""
","
","""event"",""trial"",""time""
""focus"",""0"",""0""
","""event"",""trial"",""time""
""fullscreenenter"",""1"",""3388""
","
","","357","","","","real_trial","2021-04-12 13:37:57.726","img/card_backs/set1/yellow.gif","0","-110","1","",""
"casino-fixation","148","449893","0.0-25.0-0.39","A535","true","img/card_backs/set1/purple.gif","img/card_backs/set1/green.gif","img/card_backs/set1/red.gif","img/card_backs/set1/yellow.gif","img/card_backs/set2/orange.gif","img/card_backs/set2/pink.gif","img/card_backs/set2/blue.gif","img/card_backs/set2/gray.gif","""event"",""trial"",""time""
""focus"",""0"",""0""
""fullscreenenter"",""1"",""3388""
","
","""event"",""trial"",""time""
""focus"",""0"",""0""
","""event"",""trial"",""time""
""fullscreenenter"",""1"",""3388""
","
","","null","","null","","fixation","2021-04-12 13:37:58.242","","","","","",""
"card-selection-trial","149","452250","0.0-25.0-1.39","A535","true","img/card_backs/set1/purple.gif","img/card_backs/set1/green.gif","img/card_backs/set1/red.gif","img/card_backs/set1/yellow.gif","img/card_backs/set2/orange.gif","img/card_backs/set2/pink.gif","img/card_backs/set2/blue.gif","img/card_backs/set2/gray.gif","""event"",""trial"",""time""
""focus"",""0"",""0""
""fullscreenenter"",""1"",""3388""
","
","""event"",""trial"",""time""
""focus"",""0"",""0""
","""event"",""trial"",""time""
""fullscreenenter"",""1"",""3388""
","
","","344","","","","real_trial","2021-04-12 13:38:00.599","img/card_backs/set1/green.gif","2","240","1","",""
