"trial_type","trial_index","time_elapsed","internal_node_id","sub_id","risk_good_first","block1_A","block1_B","block1_C","block1_D","block2_A","block2_B","block2_C","block2_D","interactions","blur_events","focus_events","fullscreenenter_events","fullscreenexit_events","success","rt","stimulus","key_press","button_pressed","task_part","timestamp","card_choice","choice_position","points_earned","block","correct","response"
"pavlovia","0","8","0.0-0.0","1078","false","img/card_backs/set1/yellow.gif","img/card_backs/set1/red.gif","img/card_backs/set1/green.gif","img/card_backs/set1/purple.gif","img/card_backs/set2/gray.gif","img/card_backs/set2/pink.gif","img/card_backs/set2/blue.gif","img/card_backs/set2/orange.gif","""event"",""trial"",""time""
""fullscreenenter"",""1"",""4307""
","
","
","""event"",""trial"",""time""
""fullscreenenter"",""1"",""4307""
","
","","","","","","","","","","","","",""
"fullscreen","1","5289","0.0-1.0","1078","false","img/card_backs/set1/yellow.gif","img/card_backs/set1/red.gif","img/card_backs/set1/green.gif","img/card_backs/set1/purple.gif","img/card_backs/set2/gray.gif","img/card_backs/set2/pink.gif","img/card_backs/set2/blue.gif","img/card_backs/set2/orange.gif","""event"",""trial"",""time""
""fullscreenenter"",""1"",""4307""
","
","
","""event"",""trial"",""time""
""fullscreenenter"",""1"",""4307""
","
","true","","","","","","","","","","","",""
"audio-keyboard-response","2","7887","0.0-2.0","1078","false","img/card_backs/set1/yellow.gif","img/card_backs/set1/red.gif","img/card_backs/set1/green.gif","img/card_backs/set1/purple.gif","img/card_backs/set2/gray.gif","img/card_backs/set2/pink.gif","img/card_backs/set2/blue.gif","img/card_backs/set2/orange.gif","""event"",""trial"",""time""
""fullscreenenter"",""1"",""4307""
","
","
","""event"",""trial"",""time""
""fullscreenenter"",""1"",""4307""
","
","","2600","audio/beep_loop.wav","32","","","","","","","","",""
"audio-button-response","3","10824","0.0-3.0","1078","false","img/card_backs/set1/yellow.gif","img/card_backs/set1/red.gif","img/card_backs/set1/green.gif","img/card_backs/set1/purple.gif","img/card_backs/set2/gray.gif","img/card_backs/set2/pink.gif","img/card_backs/set2/blue.gif","img/card_backs/set2/orange.gif","""event"",""trial"",""time""
""fullscreenenter"",""1"",""4307""
","
","
","""event"",""trial"",""time""
""fullscreenenter"",""1"",""4307""
","
","","NaN","audio/turtle.mp3","","3","","","","","","","",""
"audio-button-response","4","13539","0.0-4.0","1078","false","img/card_backs/set1/yellow.gif","img/card_backs/set1/red.gif","img/card_backs/set1/green.gif","img/card_backs/set1/purple.gif","img/card_backs/set2/gray.gif","img/card_backs/set2/pink.gif","img/card_backs/set2/blue.gif","img/card_backs/set2/orange.gif","""event"",""trial"",""time""
""fullscreenenter"",""1"",""4307""
","
","
","""event"",""trial"",""time""
""fullscreenenter"",""1"",""4307""
","
","","NaN","audio/shark.mp3","","2","","","","","","","",""
"fullscreen","5","18425","0.0-5.0","1078","false","img/card_backs/set1/yellow.gif","img/card_backs/set1/red.gif","img/card_backs/set1/green.gif","img/card_backs/set1/purple.gif","img/card_backs/set2/gray.gif","img/card_backs/set2/pink.gif","img/card_backs/set2/blue.gif","img/card_backs/set2/orange.gif","""event"",""trial"",""time""
""fullscreenenter"",""1"",""4307""
","
","
","""event"",""trial"",""time""
""fullscreenenter"",""1"",""4307""
","
","true","","","","","","","","","","","",""
"casino-keyboard-response","6","22334","0.0-6.0-0.0","1078","false","img/card_backs/set1/yellow.gif","img/card_backs/set1/red.gif","img/card_backs/set1/green.gif","img/card_backs/set1/purple.gif","img/card_backs/set2/gray.gif","img/card_backs/set2/pink.gif","img/card_backs/set2/blue.gif","img/card_backs/set2/orange.gif","""event"",""trial"",""time""
""fullscreenenter"",""1"",""4307""
","
","
","""event"",""trial"",""time""
""fullscreenenter"",""1"",""4307""
","
","","3901.6999999999534","Welcome to the casino!","71","","instructions","2021-08-09 18:21:43.548","","","","","",""
"casino-keyboard-response","7","32141","0.0-6.0-0.1","1078","false","img/card_backs/set1/yellow.gif","img/card_backs/set1/red.gif","img/card_backs/set1/green.gif","img/card_backs/set1/purple.gif","img/card_backs/set2/gray.gif","img/card_backs/set2/pink.gif","img/card_backs/set2/blue.gif","img/card_backs/set2/orange.gif","""event"",""trial"",""time""
""fullscreenenter"",""1"",""4307""
","
","
","""event"",""trial"",""time""
""fullscreenenter"",""1"",""4307""
","
","","9803.400000000023","Today you will be playing a game to earn tokens. </br> At the end of the experiment, you will be paid a bonus based on how many tokens you win. ","69","","instructions","2021-08-09 18:21:53.356","","","","","",""
"casino-keyboard-response","8","40159","0.0-6.0-0.2","1078","false","img/card_backs/set1/yellow.gif","img/card_backs/set1/red.gif","img/card_backs/set1/green.gif","img/card_backs/set1/purple.gif","img/card_backs/set2/gray.gif","img/card_backs/set2/pink.gif","img/card_backs/set2/blue.gif","img/card_backs/set2/orange.gif","""event"",""trial"",""time""
""fullscreenenter"",""1"",""4307""
","
","
","""event"",""trial"",""time""
""fullscreenenter"",""1"",""4307""
","
","","8012.70000000007","On every turn, you will be shown four different decks of cards. </br> You need to select a card from one of the four decks.  ","75","","instructions","2021-08-09 18:22:01.373","","","","","",""
"casino-keyboard-response","9","50593","0.0-6.0-0.3","1078","false","img/card_backs/set1/yellow.gif","img/card_backs/set1/red.gif","img/card_backs/set1/green.gif","img/card_backs/set1/purple.gif","img/card_backs/set2/gray.gif","img/card_backs/set2/pink.gif","img/card_backs/set2/blue.gif","img/card_backs/set2/orange.gif","""event"",""trial"",""time""
""fullscreenenter"",""1"",""4307""
","
","
","""event"",""trial"",""time""
""fullscreenenter"",""1"",""4307""
","
","","10430.400000000023","On the next screen, you will see what the decks will look like. ","66","","instructions","2021-08-09 18:22:11.807","","","","","",""
"card-selection-trial","10","54602","0.0-7.0-0.0","1078","false","img/card_backs/set1/yellow.gif","img/card_backs/set1/red.gif","img/card_backs/set1/green.gif","img/card_backs/set1/purple.gif","img/card_backs/set2/gray.gif","img/card_backs/set2/pink.gif","img/card_backs/set2/blue.gif","img/card_backs/set2/orange.gif","""event"",""trial"",""time""
""fullscreenenter"",""1"",""4307""
","
","
","""event"",""trial"",""time""
""fullscreenenter"",""1"",""4307""
","
","","null","","","","practice","2021-08-09 18:22:15.816","null","null","null","0","",""
"casino-keyboard-response","11","62109","0.0-8.0-0.0","1078","false","img/card_backs/set1/yellow.gif","img/card_backs/set1/red.gif","img/card_backs/set1/green.gif","img/card_backs/set1/purple.gif","img/card_backs/set2/gray.gif","img/card_backs/set2/pink.gif","img/card_backs/set2/blue.gif","img/card_backs/set2/orange.gif","""event"",""trial"",""time""
""fullscreenenter"",""1"",""4307""
","
","
","""event"",""trial"",""time""
""fullscreenenter"",""1"",""4307""
","
","","7503.599999999977","You should pick a card from a deck using the '2', '4', '6', and '8' keys at the top of the keyboard.","85","","instructions","2021-08-09 18:22:23.324","","","","","",""
"casino-keyboard-response","12","67648","0.0-8.0-0.1","1078","false","img/card_backs/set1/yellow.gif","img/card_backs/set1/red.gif","img/card_backs/set1/green.gif","img/card_backs/set1/purple.gif","img/card_backs/set2/gray.gif","img/card_backs/set2/pink.gif","img/card_backs/set2/blue.gif","img/card_backs/set2/orange.gif","""event"",""trial"",""time""
""fullscreenenter"",""1"",""4307""
","
","
","""event"",""trial"",""time""
""fullscreenenter"",""1"",""4307""
","
","","5534.199999999953","Once you select a card, it will turn over and you will see how many tokens you earned.","83","","instructions","2021-08-09 18:22:28.862","","","","","",""
"casino-keyboard-response","13","70850","0.0-8.0-0.2","1078","false","img/card_backs/set1/yellow.gif","img/card_backs/set1/red.gif","img/card_backs/set1/green.gif","img/card_backs/set1/purple.gif","img/card_backs/set2/gray.gif","img/card_backs/set2/pink.gif","img/card_backs/set2/blue.gif","img/card_backs/set2/orange.gif","""event"",""trial"",""time""
""fullscreenenter"",""1"",""4307""
","
","
","""event"",""trial"",""time""
""fullscreenenter"",""1"",""4307""
","
","","3198.5","Let's try practicing that! </br> First, try to put your fingers over the '2', '4', '6', and '8' keys. </br>  You can use whatever fingers are most comfortable for you. Try to find a comfortable position now. ","50","","instructions","2021-08-09 18:22:32.064","","","","","",""
"casino-keyboard-response","14","76949","0.0-8.0-0.3","1078","false","img/card_backs/set1/yellow.gif","img/card_backs/set1/red.gif","img/card_backs/set1/green.gif","img/card_backs/set1/purple.gif","img/card_backs/set2/gray.gif","img/card_backs/set2/pink.gif","img/card_backs/set2/blue.gif","img/card_backs/set2/orange.gif","""event"",""trial"",""time""
""fullscreenenter"",""1"",""4307""
","
","
","""event"",""trial"",""time""
""fullscreenenter"",""1"",""4307""
","
","","6095.099999999977","Okay ready? </br> On the next screen, press '2' to select the left deck. ","50","","instructions","2021-08-09 18:22:38.163","","","","","",""
"card-selection-trial","15","79725","0.0-9.0-0.0","1078","false","img/card_backs/set1/yellow.gif","img/card_backs/set1/red.gif","img/card_backs/set1/green.gif","img/card_backs/set1/purple.gif","img/card_backs/set2/gray.gif","img/card_backs/set2/pink.gif","img/card_backs/set2/blue.gif","img/card_backs/set2/orange.gif","""event"",""trial"",""time""
""fullscreenenter"",""1"",""4307""
","
","
","""event"",""trial"",""time""
""fullscreenenter"",""1"",""4307""
","
","","748","","","","practice_card_selection","2021-08-09 18:22:40.939","img/practice_cards/backs/dark_green.gif","0","-200","","",""
"casino-keyboard-response","16","81574","0.0-10.0-0.0","1078","false","img/card_backs/set1/yellow.gif","img/card_backs/set1/red.gif","img/card_backs/set1/green.gif","img/card_backs/set1/purple.gif","img/card_backs/set2/gray.gif","img/card_backs/set2/pink.gif","img/card_backs/set2/blue.gif","img/card_backs/set2/orange.gif","""event"",""trial"",""time""
""fullscreenenter"",""1"",""4307""
","
","
","""event"",""trial"",""time""
""fullscreenenter"",""1"",""4307""
","
","","1846.5","Great! Now on the next screen, try pressing '6' to select the third deck.","54","","instructions","2021-08-09 18:22:42.788","","","","","",""
"card-selection-trial","17","84323","0.0-11.0-0.0","1078","false","img/card_backs/set1/yellow.gif","img/card_backs/set1/red.gif","img/card_backs/set1/green.gif","img/card_backs/set1/purple.gif","img/card_backs/set2/gray.gif","img/card_backs/set2/pink.gif","img/card_backs/set2/blue.gif","img/card_backs/set2/orange.gif","""event"",""trial"",""time""
""fullscreenenter"",""1"",""4307""
","
","
","""event"",""trial"",""time""
""fullscreenenter"",""1"",""4307""
","
","","736.1999999999534","","","","practice_card_selection","2021-08-09 18:22:45.537","img/practice_cards/backs/dark_blue.gif","2","-200","","",""
"casino-keyboard-response","18","85670","0.0-12.0-0.0","1078","false","img/card_backs/set1/yellow.gif","img/card_backs/set1/red.gif","img/card_backs/set1/green.gif","img/card_backs/set1/purple.gif","img/card_backs/set2/gray.gif","img/card_backs/set2/pink.gif","img/card_backs/set2/blue.gif","img/card_backs/set2/orange.gif","""event"",""trial"",""time""
""fullscreenenter"",""1"",""4307""
","
","
","""event"",""trial"",""time""
""fullscreenenter"",""1"",""4307""
","
","","1344.5999999999767","Now on the next screen, try pressing '4' to select the second deck.","52","","instructions","2021-08-09 18:22:46.884","","","","","",""
"card-selection-trial","19","88259","0.0-13.0-0.0","1078","false","img/card_backs/set1/yellow.gif","img/card_backs/set1/red.gif","img/card_backs/set1/green.gif","img/card_backs/set1/purple.gif","img/card_backs/set2/gray.gif","img/card_backs/set2/pink.gif","img/card_backs/set2/blue.gif","img/card_backs/set2/orange.gif","""event"",""trial"",""time""
""fullscreenenter"",""1"",""4307""
","
","
","""event"",""trial"",""time""
""fullscreenenter"",""1"",""4307""
","
","","577.1000000000931","","","","practice_card_selection","2021-08-09 18:22:49.473","img/practice_cards/backs/dark_green.gif","1","-200","","",""
"casino-keyboard-response","20","89770","0.0-14.0-0.0","1078","false","img/card_backs/set1/yellow.gif","img/card_backs/set1/red.gif","img/card_backs/set1/green.gif","img/card_backs/set1/purple.gif","img/card_backs/set2/gray.gif","img/card_backs/set2/pink.gif","img/card_backs/set2/blue.gif","img/card_backs/set2/orange.gif","""event"",""trial"",""time""
""fullscreenenter"",""1"",""4307""
","
","
","""event"",""trial"",""time""
""fullscreenenter"",""1"",""4307""
","
","","1508.1000000000931","Finally, try pressing '8' to select the deck all the way on the right.","56","","instructions","2021-08-09 18:22:50.984","","","","","",""
"card-selection-trial","21","92363","0.0-15.0-0.0","1078","false","img/card_backs/set1/yellow.gif","img/card_backs/set1/red.gif","img/card_backs/set1/green.gif","img/card_backs/set1/purple.gif","img/card_backs/set2/gray.gif","img/card_backs/set2/pink.gif","img/card_backs/set2/blue.gif","img/card_backs/set2/orange.gif","""event"",""trial"",""time""
""fullscreenenter"",""1"",""4307""
","
","
","""event"",""trial"",""time""
""fullscreenenter"",""1"",""4307""
","
","","581.3000000000466","","","","practice_card_selection","2021-08-09 18:22:53.577","img/practice_cards/backs/dark_blue.gif","3","200","","",""
"casino-keyboard-response","22","97138","0.0-16.0-0.0","1078","false","img/card_backs/set1/yellow.gif","img/card_backs/set1/red.gif","img/card_backs/set1/green.gif","img/card_backs/set1/purple.gif","img/card_backs/set2/gray.gif","img/card_backs/set2/pink.gif","img/card_backs/set2/blue.gif","img/card_backs/set2/orange.gif","""event"",""trial"",""time""
""fullscreenenter"",""1"",""4307""
","
","
","""event"",""trial"",""time""
""fullscreenenter"",""1"",""4307""
","
","","4773.29999999993","Great! It seems like you are getting the hang of this.","80","","instructions","2021-08-09 18:22:58.352","","","","","",""
"casino-keyboard-response","23","104383","0.0-16.0-0.1","1078","false","img/card_backs/set1/yellow.gif","img/card_backs/set1/red.gif","img/card_backs/set1/green.gif","img/card_backs/set1/purple.gif","img/card_backs/set2/gray.gif","img/card_backs/set2/pink.gif","img/card_backs/set2/blue.gif","img/card_backs/set2/orange.gif","""event"",""trial"",""time""
""fullscreenenter"",""1"",""4307""
","
","
","""event"",""trial"",""time""
""fullscreenenter"",""1"",""4307""
","
","","7238.199999999953","You may have noticed that some cards will cause you to <b> win </b> tokens while other cards will cause you to <b> lose </b>  tokens.","70","","instructions","2021-08-09 18:23:05.597","","","","","",""
"casino-keyboard-response","24","122038","0.0-16.0-0.2","1078","false","img/card_backs/set1/yellow.gif","img/card_backs/set1/red.gif","img/card_backs/set1/green.gif","img/card_backs/set1/purple.gif","img/card_backs/set2/gray.gif","img/card_backs/set2/pink.gif","img/card_backs/set2/blue.gif","img/card_backs/set2/orange.gif","""event"",""trial"",""time""
""fullscreenenter"",""1"",""4307""
","
","
","""event"",""trial"",""time""
""fullscreenenter"",""1"",""4307""
","
","","17651.199999999953","Each deck has a mix of cards that will cause you to win and lose tokens. </br> However, the cards in each colored deck are different.","73","","instructions","2021-08-09 18:23:23.252","","","","","",""
"casino-keyboard-response","25","135393","0.0-16.0-0.3","1078","false","img/card_backs/set1/yellow.gif","img/card_backs/set1/red.gif","img/card_backs/set1/green.gif","img/card_backs/set1/purple.gif","img/card_backs/set2/gray.gif","img/card_backs/set2/pink.gif","img/card_backs/set2/blue.gif","img/card_backs/set2/orange.gif","""event"",""trial"",""time""
""fullscreenenter"",""1"",""4307""
","
","
","""event"",""trial"",""time""
""fullscreenenter"",""1"",""4307""
","
","","13350.900000000023","Some colored decks are luckier than others. </br> If you choose the lucky decks, you will earn more tokens than if you choose the unlucky decks.","69","","instructions","2021-08-09 18:23:36.607","","","","","",""
"casino-keyboard-response","26","144164","0.0-16.0-0.4","1078","false","img/card_backs/set1/yellow.gif","img/card_backs/set1/red.gif","img/card_backs/set1/green.gif","img/card_backs/set1/purple.gif","img/card_backs/set2/gray.gif","img/card_backs/set2/pink.gif","img/card_backs/set2/blue.gif","img/card_backs/set2/orange.gif","""event"",""trial"",""time""
""fullscreenenter"",""1"",""4307""
","
","
","""event"",""trial"",""time""
""fullscreenenter"",""1"",""4307""
","
","","8767.20000000007","You should try to figure out which decks are lucky. </br> Then, try to choose the lucky decks so you can win the most tokens.","87","","instructions","2021-08-09 18:23:45.378","","","","","",""
"casino-keyboard-response","27","159109","0.0-16.0-0.5","1078","false","img/card_backs/set1/yellow.gif","img/card_backs/set1/red.gif","img/card_backs/set1/green.gif","img/card_backs/set1/purple.gif","img/card_backs/set2/gray.gif","img/card_backs/set2/pink.gif","img/card_backs/set2/blue.gif","img/card_backs/set2/orange.gif","""event"",""trial"",""time""
""fullscreenenter"",""1"",""4307""
","
","
","""event"",""trial"",""time""
""fullscreenenter"",""1"",""4307""
","
","","14942.800000000047","To make it trickier, the casino dealer will switch the locations of the decks on every turn. </br> The color of the deck determines how lucky it is. The location does not matter.","88","","instructions","2021-08-09 18:24:00.323","","","","","",""
"casino-keyboard-response","28","184521","0.0-16.0-0.6","1078","false","img/card_backs/set1/yellow.gif","img/card_backs/set1/red.gif","img/card_backs/set1/green.gif","img/card_backs/set1/purple.gif","img/card_backs/set2/gray.gif","img/card_backs/set2/pink.gif","img/card_backs/set2/blue.gif","img/card_backs/set2/orange.gif","""event"",""trial"",""time""
""fullscreenenter"",""1"",""4307""
","
","
","""event"",""trial"",""time""
""fullscreenenter"",""1"",""4307""
","
","","25406.599999999977","The mix of cards in each colored deck will stay the same throughout the game. </br> That means that a deck that is lucky early on will stay lucky.","79","","instructions","2021-08-09 18:24:25.735","","","","","",""
"casino-keyboard-response","29","194796","0.0-16.0-0.7","1078","false","img/card_backs/set1/yellow.gif","img/card_backs/set1/red.gif","img/card_backs/set1/green.gif","img/card_backs/set1/purple.gif","img/card_backs/set2/gray.gif","img/card_backs/set2/pink.gif","img/card_backs/set2/blue.gif","img/card_backs/set2/orange.gif","""event"",""trial"",""time""
""fullscreenenter"",""1"",""4307""
","
","
","""event"",""trial"",""time""
""fullscreenenter"",""1"",""4307""
","
","","10269.800000000047","Remember though, all the decks have a <b> mix </b> of both <b> good </b> and <b> bad </b> cards so it may take a couple of turns to figure out if a deck is lucky.","69","","instructions","2021-08-09 18:24:36.010","","","","","",""
"casino-keyboard-response","30","203987","0.0-16.0-0.8","1078","false","img/card_backs/set1/yellow.gif","img/card_backs/set1/red.gif","img/card_backs/set1/green.gif","img/card_backs/set1/purple.gif","img/card_backs/set2/gray.gif","img/card_backs/set2/pink.gif","img/card_backs/set2/blue.gif","img/card_backs/set2/orange.gif","""event"",""trial"",""time""
""fullscreenenter"",""1"",""4307""
","
","
","""event"",""trial"",""time""
""fullscreenenter"",""1"",""4307""
","
","","9187.400000000023","At the end of the game, you will be paid bonus money based on how many tokens you win. </br> If you win more tokens, you will earn more money!","72","","instructions","2021-08-09 18:24:45.201","","","","","",""
"casino-keyboard-response","31","214629","0.0-16.0-0.9","1078","false","img/card_backs/set1/yellow.gif","img/card_backs/set1/red.gif","img/card_backs/set1/green.gif","img/card_backs/set1/purple.gif","img/card_backs/set2/gray.gif","img/card_backs/set2/pink.gif","img/card_backs/set2/blue.gif","img/card_backs/set2/orange.gif","""event"",""trial"",""time""
""fullscreenenter"",""1"",""4307""
","
","
","""event"",""trial"",""time""
""fullscreenenter"",""1"",""4307""
","
","","10638.199999999953","You will never <b> lose </b> money. </br> If you end up with fewer than 0 tokens, you will earn $0 of bonus money, but you will still be paid for playing the game.","83","","instructions","2021-08-09 18:24:55.844","","","","","",""
"casino-keyboard-response","32","219552","0.0-16.0-0.10","1078","false","img/card_backs/set1/yellow.gif","img/card_backs/set1/red.gif","img/card_backs/set1/green.gif","img/card_backs/set1/purple.gif","img/card_backs/set2/gray.gif","img/card_backs/set2/pink.gif","img/card_backs/set2/blue.gif","img/card_backs/set2/orange.gif","""event"",""trial"",""time""
""fullscreenenter"",""1"",""4307""
","
","
","""event"",""trial"",""time""
""fullscreenenter"",""1"",""4307""
","
","","4917.800000000047","You will have 10 seconds to make each choice.","82","","instructions","2021-08-09 18:25:00.766","","","","","",""
"casino-keyboard-response","33","229571","0.0-16.0-0.11","1078","false","img/card_backs/set1/yellow.gif","img/card_backs/set1/red.gif","img/card_backs/set1/green.gif","img/card_backs/set1/purple.gif","img/card_backs/set2/gray.gif","img/card_backs/set2/pink.gif","img/card_backs/set2/blue.gif","img/card_backs/set2/orange.gif","""event"",""trial"",""time""
""fullscreenenter"",""1"",""4307""
","
","
","""event"",""trial"",""time""
""fullscreenenter"",""1"",""4307""
","
","","10010.5","Before you play the game for real, you will play with practice decks. </br> The tokens you earn during practice won't count toward your total.","86","","instructions","2021-08-09 18:25:10.785","","","","","",""
"casino-keyboard-response","34","233314","0.0-16.0-0.12","1078","false","img/card_backs/set1/yellow.gif","img/card_backs/set1/red.gif","img/card_backs/set1/green.gif","img/card_backs/set1/purple.gif","img/card_backs/set2/gray.gif","img/card_backs/set2/pink.gif","img/card_backs/set2/blue.gif","img/card_backs/set2/orange.gif","""event"",""trial"",""time""
""fullscreenenter"",""1"",""4307""
","
","
","""event"",""trial"",""time""
""fullscreenenter"",""1"",""4307""
","
","","3740.3000000000466","Ready? Remember, use the '2', '4', '6', and '8' keys to select the decks. </br> Put your fingers on those keys now and then press '2' to begin.","50","","instructions","2021-08-09 18:25:14.528","","","","","",""
"casino-fixation","35","233826","0.0-17.0-0.0","1078","false","img/card_backs/set1/yellow.gif","img/card_backs/set1/red.gif","img/card_backs/set1/green.gif","img/card_backs/set1/purple.gif","img/card_backs/set2/gray.gif","img/card_backs/set2/pink.gif","img/card_backs/set2/blue.gif","img/card_backs/set2/orange.gif","""event"",""trial"",""time""
""fullscreenenter"",""1"",""4307""
","
","
","""event"",""trial"",""time""
""fullscreenenter"",""1"",""4307""
","
","","null","","null","","fixation","2021-08-09 18:25:15.040","","","","","",""
"card-selection-trial","36","238211","0.0-17.0-1.0","1078","false","img/card_backs/set1/yellow.gif","img/card_backs/set1/red.gif","img/card_backs/set1/green.gif","img/card_backs/set1/purple.gif","img/card_backs/set2/gray.gif","img/card_backs/set2/pink.gif","img/card_backs/set2/blue.gif","img/card_backs/set2/orange.gif","""event"",""trial"",""time""
""fullscreenenter"",""1"",""4307""
","
","
","""event"",""trial"",""time""
""fullscreenenter"",""1"",""4307""
","
","","2361.600000000093","","","","practice","2021-08-09 18:25:19.426","img/practice_cards/backs/brown.gif","0","100","0","",""
"casino-fixation","37","238716","0.0-17.0-0.1","1078","false","img/card_backs/set1/yellow.gif","img/card_backs/set1/red.gif","img/card_backs/set1/green.gif","img/card_backs/set1/purple.gif","img/card_backs/set2/gray.gif","img/card_backs/set2/pink.gif","img/card_backs/set2/blue.gif","img/card_backs/set2/orange.gif","""event"",""trial"",""time""
""fullscreenenter"",""1"",""4307""
","
","
","""event"",""trial"",""time""
""fullscreenenter"",""1"",""4307""
","
","","null","","null","","fixation","2021-08-09 18:25:19.930","","","","","",""
"card-selection-trial","38","245399","0.0-17.0-1.1","1078","false","img/card_backs/set1/yellow.gif","img/card_backs/set1/red.gif","img/card_backs/set1/green.gif","img/card_backs/set1/purple.gif","img/card_backs/set2/gray.gif","img/card_backs/set2/pink.gif","img/card_backs/set2/blue.gif","img/card_backs/set2/orange.gif","""event"",""trial"",""time""
""fullscreenenter"",""1"",""4307""
","
","
","""event"",""trial"",""time""
""fullscreenenter"",""1"",""4307""
","
","","4663.79999999993","","","","practice","2021-08-09 18:25:26.613","img/practice_cards/backs/brown.gif","1","-100","0","",""
"casino-fixation","39","245908","0.0-17.0-0.2","1078","false","img/card_backs/set1/yellow.gif","img/card_backs/set1/red.gif","img/card_backs/set1/green.gif","img/card_backs/set1/purple.gif","img/card_backs/set2/gray.gif","img/card_backs/set2/pink.gif","img/card_backs/set2/blue.gif","img/card_backs/set2/orange.gif","""event"",""trial"",""time""
""fullscreenenter"",""1"",""4307""
","
","
","""event"",""trial"",""time""
""fullscreenenter"",""1"",""4307""
","
","","null","","null","","fixation","2021-08-09 18:25:27.122","","","","","",""
"card-selection-trial","40","251647","0.0-17.0-1.2","1078","false","img/card_backs/set1/yellow.gif","img/card_backs/set1/red.gif","img/card_backs/set1/green.gif","img/card_backs/set1/purple.gif","img/card_backs/set2/gray.gif","img/card_backs/set2/pink.gif","img/card_backs/set2/blue.gif","img/card_backs/set2/orange.gif","""event"",""trial"",""time""
""fullscreenenter"",""1"",""4307""
","
","
","""event"",""trial"",""time""
""fullscreenenter"",""1"",""4307""
","
","","3728.5","","","","practice","2021-08-09 18:25:32.861","img/practice_cards/backs/black.gif","2","-100","0","",""
"casino-fixation","41","252155","0.0-17.0-0.3","1078","false","img/card_backs/set1/yellow.gif","img/card_backs/set1/red.gif","img/card_backs/set1/green.gif","img/card_backs/set1/purple.gif","img/card_backs/set2/gray.gif","img/card_backs/set2/pink.gif","img/card_backs/set2/blue.gif","img/card_backs/set2/orange.gif","""event"",""trial"",""time""
""fullscreenenter"",""1"",""4307""
","
","
","""event"",""trial"",""time""
""fullscreenenter"",""1"",""4307""
","
","","null","","null","","fixation","2021-08-09 18:25:33.369","","","","","",""
"card-selection-trial","42","257298","0.0-17.0-1.3","1078","false","img/card_backs/set1/yellow.gif","img/card_backs/set1/red.gif","img/card_backs/set1/green.gif","img/card_backs/set1/purple.gif","img/card_backs/set2/gray.gif","img/card_backs/set2/pink.gif","img/card_backs/set2/blue.gif","img/card_backs/set2/orange.gif","""event"",""trial"",""time""
""fullscreenenter"",""1"",""4307""
","
","
","""event"",""trial"",""time""
""fullscreenenter"",""1"",""4307""
","
","","3130.0999999999767","","","","practice","2021-08-09 18:25:38.512","img/practice_cards/backs/dark_green.gif","0","200","0","",""
"casino-fixation","43","257809","0.0-17.0-0.4","1078","false","img/card_backs/set1/yellow.gif","img/card_backs/set1/red.gif","img/card_backs/set1/green.gif","img/card_backs/set1/purple.gif","img/card_backs/set2/gray.gif","img/card_backs/set2/pink.gif","img/card_backs/set2/blue.gif","img/card_backs/set2/orange.gif","""event"",""trial"",""time""
""fullscreenenter"",""1"",""4307""
","
","
","""event"",""trial"",""time""
""fullscreenenter"",""1"",""4307""
","
","","null","","null","","fixation","2021-08-09 18:25:39.023","","","","","",""
"card-selection-trial","44","260944","0.0-17.0-1.4","1078","false","img/card_backs/set1/yellow.gif","img/card_backs/set1/red.gif","img/card_backs/set1/green.gif","img/card_backs/set1/purple.gif","img/card_backs/set2/gray.gif","img/card_backs/set2/pink.gif","img/card_backs/set2/blue.gif","img/card_backs/set2/orange.gif","""event"",""trial"",""time""
""fullscreenenter"",""1"",""4307""
","
","
","""event"",""trial"",""time""
""fullscreenenter"",""1"",""4307""
","
","","1117.0999999999767","","","","practice","2021-08-09 18:25:42.158","img/practice_cards/backs/dark_green.gif","3","200","0","",""
"casino-fixation","45","261447","0.0-17.0-0.5","1078","false","img/card_backs/set1/yellow.gif","img/card_backs/set1/red.gif","img/card_backs/set1/green.gif","img/card_backs/set1/purple.gif","img/card_backs/set2/gray.gif","img/card_backs/set2/pink.gif","img/card_backs/set2/blue.gif","img/card_backs/set2/orange.gif","""event"",""trial"",""time""
""fullscreenenter"",""1"",""4307""
","
","
","""event"",""trial"",""time""
""fullscreenenter"",""1"",""4307""
","
","","null","","null","","fixation","2021-08-09 18:25:42.661","","","","","",""
"card-selection-trial","46","264451","0.0-17.0-1.5","1078","false","img/card_backs/set1/yellow.gif","img/card_backs/set1/red.gif","img/card_backs/set1/green.gif","img/card_backs/set1/purple.gif","img/card_backs/set2/gray.gif","img/card_backs/set2/pink.gif","img/card_backs/set2/blue.gif","img/card_backs/set2/orange.gif","""event"",""trial"",""time""
""fullscreenenter"",""1"",""4307""
","
","
","""event"",""trial"",""time""
""fullscreenenter"",""1"",""4307""
","
","","994.7999999999302","","","","practice","2021-08-09 18:25:45.665","img/practice_cards/backs/dark_green.gif","1","200","0","",""
"casino-fixation","47","264955","0.0-17.0-0.6","1078","false","img/card_backs/set1/yellow.gif","img/card_backs/set1/red.gif","img/card_backs/set1/green.gif","img/card_backs/set1/purple.gif","img/card_backs/set2/gray.gif","img/card_backs/set2/pink.gif","img/card_backs/set2/blue.gif","img/card_backs/set2/orange.gif","""event"",""trial"",""time""
""fullscreenenter"",""1"",""4307""
","
","
","""event"",""trial"",""time""
""fullscreenenter"",""1"",""4307""
","
","","null","","null","","fixation","2021-08-09 18:25:46.169","","","","","",""
"card-selection-trial","48","268083","0.0-17.0-1.6","1078","false","img/card_backs/set1/yellow.gif","img/card_backs/set1/red.gif","img/card_backs/set1/green.gif","img/card_backs/set1/purple.gif","img/card_backs/set2/gray.gif","img/card_backs/set2/pink.gif","img/card_backs/set2/blue.gif","img/card_backs/set2/orange.gif","""event"",""trial"",""time""
""fullscreenenter"",""1"",""4307""
","
","
","""event"",""trial"",""time""
""fullscreenenter"",""1"",""4307""
","
","","1118.5","","","","practice","2021-08-09 18:25:49.298","img/practice_cards/backs/dark_green.gif","3","-200","0","",""
"casino-fixation","49","268587","0.0-17.0-0.7","1078","false","img/card_backs/set1/yellow.gif","img/card_backs/set1/red.gif","img/card_backs/set1/green.gif","img/card_backs/set1/purple.gif","img/card_backs/set2/gray.gif","img/card_backs/set2/pink.gif","img/card_backs/set2/blue.gif","img/card_backs/set2/orange.gif","""event"",""trial"",""time""
""fullscreenenter"",""1"",""4307""
","
","
","""event"",""trial"",""time""
""fullscreenenter"",""1"",""4307""
","
","","null","","null","","fixation","2021-08-09 18:25:49.801","","","","","",""
"card-selection-trial","50","271497","0.0-17.0-1.7","1078","false","img/card_backs/set1/yellow.gif","img/card_backs/set1/red.gif","img/card_backs/set1/green.gif","img/card_backs/set1/purple.gif","img/card_backs/set2/gray.gif","img/card_backs/set2/pink.gif","img/card_backs/set2/blue.gif","img/card_backs/set2/orange.gif","""event"",""trial"",""time""
""fullscreenenter"",""1"",""4307""
","
","
","""event"",""trial"",""time""
""fullscreenenter"",""1"",""4307""
","
","","899.6999999999534","","","","practice","2021-08-09 18:25:52.711","img/practice_cards/backs/dark_green.gif","3","-200","0","",""
"casino-fixation","51","271999","0.0-17.0-0.8","1078","false","img/card_backs/set1/yellow.gif","img/card_backs/set1/red.gif","img/card_backs/set1/green.gif","img/card_backs/set1/purple.gif","img/card_backs/set2/gray.gif","img/card_backs/set2/pink.gif","img/card_backs/set2/blue.gif","img/card_backs/set2/orange.gif","""event"",""trial"",""time""
""fullscreenenter"",""1"",""4307""
","
","
","""event"",""trial"",""time""
""fullscreenenter"",""1"",""4307""
","
","","null","","null","","fixation","2021-08-09 18:25:53.213","","","","","",""
"card-selection-trial","52","274857","0.0-17.0-1.8","1078","false","img/card_backs/set1/yellow.gif","img/card_backs/set1/red.gif","img/card_backs/set1/green.gif","img/card_backs/set1/purple.gif","img/card_backs/set2/gray.gif","img/card_backs/set2/pink.gif","img/card_backs/set2/blue.gif","img/card_backs/set2/orange.gif","""event"",""trial"",""time""
""fullscreenenter"",""1"",""4307""
","
","
","""event"",""trial"",""time""
""fullscreenenter"",""1"",""4307""
","
","","847.5999999999767","","","","practice","2021-08-09 18:25:56.071","img/practice_cards/backs/dark_green.gif","3","-200","0","",""
"casino-fixation","53","275358","0.0-17.0-0.9","1078","false","img/card_backs/set1/yellow.gif","img/card_backs/set1/red.gif","img/card_backs/set1/green.gif","img/card_backs/set1/purple.gif","img/card_backs/set2/gray.gif","img/card_backs/set2/pink.gif","img/card_backs/set2/blue.gif","img/card_backs/set2/orange.gif","""event"",""trial"",""time""
""fullscreenenter"",""1"",""4307""
","
","
","""event"",""trial"",""time""
""fullscreenenter"",""1"",""4307""
","
","","null","","null","","fixation","2021-08-09 18:25:56.573","","","","","",""
"card-selection-trial","54","279138","0.0-17.0-1.9","1078","false","img/card_backs/set1/yellow.gif","img/card_backs/set1/red.gif","img/card_backs/set1/green.gif","img/card_backs/set1/purple.gif","img/card_backs/set2/gray.gif","img/card_backs/set2/pink.gif","img/card_backs/set2/blue.gif","img/card_backs/set2/orange.gif","""event"",""trial"",""time""
""fullscreenenter"",""1"",""4307""
","
","
","""event"",""trial"",""time""
""fullscreenenter"",""1"",""4307""
","
","","1769.7999999999302","","","","practice","2021-08-09 18:26:00.352","img/practice_cards/backs/dark_blue.gif","1","-200","0","",""
"casino-keyboard-response","55","283675","0.0-18.0","1078","false","img/card_backs/set1/yellow.gif","img/card_backs/set1/red.gif","img/card_backs/set1/green.gif","img/card_backs/set1/purple.gif","img/card_backs/set2/gray.gif","img/card_backs/set2/pink.gif","img/card_backs/set2/blue.gif","img/card_backs/set2/orange.gif","""event"",""trial"",""time""
""fullscreenenter"",""1"",""4307""
","
","
","""event"",""trial"",""time""
""fullscreenenter"",""1"",""4307""
","
","","4533.899999999907","You earned -300 tokens during the practice round!","82","","","2021-08-09 18:26:04.889","","","","","",""
"casino-keyboard-response","56","287954","0.0-19.0-0.0","1078","false","img/card_backs/set1/yellow.gif","img/card_backs/set1/red.gif","img/card_backs/set1/green.gif","img/card_backs/set1/purple.gif","img/card_backs/set2/gray.gif","img/card_backs/set2/pink.gif","img/card_backs/set2/blue.gif","img/card_backs/set2/orange.gif","""event"",""trial"",""time""
""fullscreenenter"",""1"",""4307""
","
","
","""event"",""trial"",""time""
""fullscreenenter"",""1"",""4307""
","
","","4275","Nice job! You are almost ready to play the real game.","86","","instructions","2021-08-09 18:26:09.168","","","","","",""
"casino-keyboard-response","57","299290","0.0-19.0-0.1","1078","false","img/card_backs/set1/yellow.gif","img/card_backs/set1/red.gif","img/card_backs/set1/green.gif","img/card_backs/set1/purple.gif","img/card_backs/set2/gray.gif","img/card_backs/set2/pink.gif","img/card_backs/set2/blue.gif","img/card_backs/set2/orange.gif","""event"",""trial"",""time""
""fullscreenenter"",""1"",""4307""
","
","
","""event"",""trial"",""time""
""fullscreenenter"",""1"",""4307""
","
","","11339.900000000023","You will play two rounds of the real game. In each round, you will pick 100 cards in total.","73","","instructions","2021-08-09 18:26:20.504","","","","","",""
"casino-keyboard-response","58","303486","0.0-19.0-0.2","1078","false","img/card_backs/set1/yellow.gif","img/card_backs/set1/red.gif","img/card_backs/set1/green.gif","img/card_backs/set1/purple.gif","img/card_backs/set2/gray.gif","img/card_backs/set2/pink.gif","img/card_backs/set2/blue.gif","img/card_backs/set2/orange.gif","""event"",""trial"",""time""
""fullscreenenter"",""1"",""4307""
","
","
","""event"",""trial"",""time""
""fullscreenenter"",""1"",""4307""
","
","","4191.800000000047","We are now going to ask you some questions about how the game works.","66","","instructions","2021-08-09 18:26:24.700","","","","","",""
"casino-keyboard-response","59","309893","0.0-19.0-0.3","1078","false","img/card_backs/set1/yellow.gif","img/card_backs/set1/red.gif","img/card_backs/set1/green.gif","img/card_backs/set1/purple.gif","img/card_backs/set2/gray.gif","img/card_backs/set2/pink.gif","img/card_backs/set2/blue.gif","img/card_backs/set2/orange.gif","""event"",""trial"",""time""
""fullscreenenter"",""1"",""4307""
","
","
","""event"",""trial"",""time""
""fullscreenenter"",""1"",""4307""
","
","","6403","Answer carefully. You will not be able to begin the game until you answer them correctly.","67","","instructions","2021-08-09 18:26:31.107","","","","","",""
"casino-comp_q","60","316571","0.0-20.0-0.0","1078","false","img/card_backs/set1/yellow.gif","img/card_backs/set1/red.gif","img/card_backs/set1/green.gif","img/card_backs/set1/purple.gif","img/card_backs/set2/gray.gif","img/card_backs/set2/pink.gif","img/card_backs/set2/blue.gif","img/card_backs/set2/orange.gif","""event"",""trial"",""time""
""fullscreenenter"",""1"",""4307""
","
","
","""event"",""trial"",""time""
""fullscreenenter"",""1"",""4307""
","
","","6672.900000000023","True or False: All the decks have some cards that cause you to win tokens and some cards that cause you to lose tokens.","84","","","2021-08-09 18:26:37.785","","","","","",""
"casino-keyboard-response","61","319440","0.0-20.0-1.0","1078","false","img/card_backs/set1/yellow.gif","img/card_backs/set1/red.gif","img/card_backs/set1/green.gif","img/card_backs/set1/purple.gif","img/card_backs/set2/gray.gif","img/card_backs/set2/pink.gif","img/card_backs/set2/blue.gif","img/card_backs/set2/orange.gif","""event"",""trial"",""time""
""fullscreenenter"",""1"",""4307""
","
","
","""event"",""trial"",""time""
""fullscreenenter"",""1"",""4307""
","
","","2864.0999999999767","True is correct! All the decks have a mix of winning and losing cards.","77","","","2021-08-09 18:26:40.654","","","","","true",""
"casino-comp_q","62","323954","0.0-21.0-0.0","1078","false","img/card_backs/set1/yellow.gif","img/card_backs/set1/red.gif","img/card_backs/set1/green.gif","img/card_backs/set1/purple.gif","img/card_backs/set2/gray.gif","img/card_backs/set2/pink.gif","img/card_backs/set2/blue.gif","img/card_backs/set2/orange.gif","""event"",""trial"",""time""
""fullscreenenter"",""1"",""4307""
","
","
","""event"",""trial"",""time""
""fullscreenenter"",""1"",""4307""
","
","","4508.899999999907","True or False: You will have as much time as you want to make your response.","70","","","2021-08-09 18:26:45.168","","","","","",""
"casino-keyboard-response","63","326602","0.0-21.0-1.0","1078","false","img/card_backs/set1/yellow.gif","img/card_backs/set1/red.gif","img/card_backs/set1/green.gif","img/card_backs/set1/purple.gif","img/card_backs/set2/gray.gif","img/card_backs/set2/pink.gif","img/card_backs/set2/blue.gif","img/card_backs/set2/orange.gif","""event"",""trial"",""time""
""fullscreenenter"",""1"",""4307""
","
","
","""event"",""trial"",""time""
""fullscreenenter"",""1"",""4307""
","
","","2638.6999999999534","False is correct! You will only have 10 seconds to make each choice.","75","","","2021-08-09 18:26:47.816","","","","","true",""
"casino-comp_q","64","332571","0.0-22.0-0.0","1078","false","img/card_backs/set1/yellow.gif","img/card_backs/set1/red.gif","img/card_backs/set1/green.gif","img/card_backs/set1/purple.gif","img/card_backs/set2/gray.gif","img/card_backs/set2/pink.gif","img/card_backs/set2/blue.gif","img/card_backs/set2/orange.gif","""event"",""trial"",""time""
""fullscreenenter"",""1"",""4307""
","
","
","""event"",""trial"",""time""
""fullscreenenter"",""1"",""4307""
","
","","5967.099999999977","True or False: The location of the deck determines how lucky it is.","70","","","2021-08-09 18:26:53.785","","","","","",""
"casino-keyboard-response","65","339543","0.0-22.0-1.0","1078","false","img/card_backs/set1/yellow.gif","img/card_backs/set1/red.gif","img/card_backs/set1/green.gif","img/card_backs/set1/purple.gif","img/card_backs/set2/gray.gif","img/card_backs/set2/pink.gif","img/card_backs/set2/blue.gif","img/card_backs/set2/orange.gif","""event"",""trial"",""time""
""fullscreenenter"",""1"",""4307""
","
","
","""event"",""trial"",""time""
""fullscreenenter"",""1"",""4307""
","
","","6968.399999999907","False is correct! The <i>color</i>  of the deck determines how lucky or unlucky it is.","68","","","2021-08-09 18:27:00.758","","","","","true",""
"casino-keyboard-response","66","344696","0.0-23.0-0.0","1078","false","img/card_backs/set1/yellow.gif","img/card_backs/set1/red.gif","img/card_backs/set1/green.gif","img/card_backs/set1/purple.gif","img/card_backs/set2/gray.gif","img/card_backs/set2/pink.gif","img/card_backs/set2/blue.gif","img/card_backs/set2/orange.gif","""event"",""trial"",""time""
""fullscreenenter"",""1"",""4307""
","
","
","""event"",""trial"",""time""
""fullscreenenter"",""1"",""4307""
","
","","5149.29999999993","Great job! Now it's time to start the real game.","82","","instructions","2021-08-09 18:27:05.910","","","","","",""
"casino-keyboard-response","67","350132","0.0-23.0-0.1","1078","false","img/card_backs/set1/yellow.gif","img/card_backs/set1/red.gif","img/card_backs/set1/green.gif","img/card_backs/set1/purple.gif","img/card_backs/set2/gray.gif","img/card_backs/set2/pink.gif","img/card_backs/set2/blue.gif","img/card_backs/set2/orange.gif","""event"",""trial"",""time""
""fullscreenenter"",""1"",""4307""
","
","
","""event"",""trial"",""time""
""fullscreenenter"",""1"",""4307""
","
","","5431.400000000023","Before we start, we're going to head into a new room of the casino.","86","","instructions","2021-08-09 18:27:11.346","","","","","",""
"casino-keyboard-response","68","360269","0.0-24.0-0.0","1078","false","img/card_backs/set1/yellow.gif","img/card_backs/set1/red.gif","img/card_backs/set1/green.gif","img/card_backs/set1/purple.gif","img/card_backs/set2/gray.gif","img/card_backs/set2/pink.gif","img/card_backs/set2/blue.gif","img/card_backs/set2/orange.gif","""event"",""trial"",""time""
""fullscreenenter"",""1"",""4307""
","
","
","""event"",""trial"",""time""
""fullscreenenter"",""1"",""4307""
","
","","10124","Here we are! The real game will use different cards, but the rules will be the same.","71","","instructions","2021-08-09 18:27:21.483","","","","","",""
"casino-keyboard-response","69","369549","0.0-24.0-0.1","1078","false","img/card_backs/set1/yellow.gif","img/card_backs/set1/red.gif","img/card_backs/set1/green.gif","img/card_backs/set1/purple.gif","img/card_backs/set2/gray.gif","img/card_backs/set2/pink.gif","img/card_backs/set2/blue.gif","img/card_backs/set2/orange.gif","""event"",""trial"",""time""
""fullscreenenter"",""1"",""4307""
","
","
","""event"",""trial"",""time""
""fullscreenenter"",""1"",""4307""
","
","","9277","Ready? Put your fingers over the '2', '4', 6', and '8' keys so you are ready to play the game. </br> Then press 2 to start.","50","","instructions","2021-08-09 18:27:30.764","","","","","",""
"casino-fixation","70","370054","0.0-25.0-0.0","1078","false","img/card_backs/set1/yellow.gif","img/card_backs/set1/red.gif","img/card_backs/set1/green.gif","img/card_backs/set1/purple.gif","img/card_backs/set2/gray.gif","img/card_backs/set2/pink.gif","img/card_backs/set2/blue.gif","img/card_backs/set2/orange.gif","""event"",""trial"",""time""
""fullscreenenter"",""1"",""4307""
","
","
","""event"",""trial"",""time""
""fullscreenenter"",""1"",""4307""
","
","","null","","null","","fixation","2021-08-09 18:27:31.268","","","","","",""
"card-selection-trial","71","374216","0.0-25.0-1.0","1078","false","img/card_backs/set1/yellow.gif","img/card_backs/set1/red.gif","img/card_backs/set1/green.gif","img/card_backs/set1/purple.gif","img/card_backs/set2/gray.gif","img/card_backs/set2/pink.gif","img/card_backs/set2/blue.gif","img/card_backs/set2/orange.gif","""event"",""trial"",""time""
""fullscreenenter"",""1"",""4307""
","
","
","""event"",""trial"",""time""
""fullscreenenter"",""1"",""4307""
","
","","2144.5","","","","real_trial","2021-08-09 18:27:35.430","img/card_backs/set1/yellow.gif","1","180","1","",""
"casino-fixation","72","374724","0.0-25.0-0.1","1078","false","img/card_backs/set1/yellow.gif","img/card_backs/set1/red.gif","img/card_backs/set1/green.gif","img/card_backs/set1/purple.gif","img/card_backs/set2/gray.gif","img/card_backs/set2/pink.gif","img/card_backs/set2/blue.gif","img/card_backs/set2/orange.gif","""event"",""trial"",""time""
""fullscreenenter"",""1"",""4307""
","
","
","""event"",""trial"",""time""
""fullscreenenter"",""1"",""4307""
","
","","null","","null","","fixation","2021-08-09 18:27:35.938","","","","","",""
"card-selection-trial","73","378028","0.0-25.0-1.1","1078","false","img/card_backs/set1/yellow.gif","img/card_backs/set1/red.gif","img/card_backs/set1/green.gif","img/card_backs/set1/purple.gif","img/card_backs/set2/gray.gif","img/card_backs/set2/pink.gif","img/card_backs/set2/blue.gif","img/card_backs/set2/orange.gif","""event"",""trial"",""time""
""fullscreenenter"",""1"",""4307""
","
","
","""event"",""trial"",""time""
""fullscreenenter"",""1"",""4307""
","
","","1289.5","","","","real_trial","2021-08-09 18:27:39.242","img/card_backs/set1/yellow.gif","3","180","1","",""
"casino-fixation","74","378532","0.0-25.0-0.2","1078","false","img/card_backs/set1/yellow.gif","img/card_backs/set1/red.gif","img/card_backs/set1/green.gif","img/card_backs/set1/purple.gif","img/card_backs/set2/gray.gif","img/card_backs/set2/pink.gif","img/card_backs/set2/blue.gif","img/card_backs/set2/orange.gif","""event"",""trial"",""time""
""fullscreenenter"",""1"",""4307""
","
","
","""event"",""trial"",""time""
""fullscreenenter"",""1"",""4307""
","
","","null","","null","","fixation","2021-08-09 18:27:39.746","","","","","",""
"card-selection-trial","75","381763","0.0-25.0-1.2","1078","false","img/card_backs/set1/yellow.gif","img/card_backs/set1/red.gif","img/card_backs/set1/green.gif","img/card_backs/set1/purple.gif","img/card_backs/set2/gray.gif","img/card_backs/set2/pink.gif","img/card_backs/set2/blue.gif","img/card_backs/set2/orange.gif","""event"",""trial"",""time""
""fullscreenenter"",""1"",""4307""
","
","
","""event"",""trial"",""time""
""fullscreenenter"",""1"",""4307""
","
","","1213.9000000000233","","","","real_trial","2021-08-09 18:27:42.977","img/card_backs/set1/yellow.gif","3","-240","1","",""
"casino-fixation","76","382271","0.0-25.0-0.3","1078","false","img/card_backs/set1/yellow.gif","img/card_backs/set1/red.gif","img/card_backs/set1/green.gif","img/card_backs/set1/purple.gif","img/card_backs/set2/gray.gif","img/card_backs/set2/pink.gif","img/card_backs/set2/blue.gif","img/card_backs/set2/orange.gif","""event"",""trial"",""time""
""fullscreenenter"",""1"",""4307""
","
","
","""event"",""trial"",""time""
""fullscreenenter"",""1"",""4307""
","
","","null","","null","","fixation","2021-08-09 18:27:43.485","","","","","",""
"card-selection-trial","77","385960","0.0-25.0-1.3","1078","false","img/card_backs/set1/yellow.gif","img/card_backs/set1/red.gif","img/card_backs/set1/green.gif","img/card_backs/set1/purple.gif","img/card_backs/set2/gray.gif","img/card_backs/set2/pink.gif","img/card_backs/set2/blue.gif","img/card_backs/set2/orange.gif","""event"",""trial"",""time""
""fullscreenenter"",""1"",""4307""
","
","
","""event"",""trial"",""time""
""fullscreenenter"",""1"",""4307""
","
","","1678.2999999999302","","","","real_trial","2021-08-09 18:27:47.174","img/card_backs/set1/purple.gif","2","120","1","",""
"casino-fixation","78","386471","0.0-25.0-0.4","1078","false","img/card_backs/set1/yellow.gif","img/card_backs/set1/red.gif","img/card_backs/set1/green.gif","img/card_backs/set1/purple.gif","img/card_backs/set2/gray.gif","img/card_backs/set2/pink.gif","img/card_backs/set2/blue.gif","img/card_backs/set2/orange.gif","""event"",""trial"",""time""
""fullscreenenter"",""1"",""4307""
","
","
","""event"",""trial"",""time""
""fullscreenenter"",""1"",""4307""
","
","","null","","null","","fixation","2021-08-09 18:27:47.685","","","","","",""
"card-selection-trial","79","389960","0.0-25.0-1.4","1078","false","img/card_backs/set1/yellow.gif","img/card_backs/set1/red.gif","img/card_backs/set1/green.gif","img/card_backs/set1/purple.gif","img/card_backs/set2/gray.gif","img/card_backs/set2/pink.gif","img/card_backs/set2/blue.gif","img/card_backs/set2/orange.gif","""event"",""trial"",""time""
""fullscreenenter"",""1"",""4307""
","
","
","""event"",""trial"",""time""
""fullscreenenter"",""1"",""4307""
","
","","1478.6999999999534","","","","real_trial","2021-08-09 18:27:51.174","img/card_backs/set1/purple.gif","2","110","1","",""
"casino-fixation","80","390470","0.0-25.0-0.5","1078","false","img/card_backs/set1/yellow.gif","img/card_backs/set1/red.gif","img/card_backs/set1/green.gif","img/card_backs/set1/purple.gif","img/card_backs/set2/gray.gif","img/card_backs/set2/pink.gif","img/card_backs/set2/blue.gif","img/card_backs/set2/orange.gif","""event"",""trial"",""time""
""fullscreenenter"",""1"",""4307""
","
","
","""event"",""trial"",""time""
""fullscreenenter"",""1"",""4307""
","
","","null","","null","","fixation","2021-08-09 18:27:51.684","","","","","",""
"card-selection-trial","81","393857","0.0-25.0-1.5","1078","false","img/card_backs/set1/yellow.gif","img/card_backs/set1/red.gif","img/card_backs/set1/green.gif","img/card_backs/set1/purple.gif","img/card_backs/set2/gray.gif","img/card_backs/set2/pink.gif","img/card_backs/set2/blue.gif","img/card_backs/set2/orange.gif","""event"",""trial"",""time""
""fullscreenenter"",""1"",""4307""
","
","
","""event"",""trial"",""time""
""fullscreenenter"",""1"",""4307""
","
","","1375.5","","","","real_trial","2021-08-09 18:27:55.071","img/card_backs/set1/purple.gif","0","-50","1","",""
"casino-fixation","82","394361","0.0-25.0-0.6","1078","false","img/card_backs/set1/yellow.gif","img/card_backs/set1/red.gif","img/card_backs/set1/green.gif","img/card_backs/set1/purple.gif","img/card_backs/set2/gray.gif","img/card_backs/set2/pink.gif","img/card_backs/set2/blue.gif","img/card_backs/set2/orange.gif","""event"",""trial"",""time""
""fullscreenenter"",""1"",""4307""
","
","
","""event"",""trial"",""time""
""fullscreenenter"",""1"",""4307""
","
","","null","","null","","fixation","2021-08-09 18:27:55.575","","","","","",""
"card-selection-trial","83","397803","0.0-25.0-1.6","1078","false","img/card_backs/set1/yellow.gif","img/card_backs/set1/red.gif","img/card_backs/set1/green.gif","img/card_backs/set1/purple.gif","img/card_backs/set2/gray.gif","img/card_backs/set2/pink.gif","img/card_backs/set2/blue.gif","img/card_backs/set2/orange.gif","""event"",""trial"",""time""
""fullscreenenter"",""1"",""4307""
","
","
","""event"",""trial"",""time""
""fullscreenenter"",""1"",""4307""
","
","","1434.3000000000466","","","","real_trial","2021-08-09 18:27:59.017","img/card_backs/set1/red.gif","1","-230","1","",""
"casino-fixation","84","398312","0.0-25.0-0.7","1078","false","img/card_backs/set1/yellow.gif","img/card_backs/set1/red.gif","img/card_backs/set1/green.gif","img/card_backs/set1/purple.gif","img/card_backs/set2/gray.gif","img/card_backs/set2/pink.gif","img/card_backs/set2/blue.gif","img/card_backs/set2/orange.gif","""event"",""trial"",""time""
""fullscreenenter"",""1"",""4307""
","
","
","""event"",""trial"",""time""
""fullscreenenter"",""1"",""4307""
","
","","null","","null","","fixation","2021-08-09 18:27:59.526","","","","","",""
"card-selection-trial","85","401891","0.0-25.0-1.7","1078","false","img/card_backs/set1/yellow.gif","img/card_backs/set1/red.gif","img/card_backs/set1/green.gif","img/card_backs/set1/purple.gif","img/card_backs/set2/gray.gif","img/card_backs/set2/pink.gif","img/card_backs/set2/blue.gif","img/card_backs/set2/orange.gif","""event"",""trial"",""time""
""fullscreenenter"",""1"",""4307""
","
","
","""event"",""trial"",""time""
""fullscreenenter"",""1"",""4307""
","
","","1569.9000000000233","","","","real_trial","2021-08-09 18:28:03.105","img/card_backs/set1/yellow.gif","1","180","1","",""
"casino-fixation","86","402395","0.0-25.0-0.8","1078","false","img/card_backs/set1/yellow.gif","img/card_backs/set1/red.gif","img/card_backs/set1/green.gif","img/card_backs/set1/purple.gif","img/card_backs/set2/gray.gif","img/card_backs/set2/pink.gif","img/card_backs/set2/blue.gif","img/card_backs/set2/orange.gif","""event"",""trial"",""time""
""fullscreenenter"",""1"",""4307""
","
","
","""event"",""trial"",""time""
""fullscreenenter"",""1"",""4307""
","
","","null","","null","","fixation","2021-08-09 18:28:03.609","","","","","",""
"card-selection-trial","87","406306","0.0-25.0-1.8","1078","false","img/card_backs/set1/yellow.gif","img/card_backs/set1/red.gif","img/card_backs/set1/green.gif","img/card_backs/set1/purple.gif","img/card_backs/set2/gray.gif","img/card_backs/set2/pink.gif","img/card_backs/set2/blue.gif","img/card_backs/set2/orange.gif","""event"",""trial"",""time""
""fullscreenenter"",""1"",""4307""
","
","
","""event"",""trial"",""time""
""fullscreenenter"",""1"",""4307""
","
","","1900.4000000000233","","","","real_trial","2021-08-09 18:28:07.520","img/card_backs/set1/purple.gif","1","110","1","",""
"casino-fixation","88","406809","0.0-25.0-0.9","1078","false","img/card_backs/set1/yellow.gif","img/card_backs/set1/red.gif","img/card_backs/set1/green.gif","img/card_backs/set1/purple.gif","img/card_backs/set2/gray.gif","img/card_backs/set2/pink.gif","img/card_backs/set2/blue.gif","img/card_backs/set2/orange.gif","""event"",""trial"",""time""
""fullscreenenter"",""1"",""4307""
","
","
","""event"",""trial"",""time""
""fullscreenenter"",""1"",""4307""
","
","","null","","null","","fixation","2021-08-09 18:28:08.023","","","","","",""
"card-selection-trial","89","410559","0.0-25.0-1.9","1078","false","img/card_backs/set1/yellow.gif","img/card_backs/set1/red.gif","img/card_backs/set1/green.gif","img/card_backs/set1/purple.gif","img/card_backs/set2/gray.gif","img/card_backs/set2/pink.gif","img/card_backs/set2/blue.gif","img/card_backs/set2/orange.gif","""event"",""trial"",""time""
""fullscreenenter"",""1"",""4307""
","
","
","""event"",""trial"",""time""
""fullscreenenter"",""1"",""4307""
","
","","1739.6999999999534","","","","real_trial","2021-08-09 18:28:11.773","img/card_backs/set1/purple.gif","1","-60","1","",""
"casino-fixation","90","411063","0.0-25.0-0.10","1078","false","img/card_backs/set1/yellow.gif","img/card_backs/set1/red.gif","img/card_backs/set1/green.gif","img/card_backs/set1/purple.gif","img/card_backs/set2/gray.gif","img/card_backs/set2/pink.gif","img/card_backs/set2/blue.gif","img/card_backs/set2/orange.gif","""event"",""trial"",""time""
""fullscreenenter"",""1"",""4307""
","
","
","""event"",""trial"",""time""
""fullscreenenter"",""1"",""4307""
","
","","null","","null","","fixation","2021-08-09 18:28:12.277","","","","","",""
"card-selection-trial","91","415745","0.0-25.0-1.10","1078","false","img/card_backs/set1/yellow.gif","img/card_backs/set1/red.gif","img/card_backs/set1/green.gif","img/card_backs/set1/purple.gif","img/card_backs/set2/gray.gif","img/card_backs/set2/pink.gif","img/card_backs/set2/blue.gif","img/card_backs/set2/orange.gif","""event"",""trial"",""time""
""fullscreenenter"",""1"",""4307""
","
","
","""event"",""trial"",""time""
""fullscreenenter"",""1"",""4307""
","
","","2670.20000000007","","","","real_trial","2021-08-09 18:28:16.959","img/card_backs/set1/yellow.gif","1","200","1","",""
"casino-fixation","92","416250","0.0-25.0-0.11","1078","false","img/card_backs/set1/yellow.gif","img/card_backs/set1/red.gif","img/card_backs/set1/green.gif","img/card_backs/set1/purple.gif","img/card_backs/set2/gray.gif","img/card_backs/set2/pink.gif","img/card_backs/set2/blue.gif","img/card_backs/set2/orange.gif","""event"",""trial"",""time""
""fullscreenenter"",""1"",""4307""
","
","
","""event"",""trial"",""time""
""fullscreenenter"",""1"",""4307""
","
","","null","","null","","fixation","2021-08-09 18:28:17.464","","","","","",""
"card-selection-trial","93","419997","0.0-25.0-1.11","1078","false","img/card_backs/set1/yellow.gif","img/card_backs/set1/red.gif","img/card_backs/set1/green.gif","img/card_backs/set1/purple.gif","img/card_backs/set2/gray.gif","img/card_backs/set2/pink.gif","img/card_backs/set2/blue.gif","img/card_backs/set2/orange.gif","""event"",""trial"",""time""
""fullscreenenter"",""1"",""4307""
","
","
","""event"",""trial"",""time""
""fullscreenenter"",""1"",""4307""
","
","","1736.5","","","","real_trial","2021-08-09 18:28:21.211","img/card_backs/set1/yellow.gif","0","190","1","",""
"casino-fixation","94","420501","0.0-25.0-0.12","1078","false","img/card_backs/set1/yellow.gif","img/card_backs/set1/red.gif","img/card_backs/set1/green.gif","img/card_backs/set1/purple.gif","img/card_backs/set2/gray.gif","img/card_backs/set2/pink.gif","img/card_backs/set2/blue.gif","img/card_backs/set2/orange.gif","""event"",""trial"",""time""
""fullscreenenter"",""1"",""4307""
","
","
","""event"",""trial"",""time""
""fullscreenenter"",""1"",""4307""
","
","","null","","null","","fixation","2021-08-09 18:28:21.715","","","","","",""
"card-selection-trial","95","424044","0.0-25.0-1.12","1078","false","img/card_backs/set1/yellow.gif","img/card_backs/set1/red.gif","img/card_backs/set1/green.gif","img/card_backs/set1/purple.gif","img/card_backs/set2/gray.gif","img/card_backs/set2/pink.gif","img/card_backs/set2/blue.gif","img/card_backs/set2/orange.gif","""event"",""trial"",""time""
""fullscreenenter"",""1"",""4307""
","
","
","""event"",""trial"",""time""
""fullscreenenter"",""1"",""4307""
","
","","1533.3999999999069","","","","real_trial","2021-08-09 18:28:25.259","img/card_backs/set1/purple.gif","2","-50","1","",""
"casino-fixation","96","424546","0.0-25.0-0.13","1078","false","img/card_backs/set1/yellow.gif","img/card_backs/set1/red.gif","img/card_backs/set1/green.gif","img/card_backs/set1/purple.gif","img/card_backs/set2/gray.gif","img/card_backs/set2/pink.gif","img/card_backs/set2/blue.gif","img/card_backs/set2/orange.gif","""event"",""trial"",""time""
""fullscreenenter"",""1"",""4307""
","
","
","""event"",""trial"",""time""
""fullscreenenter"",""1"",""4307""
","
","","null","","null","","fixation","2021-08-09 18:28:25.760","","","","","",""
"card-selection-trial","97","429308","0.0-25.0-1.13","1078","false","img/card_backs/set1/yellow.gif","img/card_backs/set1/red.gif","img/card_backs/set1/green.gif","img/card_backs/set1/purple.gif","img/card_backs/set2/gray.gif","img/card_backs/set2/pink.gif","img/card_backs/set2/blue.gif","img/card_backs/set2/orange.gif","""event"",""trial"",""time""
""fullscreenenter"",""1"",""4307""
","
","
","""event"",""trial"",""time""
""fullscreenenter"",""1"",""4307""
","
","","2752.399999999907","","","","real_trial","2021-08-09 18:28:30.522","img/card_backs/set1/purple.gif","0","-60","1","",""
"casino-fixation","98","429811","0.0-25.0-0.14","1078","false","img/card_backs/set1/yellow.gif","img/card_backs/set1/red.gif","img/card_backs/set1/green.gif","img/card_backs/set1/purple.gif","img/card_backs/set2/gray.gif","img/card_backs/set2/pink.gif","img/card_backs/set2/blue.gif","img/card_backs/set2/orange.gif","""event"",""trial"",""time""
""fullscreenenter"",""1"",""4307""
","
","
","""event"",""trial"",""time""
""fullscreenenter"",""1"",""4307""
","
","","null","","null","","fixation","2021-08-09 18:28:31.025","","","","","",""
"card-selection-trial","99","433839","0.0-25.0-1.14","1078","false","img/card_backs/set1/yellow.gif","img/card_backs/set1/red.gif","img/card_backs/set1/green.gif","img/card_backs/set1/purple.gif","img/card_backs/set2/gray.gif","img/card_backs/set2/pink.gif","img/card_backs/set2/blue.gif","img/card_backs/set2/orange.gif","""event"",""trial"",""time""
""fullscreenenter"",""1"",""4307""
","
","
","""event"",""trial"",""time""
""fullscreenenter"",""1"",""4307""
","
","","2018.3000000000466","","","","real_trial","2021-08-09 18:28:35.053","img/card_backs/set1/yellow.gif","3","180","1","",""
"casino-fixation","100","434344","0.0-25.0-0.15","1078","false","img/card_backs/set1/yellow.gif","img/card_backs/set1/red.gif","img/card_backs/set1/green.gif","img/card_backs/set1/purple.gif","img/card_backs/set2/gray.gif","img/card_backs/set2/pink.gif","img/card_backs/set2/blue.gif","img/card_backs/set2/orange.gif","""event"",""trial"",""time""
""fullscreenenter"",""1"",""4307""
","
","
","""event"",""trial"",""time""
""fullscreenenter"",""1"",""4307""
","
","","null","","null","","fixation","2021-08-09 18:28:35.558","","","","","",""
"card-selection-trial","101","437310","0.0-25.0-1.15","1078","false","img/card_backs/set1/yellow.gif","img/card_backs/set1/red.gif","img/card_backs/set1/green.gif","img/card_backs/set1/purple.gif","img/card_backs/set2/gray.gif","img/card_backs/set2/pink.gif","img/card_backs/set2/blue.gif","img/card_backs/set2/orange.gif","""event"",""trial"",""time""
""fullscreenenter"",""1"",""4307""
","
","
","""event"",""trial"",""time""
""fullscreenenter"",""1"",""4307""
","
","","957.3000000000466","","","","real_trial","2021-08-09 18:28:38.524","img/card_backs/set1/yellow.gif","0","-250","1","",""
"casino-fixation","102","437814","0.0-25.0-0.16","1078","false","img/card_backs/set1/yellow.gif","img/card_backs/set1/red.gif","img/card_backs/set1/green.gif","img/card_backs/set1/purple.gif","img/card_backs/set2/gray.gif","img/card_backs/set2/pink.gif","img/card_backs/set2/blue.gif","img/card_backs/set2/orange.gif","""event"",""trial"",""time""
""fullscreenenter"",""1"",""4307""
","
","
","""event"",""trial"",""time""
""fullscreenenter"",""1"",""4307""
","
","","null","","null","","fixation","2021-08-09 18:28:39.028","","","","","",""
"card-selection-trial","103","441578","0.0-25.0-1.16","1078","false","img/card_backs/set1/yellow.gif","img/card_backs/set1/red.gif","img/card_backs/set1/green.gif","img/card_backs/set1/purple.gif","img/card_backs/set2/gray.gif","img/card_backs/set2/pink.gif","img/card_backs/set2/blue.gif","img/card_backs/set2/orange.gif","""event"",""trial"",""time""
""fullscreenenter"",""1"",""4307""
","
","
","""event"",""trial"",""time""
""fullscreenenter"",""1"",""4307""
","
","","1755","","","","real_trial","2021-08-09 18:28:42.792","img/card_backs/set1/yellow.gif","1","-230","1","",""
"casino-fixation","104","442082","0.0-25.0-0.17","1078","false","img/card_backs/set1/yellow.gif","img/card_backs/set1/red.gif","img/card_backs/set1/green.gif","img/card_backs/set1/purple.gif","img/card_backs/set2/gray.gif","img/card_backs/set2/pink.gif","img/card_backs/set2/blue.gif","img/card_backs/set2/orange.gif","""event"",""trial"",""time""
""fullscreenenter"",""1"",""4307""
","
","
","""event"",""trial"",""time""
""fullscreenenter"",""1"",""4307""
","
","","null","","null","","fixation","2021-08-09 18:28:43.296","","","","","",""
"card-selection-trial","105","446283","0.0-25.0-1.17","1078","false","img/card_backs/set1/yellow.gif","img/card_backs/set1/red.gif","img/card_backs/set1/green.gif","img/card_backs/set1/purple.gif","img/card_backs/set2/gray.gif","img/card_backs/set2/pink.gif","img/card_backs/set2/blue.gif","img/card_backs/set2/orange.gif","""event"",""trial"",""time""
""fullscreenenter"",""1"",""4307""
","
","
","""event"",""trial"",""time""
""fullscreenenter"",""1"",""4307""
","
","","2191.9000000000233","","","","real_trial","2021-08-09 18:28:47.497","img/card_backs/set1/purple.gif","2","-60","1","",""
"casino-fixation","106","446786","0.0-25.0-0.18","1078","false","img/card_backs/set1/yellow.gif","img/card_backs/set1/red.gif","img/card_backs/set1/green.gif","img/card_backs/set1/purple.gif","img/card_backs/set2/gray.gif","img/card_backs/set2/pink.gif","img/card_backs/set2/blue.gif","img/card_backs/set2/orange.gif","""event"",""trial"",""time""
""fullscreenenter"",""1"",""4307""
","
","
","""event"",""trial"",""time""
""fullscreenenter"",""1"",""4307""
","
","","null","","null","","fixation","2021-08-09 18:28:48.001","","","","","",""
"card-selection-trial","107","450623","0.0-25.0-1.18","1078","false","img/card_backs/set1/yellow.gif","img/card_backs/set1/red.gif","img/card_backs/set1/green.gif","img/card_backs/set1/purple.gif","img/card_backs/set2/gray.gif","img/card_backs/set2/pink.gif","img/card_backs/set2/blue.gif","img/card_backs/set2/orange.gif","""event"",""trial"",""time""
""fullscreenenter"",""1"",""4307""
","
","
","""event"",""trial"",""time""
""fullscreenenter"",""1"",""4307""
","
","","1825.2999999999302","","","","real_trial","2021-08-09 18:28:51.837","img/card_backs/set1/yellow.gif","0","-230","1","",""
"casino-fixation","108","451128","0.0-25.0-0.19","1078","false","img/card_backs/set1/yellow.gif","img/card_backs/set1/red.gif","img/card_backs/set1/green.gif","img/card_backs/set1/purple.gif","img/card_backs/set2/gray.gif","img/card_backs/set2/pink.gif","img/card_backs/set2/blue.gif","img/card_backs/set2/orange.gif","""event"",""trial"",""time""
""fullscreenenter"",""1"",""4307""
","
","
","""event"",""trial"",""time""
""fullscreenenter"",""1"",""4307""
","
","","null","","null","","fixation","2021-08-09 18:28:52.342","","","","","",""
"card-selection-trial","109","456243","0.0-25.0-1.19","1078","false","img/card_backs/set1/yellow.gif","img/card_backs/set1/red.gif","img/card_backs/set1/green.gif","img/card_backs/set1/purple.gif","img/card_backs/set2/gray.gif","img/card_backs/set2/pink.gif","img/card_backs/set2/blue.gif","img/card_backs/set2/orange.gif","""event"",""trial"",""time""
""fullscreenenter"",""1"",""4307""
","
","
","""event"",""trial"",""time""
""fullscreenenter"",""1"",""4307""
","
","","3103","","","","real_trial","2021-08-09 18:28:57.457","img/card_backs/set1/yellow.gif","2","180","1","",""
"casino-fixation","110","456746","0.0-25.0-0.20","1078","false","img/card_backs/set1/yellow.gif","img/card_backs/set1/red.gif","img/card_backs/set1/green.gif","img/card_backs/set1/purple.gif","img/card_backs/set2/gray.gif","img/card_backs/set2/pink.gif","img/card_backs/set2/blue.gif","img/card_backs/set2/orange.gif","""event"",""trial"",""time""
""fullscreenenter"",""1"",""4307""
","
","
","""event"",""trial"",""time""
""fullscreenenter"",""1"",""4307""
","
","","null","","null","","fixation","2021-08-09 18:28:57.961","","","","","",""
"card-selection-trial","111","460536","0.0-25.0-1.20","1078","false","img/card_backs/set1/yellow.gif","img/card_backs/set1/red.gif","img/card_backs/set1/green.gif","img/card_backs/set1/purple.gif","img/card_backs/set2/gray.gif","img/card_backs/set2/pink.gif","img/card_backs/set2/blue.gif","img/card_backs/set2/orange.gif","""event"",""trial"",""time""
""fullscreenenter"",""1"",""4307""
","
","
","""event"",""trial"",""time""
""fullscreenenter"",""1"",""4307""
","
","","1779.7999999999302","","","","real_trial","2021-08-09 18:29:01.750","img/card_backs/set1/yellow.gif","3","200","1","",""
"casino-fixation","112","461040","0.0-25.0-0.21","1078","false","img/card_backs/set1/yellow.gif","img/card_backs/set1/red.gif","img/card_backs/set1/green.gif","img/card_backs/set1/purple.gif","img/card_backs/set2/gray.gif","img/card_backs/set2/pink.gif","img/card_backs/set2/blue.gif","img/card_backs/set2/orange.gif","""event"",""trial"",""time""
""fullscreenenter"",""1"",""4307""
","
","
","""event"",""trial"",""time""
""fullscreenenter"",""1"",""4307""
","
","","null","","null","","fixation","2021-08-09 18:29:02.254","","","","","",""
"card-selection-trial","113","464526","0.0-25.0-1.21","1078","false","img/card_backs/set1/yellow.gif","img/card_backs/set1/red.gif","img/card_backs/set1/green.gif","img/card_backs/set1/purple.gif","img/card_backs/set2/gray.gif","img/card_backs/set2/pink.gif","img/card_backs/set2/blue.gif","img/card_backs/set2/orange.gif","""event"",""trial"",""time""
""fullscreenenter"",""1"",""4307""
","
","
","""event"",""trial"",""time""
""fullscreenenter"",""1"",""4307""
","
","","1476.7000000000698","","","","real_trial","2021-08-09 18:29:05.740","img/card_backs/set1/purple.gif","3","110","1","",""
"casino-fixation","114","465030","0.0-25.0-0.22","1078","false","img/card_backs/set1/yellow.gif","img/card_backs/set1/red.gif","img/card_backs/set1/green.gif","img/card_backs/set1/purple.gif","img/card_backs/set2/gray.gif","img/card_backs/set2/pink.gif","img/card_backs/set2/blue.gif","img/card_backs/set2/orange.gif","""event"",""trial"",""time""
""fullscreenenter"",""1"",""4307""
","
","
","""event"",""trial"",""time""
""fullscreenenter"",""1"",""4307""
","
","","null","","null","","fixation","2021-08-09 18:29:06.244","","","","","",""
"card-selection-trial","115","467468","0.0-25.0-1.22","1078","false","img/card_backs/set1/yellow.gif","img/card_backs/set1/red.gif","img/card_backs/set1/green.gif","img/card_backs/set1/purple.gif","img/card_backs/set2/gray.gif","img/card_backs/set2/pink.gif","img/card_backs/set2/blue.gif","img/card_backs/set2/orange.gif","""event"",""trial"",""time""
""fullscreenenter"",""1"",""4307""
","
","
","""event"",""trial"",""time""
""fullscreenenter"",""1"",""4307""
","
","","428.79999999993015","","","","real_trial","2021-08-09 18:29:08.682","img/card_backs/set1/purple.gif","3","-70","1","",""
"casino-fixation","116","467970","0.0-25.0-0.23","1078","false","img/card_backs/set1/yellow.gif","img/card_backs/set1/red.gif","img/card_backs/set1/green.gif","img/card_backs/set1/purple.gif","img/card_backs/set2/gray.gif","img/card_backs/set2/pink.gif","img/card_backs/set2/blue.gif","img/card_backs/set2/orange.gif","""event"",""trial"",""time""
""fullscreenenter"",""1"",""4307""
","
","
","""event"",""trial"",""time""
""fullscreenenter"",""1"",""4307""
","
","","null","","null","","fixation","2021-08-09 18:29:09.184","","","","","",""
"card-selection-trial","117","470851","0.0-25.0-1.23","1078","false","img/card_backs/set1/yellow.gif","img/card_backs/set1/red.gif","img/card_backs/set1/green.gif","img/card_backs/set1/purple.gif","img/card_backs/set2/gray.gif","img/card_backs/set2/pink.gif","img/card_backs/set2/blue.gif","img/card_backs/set2/orange.gif","""event"",""trial"",""time""
""fullscreenenter"",""1"",""4307""
","
","
","""event"",""trial"",""time""
""fullscreenenter"",""1"",""4307""
","
","","870.7999999999302","","","","real_trial","2021-08-09 18:29:12.065","img/card_backs/set1/yellow.gif","2","-240","1","",""
"casino-fixation","118","471355","0.0-25.0-0.24","1078","false","img/card_backs/set1/yellow.gif","img/card_backs/set1/red.gif","img/card_backs/set1/green.gif","img/card_backs/set1/purple.gif","img/card_backs/set2/gray.gif","img/card_backs/set2/pink.gif","img/card_backs/set2/blue.gif","img/card_backs/set2/orange.gif","""event"",""trial"",""time""
""fullscreenenter"",""1"",""4307""
","
","
","""event"",""trial"",""time""
""fullscreenenter"",""1"",""4307""
","
","","null","","null","","fixation","2021-08-09 18:29:12.569","","","","","",""
"card-selection-trial","119","475789","0.0-25.0-1.24","1078","false","img/card_backs/set1/yellow.gif","img/card_backs/set1/red.gif","img/card_backs/set1/green.gif","img/card_backs/set1/purple.gif","img/card_backs/set2/gray.gif","img/card_backs/set2/pink.gif","img/card_backs/set2/blue.gif","img/card_backs/set2/orange.gif","""event"",""trial"",""time""
""fullscreenenter"",""1"",""4307""
","
","
","""event"",""trial"",""time""
""fullscreenenter"",""1"",""4307""
","
","","2424","","","","real_trial","2021-08-09 18:29:17.003","img/card_backs/set1/purple.gif","0","110","1","",""
"casino-fixation","120","476292","0.0-25.0-0.25","1078","false","img/card_backs/set1/yellow.gif","img/card_backs/set1/red.gif","img/card_backs/set1/green.gif","img/card_backs/set1/purple.gif","img/card_backs/set2/gray.gif","img/card_backs/set2/pink.gif","img/card_backs/set2/blue.gif","img/card_backs/set2/orange.gif","""event"",""trial"",""time""
""fullscreenenter"",""1"",""4307""
","
","
","""event"",""trial"",""time""
""fullscreenenter"",""1"",""4307""
","
","","null","","null","","fixation","2021-08-09 18:29:17.506","","","","","",""
"card-selection-trial","121","480681","0.0-25.0-1.25","1078","false","img/card_backs/set1/yellow.gif","img/card_backs/set1/red.gif","img/card_backs/set1/green.gif","img/card_backs/set1/purple.gif","img/card_backs/set2/gray.gif","img/card_backs/set2/pink.gif","img/card_backs/set2/blue.gif","img/card_backs/set2/orange.gif","""event"",""trial"",""time""
""fullscreenenter"",""1"",""4307""
","
","
","""event"",""trial"",""time""
""fullscreenenter"",""1"",""4307""
","
","","2378.20000000007","","","","real_trial","2021-08-09 18:29:21.895","img/card_backs/set1/purple.gif","2","-50","1","",""
"casino-fixation","122","481184","0.0-25.0-0.26","1078","false","img/card_backs/set1/yellow.gif","img/card_backs/set1/red.gif","img/card_backs/set1/green.gif","img/card_backs/set1/purple.gif","img/card_backs/set2/gray.gif","img/card_backs/set2/pink.gif","img/card_backs/set2/blue.gif","img/card_backs/set2/orange.gif","""event"",""trial"",""time""
""fullscreenenter"",""1"",""4307""
","
","
","""event"",""trial"",""time""
""fullscreenenter"",""1"",""4307""
","
","","null","","null","","fixation","2021-08-09 18:29:22.399","","","","","",""
"card-selection-trial","123","485784","0.0-25.0-1.26","1078","false","img/card_backs/set1/yellow.gif","img/card_backs/set1/red.gif","img/card_backs/set1/green.gif","img/card_backs/set1/purple.gif","img/card_backs/set2/gray.gif","img/card_backs/set2/pink.gif","img/card_backs/set2/blue.gif","img/card_backs/set2/orange.gif","""event"",""trial"",""time""
""fullscreenenter"",""1"",""4307""
","
","
","""event"",""trial"",""time""
""fullscreenenter"",""1"",""4307""
","
","","2589.3000000000466","","","","real_trial","2021-08-09 18:29:26.998","img/card_backs/set1/purple.gif","1","100","1","",""
"casino-fixation","124","486288","0.0-25.0-0.27","1078","false","img/card_backs/set1/yellow.gif","img/card_backs/set1/red.gif","img/card_backs/set1/green.gif","img/card_backs/set1/purple.gif","img/card_backs/set2/gray.gif","img/card_backs/set2/pink.gif","img/card_backs/set2/blue.gif","img/card_backs/set2/orange.gif","""event"",""trial"",""time""
""fullscreenenter"",""1"",""4307""
","
","
","""event"",""trial"",""time""
""fullscreenenter"",""1"",""4307""
","
","","null","","null","","fixation","2021-08-09 18:29:27.502","","","","","",""
"card-selection-trial","125","490558","0.0-25.0-1.27","1078","false","img/card_backs/set1/yellow.gif","img/card_backs/set1/red.gif","img/card_backs/set1/green.gif","img/card_backs/set1/purple.gif","img/card_backs/set2/gray.gif","img/card_backs/set2/pink.gif","img/card_backs/set2/blue.gif","img/card_backs/set2/orange.gif","""event"",""trial"",""time""
""fullscreenenter"",""1"",""4307""
","
","
","""event"",""trial"",""time""
""fullscreenenter"",""1"",""4307""
","
","","2260.5","","","","real_trial","2021-08-09 18:29:31.772","img/card_backs/set1/yellow.gif","2","190","1","",""
"casino-fixation","126","491062","0.0-25.0-0.28","1078","false","img/card_backs/set1/yellow.gif","img/card_backs/set1/red.gif","img/card_backs/set1/green.gif","img/card_backs/set1/purple.gif","img/card_backs/set2/gray.gif","img/card_backs/set2/pink.gif","img/card_backs/set2/blue.gif","img/card_backs/set2/orange.gif","""event"",""trial"",""time""
""fullscreenenter"",""1"",""4307""
","
","
","""event"",""trial"",""time""
""fullscreenenter"",""1"",""4307""
","
","","null","","null","","fixation","2021-08-09 18:29:32.276","","","","","",""
"card-selection-trial","127","496349","0.0-25.0-1.28","1078","false","img/card_backs/set1/yellow.gif","img/card_backs/set1/red.gif","img/card_backs/set1/green.gif","img/card_backs/set1/purple.gif","img/card_backs/set2/gray.gif","img/card_backs/set2/pink.gif","img/card_backs/set2/blue.gif","img/card_backs/set2/orange.gif","""event"",""trial"",""time""
""fullscreenenter"",""1"",""4307""
","
","
","""event"",""trial"",""time""
""fullscreenenter"",""1"",""4307""
","
","","3277.899999999907","","","","real_trial","2021-08-09 18:29:37.563","img/card_backs/set1/yellow.gif","3","-240","1","",""
"casino-fixation","128","496853","0.0-25.0-0.29","1078","false","img/card_backs/set1/yellow.gif","img/card_backs/set1/red.gif","img/card_backs/set1/green.gif","img/card_backs/set1/purple.gif","img/card_backs/set2/gray.gif","img/card_backs/set2/pink.gif","img/card_backs/set2/blue.gif","img/card_backs/set2/orange.gif","""event"",""trial"",""time""
""fullscreenenter"",""1"",""4307""
","
","
","""event"",""trial"",""time""
""fullscreenenter"",""1"",""4307""
","
","","null","","null","","fixation","2021-08-09 18:29:38.067","","","","","",""
"card-selection-trial","129","502218","0.0-25.0-1.29","1078","false","img/card_backs/set1/yellow.gif","img/card_backs/set1/red.gif","img/card_backs/set1/green.gif","img/card_backs/set1/purple.gif","img/card_backs/set2/gray.gif","img/card_backs/set2/pink.gif","img/card_backs/set2/blue.gif","img/card_backs/set2/orange.gif","""event"",""trial"",""time""
""fullscreenenter"",""1"",""4307""
","
","
","""event"",""trial"",""time""
""fullscreenenter"",""1"",""4307""
","
","","3354.9000000000233","","","","real_trial","2021-08-09 18:29:43.432","img/card_backs/set1/purple.gif","3","-60","1","",""
"casino-fixation","130","502721","0.0-25.0-0.30","1078","false","img/card_backs/set1/yellow.gif","img/card_backs/set1/red.gif","img/card_backs/set1/green.gif","img/card_backs/set1/purple.gif","img/card_backs/set2/gray.gif","img/card_backs/set2/pink.gif","img/card_backs/set2/blue.gif","img/card_backs/set2/orange.gif","""event"",""trial"",""time""
""fullscreenenter"",""1"",""4307""
","
","
","""event"",""trial"",""time""
""fullscreenenter"",""1"",""4307""
","
","","null","","null","","fixation","2021-08-09 18:29:43.935","","","","","",""
"card-selection-trial","131","508399","0.0-25.0-1.30","1078","false","img/card_backs/set1/yellow.gif","img/card_backs/set1/red.gif","img/card_backs/set1/green.gif","img/card_backs/set1/purple.gif","img/card_backs/set2/gray.gif","img/card_backs/set2/pink.gif","img/card_backs/set2/blue.gif","img/card_backs/set2/orange.gif","""event"",""trial"",""time""
""fullscreenenter"",""1"",""4307""
","
","
","""event"",""trial"",""time""
""fullscreenenter"",""1"",""4307""
","
","","3668.4000000001397","","","","real_trial","2021-08-09 18:29:49.614","img/card_backs/set1/purple.gif","2","-60","1","",""
"casino-fixation","132","508903","0.0-25.0-0.31","1078","false","img/card_backs/set1/yellow.gif","img/card_backs/set1/red.gif","img/card_backs/set1/green.gif","img/card_backs/set1/purple.gif","img/card_backs/set2/gray.gif","img/card_backs/set2/pink.gif","img/card_backs/set2/blue.gif","img/card_backs/set2/orange.gif","""event"",""trial"",""time""
""fullscreenenter"",""1"",""4307""
","
","
","""event"",""trial"",""time""
""fullscreenenter"",""1"",""4307""
","
","","null","","null","","fixation","2021-08-09 18:29:50.117","","","","","",""
"card-selection-trial","133","512490","0.0-25.0-1.31","1078","false","img/card_backs/set1/yellow.gif","img/card_backs/set1/red.gif","img/card_backs/set1/green.gif","img/card_backs/set1/purple.gif","img/card_backs/set2/gray.gif","img/card_backs/set2/pink.gif","img/card_backs/set2/blue.gif","img/card_backs/set2/orange.gif","""event"",""trial"",""time""
""fullscreenenter"",""1"",""4307""
","
","
","""event"",""trial"",""time""
""fullscreenenter"",""1"",""4307""
","
","","1576.1999999999534","","","","real_trial","2021-08-09 18:29:53.704","img/card_backs/set1/purple.gif","0","-70","1","",""
"casino-fixation","134","512993","0.0-25.0-0.32","1078","false","img/card_backs/set1/yellow.gif","img/card_backs/set1/red.gif","img/card_backs/set1/green.gif","img/card_backs/set1/purple.gif","img/card_backs/set2/gray.gif","img/card_backs/set2/pink.gif","img/card_backs/set2/blue.gif","img/card_backs/set2/orange.gif","""event"",""trial"",""time""
""fullscreenenter"",""1"",""4307""
","
","
","""event"",""trial"",""time""
""fullscreenenter"",""1"",""4307""
","
","","null","","null","","fixation","2021-08-09 18:29:54.207","","","","","",""
"card-selection-trial","135","516584","0.0-25.0-1.32","1078","false","img/card_backs/set1/yellow.gif","img/card_backs/set1/red.gif","img/card_backs/set1/green.gif","img/card_backs/set1/purple.gif","img/card_backs/set2/gray.gif","img/card_backs/set2/pink.gif","img/card_backs/set2/blue.gif","img/card_backs/set2/orange.gif","""event"",""trial"",""time""
""fullscreenenter"",""1"",""4307""
","
","
","""event"",""trial"",""time""
""fullscreenenter"",""1"",""4307""
","
","","1580.6000000000931","","","","real_trial","2021-08-09 18:29:57.798","img/card_backs/set1/yellow.gif","0","-240","1","",""
"casino-fixation","136","517088","0.0-25.0-0.33","1078","false","img/card_backs/set1/yellow.gif","img/card_backs/set1/red.gif","img/card_backs/set1/green.gif","img/card_backs/set1/purple.gif","img/card_backs/set2/gray.gif","img/card_backs/set2/pink.gif","img/card_backs/set2/blue.gif","img/card_backs/set2/orange.gif","""event"",""trial"",""time""
""fullscreenenter"",""1"",""4307""
","
","
","""event"",""trial"",""time""
""fullscreenenter"",""1"",""4307""
","
","","null","","null","","fixation","2021-08-09 18:29:58.302","","","","","",""
"card-selection-trial","137","520139","0.0-25.0-1.33","1078","false","img/card_backs/set1/yellow.gif","img/card_backs/set1/red.gif","img/card_backs/set1/green.gif","img/card_backs/set1/purple.gif","img/card_backs/set2/gray.gif","img/card_backs/set2/pink.gif","img/card_backs/set2/blue.gif","img/card_backs/set2/orange.gif","""event"",""trial"",""time""
""fullscreenenter"",""1"",""4307""
","
","
","""event"",""trial"",""time""
""fullscreenenter"",""1"",""4307""
","
","","1041.7999999998137","","","","real_trial","2021-08-09 18:30:01.353","img/card_backs/set1/green.gif","1","100","1","",""
"casino-fixation","138","520642","0.0-25.0-0.34","1078","false","img/card_backs/set1/yellow.gif","img/card_backs/set1/red.gif","img/card_backs/set1/green.gif","img/card_backs/set1/purple.gif","img/card_backs/set2/gray.gif","img/card_backs/set2/pink.gif","img/card_backs/set2/blue.gif","img/card_backs/set2/orange.gif","""event"",""trial"",""time""
""fullscreenenter"",""1"",""4307""
","
","
","""event"",""trial"",""time""
""fullscreenenter"",""1"",""4307""
","
","","null","","null","","fixation","2021-08-09 18:30:01.856","","","","","",""
"card-selection-trial","139","527008","0.0-25.0-1.34","1078","false","img/card_backs/set1/yellow.gif","img/card_backs/set1/red.gif","img/card_backs/set1/green.gif","img/card_backs/set1/purple.gif","img/card_backs/set2/gray.gif","img/card_backs/set2/pink.gif","img/card_backs/set2/blue.gif","img/card_backs/set2/orange.gif","""event"",""trial"",""time""
""fullscreenenter"",""1"",""4307""
","
","
","""event"",""trial"",""time""
""fullscreenenter"",""1"",""4307""
","
","","4356.5","","","","real_trial","2021-08-09 18:30:08.222","img/card_backs/set1/purple.gif","2","-70","1","",""
"casino-fixation","140","527512","0.0-25.0-0.35","1078","false","img/card_backs/set1/yellow.gif","img/card_backs/set1/red.gif","img/card_backs/set1/green.gif","img/card_backs/set1/purple.gif","img/card_backs/set2/gray.gif","img/card_backs/set2/pink.gif","img/card_backs/set2/blue.gif","img/card_backs/set2/orange.gif","""event"",""trial"",""time""
""fullscreenenter"",""1"",""4307""
","
","
","""event"",""trial"",""time""
""fullscreenenter"",""1"",""4307""
","
","","null","","null","","fixation","2021-08-09 18:30:08.726","","","","","",""
"card-selection-trial","141","531108","0.0-25.0-1.35","1078","false","img/card_backs/set1/yellow.gif","img/card_backs/set1/red.gif","img/card_backs/set1/green.gif","img/card_backs/set1/purple.gif","img/card_backs/set2/gray.gif","img/card_backs/set2/pink.gif","img/card_backs/set2/blue.gif","img/card_backs/set2/orange.gif","""event"",""trial"",""time""
""fullscreenenter"",""1"",""4307""
","
","
","""event"",""trial"",""time""
""fullscreenenter"",""1"",""4307""
","
","","1586.6999999999534","","","","real_trial","2021-08-09 18:30:12.322","img/card_backs/set1/yellow.gif","3","180","1","",""
"casino-fixation","142","531612","0.0-25.0-0.36","1078","false","img/card_backs/set1/yellow.gif","img/card_backs/set1/red.gif","img/card_backs/set1/green.gif","img/card_backs/set1/purple.gif","img/card_backs/set2/gray.gif","img/card_backs/set2/pink.gif","img/card_backs/set2/blue.gif","img/card_backs/set2/orange.gif","""event"",""trial"",""time""
""fullscreenenter"",""1"",""4307""
","
","
","""event"",""trial"",""time""
""fullscreenenter"",""1"",""4307""
","
","","null","","null","","fixation","2021-08-09 18:30:12.826","","","","","",""
"card-selection-trial","143","535699","0.0-25.0-1.36","1078","false","img/card_backs/set1/yellow.gif","img/card_backs/set1/red.gif","img/card_backs/set1/green.gif","img/card_backs/set1/purple.gif","img/card_backs/set2/gray.gif","img/card_backs/set2/pink.gif","img/card_backs/set2/blue.gif","img/card_backs/set2/orange.gif","""event"",""trial"",""time""
""fullscreenenter"",""1"",""4307""
","
","
","""event"",""trial"",""time""
""fullscreenenter"",""1"",""4307""
","
","","2076.2999999998137","","","","real_trial","2021-08-09 18:30:16.913","img/card_backs/set1/purple.gif","0","120","1","",""
"casino-fixation","144","536203","0.0-25.0-0.37","1078","false","img/card_backs/set1/yellow.gif","img/card_backs/set1/red.gif","img/card_backs/set1/green.gif","img/card_backs/set1/purple.gif","img/card_backs/set2/gray.gif","img/card_backs/set2/pink.gif","img/card_backs/set2/blue.gif","img/card_backs/set2/orange.gif","""event"",""trial"",""time""
""fullscreenenter"",""1"",""4307""
","
","
","""event"",""trial"",""time""
""fullscreenenter"",""1"",""4307""
","
","","null","","null","","fixation","2021-08-09 18:30:17.418","","","","","",""
"card-selection-trial","145","543648","0.0-25.0-1.37","1078","false","img/card_backs/set1/yellow.gif","img/card_backs/set1/red.gif","img/card_backs/set1/green.gif","img/card_backs/set1/purple.gif","img/card_backs/set2/gray.gif","img/card_backs/set2/pink.gif","img/card_backs/set2/blue.gif","img/card_backs/set2/orange.gif","""event"",""trial"",""time""
""fullscreenenter"",""1"",""4307""
","
","
","""event"",""trial"",""time""
""fullscreenenter"",""1"",""4307""
","
","","5434.300000000047","","","","real_trial","2021-08-09 18:30:24.862","img/card_backs/set1/purple.gif","0","-50","1","",""
"casino-fixation","146","544151","0.0-25.0-0.38","1078","false","img/card_backs/set1/yellow.gif","img/card_backs/set1/red.gif","img/card_backs/set1/green.gif","img/card_backs/set1/purple.gif","img/card_backs/set2/gray.gif","img/card_backs/set2/pink.gif","img/card_backs/set2/blue.gif","img/card_backs/set2/orange.gif","""event"",""trial"",""time""
""fullscreenenter"",""1"",""4307""
","
","
","""event"",""trial"",""time""
""fullscreenenter"",""1"",""4307""
","
","","null","","null","","fixation","2021-08-09 18:30:25.366","","","","","",""
"card-selection-trial","147","547950","0.0-25.0-1.38","1078","false","img/card_backs/set1/yellow.gif","img/card_backs/set1/red.gif","img/card_backs/set1/green.gif","img/card_backs/set1/purple.gif","img/card_backs/set2/gray.gif","img/card_backs/set2/pink.gif","img/card_backs/set2/blue.gif","img/card_backs/set2/orange.gif","""event"",""trial"",""time""
""fullscreenenter"",""1"",""4307""
","
","
","""event"",""trial"",""time""
""fullscreenenter"",""1"",""4307""
","
","","1788.6000000000931","","","","real_trial","2021-08-09 18:30:29.164","img/card_backs/set1/yellow.gif","2","180","1","",""
"casino-fixation","148","548455","0.0-25.0-0.39","1078","false","img/card_backs/set1/yellow.gif","img/card_backs/set1/red.gif","img/card_backs/set1/green.gif","img/card_backs/set1/purple.gif","img/card_backs/set2/gray.gif","img/card_backs/set2/pink.gif","img/card_backs/set2/blue.gif","img/card_backs/set2/orange.gif","""event"",""trial"",""time""
""fullscreenenter"",""1"",""4307""
","
","
","""event"",""trial"",""time""
""fullscreenenter"",""1"",""4307""
","
","","null","","null","","fixation","2021-08-09 18:30:29.669","","","","","",""
"card-selection-trial","149","556656","0.0-25.0-1.39","1078","false","img/card_backs/set1/yellow.gif","img/card_backs/set1/red.gif","img/card_backs/set1/green.gif","img/card_backs/set1/purple.gif","img/card_backs/set2/gray.gif","img/card_backs/set2/pink.gif","img/card_backs/set2/blue.gif","img/card_backs/set2/orange.gif","""event"",""trial"",""time""
""fullscreenenter"",""1"",""4307""
","
","
","""event"",""trial"",""time""
""fullscreenenter"",""1"",""4307""
","
","","6190.600000000093","","","","real_trial","2021-08-09 18:30:37.870","img/card_backs/set1/purple.gif","2","-50","1","",""
"casino-fixation","150","557160","0.0-25.0-0.40","1078","false","img/card_backs/set1/yellow.gif","img/card_backs/set1/red.gif","img/card_backs/set1/green.gif","img/card_backs/set1/purple.gif","img/card_backs/set2/gray.gif","img/card_backs/set2/pink.gif","img/card_backs/set2/blue.gif","img/card_backs/set2/orange.gif","""event"",""trial"",""time""
""fullscreenenter"",""1"",""4307""
","
","
","""event"",""trial"",""time""
""fullscreenenter"",""1"",""4307""
","
","","null","","null","","fixation","2021-08-09 18:30:38.374","","","","","",""
"card-selection-trial","151","562845","0.0-25.0-1.40","1078","false","img/card_backs/set1/yellow.gif","img/card_backs/set1/red.gif","img/card_backs/set1/green.gif","img/card_backs/set1/purple.gif","img/card_backs/set2/gray.gif","img/card_backs/set2/pink.gif","img/card_backs/set2/blue.gif","img/card_backs/set2/orange.gif","""event"",""trial"",""time""
""fullscreenenter"",""1"",""4307""
","
","
","""event"",""trial"",""time""
""fullscreenenter"",""1"",""4307""
","
","","3675.100000000093","","","","real_trial","2021-08-09 18:30:44.060","img/card_backs/set1/yellow.gif","0","190","1","",""
"casino-fixation","152","563349","0.0-25.0-0.41","1078","false","img/card_backs/set1/yellow.gif","img/card_backs/set1/red.gif","img/card_backs/set1/green.gif","img/card_backs/set1/purple.gif","img/card_backs/set2/gray.gif","img/card_backs/set2/pink.gif","img/card_backs/set2/blue.gif","img/card_backs/set2/orange.gif","""event"",""trial"",""time""
""fullscreenenter"",""1"",""4307""
","
","
","""event"",""trial"",""time""
""fullscreenenter"",""1"",""4307""
","
","","null","","null","","fixation","2021-08-09 18:30:44.563","","","","","",""
"card-selection-trial","153","566506","0.0-25.0-1.41","1078","false","img/card_backs/set1/yellow.gif","img/card_backs/set1/red.gif","img/card_backs/set1/green.gif","img/card_backs/set1/purple.gif","img/card_backs/set2/gray.gif","img/card_backs/set2/pink.gif","img/card_backs/set2/blue.gif","img/card_backs/set2/orange.gif","""event"",""trial"",""time""
""fullscreenenter"",""1"",""4307""
","
","
","""event"",""trial"",""time""
""fullscreenenter"",""1"",""4307""
","
","","1141.2000000001863","","","","real_trial","2021-08-09 18:30:47.721","img/card_backs/set1/yellow.gif","3","200","1","",""
"casino-fixation","154","567014","0.0-25.0-0.42","1078","false","img/card_backs/set1/yellow.gif","img/card_backs/set1/red.gif","img/card_backs/set1/green.gif","img/card_backs/set1/purple.gif","img/card_backs/set2/gray.gif","img/card_backs/set2/pink.gif","img/card_backs/set2/blue.gif","img/card_backs/set2/orange.gif","""event"",""trial"",""time""
""fullscreenenter"",""1"",""4307""
","
","
","""event"",""trial"",""time""
""fullscreenenter"",""1"",""4307""
","
","","null","","null","","fixation","2021-08-09 18:30:48.228","","","","","",""
"card-selection-trial","155","574278","0.0-25.0-1.42","1078","false","img/card_backs/set1/yellow.gif","img/card_backs/set1/red.gif","img/card_backs/set1/green.gif","img/card_backs/set1/purple.gif","img/card_backs/set2/gray.gif","img/card_backs/set2/pink.gif","img/card_backs/set2/blue.gif","img/card_backs/set2/orange.gif","""event"",""trial"",""time""
""fullscreenenter"",""1"",""4307""
","
","
","""event"",""trial"",""time""
""fullscreenenter"",""1"",""4307""
","
","","5253.800000000047","","","","real_trial","2021-08-09 18:30:55.492","img/card_backs/set1/yellow.gif","1","-240","1","",""
"casino-fixation","156","574783","0.0-25.0-0.43","1078","false","img/card_backs/set1/yellow.gif","img/card_backs/set1/red.gif","img/card_backs/set1/green.gif","img/card_backs/set1/purple.gif","img/card_backs/set2/gray.gif","img/card_backs/set2/pink.gif","img/card_backs/set2/blue.gif","img/card_backs/set2/orange.gif","""event"",""trial"",""time""
""fullscreenenter"",""1"",""4307""
","
","
","""event"",""trial"",""time""
""fullscreenenter"",""1"",""4307""
","
","","null","","null","","fixation","2021-08-09 18:30:55.997","","","","","",""
"card-selection-trial","157","578381","0.0-25.0-1.43","1078","false","img/card_backs/set1/yellow.gif","img/card_backs/set1/red.gif","img/card_backs/set1/green.gif","img/card_backs/set1/purple.gif","img/card_backs/set2/gray.gif","img/card_backs/set2/pink.gif","img/card_backs/set2/blue.gif","img/card_backs/set2/orange.gif","""event"",""trial"",""time""
""fullscreenenter"",""1"",""4307""
","
","
","""event"",""trial"",""time""
""fullscreenenter"",""1"",""4307""
","
","","1588.7999999998137","","","","real_trial","2021-08-09 18:30:59.595","img/card_backs/set1/purple.gif","0","-60","1","",""
"casino-fixation","158","578884","0.0-25.0-0.44","1078","false","img/card_backs/set1/yellow.gif","img/card_backs/set1/red.gif","img/card_backs/set1/green.gif","img/card_backs/set1/purple.gif","img/card_backs/set2/gray.gif","img/card_backs/set2/pink.gif","img/card_backs/set2/blue.gif","img/card_backs/set2/orange.gif","""event"",""trial"",""time""
""fullscreenenter"",""1"",""4307""
","
","
","""event"",""trial"",""time""
""fullscreenenter"",""1"",""4307""
","
","","null","","null","","fixation","2021-08-09 18:31:00.098","","","","","",""
"card-selection-trial","159","582212","0.0-25.0-1.44","1078","false","img/card_backs/set1/yellow.gif","img/card_backs/set1/red.gif","img/card_backs/set1/green.gif","img/card_backs/set1/purple.gif","img/card_backs/set2/gray.gif","img/card_backs/set2/pink.gif","img/card_backs/set2/blue.gif","img/card_backs/set2/orange.gif","""event"",""trial"",""time""
""fullscreenenter"",""1"",""4307""
","
","
","""event"",""trial"",""time""
""fullscreenenter"",""1"",""4307""
","
","","1317.8999999999069","","","","real_trial","2021-08-09 18:31:03.426","img/card_backs/set1/yellow.gif","2","-240","1","",""
"casino-fixation","160","582716","0.0-25.0-0.45","1078","false","img/card_backs/set1/yellow.gif","img/card_backs/set1/red.gif","img/card_backs/set1/green.gif","img/card_backs/set1/purple.gif","img/card_backs/set2/gray.gif","img/card_backs/set2/pink.gif","img/card_backs/set2/blue.gif","img/card_backs/set2/orange.gif","""event"",""trial"",""time""
""fullscreenenter"",""1"",""4307""
","
","
","""event"",""trial"",""time""
""fullscreenenter"",""1"",""4307""
","
","","null","","null","","fixation","2021-08-09 18:31:03.930","","","","","",""
"card-selection-trial","161","587962","0.0-25.0-1.45","1078","false","img/card_backs/set1/yellow.gif","img/card_backs/set1/red.gif","img/card_backs/set1/green.gif","img/card_backs/set1/purple.gif","img/card_backs/set2/gray.gif","img/card_backs/set2/pink.gif","img/card_backs/set2/blue.gif","img/card_backs/set2/orange.gif","""event"",""trial"",""time""
""fullscreenenter"",""1"",""4307""
","
","
","""event"",""trial"",""time""
""fullscreenenter"",""1"",""4307""
","
","","3236.8000000000466","","","","real_trial","2021-08-09 18:31:09.176","img/card_backs/set1/red.gif","1","180","1","",""
"casino-fixation","162","588466","0.0-25.0-0.46","1078","false","img/card_backs/set1/yellow.gif","img/card_backs/set1/red.gif","img/card_backs/set1/green.gif","img/card_backs/set1/purple.gif","img/card_backs/set2/gray.gif","img/card_backs/set2/pink.gif","img/card_backs/set2/blue.gif","img/card_backs/set2/orange.gif","""event"",""trial"",""time""
""fullscreenenter"",""1"",""4307""
","
","
","""event"",""trial"",""time""
""fullscreenenter"",""1"",""4307""
","
","","null","","null","","fixation","2021-08-09 18:31:09.680","","","","","",""
"card-selection-trial","163","596014","0.0-25.0-1.46","1078","false","img/card_backs/set1/yellow.gif","img/card_backs/set1/red.gif","img/card_backs/set1/green.gif","img/card_backs/set1/purple.gif","img/card_backs/set2/gray.gif","img/card_backs/set2/pink.gif","img/card_backs/set2/blue.gif","img/card_backs/set2/orange.gif","""event"",""trial"",""time""
""fullscreenenter"",""1"",""4307""
","
","
","""event"",""trial"",""time""
""fullscreenenter"",""1"",""4307""
","
","","5538.59999999986","","","","real_trial","2021-08-09 18:31:17.229","img/card_backs/set1/red.gif","3","180","1","",""
"casino-fixation","164","596519","0.0-25.0-0.47","1078","false","img/card_backs/set1/yellow.gif","img/card_backs/set1/red.gif","img/card_backs/set1/green.gif","img/card_backs/set1/purple.gif","img/card_backs/set2/gray.gif","img/card_backs/set2/pink.gif","img/card_backs/set2/blue.gif","img/card_backs/set2/orange.gif","""event"",""trial"",""time""
""fullscreenenter"",""1"",""4307""
","
","
","""event"",""trial"",""time""
""fullscreenenter"",""1"",""4307""
","
","","null","","null","","fixation","2021-08-09 18:31:17.733","","","","","",""
"card-selection-trial","165","605171","0.0-25.0-1.47","1078","false","img/card_backs/set1/yellow.gif","img/card_backs/set1/red.gif","img/card_backs/set1/green.gif","img/card_backs/set1/purple.gif","img/card_backs/set2/gray.gif","img/card_backs/set2/pink.gif","img/card_backs/set2/blue.gif","img/card_backs/set2/orange.gif","""event"",""trial"",""time""
""fullscreenenter"",""1"",""4307""
","
","
","""event"",""trial"",""time""
""fullscreenenter"",""1"",""4307""
","
","","6641.300000000047","","","","real_trial","2021-08-09 18:31:26.385","img/card_backs/set1/yellow.gif","0","200","1","",""
"casino-fixation","166","605674","0.0-25.0-0.48","1078","false","img/card_backs/set1/yellow.gif","img/card_backs/set1/red.gif","img/card_backs/set1/green.gif","img/card_backs/set1/purple.gif","img/card_backs/set2/gray.gif","img/card_backs/set2/pink.gif","img/card_backs/set2/blue.gif","img/card_backs/set2/orange.gif","""event"",""trial"",""time""
""fullscreenenter"",""1"",""4307""
","
","
","""event"",""trial"",""time""
""fullscreenenter"",""1"",""4307""
","
","","null","","null","","fixation","2021-08-09 18:31:26.889","","","","","",""
