"trial_type","trial_index","time_elapsed","internal_node_id","sub_id","risk_good_first","block1_A","block1_B","block1_C","block1_D","block2_A","block2_B","block2_C","block2_D","interactions","blur_events","focus_events","fullscreenenter_events","fullscreenexit_events","success","rt","stimulus","key_press","button_pressed","task_part","timestamp","card_choice","choice_position","points_earned","block","correct","response"
"pavlovia","0","7","0.0-0.0","A553","true","img/card_backs/set1/green.gif","img/card_backs/set1/purple.gif","img/card_backs/set1/yellow.gif","img/card_backs/set1/red.gif","img/card_backs/set2/blue.gif","img/card_backs/set2/orange.gif","img/card_backs/set2/gray.gif","img/card_backs/set2/pink.gif","""event"",""trial"",""time""
""fullscreenenter"",""1"",""2592""
","
","
","""event"",""trial"",""time""
""fullscreenenter"",""1"",""2592""
","
","","","","","","","","","","","","",""
"fullscreen","1","3580","0.0-1.0","A553","true","img/card_backs/set1/green.gif","img/card_backs/set1/purple.gif","img/card_backs/set1/yellow.gif","img/card_backs/set1/red.gif","img/card_backs/set2/blue.gif","img/card_backs/set2/orange.gif","img/card_backs/set2/gray.gif","img/card_backs/set2/pink.gif","""event"",""trial"",""time""
""fullscreenenter"",""1"",""2592""
","
","
","""event"",""trial"",""time""
""fullscreenenter"",""1"",""2592""
","
","true","","","","","","","","","","","",""
"audio-keyboard-response","2","6106","0.0-2.0","A553","true","img/card_backs/set1/green.gif","img/card_backs/set1/purple.gif","img/card_backs/set1/yellow.gif","img/card_backs/set1/red.gif","img/card_backs/set2/blue.gif","img/card_backs/set2/orange.gif","img/card_backs/set2/gray.gif","img/card_backs/set2/pink.gif","""event"",""trial"",""time""
""fullscreenenter"",""1"",""2592""
","
","
","""event"",""trial"",""time""
""fullscreenenter"",""1"",""2592""
","
","","2531","audio/beep_loop.wav","32","","","","","","","","",""
"audio-button-response","3","11915","0.0-3.0","A553","true","img/card_backs/set1/green.gif","img/card_backs/set1/purple.gif","img/card_backs/set1/yellow.gif","img/card_backs/set1/red.gif","img/card_backs/set2/blue.gif","img/card_backs/set2/orange.gif","img/card_backs/set2/gray.gif","img/card_backs/set2/pink.gif","""event"",""trial"",""time""
""fullscreenenter"",""1"",""2592""
","
","
","""event"",""trial"",""time""
""fullscreenenter"",""1"",""2592""
","
","","NaN","audio/turtle.mp3","","3","","","","","","","",""
"audio-button-response","4","14547","0.0-4.0","A553","true","img/card_backs/set1/green.gif","img/card_backs/set1/purple.gif","img/card_backs/set1/yellow.gif","img/card_backs/set1/red.gif","img/card_backs/set2/blue.gif","img/card_backs/set2/orange.gif","img/card_backs/set2/gray.gif","img/card_backs/set2/pink.gif","""event"",""trial"",""time""
""fullscreenenter"",""1"",""2592""
","
","
","""event"",""trial"",""time""
""fullscreenenter"",""1"",""2592""
","
","","NaN","audio/shark.mp3","","2","","","","","","","",""
"fullscreen","5","17707","0.0-5.0","A553","true","img/card_backs/set1/green.gif","img/card_backs/set1/purple.gif","img/card_backs/set1/yellow.gif","img/card_backs/set1/red.gif","img/card_backs/set2/blue.gif","img/card_backs/set2/orange.gif","img/card_backs/set2/gray.gif","img/card_backs/set2/pink.gif","""event"",""trial"",""time""
""fullscreenenter"",""1"",""2592""
","
","
","""event"",""trial"",""time""
""fullscreenenter"",""1"",""2592""
","
","true","","","","","","","","","","","",""
"casino-keyboard-response","6","22349","0.0-6.0-0.0","A553","true","img/card_backs/set1/green.gif","img/card_backs/set1/purple.gif","img/card_backs/set1/yellow.gif","img/card_backs/set1/red.gif","img/card_backs/set2/blue.gif","img/card_backs/set2/orange.gif","img/card_backs/set2/gray.gif","img/card_backs/set2/pink.gif","""event"",""trial"",""time""
""fullscreenenter"",""1"",""2592""
","
","
","""event"",""trial"",""time""
""fullscreenenter"",""1"",""2592""
","
","","4636.449999990873","Welcome to the casino!","71","","instructions","2021-04-07 00:27:39.803","","","","","",""
"casino-keyboard-response","7","32319","0.0-6.0-0.1","A553","true","img/card_backs/set1/green.gif","img/card_backs/set1/purple.gif","img/card_backs/set1/yellow.gif","img/card_backs/set1/red.gif","img/card_backs/set2/blue.gif","img/card_backs/set2/orange.gif","img/card_backs/set2/gray.gif","img/card_backs/set2/pink.gif","""event"",""trial"",""time""
""fullscreenenter"",""1"",""2592""
","
","
","""event"",""trial"",""time""
""fullscreenenter"",""1"",""2592""
","
","","9965.794999996433","Today you will be playing a game to earn tokens. </br> At the end of the experiment, you will be paid a bonus based on how many tokens you win. ","69","","instructions","2021-04-07 00:27:49.772","","","","","",""
"casino-keyboard-response","8","42648","0.0-6.0-0.2","A553","true","img/card_backs/set1/green.gif","img/card_backs/set1/purple.gif","img/card_backs/set1/yellow.gif","img/card_backs/set1/red.gif","img/card_backs/set2/blue.gif","img/card_backs/set2/orange.gif","img/card_backs/set2/gray.gif","img/card_backs/set2/pink.gif","""event"",""trial"",""time""
""fullscreenenter"",""1"",""2592""
","
","
","""event"",""trial"",""time""
""fullscreenenter"",""1"",""2592""
","
","","10326.820000002044","On every turn, you will be shown four different decks of cards. </br> You need to select a card from one of the four decks.  ","75","","instructions","2021-04-07 00:28:00.101","","","","","",""
"casino-keyboard-response","9","47781","0.0-6.0-0.3","A553","true","img/card_backs/set1/green.gif","img/card_backs/set1/purple.gif","img/card_backs/set1/yellow.gif","img/card_backs/set1/red.gif","img/card_backs/set2/blue.gif","img/card_backs/set2/orange.gif","img/card_backs/set2/gray.gif","img/card_backs/set2/pink.gif","""event"",""trial"",""time""
""fullscreenenter"",""1"",""2592""
","
","
","""event"",""trial"",""time""
""fullscreenenter"",""1"",""2592""
","
","","5129.654999997001","On the next screen, you will see what the decks will look like. ","66","","instructions","2021-04-07 00:28:05.234","","","","","",""
"card-selection-trial","10","51787","0.0-7.0-0.0","A553","true","img/card_backs/set1/green.gif","img/card_backs/set1/purple.gif","img/card_backs/set1/yellow.gif","img/card_backs/set1/red.gif","img/card_backs/set2/blue.gif","img/card_backs/set2/orange.gif","img/card_backs/set2/gray.gif","img/card_backs/set2/pink.gif","""event"",""trial"",""time""
""fullscreenenter"",""1"",""2592""
","
","
","""event"",""trial"",""time""
""fullscreenenter"",""1"",""2592""
","
","","null","","","","practice","2021-04-07 00:28:09.240","null","null","null","0","",""
"casino-keyboard-response","11","59480","0.0-8.0-0.0","A553","true","img/card_backs/set1/green.gif","img/card_backs/set1/purple.gif","img/card_backs/set1/yellow.gif","img/card_backs/set1/red.gif","img/card_backs/set2/blue.gif","img/card_backs/set2/orange.gif","img/card_backs/set2/gray.gif","img/card_backs/set2/pink.gif","""event"",""trial"",""time""
""fullscreenenter"",""1"",""2592""
","
","
","""event"",""trial"",""time""
""fullscreenenter"",""1"",""2592""
","
","","7689.655000009225","You should pick a card from a deck using the '2', '4', '6', and '8' keys at the top of the keyboard.","85","","instructions","2021-04-07 00:28:16.933","","","","","",""
"casino-keyboard-response","12","65276","0.0-8.0-0.1","A553","true","img/card_backs/set1/green.gif","img/card_backs/set1/purple.gif","img/card_backs/set1/yellow.gif","img/card_backs/set1/red.gif","img/card_backs/set2/blue.gif","img/card_backs/set2/orange.gif","img/card_backs/set2/gray.gif","img/card_backs/set2/pink.gif","""event"",""trial"",""time""
""fullscreenenter"",""1"",""2592""
","
","
","""event"",""trial"",""time""
""fullscreenenter"",""1"",""2592""
","
","","5793.804999993881","Once you select a card, it will turn over and you will see how many tokens you earned.","83","","instructions","2021-04-07 00:28:22.729","","","","","",""
"casino-keyboard-response","13","88565","0.0-8.0-0.2","A553","true","img/card_backs/set1/green.gif","img/card_backs/set1/purple.gif","img/card_backs/set1/yellow.gif","img/card_backs/set1/red.gif","img/card_backs/set2/blue.gif","img/card_backs/set2/orange.gif","img/card_backs/set2/gray.gif","img/card_backs/set2/pink.gif","""event"",""trial"",""time""
""fullscreenenter"",""1"",""2592""
","
","
","""event"",""trial"",""time""
""fullscreenenter"",""1"",""2592""
","
","","23285.53499998816","Let's try practicing that! </br> First, try to put your fingers over the '2', '4', '6', and '8' keys. </br>  You can use whatever fingers are most comfortable for you. Try to find a comfortable position now. ","50","","instructions","2021-04-07 00:28:46.018","","","","","",""
"casino-keyboard-response","14","94896","0.0-8.0-0.3","A553","true","img/card_backs/set1/green.gif","img/card_backs/set1/purple.gif","img/card_backs/set1/yellow.gif","img/card_backs/set1/red.gif","img/card_backs/set2/blue.gif","img/card_backs/set2/orange.gif","img/card_backs/set2/gray.gif","img/card_backs/set2/pink.gif","""event"",""trial"",""time""
""fullscreenenter"",""1"",""2592""
","
","
","""event"",""trial"",""time""
""fullscreenenter"",""1"",""2592""
","
","","6327.730000004522","Okay ready? </br> On the next screen, press '2' to select the left deck. ","50","","instructions","2021-04-07 00:28:52.349","","","","","",""
"card-selection-trial","15","98767","0.0-9.0-0.0","A553","true","img/card_backs/set1/green.gif","img/card_backs/set1/purple.gif","img/card_backs/set1/yellow.gif","img/card_backs/set1/red.gif","img/card_backs/set2/blue.gif","img/card_backs/set2/orange.gif","img/card_backs/set2/gray.gif","img/card_backs/set2/pink.gif","""event"",""trial"",""time""
""fullscreenenter"",""1"",""2592""
","
","
","""event"",""trial"",""time""
""fullscreenenter"",""1"",""2592""
","
","","1819.8150000098394","","","","practice_card_selection","2021-04-07 00:28:56.220","img/practice_cards/backs/brown.gif","0","100","","",""
"casino-keyboard-response","16","105175","0.0-10.0-0.0","A553","true","img/card_backs/set1/green.gif","img/card_backs/set1/purple.gif","img/card_backs/set1/yellow.gif","img/card_backs/set1/red.gif","img/card_backs/set2/blue.gif","img/card_backs/set2/orange.gif","img/card_backs/set2/gray.gif","img/card_backs/set2/pink.gif","""event"",""trial"",""time""
""fullscreenenter"",""1"",""2592""
","
","
","""event"",""trial"",""time""
""fullscreenenter"",""1"",""2592""
","
","","6405.070000007981","Great! Now on the next screen, try pressing '6' to select the third deck.","54","","instructions","2021-04-07 00:29:02.628","","","","","",""
"card-selection-trial","17","108909","0.0-11.0-0.0","A553","true","img/card_backs/set1/green.gif","img/card_backs/set1/purple.gif","img/card_backs/set1/yellow.gif","img/card_backs/set1/red.gif","img/card_backs/set2/blue.gif","img/card_backs/set2/orange.gif","img/card_backs/set2/gray.gif","img/card_backs/set2/pink.gif","""event"",""trial"",""time""
""fullscreenenter"",""1"",""2592""
","
","
","""event"",""trial"",""time""
""fullscreenenter"",""1"",""2592""
","
","","1725.42999999132","","","","practice_card_selection","2021-04-07 00:29:06.362","img/practice_cards/backs/dark_green.gif","2","-200","","",""
"casino-keyboard-response","18","113524","0.0-12.0-0.0","A553","true","img/card_backs/set1/green.gif","img/card_backs/set1/purple.gif","img/card_backs/set1/yellow.gif","img/card_backs/set1/red.gif","img/card_backs/set2/blue.gif","img/card_backs/set2/orange.gif","img/card_backs/set2/gray.gif","img/card_backs/set2/pink.gif","""event"",""trial"",""time""
""fullscreenenter"",""1"",""2592""
","
","
","""event"",""trial"",""time""
""fullscreenenter"",""1"",""2592""
","
","","4611.89000000013","Now on the next screen, try pressing '4' to select the second deck.","52","","instructions","2021-04-07 00:29:10.977","","","","","",""
"card-selection-trial","19","122457","0.0-13.0-0.0","A553","true","img/card_backs/set1/green.gif","img/card_backs/set1/purple.gif","img/card_backs/set1/yellow.gif","img/card_backs/set1/red.gif","img/card_backs/set2/blue.gif","img/card_backs/set2/orange.gif","img/card_backs/set2/gray.gif","img/card_backs/set2/pink.gif","""event"",""trial"",""time""
""fullscreenenter"",""1"",""2592""
","
","
","""event"",""trial"",""time""
""fullscreenenter"",""1"",""2592""
","
","","6922.3499999934575","","","","practice_card_selection","2021-04-07 00:29:19.911","img/practice_cards/backs/dark_green.gif","1","-200","","",""
"casino-keyboard-response","20","127317","0.0-14.0-0.0","A553","true","img/card_backs/set1/green.gif","img/card_backs/set1/purple.gif","img/card_backs/set1/yellow.gif","img/card_backs/set1/red.gif","img/card_backs/set2/blue.gif","img/card_backs/set2/orange.gif","img/card_backs/set2/gray.gif","img/card_backs/set2/pink.gif","""event"",""trial"",""time""
""fullscreenenter"",""1"",""2592""
","
","
","""event"",""trial"",""time""
""fullscreenenter"",""1"",""2592""
","
","","4856.005000008736","Finally, try pressing '8' to select the deck all the way on the right.","56","","instructions","2021-04-07 00:29:24.770","","","","","",""
"card-selection-trial","21","132390","0.0-15.0-0.0","A553","true","img/card_backs/set1/green.gif","img/card_backs/set1/purple.gif","img/card_backs/set1/yellow.gif","img/card_backs/set1/red.gif","img/card_backs/set2/blue.gif","img/card_backs/set2/orange.gif","img/card_backs/set2/gray.gif","img/card_backs/set2/pink.gif","""event"",""trial"",""time""
""fullscreenenter"",""1"",""2592""
","
","
","""event"",""trial"",""time""
""fullscreenenter"",""1"",""2592""
","
","","3063.5849999962375","","","","practice_card_selection","2021-04-07 00:29:29.843","img/practice_cards/backs/dark_green.gif","3","200","","",""
"casino-keyboard-response","22","136135","0.0-16.0-0.0","A553","true","img/card_backs/set1/green.gif","img/card_backs/set1/purple.gif","img/card_backs/set1/yellow.gif","img/card_backs/set1/red.gif","img/card_backs/set2/blue.gif","img/card_backs/set2/orange.gif","img/card_backs/set2/gray.gif","img/card_backs/set2/pink.gif","""event"",""trial"",""time""
""fullscreenenter"",""1"",""2592""
","
","
","""event"",""trial"",""time""
""fullscreenenter"",""1"",""2592""
","
","","3741.715000011027","Great! It seems like you are getting the hang of this.","80","","instructions","2021-04-07 00:29:33.588","","","","","",""
"casino-keyboard-response","23","143918","0.0-16.0-0.1","A553","true","img/card_backs/set1/green.gif","img/card_backs/set1/purple.gif","img/card_backs/set1/yellow.gif","img/card_backs/set1/red.gif","img/card_backs/set2/blue.gif","img/card_backs/set2/orange.gif","img/card_backs/set2/gray.gif","img/card_backs/set2/pink.gif","""event"",""trial"",""time""
""fullscreenenter"",""1"",""2592""
","
","
","""event"",""trial"",""time""
""fullscreenenter"",""1"",""2592""
","
","","7780.104999998002","You may have noticed that some cards will cause you to <b> win </b> tokens while other cards will cause you to <b> lose </b>  tokens.","70","","instructions","2021-04-07 00:29:41.371","","","","","",""
"casino-keyboard-response","24","152689","0.0-16.0-0.2","A553","true","img/card_backs/set1/green.gif","img/card_backs/set1/purple.gif","img/card_backs/set1/yellow.gif","img/card_backs/set1/red.gif","img/card_backs/set2/blue.gif","img/card_backs/set2/orange.gif","img/card_backs/set2/gray.gif","img/card_backs/set2/pink.gif","""event"",""trial"",""time""
""fullscreenenter"",""1"",""2592""
","
","
","""event"",""trial"",""time""
""fullscreenenter"",""1"",""2592""
","
","","8768.295000001672","Each deck has a mix of cards that will cause you to win and lose tokens. </br> However, the cards in each colored deck are different.","73","","instructions","2021-04-07 00:29:50.142","","","","","",""
"casino-keyboard-response","25","161726","0.0-16.0-0.3","A553","true","img/card_backs/set1/green.gif","img/card_backs/set1/purple.gif","img/card_backs/set1/yellow.gif","img/card_backs/set1/red.gif","img/card_backs/set2/blue.gif","img/card_backs/set2/orange.gif","img/card_backs/set2/gray.gif","img/card_backs/set2/pink.gif","""event"",""trial"",""time""
""fullscreenenter"",""1"",""2592""
","
","
","""event"",""trial"",""time""
""fullscreenenter"",""1"",""2592""
","
","","9034.18000000238","Some colored decks are luckier than others. </br> If you choose the lucky decks, you will earn more tokens than if you choose the unlucky decks.","69","","instructions","2021-04-07 00:29:59.179","","","","","",""
"casino-keyboard-response","26","169377","0.0-16.0-0.4","A553","true","img/card_backs/set1/green.gif","img/card_backs/set1/purple.gif","img/card_backs/set1/yellow.gif","img/card_backs/set1/red.gif","img/card_backs/set2/blue.gif","img/card_backs/set2/orange.gif","img/card_backs/set2/gray.gif","img/card_backs/set2/pink.gif","""event"",""trial"",""time""
""fullscreenenter"",""1"",""2592""
","
","
","""event"",""trial"",""time""
""fullscreenenter"",""1"",""2592""
","
","","7648.119999998016","You should try to figure out which decks are lucky. </br> Then, try to choose the lucky decks so you can win the most tokens.","87","","instructions","2021-04-07 00:30:06.830","","","","","",""
"casino-keyboard-response","27","191778","0.0-16.0-0.5","A553","true","img/card_backs/set1/green.gif","img/card_backs/set1/purple.gif","img/card_backs/set1/yellow.gif","img/card_backs/set1/red.gif","img/card_backs/set2/blue.gif","img/card_backs/set2/orange.gif","img/card_backs/set2/gray.gif","img/card_backs/set2/pink.gif","""event"",""trial"",""time""
""fullscreenenter"",""1"",""2592""
","
","
","""event"",""trial"",""time""
""fullscreenenter"",""1"",""2592""
","
","","22398.335000005318","To make it trickier, the casino dealer will switch the locations of the decks on every turn. </br> The color of the deck determines how lucky it is. The location does not matter.","88","","instructions","2021-04-07 00:30:29.231","","","","","",""
"casino-keyboard-response","28","201979","0.0-16.0-0.6","A553","true","img/card_backs/set1/green.gif","img/card_backs/set1/purple.gif","img/card_backs/set1/yellow.gif","img/card_backs/set1/red.gif","img/card_backs/set2/blue.gif","img/card_backs/set2/orange.gif","img/card_backs/set2/gray.gif","img/card_backs/set2/pink.gif","""event"",""trial"",""time""
""fullscreenenter"",""1"",""2592""
","
","
","""event"",""trial"",""time""
""fullscreenenter"",""1"",""2592""
","
","","10197.950000001583","The mix of cards in each colored deck will stay the same throughout the game. </br> That means that a deck that is lucky early on will stay lucky.","79","","instructions","2021-04-07 00:30:39.432","","","","","",""
"casino-keyboard-response","29","210792","0.0-16.0-0.7","A553","true","img/card_backs/set1/green.gif","img/card_backs/set1/purple.gif","img/card_backs/set1/yellow.gif","img/card_backs/set1/red.gif","img/card_backs/set2/blue.gif","img/card_backs/set2/orange.gif","img/card_backs/set2/gray.gif","img/card_backs/set2/pink.gif","""event"",""trial"",""time""
""fullscreenenter"",""1"",""2592""
","
","
","""event"",""trial"",""time""
""fullscreenenter"",""1"",""2592""
","
","","8809.994999988703","Remember though, all the decks have a <b> mix </b> of both <b> good </b> and <b> bad </b> cards so it may take a couple of turns to figure out if a deck is lucky.","69","","instructions","2021-04-07 00:30:48.245","","","","","",""
"casino-keyboard-response","30","219123","0.0-16.0-0.8","A553","true","img/card_backs/set1/green.gif","img/card_backs/set1/purple.gif","img/card_backs/set1/yellow.gif","img/card_backs/set1/red.gif","img/card_backs/set2/blue.gif","img/card_backs/set2/orange.gif","img/card_backs/set2/gray.gif","img/card_backs/set2/pink.gif","""event"",""trial"",""time""
""fullscreenenter"",""1"",""2592""
","
","
","""event"",""trial"",""time""
""fullscreenenter"",""1"",""2592""
","
","","8327.949999991688","At the end of the game, you will be paid bonus money based on how many tokens you win. </br> If you win more tokens, you will earn more money!","72","","instructions","2021-04-07 00:30:56.576","","","","","",""
"casino-keyboard-response","31","230860","0.0-16.0-0.9","A553","true","img/card_backs/set1/green.gif","img/card_backs/set1/purple.gif","img/card_backs/set1/yellow.gif","img/card_backs/set1/red.gif","img/card_backs/set2/blue.gif","img/card_backs/set2/orange.gif","img/card_backs/set2/gray.gif","img/card_backs/set2/pink.gif","""event"",""trial"",""time""
""fullscreenenter"",""1"",""2592""
","
","
","""event"",""trial"",""time""
""fullscreenenter"",""1"",""2592""
","
","","11733.440000010887","You will never <b> lose </b> money. </br> If you end up with fewer than 0 tokens, you will earn $0 of bonus money, but you will still be paid for playing the game.","83","","instructions","2021-04-07 00:31:08.313","","","","","",""
"casino-keyboard-response","32","237441","0.0-16.0-0.10","A553","true","img/card_backs/set1/green.gif","img/card_backs/set1/purple.gif","img/card_backs/set1/yellow.gif","img/card_backs/set1/red.gif","img/card_backs/set2/blue.gif","img/card_backs/set2/orange.gif","img/card_backs/set2/gray.gif","img/card_backs/set2/pink.gif","""event"",""trial"",""time""
""fullscreenenter"",""1"",""2592""
","
","
","""event"",""trial"",""time""
""fullscreenenter"",""1"",""2592""
","
","","6577.145000002929","You will have 10 seconds to make each choice.","82","","instructions","2021-04-07 00:31:14.895","","","","","",""
"casino-keyboard-response","33","246084","0.0-16.0-0.11","A553","true","img/card_backs/set1/green.gif","img/card_backs/set1/purple.gif","img/card_backs/set1/yellow.gif","img/card_backs/set1/red.gif","img/card_backs/set2/blue.gif","img/card_backs/set2/orange.gif","img/card_backs/set2/gray.gif","img/card_backs/set2/pink.gif","""event"",""trial"",""time""
""fullscreenenter"",""1"",""2592""
","
","
","""event"",""trial"",""time""
""fullscreenenter"",""1"",""2592""
","
","","8639.645000002929","Before you play the game for real, you will play with practice decks. </br> The tokens you earn during practice won't count toward your total.","86","","instructions","2021-04-07 00:31:23.537","","","","","",""
"casino-keyboard-response","34","257588","0.0-16.0-0.12","A553","true","img/card_backs/set1/green.gif","img/card_backs/set1/purple.gif","img/card_backs/set1/yellow.gif","img/card_backs/set1/red.gif","img/card_backs/set2/blue.gif","img/card_backs/set2/orange.gif","img/card_backs/set2/gray.gif","img/card_backs/set2/pink.gif","""event"",""trial"",""time""
""fullscreenenter"",""1"",""2592""
","
","
","""event"",""trial"",""time""
""fullscreenenter"",""1"",""2592""
","
","","11500.780000002123","Ready? Remember, use the '2', '4', '6', and '8' keys to select the decks. </br> Put your fingers on those keys now and then press '2' to begin.","50","","instructions","2021-04-07 00:31:35.041","","","","","",""
"casino-fixation","35","258092","0.0-17.0-0.0","A553","true","img/card_backs/set1/green.gif","img/card_backs/set1/purple.gif","img/card_backs/set1/yellow.gif","img/card_backs/set1/red.gif","img/card_backs/set2/blue.gif","img/card_backs/set2/orange.gif","img/card_backs/set2/gray.gif","img/card_backs/set2/pink.gif","""event"",""trial"",""time""
""fullscreenenter"",""1"",""2592""
","
","
","""event"",""trial"",""time""
""fullscreenenter"",""1"",""2592""
","
","","null","","null","","fixation","2021-04-07 00:31:35.545","","","","","",""
"card-selection-trial","36","264979","0.0-17.0-1.0","A553","true","img/card_backs/set1/green.gif","img/card_backs/set1/purple.gif","img/card_backs/set1/yellow.gif","img/card_backs/set1/red.gif","img/card_backs/set2/blue.gif","img/card_backs/set2/orange.gif","img/card_backs/set2/gray.gif","img/card_backs/set2/pink.gif","""event"",""trial"",""time""
""fullscreenenter"",""1"",""2592""
","
","
","""event"",""trial"",""time""
""fullscreenenter"",""1"",""2592""
","
","","4877.804999996442","","","","practice","2021-04-07 00:31:42.432","img/practice_cards/backs/black.gif","3","100","0","",""
"casino-fixation","37","265481","0.0-17.0-0.1","A553","true","img/card_backs/set1/green.gif","img/card_backs/set1/purple.gif","img/card_backs/set1/yellow.gif","img/card_backs/set1/red.gif","img/card_backs/set2/blue.gif","img/card_backs/set2/orange.gif","img/card_backs/set2/gray.gif","img/card_backs/set2/pink.gif","""event"",""trial"",""time""
""fullscreenenter"",""1"",""2592""
","
","
","""event"",""trial"",""time""
""fullscreenenter"",""1"",""2592""
","
","","null","","null","","fixation","2021-04-07 00:31:42.935","","","","","",""
"card-selection-trial","38","271806","0.0-17.0-1.1","A553","true","img/card_backs/set1/green.gif","img/card_backs/set1/purple.gif","img/card_backs/set1/yellow.gif","img/card_backs/set1/red.gif","img/card_backs/set2/blue.gif","img/card_backs/set2/orange.gif","img/card_backs/set2/gray.gif","img/card_backs/set2/pink.gif","""event"",""trial"",""time""
""fullscreenenter"",""1"",""2592""
","
","
","""event"",""trial"",""time""
""fullscreenenter"",""1"",""2592""
","
","","4316.360000011628","","","","practice","2021-04-07 00:31:49.259","img/practice_cards/backs/dark_blue.gif","2","-200","0","",""
"casino-fixation","39","272309","0.0-17.0-0.2","A553","true","img/card_backs/set1/green.gif","img/card_backs/set1/purple.gif","img/card_backs/set1/yellow.gif","img/card_backs/set1/red.gif","img/card_backs/set2/blue.gif","img/card_backs/set2/orange.gif","img/card_backs/set2/gray.gif","img/card_backs/set2/pink.gif","""event"",""trial"",""time""
""fullscreenenter"",""1"",""2592""
","
","
","""event"",""trial"",""time""
""fullscreenenter"",""1"",""2592""
","
","","null","","null","","fixation","2021-04-07 00:31:49.762","","","","","",""
"card-selection-trial","40","278227","0.0-17.0-1.2","A553","true","img/card_backs/set1/green.gif","img/card_backs/set1/purple.gif","img/card_backs/set1/yellow.gif","img/card_backs/set1/red.gif","img/card_backs/set2/blue.gif","img/card_backs/set2/orange.gif","img/card_backs/set2/gray.gif","img/card_backs/set2/pink.gif","""event"",""trial"",""time""
""fullscreenenter"",""1"",""2592""
","
","
","""event"",""trial"",""time""
""fullscreenenter"",""1"",""2592""
","
","","3910.219999990659","","","","practice","2021-04-07 00:31:55.681","img/practice_cards/backs/dark_green.gif","0","-200","0","",""
"casino-fixation","41","278731","0.0-17.0-0.3","A553","true","img/card_backs/set1/green.gif","img/card_backs/set1/purple.gif","img/card_backs/set1/yellow.gif","img/card_backs/set1/red.gif","img/card_backs/set2/blue.gif","img/card_backs/set2/orange.gif","img/card_backs/set2/gray.gif","img/card_backs/set2/pink.gif","""event"",""trial"",""time""
""fullscreenenter"",""1"",""2592""
","
","
","""event"",""trial"",""time""
""fullscreenenter"",""1"",""2592""
","
","","null","","null","","fixation","2021-04-07 00:31:56.184","","","","","",""
"card-selection-trial","42","285822","0.0-17.0-1.3","A553","true","img/card_backs/set1/green.gif","img/card_backs/set1/purple.gif","img/card_backs/set1/yellow.gif","img/card_backs/set1/red.gif","img/card_backs/set2/blue.gif","img/card_backs/set2/orange.gif","img/card_backs/set2/gray.gif","img/card_backs/set2/pink.gif","""event"",""trial"",""time""
""fullscreenenter"",""1"",""2592""
","
","
","""event"",""trial"",""time""
""fullscreenenter"",""1"",""2592""
","
","","5082.815000001574","","","","practice","2021-04-07 00:32:03.275","img/practice_cards/backs/black.gif","0","100","0","",""
"casino-fixation","43","286325","0.0-17.0-0.4","A553","true","img/card_backs/set1/green.gif","img/card_backs/set1/purple.gif","img/card_backs/set1/yellow.gif","img/card_backs/set1/red.gif","img/card_backs/set2/blue.gif","img/card_backs/set2/orange.gif","img/card_backs/set2/gray.gif","img/card_backs/set2/pink.gif","""event"",""trial"",""time""
""fullscreenenter"",""1"",""2592""
","
","
","""event"",""trial"",""time""
""fullscreenenter"",""1"",""2592""
","
","","null","","null","","fixation","2021-04-07 00:32:03.779","","","","","",""
"card-selection-trial","44","290828","0.0-17.0-1.4","A553","true","img/card_backs/set1/green.gif","img/card_backs/set1/purple.gif","img/card_backs/set1/yellow.gif","img/card_backs/set1/red.gif","img/card_backs/set2/blue.gif","img/card_backs/set2/orange.gif","img/card_backs/set2/gray.gif","img/card_backs/set2/pink.gif","""event"",""trial"",""time""
""fullscreenenter"",""1"",""2592""
","
","
","""event"",""trial"",""time""
""fullscreenenter"",""1"",""2592""
","
","","2492.9899999988265","","","","practice","2021-04-07 00:32:08.281","img/practice_cards/backs/black.gif","2","-100","0","",""
"casino-fixation","45","291331","0.0-17.0-0.5","A553","true","img/card_backs/set1/green.gif","img/card_backs/set1/purple.gif","img/card_backs/set1/yellow.gif","img/card_backs/set1/red.gif","img/card_backs/set2/blue.gif","img/card_backs/set2/orange.gif","img/card_backs/set2/gray.gif","img/card_backs/set2/pink.gif","""event"",""trial"",""time""
""fullscreenenter"",""1"",""2592""
","
","
","""event"",""trial"",""time""
""fullscreenenter"",""1"",""2592""
","
","","null","","null","","fixation","2021-04-07 00:32:08.784","","","","","",""
"card-selection-trial","46","301623","0.0-17.0-1.5","A553","true","img/card_backs/set1/green.gif","img/card_backs/set1/purple.gif","img/card_backs/set1/yellow.gif","img/card_backs/set1/red.gif","img/card_backs/set2/blue.gif","img/card_backs/set2/orange.gif","img/card_backs/set2/gray.gif","img/card_backs/set2/pink.gif","""event"",""trial"",""time""
""fullscreenenter"",""1"",""2592""
","
","
","""event"",""trial"",""time""
""fullscreenenter"",""1"",""2592""
","
","","8283.349999997881","","","","practice","2021-04-07 00:32:19.076","img/practice_cards/backs/brown.gif","1","-100","0","",""
"casino-fixation","47","302126","0.0-17.0-0.6","A553","true","img/card_backs/set1/green.gif","img/card_backs/set1/purple.gif","img/card_backs/set1/yellow.gif","img/card_backs/set1/red.gif","img/card_backs/set2/blue.gif","img/card_backs/set2/orange.gif","img/card_backs/set2/gray.gif","img/card_backs/set2/pink.gif","""event"",""trial"",""time""
""fullscreenenter"",""1"",""2592""
","
","
","""event"",""trial"",""time""
""fullscreenenter"",""1"",""2592""
","
","","null","","null","","fixation","2021-04-07 00:32:19.579","","","","","",""
"card-selection-trial","48","305796","0.0-17.0-1.6","A553","true","img/card_backs/set1/green.gif","img/card_backs/set1/purple.gif","img/card_backs/set1/yellow.gif","img/card_backs/set1/red.gif","img/card_backs/set2/blue.gif","img/card_backs/set2/orange.gif","img/card_backs/set2/gray.gif","img/card_backs/set2/pink.gif","""event"",""trial"",""time""
""fullscreenenter"",""1"",""2592""
","
","
","""event"",""trial"",""time""
""fullscreenenter"",""1"",""2592""
","
","","1661.485000004177","","","","practice","2021-04-07 00:32:23.249","img/practice_cards/backs/black.gif","0","-100","0","",""
"casino-fixation","49","306298","0.0-17.0-0.7","A553","true","img/card_backs/set1/green.gif","img/card_backs/set1/purple.gif","img/card_backs/set1/yellow.gif","img/card_backs/set1/red.gif","img/card_backs/set2/blue.gif","img/card_backs/set2/orange.gif","img/card_backs/set2/gray.gif","img/card_backs/set2/pink.gif","""event"",""trial"",""time""
""fullscreenenter"",""1"",""2592""
","
","
","""event"",""trial"",""time""
""fullscreenenter"",""1"",""2592""
","
","","null","","null","","fixation","2021-04-07 00:32:23.752","","","","","",""
"card-selection-trial","50","313719","0.0-17.0-1.7","A553","true","img/card_backs/set1/green.gif","img/card_backs/set1/purple.gif","img/card_backs/set1/yellow.gif","img/card_backs/set1/red.gif","img/card_backs/set2/blue.gif","img/card_backs/set2/orange.gif","img/card_backs/set2/gray.gif","img/card_backs/set2/pink.gif","""event"",""trial"",""time""
""fullscreenenter"",""1"",""2592""
","
","
","""event"",""trial"",""time""
""fullscreenenter"",""1"",""2592""
","
","","5411.875000005239","","","","practice","2021-04-07 00:32:31.172","img/practice_cards/backs/dark_blue.gif","3","200","0","",""
"casino-fixation","51","314222","0.0-17.0-0.8","A553","true","img/card_backs/set1/green.gif","img/card_backs/set1/purple.gif","img/card_backs/set1/yellow.gif","img/card_backs/set1/red.gif","img/card_backs/set2/blue.gif","img/card_backs/set2/orange.gif","img/card_backs/set2/gray.gif","img/card_backs/set2/pink.gif","""event"",""trial"",""time""
""fullscreenenter"",""1"",""2592""
","
","
","""event"",""trial"",""time""
""fullscreenenter"",""1"",""2592""
","
","","null","","null","","fixation","2021-04-07 00:32:31.675","","","","","",""
"card-selection-trial","52","317933","0.0-17.0-1.8","A553","true","img/card_backs/set1/green.gif","img/card_backs/set1/purple.gif","img/card_backs/set1/yellow.gif","img/card_backs/set1/red.gif","img/card_backs/set2/blue.gif","img/card_backs/set2/orange.gif","img/card_backs/set2/gray.gif","img/card_backs/set2/pink.gif","""event"",""trial"",""time""
""fullscreenenter"",""1"",""2592""
","
","
","""event"",""trial"",""time""
""fullscreenenter"",""1"",""2592""
","
","","1701.665000000503","","","","practice","2021-04-07 00:32:35.386","img/practice_cards/backs/dark_blue.gif","2","-200","0","",""
"casino-fixation","53","318435","0.0-17.0-0.9","A553","true","img/card_backs/set1/green.gif","img/card_backs/set1/purple.gif","img/card_backs/set1/yellow.gif","img/card_backs/set1/red.gif","img/card_backs/set2/blue.gif","img/card_backs/set2/orange.gif","img/card_backs/set2/gray.gif","img/card_backs/set2/pink.gif","""event"",""trial"",""time""
""fullscreenenter"",""1"",""2592""
","
","
","""event"",""trial"",""time""
""fullscreenenter"",""1"",""2592""
","
","","null","","null","","fixation","2021-04-07 00:32:35.889","","","","","",""
"card-selection-trial","54","321157","0.0-17.0-1.9","A553","true","img/card_backs/set1/green.gif","img/card_backs/set1/purple.gif","img/card_backs/set1/yellow.gif","img/card_backs/set1/red.gif","img/card_backs/set2/blue.gif","img/card_backs/set2/orange.gif","img/card_backs/set2/gray.gif","img/card_backs/set2/pink.gif","""event"",""trial"",""time""
""fullscreenenter"",""1"",""2592""
","
","
","""event"",""trial"",""time""
""fullscreenenter"",""1"",""2592""
","
","","712.4349999940023","","","","practice","2021-04-07 00:32:38.610","img/practice_cards/backs/dark_blue.gif","3","200","0","",""
"casino-keyboard-response","55","324799","0.0-18.0","A553","true","img/card_backs/set1/green.gif","img/card_backs/set1/purple.gif","img/card_backs/set1/yellow.gif","img/card_backs/set1/red.gif","img/card_backs/set2/blue.gif","img/card_backs/set2/orange.gif","img/card_backs/set2/gray.gif","img/card_backs/set2/pink.gif","""event"",""trial"",""time""
""fullscreenenter"",""1"",""2592""
","
","
","""event"",""trial"",""time""
""fullscreenenter"",""1"",""2592""
","
","","3638.939999989816","You earned -300 tokens during the practice round!","82","","","2021-04-07 00:32:42.252","","","","","",""
"casino-keyboard-response","56","329755","0.0-19.0-0.0","A553","true","img/card_backs/set1/green.gif","img/card_backs/set1/purple.gif","img/card_backs/set1/yellow.gif","img/card_backs/set1/red.gif","img/card_backs/set2/blue.gif","img/card_backs/set2/orange.gif","img/card_backs/set2/gray.gif","img/card_backs/set2/pink.gif","""event"",""trial"",""time""
""fullscreenenter"",""1"",""2592""
","
","
","""event"",""trial"",""time""
""fullscreenenter"",""1"",""2592""
","
","","4953.410000001895","Nice job! You are almost ready to play the real game.","86","","instructions","2021-04-07 00:32:47.208","","","","","",""
"casino-keyboard-response","57","350679","0.0-19.0-0.1","A553","true","img/card_backs/set1/green.gif","img/card_backs/set1/purple.gif","img/card_backs/set1/yellow.gif","img/card_backs/set1/red.gif","img/card_backs/set2/blue.gif","img/card_backs/set2/orange.gif","img/card_backs/set2/gray.gif","img/card_backs/set2/pink.gif","""event"",""trial"",""time""
""fullscreenenter"",""1"",""2592""
","
","
","""event"",""trial"",""time""
""fullscreenenter"",""1"",""2592""
","
","","20920.73500000697","You will play two rounds of the real game. In each round, you will pick 100 cards in total.","73","","instructions","2021-04-07 00:33:08.132","","","","","",""
"casino-keyboard-response","58","355452","0.0-19.0-0.2","A553","true","img/card_backs/set1/green.gif","img/card_backs/set1/purple.gif","img/card_backs/set1/yellow.gif","img/card_backs/set1/red.gif","img/card_backs/set2/blue.gif","img/card_backs/set2/orange.gif","img/card_backs/set2/gray.gif","img/card_backs/set2/pink.gif","""event"",""trial"",""time""
""fullscreenenter"",""1"",""2592""
","
","
","""event"",""trial"",""time""
""fullscreenenter"",""1"",""2592""
","
","","4770.789999995031","We are now going to ask you some questions about how the game works.","66","","instructions","2021-04-07 00:33:12.905","","","","","",""
"casino-keyboard-response","59","361840","0.0-19.0-0.3","A553","true","img/card_backs/set1/green.gif","img/card_backs/set1/purple.gif","img/card_backs/set1/yellow.gif","img/card_backs/set1/red.gif","img/card_backs/set2/blue.gif","img/card_backs/set2/orange.gif","img/card_backs/set2/gray.gif","img/card_backs/set2/pink.gif","""event"",""trial"",""time""
""fullscreenenter"",""1"",""2592""
","
","
","""event"",""trial"",""time""
""fullscreenenter"",""1"",""2592""
","
","","6384.839999998803","Answer carefully. You will not be able to begin the game until you answer them correctly.","67","","instructions","2021-04-07 00:33:19.293","","","","","",""
"casino-comp_q","60","370133","0.0-20.0-0.0","A553","true","img/card_backs/set1/green.gif","img/card_backs/set1/purple.gif","img/card_backs/set1/yellow.gif","img/card_backs/set1/red.gif","img/card_backs/set2/blue.gif","img/card_backs/set2/orange.gif","img/card_backs/set2/gray.gif","img/card_backs/set2/pink.gif","""event"",""trial"",""time""
""fullscreenenter"",""1"",""2592""
","
","
","""event"",""trial"",""time""
""fullscreenenter"",""1"",""2592""
","
","","8290.464999998221","True or False: All the decks have some cards that cause you to win tokens and some cards that cause you to lose tokens.","84","","","2021-04-07 00:33:27.587","","","","","",""
"casino-keyboard-response","61","375488","0.0-20.0-1.0","A553","true","img/card_backs/set1/green.gif","img/card_backs/set1/purple.gif","img/card_backs/set1/yellow.gif","img/card_backs/set1/red.gif","img/card_backs/set2/blue.gif","img/card_backs/set2/orange.gif","img/card_backs/set2/gray.gif","img/card_backs/set2/pink.gif","""event"",""trial"",""time""
""fullscreenenter"",""1"",""2592""
","
","
","""event"",""trial"",""time""
""fullscreenenter"",""1"",""2592""
","
","","5350.934999994934","True is correct! All the decks have a mix of winning and losing cards.","77","","","2021-04-07 00:33:32.941","","","","","true",""
"casino-comp_q","62","380901","0.0-21.0-0.0","A553","true","img/card_backs/set1/green.gif","img/card_backs/set1/purple.gif","img/card_backs/set1/yellow.gif","img/card_backs/set1/red.gif","img/card_backs/set2/blue.gif","img/card_backs/set2/orange.gif","img/card_backs/set2/gray.gif","img/card_backs/set2/pink.gif","""event"",""trial"",""time""
""fullscreenenter"",""1"",""2592""
","
","
","""event"",""trial"",""time""
""fullscreenenter"",""1"",""2592""
","
","","5406.840000010561","True or False: You will have as much time as you want to make your response.","70","","","2021-04-07 00:33:38.355","","","","","",""
"casino-keyboard-response","63","418953","0.0-21.0-1.0","A553","true","img/card_backs/set1/green.gif","img/card_backs/set1/purple.gif","img/card_backs/set1/yellow.gif","img/card_backs/set1/red.gif","img/card_backs/set2/blue.gif","img/card_backs/set2/orange.gif","img/card_backs/set2/gray.gif","img/card_backs/set2/pink.gif","""event"",""trial"",""time""
""fullscreenenter"",""1"",""2592""
","
","
","""event"",""trial"",""time""
""fullscreenenter"",""1"",""2592""
","
","","38048.72500000056","False is correct! You will only have 10 seconds to make each choice.","75","","","2021-04-07 00:34:16.406","","","","","true",""
"casino-comp_q","64","425318","0.0-22.0-0.0","A553","true","img/card_backs/set1/green.gif","img/card_backs/set1/purple.gif","img/card_backs/set1/yellow.gif","img/card_backs/set1/red.gif","img/card_backs/set2/blue.gif","img/card_backs/set2/orange.gif","img/card_backs/set2/gray.gif","img/card_backs/set2/pink.gif","""event"",""trial"",""time""
""fullscreenenter"",""1"",""2592""
","
","
","""event"",""trial"",""time""
""fullscreenenter"",""1"",""2592""
","
","","6361.915000001318","True or False: The location of the deck determines how lucky it is.","70","","","2021-04-07 00:34:22.771","","","","","",""
"casino-keyboard-response","65","431298","0.0-22.0-1.0","A553","true","img/card_backs/set1/green.gif","img/card_backs/set1/purple.gif","img/card_backs/set1/yellow.gif","img/card_backs/set1/red.gif","img/card_backs/set2/blue.gif","img/card_backs/set2/orange.gif","img/card_backs/set2/gray.gif","img/card_backs/set2/pink.gif","""event"",""trial"",""time""
""fullscreenenter"",""1"",""2592""
","
","
","""event"",""trial"",""time""
""fullscreenenter"",""1"",""2592""
","
","","5976.744999992661","False is correct! The <i>color</i>  of the deck determines how lucky or unlucky it is.","68","","","2021-04-07 00:34:28.751","","","","","true",""
"casino-keyboard-response","66","445908","0.0-23.0-0.0","A553","true","img/card_backs/set1/green.gif","img/card_backs/set1/purple.gif","img/card_backs/set1/yellow.gif","img/card_backs/set1/red.gif","img/card_backs/set2/blue.gif","img/card_backs/set2/orange.gif","img/card_backs/set2/gray.gif","img/card_backs/set2/pink.gif","""event"",""trial"",""time""
""fullscreenenter"",""1"",""2592""
","
","
","""event"",""trial"",""time""
""fullscreenenter"",""1"",""2592""
","
","","14607.300000003306","Great job! Now it's time to start the real game.","82","","instructions","2021-04-07 00:34:43.361","","","","","",""
"casino-keyboard-response","67","452214","0.0-23.0-0.1","A553","true","img/card_backs/set1/green.gif","img/card_backs/set1/purple.gif","img/card_backs/set1/yellow.gif","img/card_backs/set1/red.gif","img/card_backs/set2/blue.gif","img/card_backs/set2/orange.gif","img/card_backs/set2/gray.gif","img/card_backs/set2/pink.gif","""event"",""trial"",""time""
""fullscreenenter"",""1"",""2592""
","
","
","""event"",""trial"",""time""
""fullscreenenter"",""1"",""2592""
","
","","6304.424999994808","Before we start, we're going to head into a new room of the casino.","86","","instructions","2021-04-07 00:34:49.668","","","","","",""
"casino-keyboard-response","68","459058","0.0-24.0-0.0","A553","true","img/card_backs/set1/green.gif","img/card_backs/set1/purple.gif","img/card_backs/set1/yellow.gif","img/card_backs/set1/red.gif","img/card_backs/set2/blue.gif","img/card_backs/set2/orange.gif","img/card_backs/set2/gray.gif","img/card_backs/set2/pink.gif","""event"",""trial"",""time""
""fullscreenenter"",""1"",""2592""
","
","
","""event"",""trial"",""time""
""fullscreenenter"",""1"",""2592""
","
","","6840.714999998454","Here we are! The real game will use different cards, but the rules will be the same.","71","","instructions","2021-04-07 00:34:56.511","","","","","",""
"casino-keyboard-response","69","484797","0.0-24.0-0.1","A553","true","img/card_backs/set1/green.gif","img/card_backs/set1/purple.gif","img/card_backs/set1/yellow.gif","img/card_backs/set1/red.gif","img/card_backs/set2/blue.gif","img/card_backs/set2/orange.gif","img/card_backs/set2/gray.gif","img/card_backs/set2/pink.gif","""event"",""trial"",""time""
""fullscreenenter"",""1"",""2592""
","
","
","""event"",""trial"",""time""
""fullscreenenter"",""1"",""2592""
","
","","25735.784999997122","Ready? Put your fingers over the '2', '4', 6', and '8' keys so you are ready to play the game. </br> Then press 2 to start.","50","","instructions","2021-04-07 00:35:22.250","","","","","",""
"casino-fixation","70","485299","0.0-25.0-0.0","A553","true","img/card_backs/set1/green.gif","img/card_backs/set1/purple.gif","img/card_backs/set1/yellow.gif","img/card_backs/set1/red.gif","img/card_backs/set2/blue.gif","img/card_backs/set2/orange.gif","img/card_backs/set2/gray.gif","img/card_backs/set2/pink.gif","""event"",""trial"",""time""
""fullscreenenter"",""1"",""2592""
","
","
","""event"",""trial"",""time""
""fullscreenenter"",""1"",""2592""
","
","","null","","null","","fixation","2021-04-07 00:35:22.752","","","","","",""
"card-selection-trial","71","491105","0.0-25.0-1.0","A553","true","img/card_backs/set1/green.gif","img/card_backs/set1/purple.gif","img/card_backs/set1/yellow.gif","img/card_backs/set1/red.gif","img/card_backs/set2/blue.gif","img/card_backs/set2/orange.gif","img/card_backs/set2/gray.gif","img/card_backs/set2/pink.gif","""event"",""trial"",""time""
""fullscreenenter"",""1"",""2592""
","
","
","""event"",""trial"",""time""
""fullscreenenter"",""1"",""2592""
","
","","3795.9700000064913","","","","real_trial","2021-04-07 00:35:28.558","img/card_backs/set1/purple.gif","0","-210","1","",""
"casino-fixation","72","491608","0.0-25.0-0.1","A553","true","img/card_backs/set1/green.gif","img/card_backs/set1/purple.gif","img/card_backs/set1/yellow.gif","img/card_backs/set1/red.gif","img/card_backs/set2/blue.gif","img/card_backs/set2/orange.gif","img/card_backs/set2/gray.gif","img/card_backs/set2/pink.gif","""event"",""trial"",""time""
""fullscreenenter"",""1"",""2592""
","
","
","""event"",""trial"",""time""
""fullscreenenter"",""1"",""2592""
","
","","null","","null","","fixation","2021-04-07 00:35:29.061","","","","","",""
"card-selection-trial","73","497596","0.0-25.0-1.1","A553","true","img/card_backs/set1/green.gif","img/card_backs/set1/purple.gif","img/card_backs/set1/yellow.gif","img/card_backs/set1/red.gif","img/card_backs/set2/blue.gif","img/card_backs/set2/orange.gif","img/card_backs/set2/gray.gif","img/card_backs/set2/pink.gif","""event"",""trial"",""time""
""fullscreenenter"",""1"",""2592""
","
","
","""event"",""trial"",""time""
""fullscreenenter"",""1"",""2592""
","
","","3980.1900000020396","","","","real_trial","2021-04-07 00:35:35.050","img/card_backs/set1/red.gif","2","-90","1","",""
"casino-fixation","74","498099","0.0-25.0-0.2","A553","true","img/card_backs/set1/green.gif","img/card_backs/set1/purple.gif","img/card_backs/set1/yellow.gif","img/card_backs/set1/red.gif","img/card_backs/set2/blue.gif","img/card_backs/set2/orange.gif","img/card_backs/set2/gray.gif","img/card_backs/set2/pink.gif","""event"",""trial"",""time""
""fullscreenenter"",""1"",""2592""
","
","
","""event"",""trial"",""time""
""fullscreenenter"",""1"",""2592""
","
","","null","","null","","fixation","2021-04-07 00:35:35.552","","","","","",""
"card-selection-trial","75","503769","0.0-25.0-1.2","A553","true","img/card_backs/set1/green.gif","img/card_backs/set1/purple.gif","img/card_backs/set1/yellow.gif","img/card_backs/set1/red.gif","img/card_backs/set2/blue.gif","img/card_backs/set2/orange.gif","img/card_backs/set2/gray.gif","img/card_backs/set2/pink.gif","""event"",""trial"",""time""
""fullscreenenter"",""1"",""2592""
","
","
","""event"",""trial"",""time""
""fullscreenenter"",""1"",""2592""
","
","","3662.574999994831","","","","real_trial","2021-04-07 00:35:41.222","img/card_backs/set1/yellow.gif","0","60","1","",""
"casino-fixation","76","504272","0.0-25.0-0.3","A553","true","img/card_backs/set1/green.gif","img/card_backs/set1/purple.gif","img/card_backs/set1/yellow.gif","img/card_backs/set1/red.gif","img/card_backs/set2/blue.gif","img/card_backs/set2/orange.gif","img/card_backs/set2/gray.gif","img/card_backs/set2/pink.gif","""event"",""trial"",""time""
""fullscreenenter"",""1"",""2592""
","
","
","""event"",""trial"",""time""
""fullscreenenter"",""1"",""2592""
","
","","null","","null","","fixation","2021-04-07 00:35:41.725","","","","","",""
"card-selection-trial","77","510780","0.0-25.0-1.3","A553","true","img/card_backs/set1/green.gif","img/card_backs/set1/purple.gif","img/card_backs/set1/yellow.gif","img/card_backs/set1/red.gif","img/card_backs/set2/blue.gif","img/card_backs/set2/orange.gif","img/card_backs/set2/gray.gif","img/card_backs/set2/pink.gif","""event"",""trial"",""time""
""fullscreenenter"",""1"",""2592""
","
","
","""event"",""trial"",""time""
""fullscreenenter"",""1"",""2592""
","
","","4499.364999996033","","","","real_trial","2021-04-07 00:35:48.233","img/card_backs/set1/yellow.gif","0","60","1","",""
"casino-fixation","78","511283","0.0-25.0-0.4","A553","true","img/card_backs/set1/green.gif","img/card_backs/set1/purple.gif","img/card_backs/set1/yellow.gif","img/card_backs/set1/red.gif","img/card_backs/set2/blue.gif","img/card_backs/set2/orange.gif","img/card_backs/set2/gray.gif","img/card_backs/set2/pink.gif","""event"",""trial"",""time""
""fullscreenenter"",""1"",""2592""
","
","
","""event"",""trial"",""time""
""fullscreenenter"",""1"",""2592""
","
","","null","","null","","fixation","2021-04-07 00:35:48.736","","","","","",""
"card-selection-trial","79","515489","0.0-25.0-1.4","A553","true","img/card_backs/set1/green.gif","img/card_backs/set1/purple.gif","img/card_backs/set1/yellow.gif","img/card_backs/set1/red.gif","img/card_backs/set2/blue.gif","img/card_backs/set2/orange.gif","img/card_backs/set2/gray.gif","img/card_backs/set2/pink.gif","""event"",""trial"",""time""
""fullscreenenter"",""1"",""2592""
","
","
","""event"",""trial"",""time""
""fullscreenenter"",""1"",""2592""
","
","","2198.069999998552","","","","real_trial","2021-04-07 00:35:52.942","img/card_backs/set1/yellow.gif","0","40","1","",""
"casino-fixation","80","515992","0.0-25.0-0.5","A553","true","img/card_backs/set1/green.gif","img/card_backs/set1/purple.gif","img/card_backs/set1/yellow.gif","img/card_backs/set1/red.gif","img/card_backs/set2/blue.gif","img/card_backs/set2/orange.gif","img/card_backs/set2/gray.gif","img/card_backs/set2/pink.gif","""event"",""trial"",""time""
""fullscreenenter"",""1"",""2592""
","
","
","""event"",""trial"",""time""
""fullscreenenter"",""1"",""2592""
","
","","null","","null","","fixation","2021-04-07 00:35:53.445","","","","","",""
"card-selection-trial","81","522340","0.0-25.0-1.5","A553","true","img/card_backs/set1/green.gif","img/card_backs/set1/purple.gif","img/card_backs/set1/yellow.gif","img/card_backs/set1/red.gif","img/card_backs/set2/blue.gif","img/card_backs/set2/orange.gif","img/card_backs/set2/gray.gif","img/card_backs/set2/pink.gif","""event"",""trial"",""time""
""fullscreenenter"",""1"",""2592""
","
","
","""event"",""trial"",""time""
""fullscreenenter"",""1"",""2592""
","
","","4339.485000004061","","","","real_trial","2021-04-07 00:35:59.794","img/card_backs/set1/yellow.gif","3","50","1","",""
"casino-fixation","82","522843","0.0-25.0-0.6","A553","true","img/card_backs/set1/green.gif","img/card_backs/set1/purple.gif","img/card_backs/set1/yellow.gif","img/card_backs/set1/red.gif","img/card_backs/set2/blue.gif","img/card_backs/set2/orange.gif","img/card_backs/set2/gray.gif","img/card_backs/set2/pink.gif","""event"",""trial"",""time""
""fullscreenenter"",""1"",""2592""
","
","
","""event"",""trial"",""time""
""fullscreenenter"",""1"",""2592""
","
","","null","","null","","fixation","2021-04-07 00:36:00.297","","","","","",""
"card-selection-trial","83","526729","0.0-25.0-1.6","A553","true","img/card_backs/set1/green.gif","img/card_backs/set1/purple.gif","img/card_backs/set1/yellow.gif","img/card_backs/set1/red.gif","img/card_backs/set2/blue.gif","img/card_backs/set2/orange.gif","img/card_backs/set2/gray.gif","img/card_backs/set2/pink.gif","""event"",""trial"",""time""
""fullscreenenter"",""1"",""2592""
","
","
","""event"",""trial"",""time""
""fullscreenenter"",""1"",""2592""
","
","","1877.169999992475","","","","real_trial","2021-04-07 00:36:04.182","img/card_backs/set1/yellow.gif","3","50","1","",""
"casino-fixation","84","527231","0.0-25.0-0.7","A553","true","img/card_backs/set1/green.gif","img/card_backs/set1/purple.gif","img/card_backs/set1/yellow.gif","img/card_backs/set1/red.gif","img/card_backs/set2/blue.gif","img/card_backs/set2/orange.gif","img/card_backs/set2/gray.gif","img/card_backs/set2/pink.gif","""event"",""trial"",""time""
""fullscreenenter"",""1"",""2592""
","
","
","""event"",""trial"",""time""
""fullscreenenter"",""1"",""2592""
","
","","null","","null","","fixation","2021-04-07 00:36:04.684","","","","","",""
"card-selection-trial","85","531762","0.0-25.0-1.7","A553","true","img/card_backs/set1/green.gif","img/card_backs/set1/purple.gif","img/card_backs/set1/yellow.gif","img/card_backs/set1/red.gif","img/card_backs/set2/blue.gif","img/card_backs/set2/orange.gif","img/card_backs/set2/gray.gif","img/card_backs/set2/pink.gif","""event"",""trial"",""time""
""fullscreenenter"",""1"",""2592""
","
","
","""event"",""trial"",""time""
""fullscreenenter"",""1"",""2592""
","
","","2521.055000004708","","","","real_trial","2021-04-07 00:36:09.215","img/card_backs/set1/yellow.gif","3","-90","1","",""
"casino-fixation","86","532264","0.0-25.0-0.8","A553","true","img/card_backs/set1/green.gif","img/card_backs/set1/purple.gif","img/card_backs/set1/yellow.gif","img/card_backs/set1/red.gif","img/card_backs/set2/blue.gif","img/card_backs/set2/orange.gif","img/card_backs/set2/gray.gif","img/card_backs/set2/pink.gif","""event"",""trial"",""time""
""fullscreenenter"",""1"",""2592""
","
","
","""event"",""trial"",""time""
""fullscreenenter"",""1"",""2592""
","
","","null","","null","","fixation","2021-04-07 00:36:09.717","","","","","",""
"card-selection-trial","87","535212","0.0-25.0-1.8","A553","true","img/card_backs/set1/green.gif","img/card_backs/set1/purple.gif","img/card_backs/set1/yellow.gif","img/card_backs/set1/red.gif","img/card_backs/set2/blue.gif","img/card_backs/set2/orange.gif","img/card_backs/set2/gray.gif","img/card_backs/set2/pink.gif","""event"",""trial"",""time""
""fullscreenenter"",""1"",""2592""
","
","
","""event"",""trial"",""time""
""fullscreenenter"",""1"",""2592""
","
","","939.6149999956833","","","","real_trial","2021-04-07 00:36:12.665","img/card_backs/set1/yellow.gif","3","-110","1","",""
"casino-fixation","88","535715","0.0-25.0-0.9","A553","true","img/card_backs/set1/green.gif","img/card_backs/set1/purple.gif","img/card_backs/set1/yellow.gif","img/card_backs/set1/red.gif","img/card_backs/set2/blue.gif","img/card_backs/set2/orange.gif","img/card_backs/set2/gray.gif","img/card_backs/set2/pink.gif","""event"",""trial"",""time""
""fullscreenenter"",""1"",""2592""
","
","
","""event"",""trial"",""time""
""fullscreenenter"",""1"",""2592""
","
","","null","","null","","fixation","2021-04-07 00:36:13.168","","","","","",""
"card-selection-trial","89","540124","0.0-25.0-1.9","A553","true","img/card_backs/set1/green.gif","img/card_backs/set1/purple.gif","img/card_backs/set1/yellow.gif","img/card_backs/set1/red.gif","img/card_backs/set2/blue.gif","img/card_backs/set2/orange.gif","img/card_backs/set2/gray.gif","img/card_backs/set2/pink.gif","""event"",""trial"",""time""
""fullscreenenter"",""1"",""2592""
","
","
","""event"",""trial"",""time""
""fullscreenenter"",""1"",""2592""
","
","","2400.729999993928","","","","real_trial","2021-04-07 00:36:17.578","img/card_backs/set1/green.gif","2","-210","1","",""
"casino-fixation","90","540627","0.0-25.0-0.10","A553","true","img/card_backs/set1/green.gif","img/card_backs/set1/purple.gif","img/card_backs/set1/yellow.gif","img/card_backs/set1/red.gif","img/card_backs/set2/blue.gif","img/card_backs/set2/orange.gif","img/card_backs/set2/gray.gif","img/card_backs/set2/pink.gif","""event"",""trial"",""time""
""fullscreenenter"",""1"",""2592""
","
","
","""event"",""trial"",""time""
""fullscreenenter"",""1"",""2592""
","
","","null","","null","","fixation","2021-04-07 00:36:18.080","","","","","",""
"card-selection-trial","91","545114","0.0-25.0-1.10","A553","true","img/card_backs/set1/green.gif","img/card_backs/set1/purple.gif","img/card_backs/set1/yellow.gif","img/card_backs/set1/red.gif","img/card_backs/set2/blue.gif","img/card_backs/set2/orange.gif","img/card_backs/set2/gray.gif","img/card_backs/set2/pink.gif","""event"",""trial"",""time""
""fullscreenenter"",""1"",""2592""
","
","
","""event"",""trial"",""time""
""fullscreenenter"",""1"",""2592""
","
","","2479.254999998375","","","","real_trial","2021-04-07 00:36:22.567","img/card_backs/set1/yellow.gif","3","50","1","",""
"casino-fixation","92","545617","0.0-25.0-0.11","A553","true","img/card_backs/set1/green.gif","img/card_backs/set1/purple.gif","img/card_backs/set1/yellow.gif","img/card_backs/set1/red.gif","img/card_backs/set2/blue.gif","img/card_backs/set2/orange.gif","img/card_backs/set2/gray.gif","img/card_backs/set2/pink.gif","""event"",""trial"",""time""
""fullscreenenter"",""1"",""2592""
","
","
","""event"",""trial"",""time""
""fullscreenenter"",""1"",""2592""
","
","","null","","null","","fixation","2021-04-07 00:36:23.070","","","","","",""
"card-selection-trial","93","550477","0.0-25.0-1.11","A553","true","img/card_backs/set1/green.gif","img/card_backs/set1/purple.gif","img/card_backs/set1/yellow.gif","img/card_backs/set1/red.gif","img/card_backs/set2/blue.gif","img/card_backs/set2/orange.gif","img/card_backs/set2/gray.gif","img/card_backs/set2/pink.gif","""event"",""trial"",""time""
""fullscreenenter"",""1"",""2592""
","
","
","""event"",""trial"",""time""
""fullscreenenter"",""1"",""2592""
","
","","2852.115000001504","","","","real_trial","2021-04-07 00:36:27.930","img/card_backs/set1/yellow.gif","1","50","1","",""
"casino-fixation","94","550980","0.0-25.0-0.12","A553","true","img/card_backs/set1/green.gif","img/card_backs/set1/purple.gif","img/card_backs/set1/yellow.gif","img/card_backs/set1/red.gif","img/card_backs/set2/blue.gif","img/card_backs/set2/orange.gif","img/card_backs/set2/gray.gif","img/card_backs/set2/pink.gif","""event"",""trial"",""time""
""fullscreenenter"",""1"",""2592""
","
","
","""event"",""trial"",""time""
""fullscreenenter"",""1"",""2592""
","
","","null","","null","","fixation","2021-04-07 00:36:28.433","","","","","",""
"card-selection-trial","95","554082","0.0-25.0-1.12","A553","true","img/card_backs/set1/green.gif","img/card_backs/set1/purple.gif","img/card_backs/set1/yellow.gif","img/card_backs/set1/red.gif","img/card_backs/set2/blue.gif","img/card_backs/set2/orange.gif","img/card_backs/set2/gray.gif","img/card_backs/set2/pink.gif","""event"",""trial"",""time""
""fullscreenenter"",""1"",""2592""
","
","
","""event"",""trial"",""time""
""fullscreenenter"",""1"",""2592""
","
","","1093.3999999979278","","","","real_trial","2021-04-07 00:36:31.535","img/card_backs/set1/yellow.gif","2","40","1","",""
"casino-fixation","96","554584","0.0-25.0-0.13","A553","true","img/card_backs/set1/green.gif","img/card_backs/set1/purple.gif","img/card_backs/set1/yellow.gif","img/card_backs/set1/red.gif","img/card_backs/set2/blue.gif","img/card_backs/set2/orange.gif","img/card_backs/set2/gray.gif","img/card_backs/set2/pink.gif","""event"",""trial"",""time""
""fullscreenenter"",""1"",""2592""
","
","
","""event"",""trial"",""time""
""fullscreenenter"",""1"",""2592""
","
","","null","","null","","fixation","2021-04-07 00:36:32.037","","","","","",""
"card-selection-trial","97","558162","0.0-25.0-1.13","A553","true","img/card_backs/set1/green.gif","img/card_backs/set1/purple.gif","img/card_backs/set1/yellow.gif","img/card_backs/set1/red.gif","img/card_backs/set2/blue.gif","img/card_backs/set2/orange.gif","img/card_backs/set2/gray.gif","img/card_backs/set2/pink.gif","""event"",""trial"",""time""
""fullscreenenter"",""1"",""2592""
","
","
","""event"",""trial"",""time""
""fullscreenenter"",""1"",""2592""
","
","","1569.8750000010477","","","","real_trial","2021-04-07 00:36:35.615","img/card_backs/set1/yellow.gif","1","-90","1","",""
"casino-fixation","98","558665","0.0-25.0-0.14","A553","true","img/card_backs/set1/green.gif","img/card_backs/set1/purple.gif","img/card_backs/set1/yellow.gif","img/card_backs/set1/red.gif","img/card_backs/set2/blue.gif","img/card_backs/set2/orange.gif","img/card_backs/set2/gray.gif","img/card_backs/set2/pink.gif","""event"",""trial"",""time""
""fullscreenenter"",""1"",""2592""
","
","
","""event"",""trial"",""time""
""fullscreenenter"",""1"",""2592""
","
","","null","","null","","fixation","2021-04-07 00:36:36.118","","","","","",""
"card-selection-trial","99","562373","0.0-25.0-1.14","A553","true","img/card_backs/set1/green.gif","img/card_backs/set1/purple.gif","img/card_backs/set1/yellow.gif","img/card_backs/set1/red.gif","img/card_backs/set2/blue.gif","img/card_backs/set2/orange.gif","img/card_backs/set2/gray.gif","img/card_backs/set2/pink.gif","""event"",""trial"",""time""
""fullscreenenter"",""1"",""2592""
","
","
","""event"",""trial"",""time""
""fullscreenenter"",""1"",""2592""
","
","","1699.189999999362","","","","real_trial","2021-04-07 00:36:39.826","img/card_backs/set1/yellow.gif","0","60","1","",""
"casino-fixation","100","562876","0.0-25.0-0.15","A553","true","img/card_backs/set1/green.gif","img/card_backs/set1/purple.gif","img/card_backs/set1/yellow.gif","img/card_backs/set1/red.gif","img/card_backs/set2/blue.gif","img/card_backs/set2/orange.gif","img/card_backs/set2/gray.gif","img/card_backs/set2/pink.gif","""event"",""trial"",""time""
""fullscreenenter"",""1"",""2592""
","
","
","""event"",""trial"",""time""
""fullscreenenter"",""1"",""2592""
","
","","null","","null","","fixation","2021-04-07 00:36:40.329","","","","","",""
"card-selection-trial","101","566370","0.0-25.0-1.15","A553","true","img/card_backs/set1/green.gif","img/card_backs/set1/purple.gif","img/card_backs/set1/yellow.gif","img/card_backs/set1/red.gif","img/card_backs/set2/blue.gif","img/card_backs/set2/orange.gif","img/card_backs/set2/gray.gif","img/card_backs/set2/pink.gif","""event"",""trial"",""time""
""fullscreenenter"",""1"",""2592""
","
","
","""event"",""trial"",""time""
""fullscreenenter"",""1"",""2592""
","
","","1486.0650000046007","","","","real_trial","2021-04-07 00:36:43.824","img/card_backs/set1/yellow.gif","2","40","1","",""
"casino-fixation","102","566872","0.0-25.0-0.16","A553","true","img/card_backs/set1/green.gif","img/card_backs/set1/purple.gif","img/card_backs/set1/yellow.gif","img/card_backs/set1/red.gif","img/card_backs/set2/blue.gif","img/card_backs/set2/orange.gif","img/card_backs/set2/gray.gif","img/card_backs/set2/pink.gif","""event"",""trial"",""time""
""fullscreenenter"",""1"",""2592""
","
","
","""event"",""trial"",""time""
""fullscreenenter"",""1"",""2592""
","
","","null","","null","","fixation","2021-04-07 00:36:44.326","","","","","",""
"card-selection-trial","103","569586","0.0-25.0-1.16","A553","true","img/card_backs/set1/green.gif","img/card_backs/set1/purple.gif","img/card_backs/set1/yellow.gif","img/card_backs/set1/red.gif","img/card_backs/set2/blue.gif","img/card_backs/set2/orange.gif","img/card_backs/set2/gray.gif","img/card_backs/set2/pink.gif","""event"",""trial"",""time""
""fullscreenenter"",""1"",""2592""
","
","
","""event"",""trial"",""time""
""fullscreenenter"",""1"",""2592""
","
","","705.325000002631","","","","real_trial","2021-04-07 00:36:47.039","img/card_backs/set1/yellow.gif","3","-100","1","",""
"casino-fixation","104","570088","0.0-25.0-0.17","A553","true","img/card_backs/set1/green.gif","img/card_backs/set1/purple.gif","img/card_backs/set1/yellow.gif","img/card_backs/set1/red.gif","img/card_backs/set2/blue.gif","img/card_backs/set2/orange.gif","img/card_backs/set2/gray.gif","img/card_backs/set2/pink.gif","""event"",""trial"",""time""
""fullscreenenter"",""1"",""2592""
","
","
","""event"",""trial"",""time""
""fullscreenenter"",""1"",""2592""
","
","","null","","null","","fixation","2021-04-07 00:36:47.541","","","","","",""
"card-selection-trial","105","574037","0.0-25.0-1.17","A553","true","img/card_backs/set1/green.gif","img/card_backs/set1/purple.gif","img/card_backs/set1/yellow.gif","img/card_backs/set1/red.gif","img/card_backs/set2/blue.gif","img/card_backs/set2/orange.gif","img/card_backs/set2/gray.gif","img/card_backs/set2/pink.gif","""event"",""trial"",""time""
""fullscreenenter"",""1"",""2592""
","
","
","""event"",""trial"",""time""
""fullscreenenter"",""1"",""2592""
","
","","1940.4649999924004","","","","real_trial","2021-04-07 00:36:51.490","img/card_backs/set1/yellow.gif","3","-110","1","",""
"casino-fixation","106","574540","0.0-25.0-0.18","A553","true","img/card_backs/set1/green.gif","img/card_backs/set1/purple.gif","img/card_backs/set1/yellow.gif","img/card_backs/set1/red.gif","img/card_backs/set2/blue.gif","img/card_backs/set2/orange.gif","img/card_backs/set2/gray.gif","img/card_backs/set2/pink.gif","""event"",""trial"",""time""
""fullscreenenter"",""1"",""2592""
","
","
","""event"",""trial"",""time""
""fullscreenenter"",""1"",""2592""
","
","","null","","null","","fixation","2021-04-07 00:36:51.993","","","","","",""
"card-selection-trial","107","578674","0.0-25.0-1.18","A553","true","img/card_backs/set1/green.gif","img/card_backs/set1/purple.gif","img/card_backs/set1/yellow.gif","img/card_backs/set1/red.gif","img/card_backs/set2/blue.gif","img/card_backs/set2/orange.gif","img/card_backs/set2/gray.gif","img/card_backs/set2/pink.gif","""event"",""trial"",""time""
""fullscreenenter"",""1"",""2592""
","
","
","""event"",""trial"",""time""
""fullscreenenter"",""1"",""2592""
","
","","2125.8749999979045","","","","real_trial","2021-04-07 00:36:56.127","img/card_backs/set1/yellow.gif","1","-100","1","",""
"casino-fixation","108","579177","0.0-25.0-0.19","A553","true","img/card_backs/set1/green.gif","img/card_backs/set1/purple.gif","img/card_backs/set1/yellow.gif","img/card_backs/set1/red.gif","img/card_backs/set2/blue.gif","img/card_backs/set2/orange.gif","img/card_backs/set2/gray.gif","img/card_backs/set2/pink.gif","""event"",""trial"",""time""
""fullscreenenter"",""1"",""2592""
","
","
","""event"",""trial"",""time""
""fullscreenenter"",""1"",""2592""
","
","","null","","null","","fixation","2021-04-07 00:36:56.630","","","","","",""
"card-selection-trial","109","587653","0.0-25.0-1.19","A553","true","img/card_backs/set1/green.gif","img/card_backs/set1/purple.gif","img/card_backs/set1/yellow.gif","img/card_backs/set1/red.gif","img/card_backs/set2/blue.gif","img/card_backs/set2/orange.gif","img/card_backs/set2/gray.gif","img/card_backs/set2/pink.gif","""event"",""trial"",""time""
""fullscreenenter"",""1"",""2592""
","
","
","""event"",""trial"",""time""
""fullscreenenter"",""1"",""2592""
","
","","6467.980000001262","","","","real_trial","2021-04-07 00:37:05.107","img/card_backs/set1/green.gif","1","250","1","",""
"casino-fixation","110","588157","0.0-25.0-0.20","A553","true","img/card_backs/set1/green.gif","img/card_backs/set1/purple.gif","img/card_backs/set1/yellow.gif","img/card_backs/set1/red.gif","img/card_backs/set2/blue.gif","img/card_backs/set2/orange.gif","img/card_backs/set2/gray.gif","img/card_backs/set2/pink.gif","""event"",""trial"",""time""
""fullscreenenter"",""1"",""2592""
","
","
","""event"",""trial"",""time""
""fullscreenenter"",""1"",""2592""
","
","","null","","null","","fixation","2021-04-07 00:37:05.610","","","","","",""
"card-selection-trial","111","592771","0.0-25.0-1.20","A553","true","img/card_backs/set1/green.gif","img/card_backs/set1/purple.gif","img/card_backs/set1/yellow.gif","img/card_backs/set1/red.gif","img/card_backs/set2/blue.gif","img/card_backs/set2/orange.gif","img/card_backs/set2/gray.gif","img/card_backs/set2/pink.gif","""event"",""trial"",""time""
""fullscreenenter"",""1"",""2592""
","
","
","""event"",""trial"",""time""
""fullscreenenter"",""1"",""2592""
","
","","2605.4149999981746","","","","real_trial","2021-04-07 00:37:10.224","img/card_backs/set1/green.gif","3","-200","1","",""
"casino-fixation","112","593273","0.0-25.0-0.21","A553","true","img/card_backs/set1/green.gif","img/card_backs/set1/purple.gif","img/card_backs/set1/yellow.gif","img/card_backs/set1/red.gif","img/card_backs/set2/blue.gif","img/card_backs/set2/orange.gif","img/card_backs/set2/gray.gif","img/card_backs/set2/pink.gif","""event"",""trial"",""time""
""fullscreenenter"",""1"",""2592""
","
","
","""event"",""trial"",""time""
""fullscreenenter"",""1"",""2592""
","
","","null","","null","","fixation","2021-04-07 00:37:10.728","","","","","",""
"card-selection-trial","113","596995","0.0-25.0-1.21","A553","true","img/card_backs/set1/green.gif","img/card_backs/set1/purple.gif","img/card_backs/set1/yellow.gif","img/card_backs/set1/red.gif","img/card_backs/set2/blue.gif","img/card_backs/set2/orange.gif","img/card_backs/set2/gray.gif","img/card_backs/set2/pink.gif","""event"",""trial"",""time""
""fullscreenenter"",""1"",""2592""
","
","
","""event"",""trial"",""time""
""fullscreenenter"",""1"",""2592""
","
","","1711.2750000087544","","","","real_trial","2021-04-07 00:37:14.448","img/card_backs/set1/green.gif","1","250","1","",""
"casino-fixation","114","597498","0.0-25.0-0.22","A553","true","img/card_backs/set1/green.gif","img/card_backs/set1/purple.gif","img/card_backs/set1/yellow.gif","img/card_backs/set1/red.gif","img/card_backs/set2/blue.gif","img/card_backs/set2/orange.gif","img/card_backs/set2/gray.gif","img/card_backs/set2/pink.gif","""event"",""trial"",""time""
""fullscreenenter"",""1"",""2592""
","
","
","""event"",""trial"",""time""
""fullscreenenter"",""1"",""2592""
","
","","null","","null","","fixation","2021-04-07 00:37:14.951","","","","","",""
"card-selection-trial","115","601207","0.0-25.0-1.22","A553","true","img/card_backs/set1/green.gif","img/card_backs/set1/purple.gif","img/card_backs/set1/yellow.gif","img/card_backs/set1/red.gif","img/card_backs/set2/blue.gif","img/card_backs/set2/orange.gif","img/card_backs/set2/gray.gif","img/card_backs/set2/pink.gif","""event"",""trial"",""time""
""fullscreenenter"",""1"",""2592""
","
","
","""event"",""trial"",""time""
""fullscreenenter"",""1"",""2592""
","
","","1699.7299999929965","","","","real_trial","2021-04-07 00:37:18.660","img/card_backs/set1/yellow.gif","0","-100","1","",""
"casino-fixation","116","601709","0.0-25.0-0.23","A553","true","img/card_backs/set1/green.gif","img/card_backs/set1/purple.gif","img/card_backs/set1/yellow.gif","img/card_backs/set1/red.gif","img/card_backs/set2/blue.gif","img/card_backs/set2/orange.gif","img/card_backs/set2/gray.gif","img/card_backs/set2/pink.gif","""event"",""trial"",""time""
""fullscreenenter"",""1"",""2592""
","
","
","""event"",""trial"",""time""
""fullscreenenter"",""1"",""2592""
","
","","null","","null","","fixation","2021-04-07 00:37:19.162","","","","","",""
"card-selection-trial","117","605547","0.0-25.0-1.23","A553","true","img/card_backs/set1/green.gif","img/card_backs/set1/purple.gif","img/card_backs/set1/yellow.gif","img/card_backs/set1/red.gif","img/card_backs/set2/blue.gif","img/card_backs/set2/orange.gif","img/card_backs/set2/gray.gif","img/card_backs/set2/pink.gif","""event"",""trial"",""time""
""fullscreenenter"",""1"",""2592""
","
","
","""event"",""trial"",""time""
""fullscreenenter"",""1"",""2592""
","
","","1829.3249999987893","","","","real_trial","2021-04-07 00:37:23.000","img/card_backs/set1/yellow.gif","3","-100","1","",""
"casino-fixation","118","606050","0.0-25.0-0.24","A553","true","img/card_backs/set1/green.gif","img/card_backs/set1/purple.gif","img/card_backs/set1/yellow.gif","img/card_backs/set1/red.gif","img/card_backs/set2/blue.gif","img/card_backs/set2/orange.gif","img/card_backs/set2/gray.gif","img/card_backs/set2/pink.gif","""event"",""trial"",""time""
""fullscreenenter"",""1"",""2592""
","
","
","""event"",""trial"",""time""
""fullscreenenter"",""1"",""2592""
","
","","null","","null","","fixation","2021-04-07 00:37:23.503","","","","","",""
"card-selection-trial","119","609771","0.0-25.0-1.24","A553","true","img/card_backs/set1/green.gif","img/card_backs/set1/purple.gif","img/card_backs/set1/yellow.gif","img/card_backs/set1/red.gif","img/card_backs/set2/blue.gif","img/card_backs/set2/orange.gif","img/card_backs/set2/gray.gif","img/card_backs/set2/pink.gif","""event"",""trial"",""time""
""fullscreenenter"",""1"",""2592""
","
","
","""event"",""trial"",""time""
""fullscreenenter"",""1"",""2592""
","
","","1711.7600000055972","","","","real_trial","2021-04-07 00:37:27.224","img/card_backs/set1/green.gif","0","-200","1","",""
"casino-fixation","120","610274","0.0-25.0-0.25","A553","true","img/card_backs/set1/green.gif","img/card_backs/set1/purple.gif","img/card_backs/set1/yellow.gif","img/card_backs/set1/red.gif","img/card_backs/set2/blue.gif","img/card_backs/set2/orange.gif","img/card_backs/set2/gray.gif","img/card_backs/set2/pink.gif","""event"",""trial"",""time""
""fullscreenenter"",""1"",""2592""
","
","
","""event"",""trial"",""time""
""fullscreenenter"",""1"",""2592""
","
","","null","","null","","fixation","2021-04-07 00:37:27.727","","","","","",""
"card-selection-trial","121","613398","0.0-25.0-1.25","A553","true","img/card_backs/set1/green.gif","img/card_backs/set1/purple.gif","img/card_backs/set1/yellow.gif","img/card_backs/set1/red.gif","img/card_backs/set2/blue.gif","img/card_backs/set2/orange.gif","img/card_backs/set2/gray.gif","img/card_backs/set2/pink.gif","""event"",""trial"",""time""
""fullscreenenter"",""1"",""2592""
","
","
","""event"",""trial"",""time""
""fullscreenenter"",""1"",""2592""
","
","","1115.2900000015507","","","","real_trial","2021-04-07 00:37:30.851","img/card_backs/set1/yellow.gif","1","-90","1","",""
"casino-fixation","122","613901","0.0-25.0-0.26","A553","true","img/card_backs/set1/green.gif","img/card_backs/set1/purple.gif","img/card_backs/set1/yellow.gif","img/card_backs/set1/red.gif","img/card_backs/set2/blue.gif","img/card_backs/set2/orange.gif","img/card_backs/set2/gray.gif","img/card_backs/set2/pink.gif","""event"",""trial"",""time""
""fullscreenenter"",""1"",""2592""
","
","
","""event"",""trial"",""time""
""fullscreenenter"",""1"",""2592""
","
","","null","","null","","fixation","2021-04-07 00:37:31.354","","","","","",""
"card-selection-trial","123","617427","0.0-25.0-1.26","A553","true","img/card_backs/set1/green.gif","img/card_backs/set1/purple.gif","img/card_backs/set1/yellow.gif","img/card_backs/set1/red.gif","img/card_backs/set2/blue.gif","img/card_backs/set2/orange.gif","img/card_backs/set2/gray.gif","img/card_backs/set2/pink.gif","""event"",""trial"",""time""
""fullscreenenter"",""1"",""2592""
","
","
","""event"",""trial"",""time""
""fullscreenenter"",""1"",""2592""
","
","","1517.6550000032876","","","","real_trial","2021-04-07 00:37:34.880","img/card_backs/set1/yellow.gif","1","-110","1","",""
"casino-fixation","124","617930","0.0-25.0-0.27","A553","true","img/card_backs/set1/green.gif","img/card_backs/set1/purple.gif","img/card_backs/set1/yellow.gif","img/card_backs/set1/red.gif","img/card_backs/set2/blue.gif","img/card_backs/set2/orange.gif","img/card_backs/set2/gray.gif","img/card_backs/set2/pink.gif","""event"",""trial"",""time""
""fullscreenenter"",""1"",""2592""
","
","
","""event"",""trial"",""time""
""fullscreenenter"",""1"",""2592""
","
","","null","","null","","fixation","2021-04-07 00:37:35.384","","","","","",""
"card-selection-trial","125","620819","0.0-25.0-1.27","A553","true","img/card_backs/set1/green.gif","img/card_backs/set1/purple.gif","img/card_backs/set1/yellow.gif","img/card_backs/set1/red.gif","img/card_backs/set2/blue.gif","img/card_backs/set2/orange.gif","img/card_backs/set2/gray.gif","img/card_backs/set2/pink.gif","""event"",""trial"",""time""
""fullscreenenter"",""1"",""2592""
","
","
","""event"",""trial"",""time""
""fullscreenenter"",""1"",""2592""
","
","","880.2399999985937","","","","real_trial","2021-04-07 00:37:38.272","img/card_backs/set1/purple.gif","3","260","1","",""
"casino-fixation","126","621321","0.0-25.0-0.28","A553","true","img/card_backs/set1/green.gif","img/card_backs/set1/purple.gif","img/card_backs/set1/yellow.gif","img/card_backs/set1/red.gif","img/card_backs/set2/blue.gif","img/card_backs/set2/orange.gif","img/card_backs/set2/gray.gif","img/card_backs/set2/pink.gif","""event"",""trial"",""time""
""fullscreenenter"",""1"",""2592""
","
","
","""event"",""trial"",""time""
""fullscreenenter"",""1"",""2592""
","
","","null","","null","","fixation","2021-04-07 00:37:38.775","","","","","",""
"card-selection-trial","127","624846","0.0-25.0-1.28","A553","true","img/card_backs/set1/green.gif","img/card_backs/set1/purple.gif","img/card_backs/set1/yellow.gif","img/card_backs/set1/red.gif","img/card_backs/set2/blue.gif","img/card_backs/set2/orange.gif","img/card_backs/set2/gray.gif","img/card_backs/set2/pink.gif","""event"",""trial"",""time""
""fullscreenenter"",""1"",""2592""
","
","
","""event"",""trial"",""time""
""fullscreenenter"",""1"",""2592""
","
","","1516.2750000017695","","","","real_trial","2021-04-07 00:37:42.300","img/card_backs/set1/red.gif","2","40","1","",""
"casino-fixation","128","625349","0.0-25.0-0.29","A553","true","img/card_backs/set1/green.gif","img/card_backs/set1/purple.gif","img/card_backs/set1/yellow.gif","img/card_backs/set1/red.gif","img/card_backs/set2/blue.gif","img/card_backs/set2/orange.gif","img/card_backs/set2/gray.gif","img/card_backs/set2/pink.gif","""event"",""trial"",""time""
""fullscreenenter"",""1"",""2592""
","
","
","""event"",""trial"",""time""
""fullscreenenter"",""1"",""2592""
","
","","null","","null","","fixation","2021-04-07 00:37:42.803","","","","","",""
"card-selection-trial","129","634012","0.0-25.0-1.29","A553","true","img/card_backs/set1/green.gif","img/card_backs/set1/purple.gif","img/card_backs/set1/yellow.gif","img/card_backs/set1/red.gif","img/card_backs/set2/blue.gif","img/card_backs/set2/orange.gif","img/card_backs/set2/gray.gif","img/card_backs/set2/pink.gif","""event"",""trial"",""time""
""fullscreenenter"",""1"",""2592""
","
","
","""event"",""trial"",""time""
""fullscreenenter"",""1"",""2592""
","
","","6654.410000002827","","","","real_trial","2021-04-07 00:37:51.465","img/card_backs/set1/yellow.gif","1","-110","1","",""
"casino-fixation","130","634515","0.0-25.0-0.30","A553","true","img/card_backs/set1/green.gif","img/card_backs/set1/purple.gif","img/card_backs/set1/yellow.gif","img/card_backs/set1/red.gif","img/card_backs/set2/blue.gif","img/card_backs/set2/orange.gif","img/card_backs/set2/gray.gif","img/card_backs/set2/pink.gif","""event"",""trial"",""time""
""fullscreenenter"",""1"",""2592""
","
","
","""event"",""trial"",""time""
""fullscreenenter"",""1"",""2592""
","
","","null","","null","","fixation","2021-04-07 00:37:51.968","","","","","",""
"card-selection-trial","131","637871","0.0-25.0-1.30","A553","true","img/card_backs/set1/green.gif","img/card_backs/set1/purple.gif","img/card_backs/set1/yellow.gif","img/card_backs/set1/red.gif","img/card_backs/set2/blue.gif","img/card_backs/set2/orange.gif","img/card_backs/set2/gray.gif","img/card_backs/set2/pink.gif","""event"",""trial"",""time""
""fullscreenenter"",""1"",""2592""
","
","
","""event"",""trial"",""time""
""fullscreenenter"",""1"",""2592""
","
","","1346.7749999981606","","","","real_trial","2021-04-07 00:37:55.324","img/card_backs/set1/green.gif","3","240","1","",""
"casino-fixation","132","638374","0.0-25.0-0.31","A553","true","img/card_backs/set1/green.gif","img/card_backs/set1/purple.gif","img/card_backs/set1/yellow.gif","img/card_backs/set1/red.gif","img/card_backs/set2/blue.gif","img/card_backs/set2/orange.gif","img/card_backs/set2/gray.gif","img/card_backs/set2/pink.gif","""event"",""trial"",""time""
""fullscreenenter"",""1"",""2592""
","
","
","""event"",""trial"",""time""
""fullscreenenter"",""1"",""2592""
","
","","null","","null","","fixation","2021-04-07 00:37:55.827","","","","","",""
"card-selection-trial","133","643604","0.0-25.0-1.31","A553","true","img/card_backs/set1/green.gif","img/card_backs/set1/purple.gif","img/card_backs/set1/yellow.gif","img/card_backs/set1/red.gif","img/card_backs/set2/blue.gif","img/card_backs/set2/orange.gif","img/card_backs/set2/gray.gif","img/card_backs/set2/pink.gif","""event"",""trial"",""time""
""fullscreenenter"",""1"",""2592""
","
","
","""event"",""trial"",""time""
""fullscreenenter"",""1"",""2592""
","
","","3221.6000000044005","","","","real_trial","2021-04-07 00:38:01.057","img/card_backs/set1/purple.gif","0","-210","1","",""
"casino-fixation","134","644107","0.0-25.0-0.32","A553","true","img/card_backs/set1/green.gif","img/card_backs/set1/purple.gif","img/card_backs/set1/yellow.gif","img/card_backs/set1/red.gif","img/card_backs/set2/blue.gif","img/card_backs/set2/orange.gif","img/card_backs/set2/gray.gif","img/card_backs/set2/pink.gif","""event"",""trial"",""time""
""fullscreenenter"",""1"",""2592""
","
","
","""event"",""trial"",""time""
""fullscreenenter"",""1"",""2592""
","
","","null","","null","","fixation","2021-04-07 00:38:01.560","","","","","",""
"card-selection-trial","135","654959","0.0-25.0-1.32","A553","true","img/card_backs/set1/green.gif","img/card_backs/set1/purple.gif","img/card_backs/set1/yellow.gif","img/card_backs/set1/red.gif","img/card_backs/set2/blue.gif","img/card_backs/set2/orange.gif","img/card_backs/set2/gray.gif","img/card_backs/set2/pink.gif","""event"",""trial"",""time""
""fullscreenenter"",""1"",""2592""
","
","
","""event"",""trial"",""time""
""fullscreenenter"",""1"",""2592""
","
","","8846.564999999828","","","","real_trial","2021-04-07 00:38:12.412","img/card_backs/set1/red.gif","2","50","1","",""
"casino-fixation","136","655462","0.0-25.0-0.33","A553","true","img/card_backs/set1/green.gif","img/card_backs/set1/purple.gif","img/card_backs/set1/yellow.gif","img/card_backs/set1/red.gif","img/card_backs/set2/blue.gif","img/card_backs/set2/orange.gif","img/card_backs/set2/gray.gif","img/card_backs/set2/pink.gif","""event"",""trial"",""time""
""fullscreenenter"",""1"",""2592""
","
","
","""event"",""trial"",""time""
""fullscreenenter"",""1"",""2592""
","
","","null","","null","","fixation","2021-04-07 00:38:12.916","","","","","",""
"card-selection-trial","137","661892","0.0-25.0-1.33","A553","true","img/card_backs/set1/green.gif","img/card_backs/set1/purple.gif","img/card_backs/set1/yellow.gif","img/card_backs/set1/red.gif","img/card_backs/set2/blue.gif","img/card_backs/set2/orange.gif","img/card_backs/set2/gray.gif","img/card_backs/set2/pink.gif","""event"",""trial"",""time""
""fullscreenenter"",""1"",""2592""
","
","
","""event"",""trial"",""time""
""fullscreenenter"",""1"",""2592""
","
","","4421.685000008438","","","","real_trial","2021-04-07 00:38:19.345","img/card_backs/set1/green.gif","0","250","1","",""
"casino-fixation","138","662394","0.0-25.0-0.34","A553","true","img/card_backs/set1/green.gif","img/card_backs/set1/purple.gif","img/card_backs/set1/yellow.gif","img/card_backs/set1/red.gif","img/card_backs/set2/blue.gif","img/card_backs/set2/orange.gif","img/card_backs/set2/gray.gif","img/card_backs/set2/pink.gif","""event"",""trial"",""time""
""fullscreenenter"",""1"",""2592""
","
","
","""event"",""trial"",""time""
""fullscreenenter"",""1"",""2592""
","
","","null","","null","","fixation","2021-04-07 00:38:19.848","","","","","",""
"card-selection-trial","139","665943","0.0-25.0-1.34","A553","true","img/card_backs/set1/green.gif","img/card_backs/set1/purple.gif","img/card_backs/set1/yellow.gif","img/card_backs/set1/red.gif","img/card_backs/set2/blue.gif","img/card_backs/set2/orange.gif","img/card_backs/set2/gray.gif","img/card_backs/set2/pink.gif","""event"",""trial"",""time""
""fullscreenenter"",""1"",""2592""
","
","
","""event"",""trial"",""time""
""fullscreenenter"",""1"",""2592""
","
","","1539.7499999962747","","","","real_trial","2021-04-07 00:38:23.396","img/card_backs/set1/yellow.gif","2","-90","1","",""
"casino-fixation","140","666446","0.0-25.0-0.35","A553","true","img/card_backs/set1/green.gif","img/card_backs/set1/purple.gif","img/card_backs/set1/yellow.gif","img/card_backs/set1/red.gif","img/card_backs/set2/blue.gif","img/card_backs/set2/orange.gif","img/card_backs/set2/gray.gif","img/card_backs/set2/pink.gif","""event"",""trial"",""time""
""fullscreenenter"",""1"",""2592""
","
","
","""event"",""trial"",""time""
""fullscreenenter"",""1"",""2592""
","
","","null","","null","","fixation","2021-04-07 00:38:23.899","","","","","",""
"card-selection-trial","141","670132","0.0-25.0-1.35","A553","true","img/card_backs/set1/green.gif","img/card_backs/set1/purple.gif","img/card_backs/set1/yellow.gif","img/card_backs/set1/red.gif","img/card_backs/set2/blue.gif","img/card_backs/set2/orange.gif","img/card_backs/set2/gray.gif","img/card_backs/set2/pink.gif","""event"",""trial"",""time""
""fullscreenenter"",""1"",""2592""
","
","
","""event"",""trial"",""time""
""fullscreenenter"",""1"",""2592""
","
","","1677.4449999938952","","","","real_trial","2021-04-07 00:38:27.585","img/card_backs/set1/purple.gif","2","260","1","",""
"casino-fixation","142","670635","0.0-25.0-0.36","A553","true","img/card_backs/set1/green.gif","img/card_backs/set1/purple.gif","img/card_backs/set1/yellow.gif","img/card_backs/set1/red.gif","img/card_backs/set2/blue.gif","img/card_backs/set2/orange.gif","img/card_backs/set2/gray.gif","img/card_backs/set2/pink.gif","""event"",""trial"",""time""
""fullscreenenter"",""1"",""2592""
","
","
","""event"",""trial"",""time""
""fullscreenenter"",""1"",""2592""
","
","","null","","null","","fixation","2021-04-07 00:38:28.088","","","","","",""
"card-selection-trial","143","673388","0.0-25.0-1.36","A553","true","img/card_backs/set1/green.gif","img/card_backs/set1/purple.gif","img/card_backs/set1/yellow.gif","img/card_backs/set1/red.gif","img/card_backs/set2/blue.gif","img/card_backs/set2/orange.gif","img/card_backs/set2/gray.gif","img/card_backs/set2/pink.gif","""event"",""trial"",""time""
""fullscreenenter"",""1"",""2592""
","
","
","""event"",""trial"",""time""
""fullscreenenter"",""1"",""2592""
","
","","744.6449999988545","","","","real_trial","2021-04-07 00:38:30.842","img/card_backs/set1/red.gif","3","50","1","",""
"casino-fixation","144","673891","0.0-25.0-0.37","A553","true","img/card_backs/set1/green.gif","img/card_backs/set1/purple.gif","img/card_backs/set1/yellow.gif","img/card_backs/set1/red.gif","img/card_backs/set2/blue.gif","img/card_backs/set2/orange.gif","img/card_backs/set2/gray.gif","img/card_backs/set2/pink.gif","""event"",""trial"",""time""
""fullscreenenter"",""1"",""2592""
","
","
","""event"",""trial"",""time""
""fullscreenenter"",""1"",""2592""
","
","","null","","null","","fixation","2021-04-07 00:38:31.344","","","","","",""
"card-selection-trial","145","678367","0.0-25.0-1.37","A553","true","img/card_backs/set1/green.gif","img/card_backs/set1/purple.gif","img/card_backs/set1/yellow.gif","img/card_backs/set1/red.gif","img/card_backs/set2/blue.gif","img/card_backs/set2/orange.gif","img/card_backs/set2/gray.gif","img/card_backs/set2/pink.gif","""event"",""trial"",""time""
""fullscreenenter"",""1"",""2592""
","
","
","""event"",""trial"",""time""
""fullscreenenter"",""1"",""2592""
","
","","2467.384999996284","","","","real_trial","2021-04-07 00:38:35.820","img/card_backs/set1/green.gif","1","-190","1","",""
"casino-fixation","146","678871","0.0-25.0-0.38","A553","true","img/card_backs/set1/green.gif","img/card_backs/set1/purple.gif","img/card_backs/set1/yellow.gif","img/card_backs/set1/red.gif","img/card_backs/set2/blue.gif","img/card_backs/set2/orange.gif","img/card_backs/set2/gray.gif","img/card_backs/set2/pink.gif","""event"",""trial"",""time""
""fullscreenenter"",""1"",""2592""
","
","
","""event"",""trial"",""time""
""fullscreenenter"",""1"",""2592""
","
","","null","","null","","fixation","2021-04-07 00:38:36.324","","","","","",""
"card-selection-trial","147","682421","0.0-25.0-1.38","A553","true","img/card_backs/set1/green.gif","img/card_backs/set1/purple.gif","img/card_backs/set1/yellow.gif","img/card_backs/set1/red.gif","img/card_backs/set2/blue.gif","img/card_backs/set2/orange.gif","img/card_backs/set2/gray.gif","img/card_backs/set2/pink.gif","""event"",""trial"",""time""
""fullscreenenter"",""1"",""2592""
","
","
","""event"",""trial"",""time""
""fullscreenenter"",""1"",""2592""
","
","","1540.6199999997625","","","","real_trial","2021-04-07 00:38:39.874","img/card_backs/set1/yellow.gif","3","-90","1","",""
"casino-fixation","148","682923","0.0-25.0-0.39","A553","true","img/card_backs/set1/green.gif","img/card_backs/set1/purple.gif","img/card_backs/set1/yellow.gif","img/card_backs/set1/red.gif","img/card_backs/set2/blue.gif","img/card_backs/set2/orange.gif","img/card_backs/set2/gray.gif","img/card_backs/set2/pink.gif","""event"",""trial"",""time""
""fullscreenenter"",""1"",""2592""
","
","
","""event"",""trial"",""time""
""fullscreenenter"",""1"",""2592""
","
","","null","","null","","fixation","2021-04-07 00:38:40.377","","","","","",""
"card-selection-trial","149","687444","0.0-25.0-1.39","A553","true","img/card_backs/set1/green.gif","img/card_backs/set1/purple.gif","img/card_backs/set1/yellow.gif","img/card_backs/set1/red.gif","img/card_backs/set2/blue.gif","img/card_backs/set2/orange.gif","img/card_backs/set2/gray.gif","img/card_backs/set2/pink.gif","""event"",""trial"",""time""
""fullscreenenter"",""1"",""2592""
","
","
","""event"",""trial"",""time""
""fullscreenenter"",""1"",""2592""
","
","","2512.6000000018394","","","","real_trial","2021-04-07 00:38:44.898","img/card_backs/set1/purple.gif","2","-190","1","",""
"casino-fixation","150","687948","0.0-25.0-0.40","A553","true","img/card_backs/set1/green.gif","img/card_backs/set1/purple.gif","img/card_backs/set1/yellow.gif","img/card_backs/set1/red.gif","img/card_backs/set2/blue.gif","img/card_backs/set2/orange.gif","img/card_backs/set2/gray.gif","img/card_backs/set2/pink.gif","""event"",""trial"",""time""
""fullscreenenter"",""1"",""2592""
","
","
","""event"",""trial"",""time""
""fullscreenenter"",""1"",""2592""
","
","","null","","null","","fixation","2021-04-07 00:38:45.401","","","","","",""
"card-selection-trial","151","691431","0.0-25.0-1.40","A553","true","img/card_backs/set1/green.gif","img/card_backs/set1/purple.gif","img/card_backs/set1/yellow.gif","img/card_backs/set1/red.gif","img/card_backs/set2/blue.gif","img/card_backs/set2/orange.gif","img/card_backs/set2/gray.gif","img/card_backs/set2/pink.gif","""event"",""trial"",""time""
""fullscreenenter"",""1"",""2592""
","
","
","""event"",""trial"",""time""
""fullscreenenter"",""1"",""2592""
","
","","1474.7650000063004","","","","real_trial","2021-04-07 00:38:48.884","img/card_backs/set1/red.gif","0","50","1","",""
"casino-fixation","152","691934","0.0-25.0-0.41","A553","true","img/card_backs/set1/green.gif","img/card_backs/set1/purple.gif","img/card_backs/set1/yellow.gif","img/card_backs/set1/red.gif","img/card_backs/set2/blue.gif","img/card_backs/set2/orange.gif","img/card_backs/set2/gray.gif","img/card_backs/set2/pink.gif","""event"",""trial"",""time""
""fullscreenenter"",""1"",""2592""
","
","
","""event"",""trial"",""time""
""fullscreenenter"",""1"",""2592""
","
","","null","","null","","fixation","2021-04-07 00:38:49.387","","","","","",""
"card-selection-trial","153","695420","0.0-25.0-1.41","A553","true","img/card_backs/set1/green.gif","img/card_backs/set1/purple.gif","img/card_backs/set1/yellow.gif","img/card_backs/set1/red.gif","img/card_backs/set2/blue.gif","img/card_backs/set2/orange.gif","img/card_backs/set2/gray.gif","img/card_backs/set2/pink.gif","""event"",""trial"",""time""
""fullscreenenter"",""1"",""2592""
","
","
","""event"",""trial"",""time""
""fullscreenenter"",""1"",""2592""
","
","","1478.3900000038557","","","","real_trial","2021-04-07 00:38:52.874","img/card_backs/set1/green.gif","0","-210","1","",""
"casino-fixation","154","695923","0.0-25.0-0.42","A553","true","img/card_backs/set1/green.gif","img/card_backs/set1/purple.gif","img/card_backs/set1/yellow.gif","img/card_backs/set1/red.gif","img/card_backs/set2/blue.gif","img/card_backs/set2/orange.gif","img/card_backs/set2/gray.gif","img/card_backs/set2/pink.gif","""event"",""trial"",""time""
""fullscreenenter"",""1"",""2592""
","
","
","""event"",""trial"",""time""
""fullscreenenter"",""1"",""2592""
","
","","null","","null","","fixation","2021-04-07 00:38:53.377","","","","","",""
"card-selection-trial","155","699964","0.0-25.0-1.42","A553","true","img/card_backs/set1/green.gif","img/card_backs/set1/purple.gif","img/card_backs/set1/yellow.gif","img/card_backs/set1/red.gif","img/card_backs/set2/blue.gif","img/card_backs/set2/orange.gif","img/card_backs/set2/gray.gif","img/card_backs/set2/pink.gif","""event"",""trial"",""time""
""fullscreenenter"",""1"",""2592""
","
","
","""event"",""trial"",""time""
""fullscreenenter"",""1"",""2592""
","
","","2032.6100000092993","","","","real_trial","2021-04-07 00:38:57.418","img/card_backs/set1/yellow.gif","3","-110","1","",""
"casino-fixation","156","700467","0.0-25.0-0.43","A553","true","img/card_backs/set1/green.gif","img/card_backs/set1/purple.gif","img/card_backs/set1/yellow.gif","img/card_backs/set1/red.gif","img/card_backs/set2/blue.gif","img/card_backs/set2/orange.gif","img/card_backs/set2/gray.gif","img/card_backs/set2/pink.gif","""event"",""trial"",""time""
""fullscreenenter"",""1"",""2592""
","
","
","""event"",""trial"",""time""
""fullscreenenter"",""1"",""2592""
","
","","null","","null","","fixation","2021-04-07 00:38:57.921","","","","","",""
"card-selection-trial","157","704039","0.0-25.0-1.43","A553","true","img/card_backs/set1/green.gif","img/card_backs/set1/purple.gif","img/card_backs/set1/yellow.gif","img/card_backs/set1/red.gif","img/card_backs/set2/blue.gif","img/card_backs/set2/orange.gif","img/card_backs/set2/gray.gif","img/card_backs/set2/pink.gif","""event"",""trial"",""time""
""fullscreenenter"",""1"",""2592""
","
","
","""event"",""trial"",""time""
""fullscreenenter"",""1"",""2592""
","
","","1562.2500000026776","","","","real_trial","2021-04-07 00:39:01.492","img/card_backs/set1/purple.gif","3","260","1","",""
"casino-fixation","158","704542","0.0-25.0-0.44","A553","true","img/card_backs/set1/green.gif","img/card_backs/set1/purple.gif","img/card_backs/set1/yellow.gif","img/card_backs/set1/red.gif","img/card_backs/set2/blue.gif","img/card_backs/set2/orange.gif","img/card_backs/set2/gray.gif","img/card_backs/set2/pink.gif","""event"",""trial"",""time""
""fullscreenenter"",""1"",""2592""
","
","
","""event"",""trial"",""time""
""fullscreenenter"",""1"",""2592""
","
","","null","","null","","fixation","2021-04-07 00:39:01.995","","","","","",""
"card-selection-trial","159","708149","0.0-25.0-1.44","A553","true","img/card_backs/set1/green.gif","img/card_backs/set1/purple.gif","img/card_backs/set1/yellow.gif","img/card_backs/set1/red.gif","img/card_backs/set2/blue.gif","img/card_backs/set2/orange.gif","img/card_backs/set2/gray.gif","img/card_backs/set2/pink.gif","""event"",""trial"",""time""
""fullscreenenter"",""1"",""2592""
","
","
","""event"",""trial"",""time""
""fullscreenenter"",""1"",""2592""
","
","","1599.6250000025611","","","","real_trial","2021-04-07 00:39:05.602","img/card_backs/set1/red.gif","1","40","1","",""
"casino-fixation","160","708652","0.0-25.0-0.45","A553","true","img/card_backs/set1/green.gif","img/card_backs/set1/purple.gif","img/card_backs/set1/yellow.gif","img/card_backs/set1/red.gif","img/card_backs/set2/blue.gif","img/card_backs/set2/orange.gif","img/card_backs/set2/gray.gif","img/card_backs/set2/pink.gif","""event"",""trial"",""time""
""fullscreenenter"",""1"",""2592""
","
","
","""event"",""trial"",""time""
""fullscreenenter"",""1"",""2592""
","
","","null","","null","","fixation","2021-04-07 00:39:06.105","","","","","",""
"card-selection-trial","161","717048","0.0-25.0-1.45","A553","true","img/card_backs/set1/green.gif","img/card_backs/set1/purple.gif","img/card_backs/set1/yellow.gif","img/card_backs/set1/red.gif","img/card_backs/set2/blue.gif","img/card_backs/set2/orange.gif","img/card_backs/set2/gray.gif","img/card_backs/set2/pink.gif","""event"",""trial"",""time""
""fullscreenenter"",""1"",""2592""
","
","
","""event"",""trial"",""time""
""fullscreenenter"",""1"",""2592""
","
","","6387.22499999858","","","","real_trial","2021-04-07 00:39:14.501","img/card_backs/set1/green.gif","2","240","1","",""
"casino-fixation","162","717551","0.0-25.0-0.46","A553","true","img/card_backs/set1/green.gif","img/card_backs/set1/purple.gif","img/card_backs/set1/yellow.gif","img/card_backs/set1/red.gif","img/card_backs/set2/blue.gif","img/card_backs/set2/orange.gif","img/card_backs/set2/gray.gif","img/card_backs/set2/pink.gif","""event"",""trial"",""time""
""fullscreenenter"",""1"",""2592""
","
","
","""event"",""trial"",""time""
""fullscreenenter"",""1"",""2592""
","
","","null","","null","","fixation","2021-04-07 00:39:15.004","","","","","",""
"card-selection-trial","163","723117","0.0-25.0-1.46","A553","true","img/card_backs/set1/green.gif","img/card_backs/set1/purple.gif","img/card_backs/set1/yellow.gif","img/card_backs/set1/red.gif","img/card_backs/set2/blue.gif","img/card_backs/set2/orange.gif","img/card_backs/set2/gray.gif","img/card_backs/set2/pink.gif","""event"",""trial"",""time""
""fullscreenenter"",""1"",""2592""
","
","
","""event"",""trial"",""time""
""fullscreenenter"",""1"",""2592""
","
","","3556.864999991376","","","","real_trial","2021-04-07 00:39:20.570","img/card_backs/set1/yellow.gif","1","50","1","",""
"casino-fixation","164","723620","0.0-25.0-0.47","A553","true","img/card_backs/set1/green.gif","img/card_backs/set1/purple.gif","img/card_backs/set1/yellow.gif","img/card_backs/set1/red.gif","img/card_backs/set2/blue.gif","img/card_backs/set2/orange.gif","img/card_backs/set2/gray.gif","img/card_backs/set2/pink.gif","""event"",""trial"",""time""
""fullscreenenter"",""1"",""2592""
","
","
","""event"",""trial"",""time""
""fullscreenenter"",""1"",""2592""
","
","","null","","null","","fixation","2021-04-07 00:39:21.073","","","","","",""
"card-selection-trial","165","731464","0.0-25.0-1.47","A553","true","img/card_backs/set1/green.gif","img/card_backs/set1/purple.gif","img/card_backs/set1/yellow.gif","img/card_backs/set1/red.gif","img/card_backs/set2/blue.gif","img/card_backs/set2/orange.gif","img/card_backs/set2/gray.gif","img/card_backs/set2/pink.gif","""event"",""trial"",""time""
""fullscreenenter"",""1"",""2592""
","
","
","""event"",""trial"",""time""
""fullscreenenter"",""1"",""2592""
","
","","5835.550000003423","","","","real_trial","2021-04-07 00:39:28.918","img/card_backs/set1/purple.gif","1","240","1","",""
"casino-fixation","166","731967","0.0-25.0-0.48","A553","true","img/card_backs/set1/green.gif","img/card_backs/set1/purple.gif","img/card_backs/set1/yellow.gif","img/card_backs/set1/red.gif","img/card_backs/set2/blue.gif","img/card_backs/set2/orange.gif","img/card_backs/set2/gray.gif","img/card_backs/set2/pink.gif","""event"",""trial"",""time""
""fullscreenenter"",""1"",""2592""
","
","
","""event"",""trial"",""time""
""fullscreenenter"",""1"",""2592""
","
","","null","","null","","fixation","2021-04-07 00:39:29.421","","","","","",""
