"trial_type","trial_index","time_elapsed","internal_node_id","sub_id","risk_good_first","block1_A","block1_B","block1_C","block1_D","block2_A","block2_B","block2_C","block2_D","interactions","blur_events","focus_events","fullscreenenter_events","fullscreenexit_events","success","rt","stimulus","key_press","button_pressed","task_part","timestamp","card_choice","choice_position","points_earned","block","correct","response"
"pavlovia","0","4","0.0-0.0","A573","true","img/card_backs/set1/purple.gif","img/card_backs/set1/yellow.gif","img/card_backs/set1/red.gif","img/card_backs/set1/green.gif","img/card_backs/set2/pink.gif","img/card_backs/set2/gray.gif","img/card_backs/set2/blue.gif","img/card_backs/set2/orange.gif","""event"",""trial"",""time""
""fullscreenenter"",""1"",""10278""
","
","
","""event"",""trial"",""time""
""fullscreenenter"",""1"",""10278""
","
","","","","","","","","","","","","",""
"fullscreen","1","11253","0.0-1.0","A573","true","img/card_backs/set1/purple.gif","img/card_backs/set1/yellow.gif","img/card_backs/set1/red.gif","img/card_backs/set1/green.gif","img/card_backs/set2/pink.gif","img/card_backs/set2/gray.gif","img/card_backs/set2/blue.gif","img/card_backs/set2/orange.gif","""event"",""trial"",""time""
""fullscreenenter"",""1"",""10278""
","
","
","""event"",""trial"",""time""
""fullscreenenter"",""1"",""10278""
","
","true","","","","","","","","","","","",""
"audio-keyboard-response","2","13072","0.0-2.0","A573","true","img/card_backs/set1/purple.gif","img/card_backs/set1/yellow.gif","img/card_backs/set1/red.gif","img/card_backs/set1/green.gif","img/card_backs/set2/pink.gif","img/card_backs/set2/gray.gif","img/card_backs/set2/blue.gif","img/card_backs/set2/orange.gif","""event"",""trial"",""time""
""fullscreenenter"",""1"",""10278""
","
","
","""event"",""trial"",""time""
""fullscreenenter"",""1"",""10278""
","
","","1781","audio/beep_loop.wav","32","","","","","","","","",""
"audio-button-response","3","14641","0.0-3.0","A573","true","img/card_backs/set1/purple.gif","img/card_backs/set1/yellow.gif","img/card_backs/set1/red.gif","img/card_backs/set1/green.gif","img/card_backs/set2/pink.gif","img/card_backs/set2/gray.gif","img/card_backs/set2/blue.gif","img/card_backs/set2/orange.gif","""event"",""trial"",""time""
""fullscreenenter"",""1"",""10278""
","
","
","""event"",""trial"",""time""
""fullscreenenter"",""1"",""10278""
","
","","NaN","audio/turtle.mp3","","3","","","","","","","",""
"audio-button-response","4","16511","0.0-4.0","A573","true","img/card_backs/set1/purple.gif","img/card_backs/set1/yellow.gif","img/card_backs/set1/red.gif","img/card_backs/set1/green.gif","img/card_backs/set2/pink.gif","img/card_backs/set2/gray.gif","img/card_backs/set2/blue.gif","img/card_backs/set2/orange.gif","""event"",""trial"",""time""
""fullscreenenter"",""1"",""10278""
","
","
","""event"",""trial"",""time""
""fullscreenenter"",""1"",""10278""
","
","","NaN","audio/shark.mp3","","2","","","","","","","",""
"fullscreen","5","19266","0.0-5.0","A573","true","img/card_backs/set1/purple.gif","img/card_backs/set1/yellow.gif","img/card_backs/set1/red.gif","img/card_backs/set1/green.gif","img/card_backs/set2/pink.gif","img/card_backs/set2/gray.gif","img/card_backs/set2/blue.gif","img/card_backs/set2/orange.gif","""event"",""trial"",""time""
""fullscreenenter"",""1"",""10278""
","
","
","""event"",""trial"",""time""
""fullscreenenter"",""1"",""10278""
","
","true","","","","","","","","","","","",""
"casino-keyboard-response","6","22154","0.0-6.0-0.0","A573","true","img/card_backs/set1/purple.gif","img/card_backs/set1/yellow.gif","img/card_backs/set1/red.gif","img/card_backs/set1/green.gif","img/card_backs/set2/pink.gif","img/card_backs/set2/gray.gif","img/card_backs/set2/blue.gif","img/card_backs/set2/orange.gif","""event"",""trial"",""time""
""fullscreenenter"",""1"",""10278""
","
","
","""event"",""trial"",""time""
""fullscreenenter"",""1"",""10278""
","
","","2885.599999979604","Welcome to the casino!","71","","instructions","2021-04-12 13:05:14.482","","","","","",""
"casino-keyboard-response","7","32476","0.0-6.0-0.1","A573","true","img/card_backs/set1/purple.gif","img/card_backs/set1/yellow.gif","img/card_backs/set1/red.gif","img/card_backs/set1/green.gif","img/card_backs/set2/pink.gif","img/card_backs/set2/gray.gif","img/card_backs/set2/blue.gif","img/card_backs/set2/orange.gif","""event"",""trial"",""time""
""fullscreenenter"",""1"",""10278""
","
","
","""event"",""trial"",""time""
""fullscreenenter"",""1"",""10278""
","
","","10321.690000011586","Today you will be playing a game to earn tokens. </br> At the end of the experiment, you will be paid a bonus based on how many tokens you win. ","69","","instructions","2021-04-12 13:05:24.804","","","","","",""
"casino-keyboard-response","8","39754","0.0-6.0-0.2","A573","true","img/card_backs/set1/purple.gif","img/card_backs/set1/yellow.gif","img/card_backs/set1/red.gif","img/card_backs/set1/green.gif","img/card_backs/set2/pink.gif","img/card_backs/set2/gray.gif","img/card_backs/set2/blue.gif","img/card_backs/set2/orange.gif","""event"",""trial"",""time""
""fullscreenenter"",""1"",""10278""
","
","
","""event"",""trial"",""time""
""fullscreenenter"",""1"",""10278""
","
","","7277.5300000212155","On every turn, you will be shown four different decks of cards. </br> You need to select a card from one of the four decks.  ","75","","instructions","2021-04-12 13:05:32.083","","","","","",""
"casino-keyboard-response","9","44461","0.0-6.0-0.3","A573","true","img/card_backs/set1/purple.gif","img/card_backs/set1/yellow.gif","img/card_backs/set1/red.gif","img/card_backs/set1/green.gif","img/card_backs/set2/pink.gif","img/card_backs/set2/gray.gif","img/card_backs/set2/blue.gif","img/card_backs/set2/orange.gif","""event"",""trial"",""time""
""fullscreenenter"",""1"",""10278""
","
","
","""event"",""trial"",""time""
""fullscreenenter"",""1"",""10278""
","
","","4705.320000008214","On the next screen, you will see what the decks will look like. ","66","","instructions","2021-04-12 13:05:36.789","","","","","",""
"card-selection-trial","10","48465","0.0-7.0-0.0","A573","true","img/card_backs/set1/purple.gif","img/card_backs/set1/yellow.gif","img/card_backs/set1/red.gif","img/card_backs/set1/green.gif","img/card_backs/set2/pink.gif","img/card_backs/set2/gray.gif","img/card_backs/set2/blue.gif","img/card_backs/set2/orange.gif","""event"",""trial"",""time""
""fullscreenenter"",""1"",""10278""
","
","
","""event"",""trial"",""time""
""fullscreenenter"",""1"",""10278""
","
","","null","","","","practice","2021-04-12 13:05:40.793","null","null","null","0","",""
"casino-keyboard-response","11","55892","0.0-8.0-0.0","A573","true","img/card_backs/set1/purple.gif","img/card_backs/set1/yellow.gif","img/card_backs/set1/red.gif","img/card_backs/set1/green.gif","img/card_backs/set2/pink.gif","img/card_backs/set2/gray.gif","img/card_backs/set2/blue.gif","img/card_backs/set2/orange.gif","""event"",""trial"",""time""
""fullscreenenter"",""1"",""10278""
","
","
","""event"",""trial"",""time""
""fullscreenenter"",""1"",""10278""
","
","","7425.58999999892","You should pick a card from a deck using the '2', '4', '6', and '8' keys at the top of the keyboard.","85","","instructions","2021-04-12 13:05:48.220","","","","","",""
"casino-keyboard-response","12","60892","0.0-8.0-0.1","A573","true","img/card_backs/set1/purple.gif","img/card_backs/set1/yellow.gif","img/card_backs/set1/red.gif","img/card_backs/set1/green.gif","img/card_backs/set2/pink.gif","img/card_backs/set2/gray.gif","img/card_backs/set2/blue.gif","img/card_backs/set2/orange.gif","""event"",""trial"",""time""
""fullscreenenter"",""1"",""10278""
","
","
","""event"",""trial"",""time""
""fullscreenenter"",""1"",""10278""
","
","","4999.565000005532","Once you select a card, it will turn over and you will see how many tokens you earned.","83","","instructions","2021-04-12 13:05:53.220","","","","","",""
"casino-keyboard-response","13","80863","0.0-8.0-0.2","A573","true","img/card_backs/set1/purple.gif","img/card_backs/set1/yellow.gif","img/card_backs/set1/red.gif","img/card_backs/set1/green.gif","img/card_backs/set2/pink.gif","img/card_backs/set2/gray.gif","img/card_backs/set2/blue.gif","img/card_backs/set2/orange.gif","""event"",""trial"",""time""
""fullscreenenter"",""1"",""10278""
","
","
","""event"",""trial"",""time""
""fullscreenenter"",""1"",""10278""
","
","","19969.370000006165","Let's try practicing that! </br> First, try to put your fingers over the '2', '4', '6', and '8' keys. </br>  You can use whatever fingers are most comfortable for you. Try to find a comfortable position now. ","50","","instructions","2021-04-12 13:06:13.191","","","","","",""
"casino-keyboard-response","14","86631","0.0-8.0-0.3","A573","true","img/card_backs/set1/purple.gif","img/card_backs/set1/yellow.gif","img/card_backs/set1/red.gif","img/card_backs/set1/green.gif","img/card_backs/set2/pink.gif","img/card_backs/set2/gray.gif","img/card_backs/set2/blue.gif","img/card_backs/set2/orange.gif","""event"",""trial"",""time""
""fullscreenenter"",""1"",""10278""
","
","
","""event"",""trial"",""time""
""fullscreenenter"",""1"",""10278""
","
","","5767.485000018496","Okay ready? </br> On the next screen, press '2' to select the left deck. ","50","","instructions","2021-04-12 13:06:18.959","","","","","",""
"card-selection-trial","15","89959","0.0-9.0-0.0","A573","true","img/card_backs/set1/purple.gif","img/card_backs/set1/yellow.gif","img/card_backs/set1/red.gif","img/card_backs/set1/green.gif","img/card_backs/set2/pink.gif","img/card_backs/set2/gray.gif","img/card_backs/set2/blue.gif","img/card_backs/set2/orange.gif","""event"",""trial"",""time""
""fullscreenenter"",""1"",""10278""
","
","
","""event"",""trial"",""time""
""fullscreenenter"",""1"",""10278""
","
","","1316.2000000011176","","","","practice_card_selection","2021-04-12 13:06:22.287","img/practice_cards/backs/black.gif","0","-100","","",""
"casino-keyboard-response","16","95694","0.0-10.0-0.0","A573","true","img/card_backs/set1/purple.gif","img/card_backs/set1/yellow.gif","img/card_backs/set1/red.gif","img/card_backs/set1/green.gif","img/card_backs/set2/pink.gif","img/card_backs/set2/gray.gif","img/card_backs/set2/blue.gif","img/card_backs/set2/orange.gif","""event"",""trial"",""time""
""fullscreenenter"",""1"",""10278""
","
","
","""event"",""trial"",""time""
""fullscreenenter"",""1"",""10278""
","
","","5734.825000050478","Great! Now on the next screen, try pressing '6' to select the third deck.","54","","instructions","2021-04-12 13:06:28.023","","","","","",""
"card-selection-trial","17","98577","0.0-11.0-0.0","A573","true","img/card_backs/set1/purple.gif","img/card_backs/set1/yellow.gif","img/card_backs/set1/red.gif","img/card_backs/set1/green.gif","img/card_backs/set2/pink.gif","img/card_backs/set2/gray.gif","img/card_backs/set2/blue.gif","img/card_backs/set2/orange.gif","""event"",""trial"",""time""
""fullscreenenter"",""1"",""10278""
","
","
","""event"",""trial"",""time""
""fullscreenenter"",""1"",""10278""
","
","","876.6699999687262","","","","practice_card_selection","2021-04-12 13:06:30.905","img/practice_cards/backs/black.gif","2","100","","",""
"casino-keyboard-response","18","103145","0.0-12.0-0.0","A573","true","img/card_backs/set1/purple.gif","img/card_backs/set1/yellow.gif","img/card_backs/set1/red.gif","img/card_backs/set1/green.gif","img/card_backs/set2/pink.gif","img/card_backs/set2/gray.gif","img/card_backs/set2/blue.gif","img/card_backs/set2/orange.gif","""event"",""trial"",""time""
""fullscreenenter"",""1"",""10278""
","
","
","""event"",""trial"",""time""
""fullscreenenter"",""1"",""10278""
","
","","4566.560000006575","Now on the next screen, try pressing '4' to select the second deck.","52","","instructions","2021-04-12 13:06:35.473","","","","","",""
"card-selection-trial","19","105584","0.0-13.0-0.0","A573","true","img/card_backs/set1/purple.gif","img/card_backs/set1/yellow.gif","img/card_backs/set1/red.gif","img/card_backs/set1/green.gif","img/card_backs/set2/pink.gif","img/card_backs/set2/gray.gif","img/card_backs/set2/blue.gif","img/card_backs/set2/orange.gif","""event"",""trial"",""time""
""fullscreenenter"",""1"",""10278""
","
","
","""event"",""trial"",""time""
""fullscreenenter"",""1"",""10278""
","
","","433.4800000069663","","","","practice_card_selection","2021-04-12 13:06:37.912","img/practice_cards/backs/dark_green.gif","1","-200","","",""
"casino-keyboard-response","20","110121","0.0-14.0-0.0","A573","true","img/card_backs/set1/purple.gif","img/card_backs/set1/yellow.gif","img/card_backs/set1/red.gif","img/card_backs/set1/green.gif","img/card_backs/set2/pink.gif","img/card_backs/set2/gray.gif","img/card_backs/set2/blue.gif","img/card_backs/set2/orange.gif","""event"",""trial"",""time""
""fullscreenenter"",""1"",""10278""
","
","
","""event"",""trial"",""time""
""fullscreenenter"",""1"",""10278""
","
","","4536.090000008699","Finally, try pressing '8' to select the deck all the way on the right.","56","","instructions","2021-04-12 13:06:42.449","","","","","",""
"card-selection-trial","21","112519","0.0-15.0-0.0","A573","true","img/card_backs/set1/purple.gif","img/card_backs/set1/yellow.gif","img/card_backs/set1/red.gif","img/card_backs/set1/green.gif","img/card_backs/set2/pink.gif","img/card_backs/set2/gray.gif","img/card_backs/set2/blue.gif","img/card_backs/set2/orange.gif","""event"",""trial"",""time""
""fullscreenenter"",""1"",""10278""
","
","
","""event"",""trial"",""time""
""fullscreenenter"",""1"",""10278""
","
","","391.9150000438094","","","","practice_card_selection","2021-04-12 13:06:44.847","img/practice_cards/backs/black.gif","3","100","","",""
"casino-keyboard-response","22","116336","0.0-16.0-0.0","A573","true","img/card_backs/set1/purple.gif","img/card_backs/set1/yellow.gif","img/card_backs/set1/red.gif","img/card_backs/set1/green.gif","img/card_backs/set2/pink.gif","img/card_backs/set2/gray.gif","img/card_backs/set2/blue.gif","img/card_backs/set2/orange.gif","""event"",""trial"",""time""
""fullscreenenter"",""1"",""10278""
","
","
","""event"",""trial"",""time""
""fullscreenenter"",""1"",""10278""
","
","","3815.650000004098","Great! It seems like you are getting the hang of this.","80","","instructions","2021-04-12 13:06:48.664","","","","","",""
"casino-keyboard-response","23","123317","0.0-16.0-0.1","A573","true","img/card_backs/set1/purple.gif","img/card_backs/set1/yellow.gif","img/card_backs/set1/red.gif","img/card_backs/set1/green.gif","img/card_backs/set2/pink.gif","img/card_backs/set2/gray.gif","img/card_backs/set2/blue.gif","img/card_backs/set2/orange.gif","""event"",""trial"",""time""
""fullscreenenter"",""1"",""10278""
","
","
","""event"",""trial"",""time""
""fullscreenenter"",""1"",""10278""
","
","","6980.110000004061","You may have noticed that some cards will cause you to <b> win </b> tokens while other cards will cause you to <b> lose </b>  tokens.","70","","instructions","2021-04-12 13:06:55.645","","","","","",""
"casino-keyboard-response","24","131680","0.0-16.0-0.2","A573","true","img/card_backs/set1/purple.gif","img/card_backs/set1/yellow.gif","img/card_backs/set1/red.gif","img/card_backs/set1/green.gif","img/card_backs/set2/pink.gif","img/card_backs/set2/gray.gif","img/card_backs/set2/blue.gif","img/card_backs/set2/orange.gif","""event"",""trial"",""time""
""fullscreenenter"",""1"",""10278""
","
","
","""event"",""trial"",""time""
""fullscreenenter"",""1"",""10278""
","
","","8362.495000008494","Each deck has a mix of cards that will cause you to win and lose tokens. </br> However, the cards in each colored deck are different.","73","","instructions","2021-04-12 13:07:04.008","","","","","",""
"casino-keyboard-response","25","141529","0.0-16.0-0.3","A573","true","img/card_backs/set1/purple.gif","img/card_backs/set1/yellow.gif","img/card_backs/set1/red.gif","img/card_backs/set1/green.gif","img/card_backs/set2/pink.gif","img/card_backs/set2/gray.gif","img/card_backs/set2/blue.gif","img/card_backs/set2/orange.gif","""event"",""trial"",""time""
""fullscreenenter"",""1"",""10278""
","
","
","""event"",""trial"",""time""
""fullscreenenter"",""1"",""10278""
","
","","9848.029999993742","Some colored decks are luckier than others. </br> If you choose the lucky decks, you will earn more tokens than if you choose the unlucky decks.","69","","instructions","2021-04-12 13:07:13.857","","","","","",""
"casino-keyboard-response","26","149160","0.0-16.0-0.4","A573","true","img/card_backs/set1/purple.gif","img/card_backs/set1/yellow.gif","img/card_backs/set1/red.gif","img/card_backs/set1/green.gif","img/card_backs/set2/pink.gif","img/card_backs/set2/gray.gif","img/card_backs/set2/blue.gif","img/card_backs/set2/orange.gif","""event"",""trial"",""time""
""fullscreenenter"",""1"",""10278""
","
","
","""event"",""trial"",""time""
""fullscreenenter"",""1"",""10278""
","
","","7629.925000015646","You should try to figure out which decks are lucky. </br> Then, try to choose the lucky decks so you can win the most tokens.","87","","instructions","2021-04-12 13:07:21.488","","","","","",""
"casino-keyboard-response","27","160512","0.0-16.0-0.5","A573","true","img/card_backs/set1/purple.gif","img/card_backs/set1/yellow.gif","img/card_backs/set1/red.gif","img/card_backs/set1/green.gif","img/card_backs/set2/pink.gif","img/card_backs/set2/gray.gif","img/card_backs/set2/blue.gif","img/card_backs/set2/orange.gif","""event"",""trial"",""time""
""fullscreenenter"",""1"",""10278""
","
","
","""event"",""trial"",""time""
""fullscreenenter"",""1"",""10278""
","
","","11351.364999951329","To make it trickier, the casino dealer will switch the locations of the decks on every turn. </br> The color of the deck determines how lucky it is. The location does not matter.","88","","instructions","2021-04-12 13:07:32.840","","","","","",""
"casino-keyboard-response","28","171649","0.0-16.0-0.6","A573","true","img/card_backs/set1/purple.gif","img/card_backs/set1/yellow.gif","img/card_backs/set1/red.gif","img/card_backs/set1/green.gif","img/card_backs/set2/pink.gif","img/card_backs/set2/gray.gif","img/card_backs/set2/blue.gif","img/card_backs/set2/orange.gif","""event"",""trial"",""time""
""fullscreenenter"",""1"",""10278""
","
","
","""event"",""trial"",""time""
""fullscreenenter"",""1"",""10278""
","
","","11135.834999964572","The mix of cards in each colored deck will stay the same throughout the game. </br> That means that a deck that is lucky early on will stay lucky.","79","","instructions","2021-04-12 13:07:43.977","","","","","",""
"casino-keyboard-response","29","179648","0.0-16.0-0.7","A573","true","img/card_backs/set1/purple.gif","img/card_backs/set1/yellow.gif","img/card_backs/set1/red.gif","img/card_backs/set1/green.gif","img/card_backs/set2/pink.gif","img/card_backs/set2/gray.gif","img/card_backs/set2/blue.gif","img/card_backs/set2/orange.gif","""event"",""trial"",""time""
""fullscreenenter"",""1"",""10278""
","
","
","""event"",""trial"",""time""
""fullscreenenter"",""1"",""10278""
","
","","7997.715000004973","Remember though, all the decks have a <b> mix </b> of both <b> good </b> and <b> bad </b> cards so it may take a couple of turns to figure out if a deck is lucky.","69","","instructions","2021-04-12 13:07:51.976","","","","","",""
"casino-keyboard-response","30","187830","0.0-16.0-0.8","A573","true","img/card_backs/set1/purple.gif","img/card_backs/set1/yellow.gif","img/card_backs/set1/red.gif","img/card_backs/set1/green.gif","img/card_backs/set2/pink.gif","img/card_backs/set2/gray.gif","img/card_backs/set2/blue.gif","img/card_backs/set2/orange.gif","""event"",""trial"",""time""
""fullscreenenter"",""1"",""10278""
","
","
","""event"",""trial"",""time""
""fullscreenenter"",""1"",""10278""
","
","","8181.7750000045635","At the end of the game, you will be paid bonus money based on how many tokens you win. </br> If you win more tokens, you will earn more money!","72","","instructions","2021-04-12 13:08:00.158","","","","","",""
"casino-keyboard-response","31","197797","0.0-16.0-0.9","A573","true","img/card_backs/set1/purple.gif","img/card_backs/set1/yellow.gif","img/card_backs/set1/red.gif","img/card_backs/set1/green.gif","img/card_backs/set2/pink.gif","img/card_backs/set2/gray.gif","img/card_backs/set2/blue.gif","img/card_backs/set2/orange.gif","""event"",""trial"",""time""
""fullscreenenter"",""1"",""10278""
","
","
","""event"",""trial"",""time""
""fullscreenenter"",""1"",""10278""
","
","","9965.349999954924","You will never <b> lose </b> money. </br> If you end up with fewer than 0 tokens, you will earn $0 of bonus money, but you will still be paid for playing the game.","83","","instructions","2021-04-12 13:08:10.125","","","","","",""
"casino-keyboard-response","32","201867","0.0-16.0-0.10","A573","true","img/card_backs/set1/purple.gif","img/card_backs/set1/yellow.gif","img/card_backs/set1/red.gif","img/card_backs/set1/green.gif","img/card_backs/set2/pink.gif","img/card_backs/set2/gray.gif","img/card_backs/set2/blue.gif","img/card_backs/set2/orange.gif","""event"",""trial"",""time""
""fullscreenenter"",""1"",""10278""
","
","
","""event"",""trial"",""time""
""fullscreenenter"",""1"",""10278""
","
","","4067.979999992531","You will have 10 seconds to make each choice.","82","","instructions","2021-04-12 13:08:14.195","","","","","",""
"casino-keyboard-response","33","210277","0.0-16.0-0.11","A573","true","img/card_backs/set1/purple.gif","img/card_backs/set1/yellow.gif","img/card_backs/set1/red.gif","img/card_backs/set1/green.gif","img/card_backs/set2/pink.gif","img/card_backs/set2/gray.gif","img/card_backs/set2/blue.gif","img/card_backs/set2/orange.gif","""event"",""trial"",""time""
""fullscreenenter"",""1"",""10278""
","
","
","""event"",""trial"",""time""
""fullscreenenter"",""1"",""10278""
","
","","8409.144999983255","Before you play the game for real, you will play with practice decks. </br> The tokens you earn during practice won't count toward your total.","86","","instructions","2021-04-12 13:08:22.605","","","","","",""
"casino-keyboard-response","34","219412","0.0-16.0-0.12","A573","true","img/card_backs/set1/purple.gif","img/card_backs/set1/yellow.gif","img/card_backs/set1/red.gif","img/card_backs/set1/green.gif","img/card_backs/set2/pink.gif","img/card_backs/set2/gray.gif","img/card_backs/set2/blue.gif","img/card_backs/set2/orange.gif","""event"",""trial"",""time""
""fullscreenenter"",""1"",""10278""
","
","
","""event"",""trial"",""time""
""fullscreenenter"",""1"",""10278""
","
","","9134.415000036824","Ready? Remember, use the '2', '4', '6', and '8' keys to select the decks. </br> Put your fingers on those keys now and then press '2' to begin.","50","","instructions","2021-04-12 13:08:31.740","","","","","",""
"casino-fixation","35","219915","0.0-17.0-0.0","A573","true","img/card_backs/set1/purple.gif","img/card_backs/set1/yellow.gif","img/card_backs/set1/red.gif","img/card_backs/set1/green.gif","img/card_backs/set2/pink.gif","img/card_backs/set2/gray.gif","img/card_backs/set2/blue.gif","img/card_backs/set2/orange.gif","""event"",""trial"",""time""
""fullscreenenter"",""1"",""10278""
","
","
","""event"",""trial"",""time""
""fullscreenenter"",""1"",""10278""
","
","","null","","null","","fixation","2021-04-12 13:08:32.243","","","","","",""
"card-selection-trial","36","222778","0.0-17.0-1.0","A573","true","img/card_backs/set1/purple.gif","img/card_backs/set1/yellow.gif","img/card_backs/set1/red.gif","img/card_backs/set1/green.gif","img/card_backs/set2/pink.gif","img/card_backs/set2/gray.gif","img/card_backs/set2/blue.gif","img/card_backs/set2/orange.gif","""event"",""trial"",""time""
""fullscreenenter"",""1"",""10278""
","
","
","""event"",""trial"",""time""
""fullscreenenter"",""1"",""10278""
","
","","858.4099999861792","","","","practice","2021-04-12 13:08:35.106","img/practice_cards/backs/brown.gif","1","-100","0","",""
"casino-fixation","37","223280","0.0-17.0-0.1","A573","true","img/card_backs/set1/purple.gif","img/card_backs/set1/yellow.gif","img/card_backs/set1/red.gif","img/card_backs/set1/green.gif","img/card_backs/set2/pink.gif","img/card_backs/set2/gray.gif","img/card_backs/set2/blue.gif","img/card_backs/set2/orange.gif","""event"",""trial"",""time""
""fullscreenenter"",""1"",""10278""
","
","
","""event"",""trial"",""time""
""fullscreenenter"",""1"",""10278""
","
","","null","","null","","fixation","2021-04-12 13:08:35.608","","","","","",""
"card-selection-trial","38","226099","0.0-17.0-1.1","A573","true","img/card_backs/set1/purple.gif","img/card_backs/set1/yellow.gif","img/card_backs/set1/red.gif","img/card_backs/set1/green.gif","img/card_backs/set2/pink.gif","img/card_backs/set2/gray.gif","img/card_backs/set2/blue.gif","img/card_backs/set2/orange.gif","""event"",""trial"",""time""
""fullscreenenter"",""1"",""10278""
","
","
","""event"",""trial"",""time""
""fullscreenenter"",""1"",""10278""
","
","","813.3950000046752","","","","practice","2021-04-12 13:08:38.427","img/practice_cards/backs/dark_green.gif","1","200","0","",""
"casino-fixation","39","226600","0.0-17.0-0.2","A573","true","img/card_backs/set1/purple.gif","img/card_backs/set1/yellow.gif","img/card_backs/set1/red.gif","img/card_backs/set1/green.gif","img/card_backs/set2/pink.gif","img/card_backs/set2/gray.gif","img/card_backs/set2/blue.gif","img/card_backs/set2/orange.gif","""event"",""trial"",""time""
""fullscreenenter"",""1"",""10278""
","
","
","""event"",""trial"",""time""
""fullscreenenter"",""1"",""10278""
","
","","null","","null","","fixation","2021-04-12 13:08:38.928","","","","","",""
"card-selection-trial","40","228860","0.0-17.0-1.2","A573","true","img/card_backs/set1/purple.gif","img/card_backs/set1/yellow.gif","img/card_backs/set1/red.gif","img/card_backs/set1/green.gif","img/card_backs/set2/pink.gif","img/card_backs/set2/gray.gif","img/card_backs/set2/blue.gif","img/card_backs/set2/orange.gif","""event"",""trial"",""time""
""fullscreenenter"",""1"",""10278""
","
","
","""event"",""trial"",""time""
""fullscreenenter"",""1"",""10278""
","
","","254.92999999551103","","","","practice","2021-04-12 13:08:41.188","img/practice_cards/backs/black.gif","1","100","0","",""
"casino-fixation","41","229361","0.0-17.0-0.3","A573","true","img/card_backs/set1/purple.gif","img/card_backs/set1/yellow.gif","img/card_backs/set1/red.gif","img/card_backs/set1/green.gif","img/card_backs/set2/pink.gif","img/card_backs/set2/gray.gif","img/card_backs/set2/blue.gif","img/card_backs/set2/orange.gif","""event"",""trial"",""time""
""fullscreenenter"",""1"",""10278""
","
","
","""event"",""trial"",""time""
""fullscreenenter"",""1"",""10278""
","
","","null","","null","","fixation","2021-04-12 13:08:41.689","","","","","",""
"card-selection-trial","42","231615","0.0-17.0-1.3","A573","true","img/card_backs/set1/purple.gif","img/card_backs/set1/yellow.gif","img/card_backs/set1/red.gif","img/card_backs/set1/green.gif","img/card_backs/set2/pink.gif","img/card_backs/set2/gray.gif","img/card_backs/set2/blue.gif","img/card_backs/set2/orange.gif","""event"",""trial"",""time""
""fullscreenenter"",""1"",""10278""
","
","
","""event"",""trial"",""time""
""fullscreenenter"",""1"",""10278""
","
","","250.04000001354143","","","","practice","2021-04-12 13:08:43.943","img/practice_cards/backs/dark_green.gif","1","200","0","",""
"casino-fixation","43","232116","0.0-17.0-0.4","A573","true","img/card_backs/set1/purple.gif","img/card_backs/set1/yellow.gif","img/card_backs/set1/red.gif","img/card_backs/set1/green.gif","img/card_backs/set2/pink.gif","img/card_backs/set2/gray.gif","img/card_backs/set2/blue.gif","img/card_backs/set2/orange.gif","""event"",""trial"",""time""
""fullscreenenter"",""1"",""10278""
","
","
","""event"",""trial"",""time""
""fullscreenenter"",""1"",""10278""
","
","","null","","null","","fixation","2021-04-12 13:08:44.444","","","","","",""
"card-selection-trial","44","234453","0.0-17.0-1.4","A573","true","img/card_backs/set1/purple.gif","img/card_backs/set1/yellow.gif","img/card_backs/set1/red.gif","img/card_backs/set1/green.gif","img/card_backs/set2/pink.gif","img/card_backs/set2/gray.gif","img/card_backs/set2/blue.gif","img/card_backs/set2/orange.gif","""event"",""trial"",""time""
""fullscreenenter"",""1"",""10278""
","
","
","""event"",""trial"",""time""
""fullscreenenter"",""1"",""10278""
","
","","331.7650000099093","","","","practice","2021-04-12 13:08:46.781","img/practice_cards/backs/black.gif","0","-100","0","",""
"casino-fixation","45","234954","0.0-17.0-0.5","A573","true","img/card_backs/set1/purple.gif","img/card_backs/set1/yellow.gif","img/card_backs/set1/red.gif","img/card_backs/set1/green.gif","img/card_backs/set2/pink.gif","img/card_backs/set2/gray.gif","img/card_backs/set2/blue.gif","img/card_backs/set2/orange.gif","""event"",""trial"",""time""
""fullscreenenter"",""1"",""10278""
","
","
","""event"",""trial"",""time""
""fullscreenenter"",""1"",""10278""
","
","","null","","null","","fixation","2021-04-12 13:08:47.282","","","","","",""
"card-selection-trial","46","237145","0.0-17.0-1.5","A573","true","img/card_backs/set1/purple.gif","img/card_backs/set1/yellow.gif","img/card_backs/set1/red.gif","img/card_backs/set1/green.gif","img/card_backs/set2/pink.gif","img/card_backs/set2/gray.gif","img/card_backs/set2/blue.gif","img/card_backs/set2/orange.gif","""event"",""trial"",""time""
""fullscreenenter"",""1"",""10278""
","
","
","""event"",""trial"",""time""
""fullscreenenter"",""1"",""10278""
","
","","186.40000000596046","","","","practice","2021-04-12 13:08:49.473","img/practice_cards/backs/black.gif","0","-100","0","",""
"casino-fixation","47","237646","0.0-17.0-0.6","A573","true","img/card_backs/set1/purple.gif","img/card_backs/set1/yellow.gif","img/card_backs/set1/red.gif","img/card_backs/set1/green.gif","img/card_backs/set2/pink.gif","img/card_backs/set2/gray.gif","img/card_backs/set2/blue.gif","img/card_backs/set2/orange.gif","""event"",""trial"",""time""
""fullscreenenter"",""1"",""10278""
","
","
","""event"",""trial"",""time""
""fullscreenenter"",""1"",""10278""
","
","","null","","null","","fixation","2021-04-12 13:08:49.974","","","","","",""
"card-selection-trial","48","239684","0.0-17.0-1.6","A573","true","img/card_backs/set1/purple.gif","img/card_backs/set1/yellow.gif","img/card_backs/set1/red.gif","img/card_backs/set1/green.gif","img/card_backs/set2/pink.gif","img/card_backs/set2/gray.gif","img/card_backs/set2/blue.gif","img/card_backs/set2/orange.gif","""event"",""trial"",""time""
""fullscreenenter"",""1"",""10278""
","
","
","""event"",""trial"",""time""
""fullscreenenter"",""1"",""10278""
","
","","32.25000004749745","","","","practice","2021-04-12 13:08:52.012","img/practice_cards/backs/dark_blue.gif","1","200","0","",""
"casino-fixation","49","240184","0.0-17.0-0.7","A573","true","img/card_backs/set1/purple.gif","img/card_backs/set1/yellow.gif","img/card_backs/set1/red.gif","img/card_backs/set1/green.gif","img/card_backs/set2/pink.gif","img/card_backs/set2/gray.gif","img/card_backs/set2/blue.gif","img/card_backs/set2/orange.gif","""event"",""trial"",""time""
""fullscreenenter"",""1"",""10278""
","
","
","""event"",""trial"",""time""
""fullscreenenter"",""1"",""10278""
","
","","null","","null","","fixation","2021-04-12 13:08:52.512","","","","","",""
"card-selection-trial","50","242221","0.0-17.0-1.7","A573","true","img/card_backs/set1/purple.gif","img/card_backs/set1/yellow.gif","img/card_backs/set1/red.gif","img/card_backs/set1/green.gif","img/card_backs/set2/pink.gif","img/card_backs/set2/gray.gif","img/card_backs/set2/blue.gif","img/card_backs/set2/orange.gif","""event"",""trial"",""time""
""fullscreenenter"",""1"",""10278""
","
","
","""event"",""trial"",""time""
""fullscreenenter"",""1"",""10278""
","
","","31.415000034030527","","","","practice","2021-04-12 13:08:54.549","img/practice_cards/backs/dark_green.gif","2","200","0","",""
"casino-fixation","51","242722","0.0-17.0-0.8","A573","true","img/card_backs/set1/purple.gif","img/card_backs/set1/yellow.gif","img/card_backs/set1/red.gif","img/card_backs/set1/green.gif","img/card_backs/set2/pink.gif","img/card_backs/set2/gray.gif","img/card_backs/set2/blue.gif","img/card_backs/set2/orange.gif","""event"",""trial"",""time""
""fullscreenenter"",""1"",""10278""
","
","
","""event"",""trial"",""time""
""fullscreenenter"",""1"",""10278""
","
","","null","","null","","fixation","2021-04-12 13:08:55.050","","","","","",""
"card-selection-trial","52","245036","0.0-17.0-1.8","A573","true","img/card_backs/set1/purple.gif","img/card_backs/set1/yellow.gif","img/card_backs/set1/red.gif","img/card_backs/set1/green.gif","img/card_backs/set2/pink.gif","img/card_backs/set2/gray.gif","img/card_backs/set2/blue.gif","img/card_backs/set2/orange.gif","""event"",""trial"",""time""
""fullscreenenter"",""1"",""10278""
","
","
","""event"",""trial"",""time""
""fullscreenenter"",""1"",""10278""
","
","","310.29499997384846","","","","practice","2021-04-12 13:08:57.364","img/practice_cards/backs/dark_blue.gif","3","-200","0","",""
"casino-fixation","53","245538","0.0-17.0-0.9","A573","true","img/card_backs/set1/purple.gif","img/card_backs/set1/yellow.gif","img/card_backs/set1/red.gif","img/card_backs/set1/green.gif","img/card_backs/set2/pink.gif","img/card_backs/set2/gray.gif","img/card_backs/set2/blue.gif","img/card_backs/set2/orange.gif","""event"",""trial"",""time""
""fullscreenenter"",""1"",""10278""
","
","
","""event"",""trial"",""time""
""fullscreenenter"",""1"",""10278""
","
","","null","","null","","fixation","2021-04-12 13:08:57.866","","","","","",""
"card-selection-trial","54","247818","0.0-17.0-1.9","A573","true","img/card_backs/set1/purple.gif","img/card_backs/set1/yellow.gif","img/card_backs/set1/red.gif","img/card_backs/set1/green.gif","img/card_backs/set2/pink.gif","img/card_backs/set2/gray.gif","img/card_backs/set2/blue.gif","img/card_backs/set2/orange.gif","""event"",""trial"",""time""
""fullscreenenter"",""1"",""10278""
","
","
","""event"",""trial"",""time""
""fullscreenenter"",""1"",""10278""
","
","","275.2650000038557","","","","practice","2021-04-12 13:09:00.146","img/practice_cards/backs/dark_green.gif","2","200","0","",""
"casino-keyboard-response","55","251430","0.0-18.0","A573","true","img/card_backs/set1/purple.gif","img/card_backs/set1/yellow.gif","img/card_backs/set1/red.gif","img/card_backs/set1/green.gif","img/card_backs/set2/pink.gif","img/card_backs/set2/gray.gif","img/card_backs/set2/blue.gif","img/card_backs/set2/orange.gif","""event"",""trial"",""time""
""fullscreenenter"",""1"",""10278""
","
","
","""event"",""trial"",""time""
""fullscreenenter"",""1"",""10278""
","
","","3611.700000008568","You earned 600 tokens during the practice round!","82","","","2021-04-12 13:09:03.759","","","","","",""
"casino-keyboard-response","56","255703","0.0-19.0-0.0","A573","true","img/card_backs/set1/purple.gif","img/card_backs/set1/yellow.gif","img/card_backs/set1/red.gif","img/card_backs/set1/green.gif","img/card_backs/set2/pink.gif","img/card_backs/set2/gray.gif","img/card_backs/set2/blue.gif","img/card_backs/set2/orange.gif","""event"",""trial"",""time""
""fullscreenenter"",""1"",""10278""
","
","
","""event"",""trial"",""time""
""fullscreenenter"",""1"",""10278""
","
","","4271.355000033509","Nice job! You are almost ready to play the real game.","86","","instructions","2021-04-12 13:09:08.031","","","","","",""
"casino-keyboard-response","57","262304","0.0-19.0-0.1","A573","true","img/card_backs/set1/purple.gif","img/card_backs/set1/yellow.gif","img/card_backs/set1/red.gif","img/card_backs/set1/green.gif","img/card_backs/set2/pink.gif","img/card_backs/set2/gray.gif","img/card_backs/set2/blue.gif","img/card_backs/set2/orange.gif","""event"",""trial"",""time""
""fullscreenenter"",""1"",""10278""
","
","
","""event"",""trial"",""time""
""fullscreenenter"",""1"",""10278""
","
","","6600.595000025351","You will play two rounds of the real game. In each round, you will pick 100 cards in total.","73","","instructions","2021-04-12 13:09:14.632","","","","","",""
"casino-keyboard-response","58","266257","0.0-19.0-0.2","A573","true","img/card_backs/set1/purple.gif","img/card_backs/set1/yellow.gif","img/card_backs/set1/red.gif","img/card_backs/set1/green.gif","img/card_backs/set2/pink.gif","img/card_backs/set2/gray.gif","img/card_backs/set2/blue.gif","img/card_backs/set2/orange.gif","""event"",""trial"",""time""
""fullscreenenter"",""1"",""10278""
","
","
","""event"",""trial"",""time""
""fullscreenenter"",""1"",""10278""
","
","","3951.4149999595247","We are now going to ask you some questions about how the game works.","66","","instructions","2021-04-12 13:09:18.585","","","","","",""
"casino-keyboard-response","59","272139","0.0-19.0-0.3","A573","true","img/card_backs/set1/purple.gif","img/card_backs/set1/yellow.gif","img/card_backs/set1/red.gif","img/card_backs/set1/green.gif","img/card_backs/set2/pink.gif","img/card_backs/set2/gray.gif","img/card_backs/set2/blue.gif","img/card_backs/set2/orange.gif","""event"",""trial"",""time""
""fullscreenenter"",""1"",""10278""
","
","
","""event"",""trial"",""time""
""fullscreenenter"",""1"",""10278""
","
","","5881.634999997914","Answer carefully. You will not be able to begin the game until you answer them correctly.","67","","instructions","2021-04-12 13:09:24.467","","","","","",""
"casino-comp_q","60","278112","0.0-20.0-0.0","A573","true","img/card_backs/set1/purple.gif","img/card_backs/set1/yellow.gif","img/card_backs/set1/red.gif","img/card_backs/set1/green.gif","img/card_backs/set2/pink.gif","img/card_backs/set2/gray.gif","img/card_backs/set2/blue.gif","img/card_backs/set2/orange.gif","""event"",""trial"",""time""
""fullscreenenter"",""1"",""10278""
","
","
","""event"",""trial"",""time""
""fullscreenenter"",""1"",""10278""
","
","","5971.309999993537","True or False: All the decks have some cards that cause you to win tokens and some cards that cause you to lose tokens.","84","","","2021-04-12 13:09:30.440","","","","","",""
"casino-keyboard-response","61","281381","0.0-20.0-1.0","A573","true","img/card_backs/set1/purple.gif","img/card_backs/set1/yellow.gif","img/card_backs/set1/red.gif","img/card_backs/set1/green.gif","img/card_backs/set2/pink.gif","img/card_backs/set2/gray.gif","img/card_backs/set2/blue.gif","img/card_backs/set2/orange.gif","""event"",""trial"",""time""
""fullscreenenter"",""1"",""10278""
","
","
","""event"",""trial"",""time""
""fullscreenenter"",""1"",""10278""
","
","","3268.3049999759533","True is correct! All the decks have a mix of winning and losing cards.","77","","","2021-04-12 13:09:33.709","","","","","true",""
"casino-comp_q","62","282093","0.0-21.0-0.0","A573","true","img/card_backs/set1/purple.gif","img/card_backs/set1/yellow.gif","img/card_backs/set1/red.gif","img/card_backs/set1/green.gif","img/card_backs/set2/pink.gif","img/card_backs/set2/gray.gif","img/card_backs/set2/blue.gif","img/card_backs/set2/orange.gif","""event"",""trial"",""time""
""fullscreenenter"",""1"",""10278""
","
","
","""event"",""trial"",""time""
""fullscreenenter"",""1"",""10278""
","
","","710.1350000011735","True or False: You will have as much time as you want to make your response.","17","","","2021-04-12 13:09:34.421","","","","","",""
"casino-keyboard-response","63","284864","0.0-21.0-1.0","A573","true","img/card_backs/set1/purple.gif","img/card_backs/set1/yellow.gif","img/card_backs/set1/red.gif","img/card_backs/set1/green.gif","img/card_backs/set2/pink.gif","img/card_backs/set2/gray.gif","img/card_backs/set2/blue.gif","img/card_backs/set2/orange.gif","""event"",""trial"",""time""
""fullscreenenter"",""1"",""10278""
","
","
","""event"",""trial"",""time""
""fullscreenenter"",""1"",""10278""
","
","","2770.23000002373","True is incorrect. You will only have 10 seconds to make each choice.","75","","","2021-04-12 13:09:37.192","","","","","false",""
"casino-comp_q","64","288670","0.0-21.1-0.1","A573","true","img/card_backs/set1/purple.gif","img/card_backs/set1/yellow.gif","img/card_backs/set1/red.gif","img/card_backs/set1/green.gif","img/card_backs/set2/pink.gif","img/card_backs/set2/gray.gif","img/card_backs/set2/blue.gif","img/card_backs/set2/orange.gif","""event"",""trial"",""time""
""fullscreenenter"",""1"",""10278""
","
","
","""event"",""trial"",""time""
""fullscreenenter"",""1"",""10278""
","
","","3805.464999983087","True or False: You will have as much time as you want to make your response.","70","","","2021-04-12 13:09:40.998","","","","","",""
"casino-keyboard-response","65","291221","0.0-21.1-1.1","A573","true","img/card_backs/set1/purple.gif","img/card_backs/set1/yellow.gif","img/card_backs/set1/red.gif","img/card_backs/set1/green.gif","img/card_backs/set2/pink.gif","img/card_backs/set2/gray.gif","img/card_backs/set2/blue.gif","img/card_backs/set2/orange.gif","""event"",""trial"",""time""
""fullscreenenter"",""1"",""10278""
","
","
","""event"",""trial"",""time""
""fullscreenenter"",""1"",""10278""
","
","","2549.6250000433065","False is correct! You will only have 10 seconds to make each choice.","75","","","2021-04-12 13:09:43.549","","","","","true",""
"casino-comp_q","66","295500","0.0-22.0-0.0","A573","true","img/card_backs/set1/purple.gif","img/card_backs/set1/yellow.gif","img/card_backs/set1/red.gif","img/card_backs/set1/green.gif","img/card_backs/set2/pink.gif","img/card_backs/set2/gray.gif","img/card_backs/set2/blue.gif","img/card_backs/set2/orange.gif","""event"",""trial"",""time""
""fullscreenenter"",""1"",""10278""
","
","
","""event"",""trial"",""time""
""fullscreenenter"",""1"",""10278""
","
","","4278.2850000076","True or False: The location of the deck determines how lucky it is.","70","","","2021-04-12 13:09:47.828","","","","","",""
"casino-keyboard-response","67","299482","0.0-22.0-1.0","A573","true","img/card_backs/set1/purple.gif","img/card_backs/set1/yellow.gif","img/card_backs/set1/red.gif","img/card_backs/set1/green.gif","img/card_backs/set2/pink.gif","img/card_backs/set2/gray.gif","img/card_backs/set2/blue.gif","img/card_backs/set2/orange.gif","""event"",""trial"",""time""
""fullscreenenter"",""1"",""10278""
","
","
","""event"",""trial"",""time""
""fullscreenenter"",""1"",""10278""
","
","","3981.3950000097975","False is correct! The <i>color</i>  of the deck determines how lucky or unlucky it is.","68","","","2021-04-12 13:09:51.810","","","","","true",""
"casino-keyboard-response","68","305028","0.0-23.0-0.0","A573","true","img/card_backs/set1/purple.gif","img/card_backs/set1/yellow.gif","img/card_backs/set1/red.gif","img/card_backs/set1/green.gif","img/card_backs/set2/pink.gif","img/card_backs/set2/gray.gif","img/card_backs/set2/blue.gif","img/card_backs/set2/orange.gif","""event"",""trial"",""time""
""fullscreenenter"",""1"",""10278""
","
","
","""event"",""trial"",""time""
""fullscreenenter"",""1"",""10278""
","
","","5544.50999997789","Great job! Now it's time to start the real game.","82","","instructions","2021-04-12 13:09:57.356","","","","","",""
"casino-keyboard-response","69","309920","0.0-23.0-0.1","A573","true","img/card_backs/set1/purple.gif","img/card_backs/set1/yellow.gif","img/card_backs/set1/red.gif","img/card_backs/set1/green.gif","img/card_backs/set2/pink.gif","img/card_backs/set2/gray.gif","img/card_backs/set2/blue.gif","img/card_backs/set2/orange.gif","""event"",""trial"",""time""
""fullscreenenter"",""1"",""10278""
","
","
","""event"",""trial"",""time""
""fullscreenenter"",""1"",""10278""
","
","","4891.475000011269","Before we start, we're going to head into a new room of the casino.","86","","instructions","2021-04-12 13:10:02.248","","","","","",""
"casino-keyboard-response","70","315941","0.0-24.0-0.0","A573","true","img/card_backs/set1/purple.gif","img/card_backs/set1/yellow.gif","img/card_backs/set1/red.gif","img/card_backs/set1/green.gif","img/card_backs/set2/pink.gif","img/card_backs/set2/gray.gif","img/card_backs/set2/blue.gif","img/card_backs/set2/orange.gif","""event"",""trial"",""time""
""fullscreenenter"",""1"",""10278""
","
","
","""event"",""trial"",""time""
""fullscreenenter"",""1"",""10278""
","
","","6019.58999998169","Here we are! The real game will use different cards, but the rules will be the same.","71","","instructions","2021-04-12 13:10:08.269","","","","","",""
"casino-keyboard-response","71","318057","0.0-24.0-0.1","A573","true","img/card_backs/set1/purple.gif","img/card_backs/set1/yellow.gif","img/card_backs/set1/red.gif","img/card_backs/set1/green.gif","img/card_backs/set2/pink.gif","img/card_backs/set2/gray.gif","img/card_backs/set2/blue.gif","img/card_backs/set2/orange.gif","""event"",""trial"",""time""
""fullscreenenter"",""1"",""10278""
","
","
","""event"",""trial"",""time""
""fullscreenenter"",""1"",""10278""
","
","","2115.265000029467","Ready? Put your fingers over the '2', '4', 6', and '8' keys so you are ready to play the game. </br> Then press 2 to start.","50","","instructions","2021-04-12 13:10:10.385","","","","","",""
"casino-fixation","72","318558","0.0-25.0-0.0","A573","true","img/card_backs/set1/purple.gif","img/card_backs/set1/yellow.gif","img/card_backs/set1/red.gif","img/card_backs/set1/green.gif","img/card_backs/set2/pink.gif","img/card_backs/set2/gray.gif","img/card_backs/set2/blue.gif","img/card_backs/set2/orange.gif","""event"",""trial"",""time""
""fullscreenenter"",""1"",""10278""
","
","
","""event"",""trial"",""time""
""fullscreenenter"",""1"",""10278""
","
","","null","","null","","fixation","2021-04-12 13:10:10.886","","","","","",""
"card-selection-trial","73","321082","0.0-25.0-1.0","A573","true","img/card_backs/set1/purple.gif","img/card_backs/set1/yellow.gif","img/card_backs/set1/red.gif","img/card_backs/set1/green.gif","img/card_backs/set2/pink.gif","img/card_backs/set2/gray.gif","img/card_backs/set2/blue.gif","img/card_backs/set2/orange.gif","""event"",""trial"",""time""
""fullscreenenter"",""1"",""10278""
","
","
","""event"",""trial"",""time""
""fullscreenenter"",""1"",""10278""
","
","","518.6400000238791","","","","real_trial","2021-04-12 13:10:13.410","img/card_backs/set1/yellow.gif","0","-200","1","",""
"casino-fixation","74","321583","0.0-25.0-0.1","A573","true","img/card_backs/set1/purple.gif","img/card_backs/set1/yellow.gif","img/card_backs/set1/red.gif","img/card_backs/set1/green.gif","img/card_backs/set2/pink.gif","img/card_backs/set2/gray.gif","img/card_backs/set2/blue.gif","img/card_backs/set2/orange.gif","""event"",""trial"",""time""
""fullscreenenter"",""1"",""10278""
","
","
","""event"",""trial"",""time""
""fullscreenenter"",""1"",""10278""
","
","","null","","null","","fixation","2021-04-12 13:10:13.911","","","","","",""
"card-selection-trial","75","323879","0.0-25.0-1.1","A573","true","img/card_backs/set1/purple.gif","img/card_backs/set1/yellow.gif","img/card_backs/set1/red.gif","img/card_backs/set1/green.gif","img/card_backs/set2/pink.gif","img/card_backs/set2/gray.gif","img/card_backs/set2/blue.gif","img/card_backs/set2/orange.gif","""event"",""trial"",""time""
""fullscreenenter"",""1"",""10278""
","
","
","""event"",""trial"",""time""
""fullscreenenter"",""1"",""10278""
","
","","291.04500001994893","","","","real_trial","2021-04-12 13:10:16.207","img/card_backs/set1/yellow.gif","1","240","1","",""
"casino-fixation","76","324381","0.0-25.0-0.2","A573","true","img/card_backs/set1/purple.gif","img/card_backs/set1/yellow.gif","img/card_backs/set1/red.gif","img/card_backs/set1/green.gif","img/card_backs/set2/pink.gif","img/card_backs/set2/gray.gif","img/card_backs/set2/blue.gif","img/card_backs/set2/orange.gif","""event"",""trial"",""time""
""fullscreenenter"",""1"",""10278""
","
","
","""event"",""trial"",""time""
""fullscreenenter"",""1"",""10278""
","
","","null","","null","","fixation","2021-04-12 13:10:16.709","","","","","",""
"card-selection-trial","77","326950","0.0-25.0-1.2","A573","true","img/card_backs/set1/purple.gif","img/card_backs/set1/yellow.gif","img/card_backs/set1/red.gif","img/card_backs/set1/green.gif","img/card_backs/set2/pink.gif","img/card_backs/set2/gray.gif","img/card_backs/set2/blue.gif","img/card_backs/set2/orange.gif","""event"",""trial"",""time""
""fullscreenenter"",""1"",""10278""
","
","
","""event"",""trial"",""time""
""fullscreenenter"",""1"",""10278""
","
","","564.7400000016205","","","","real_trial","2021-04-12 13:10:19.278","img/card_backs/set1/yellow.gif","2","-190","1","",""
"casino-fixation","78","327452","0.0-25.0-0.3","A573","true","img/card_backs/set1/purple.gif","img/card_backs/set1/yellow.gif","img/card_backs/set1/red.gif","img/card_backs/set1/green.gif","img/card_backs/set2/pink.gif","img/card_backs/set2/gray.gif","img/card_backs/set2/blue.gif","img/card_backs/set2/orange.gif","""event"",""trial"",""time""
""fullscreenenter"",""1"",""10278""
","
","
","""event"",""trial"",""time""
""fullscreenenter"",""1"",""10278""
","
","","null","","null","","fixation","2021-04-12 13:10:19.780","","","","","",""
"card-selection-trial","79","329696","0.0-25.0-1.3","A573","true","img/card_backs/set1/purple.gif","img/card_backs/set1/yellow.gif","img/card_backs/set1/red.gif","img/card_backs/set1/green.gif","img/card_backs/set2/pink.gif","img/card_backs/set2/gray.gif","img/card_backs/set2/blue.gif","img/card_backs/set2/orange.gif","""event"",""trial"",""time""
""fullscreenenter"",""1"",""10278""
","
","
","""event"",""trial"",""time""
""fullscreenenter"",""1"",""10278""
","
","","238.84499998530373","","","","real_trial","2021-04-12 13:10:22.024","img/card_backs/set1/purple.gif","3","-190","1","",""
"casino-fixation","80","330197","0.0-25.0-0.4","A573","true","img/card_backs/set1/purple.gif","img/card_backs/set1/yellow.gif","img/card_backs/set1/red.gif","img/card_backs/set1/green.gif","img/card_backs/set2/pink.gif","img/card_backs/set2/gray.gif","img/card_backs/set2/blue.gif","img/card_backs/set2/orange.gif","""event"",""trial"",""time""
""fullscreenenter"",""1"",""10278""
","
","
","""event"",""trial"",""time""
""fullscreenenter"",""1"",""10278""
","
","","null","","null","","fixation","2021-04-12 13:10:22.525","","","","","",""
"card-selection-trial","81","332563","0.0-25.0-1.4","A573","true","img/card_backs/set1/purple.gif","img/card_backs/set1/yellow.gif","img/card_backs/set1/red.gif","img/card_backs/set1/green.gif","img/card_backs/set2/pink.gif","img/card_backs/set2/gray.gif","img/card_backs/set2/blue.gif","img/card_backs/set2/orange.gif","""event"",""trial"",""time""
""fullscreenenter"",""1"",""10278""
","
","
","""event"",""trial"",""time""
""fullscreenenter"",""1"",""10278""
","
","","360.9099999885075","","","","real_trial","2021-04-12 13:10:24.891","img/card_backs/set1/yellow.gif","1","240","1","",""
"casino-fixation","82","333064","0.0-25.0-0.5","A573","true","img/card_backs/set1/purple.gif","img/card_backs/set1/yellow.gif","img/card_backs/set1/red.gif","img/card_backs/set1/green.gif","img/card_backs/set2/pink.gif","img/card_backs/set2/gray.gif","img/card_backs/set2/blue.gif","img/card_backs/set2/orange.gif","""event"",""trial"",""time""
""fullscreenenter"",""1"",""10278""
","
","
","""event"",""trial"",""time""
""fullscreenenter"",""1"",""10278""
","
","","null","","null","","fixation","2021-04-12 13:10:25.392","","","","","",""
"card-selection-trial","83","335167","0.0-25.0-1.5","A573","true","img/card_backs/set1/purple.gif","img/card_backs/set1/yellow.gif","img/card_backs/set1/red.gif","img/card_backs/set1/green.gif","img/card_backs/set2/pink.gif","img/card_backs/set2/gray.gif","img/card_backs/set2/blue.gif","img/card_backs/set2/orange.gif","""event"",""trial"",""time""
""fullscreenenter"",""1"",""10278""
","
","
","""event"",""trial"",""time""
""fullscreenenter"",""1"",""10278""
","
","","99.00499996729195","","","","real_trial","2021-04-12 13:10:27.495","img/card_backs/set1/purple.gif","1","240","1","",""
"casino-fixation","84","335669","0.0-25.0-0.6","A573","true","img/card_backs/set1/purple.gif","img/card_backs/set1/yellow.gif","img/card_backs/set1/red.gif","img/card_backs/set1/green.gif","img/card_backs/set2/pink.gif","img/card_backs/set2/gray.gif","img/card_backs/set2/blue.gif","img/card_backs/set2/orange.gif","""event"",""trial"",""time""
""fullscreenenter"",""1"",""10278""
","
","
","""event"",""trial"",""time""
""fullscreenenter"",""1"",""10278""
","
","","null","","null","","fixation","2021-04-12 13:10:27.997","","","","","",""
"card-selection-trial","85","337739","0.0-25.0-1.6","A573","true","img/card_backs/set1/purple.gif","img/card_backs/set1/yellow.gif","img/card_backs/set1/red.gif","img/card_backs/set1/green.gif","img/card_backs/set2/pink.gif","img/card_backs/set2/gray.gif","img/card_backs/set2/blue.gif","img/card_backs/set2/orange.gif","""event"",""trial"",""time""
""fullscreenenter"",""1"",""10278""
","
","
","""event"",""trial"",""time""
""fullscreenenter"",""1"",""10278""
","
","","64.62499999906868","","","","real_trial","2021-04-12 13:10:30.067","img/card_backs/set1/red.gif","1","60","1","",""
"casino-fixation","86","338240","0.0-25.0-0.7","A573","true","img/card_backs/set1/purple.gif","img/card_backs/set1/yellow.gif","img/card_backs/set1/red.gif","img/card_backs/set1/green.gif","img/card_backs/set2/pink.gif","img/card_backs/set2/gray.gif","img/card_backs/set2/blue.gif","img/card_backs/set2/orange.gif","""event"",""trial"",""time""
""fullscreenenter"",""1"",""10278""
","
","
","""event"",""trial"",""time""
""fullscreenenter"",""1"",""10278""
","
","","null","","null","","fixation","2021-04-12 13:10:30.568","","","","","",""
"card-selection-trial","87","340550","0.0-25.0-1.7","A573","true","img/card_backs/set1/purple.gif","img/card_backs/set1/yellow.gif","img/card_backs/set1/red.gif","img/card_backs/set1/green.gif","img/card_backs/set2/pink.gif","img/card_backs/set2/gray.gif","img/card_backs/set2/blue.gif","img/card_backs/set2/orange.gif","""event"",""trial"",""time""
""fullscreenenter"",""1"",""10278""
","
","
","""event"",""trial"",""time""
""fullscreenenter"",""1"",""10278""
","
","","304.7050000168383","","","","real_trial","2021-04-12 13:10:32.878","img/card_backs/set1/red.gif","1","60","1","",""
"casino-fixation","88","341052","0.0-25.0-0.8","A573","true","img/card_backs/set1/purple.gif","img/card_backs/set1/yellow.gif","img/card_backs/set1/red.gif","img/card_backs/set1/green.gif","img/card_backs/set2/pink.gif","img/card_backs/set2/gray.gif","img/card_backs/set2/blue.gif","img/card_backs/set2/orange.gif","""event"",""trial"",""time""
""fullscreenenter"",""1"",""10278""
","
","
","""event"",""trial"",""time""
""fullscreenenter"",""1"",""10278""
","
","","null","","null","","fixation","2021-04-12 13:10:33.380","","","","","",""
"card-selection-trial","89","343296","0.0-25.0-1.8","A573","true","img/card_backs/set1/purple.gif","img/card_backs/set1/yellow.gif","img/card_backs/set1/red.gif","img/card_backs/set1/green.gif","img/card_backs/set2/pink.gif","img/card_backs/set2/gray.gif","img/card_backs/set2/blue.gif","img/card_backs/set2/orange.gif","""event"",""trial"",""time""
""fullscreenenter"",""1"",""10278""
","
","
","""event"",""trial"",""time""
""fullscreenenter"",""1"",""10278""
","
","","238.75999997835606","","","","real_trial","2021-04-12 13:10:35.624","img/card_backs/set1/red.gif","1","-110","1","",""
"casino-fixation","90","343798","0.0-25.0-0.9","A573","true","img/card_backs/set1/purple.gif","img/card_backs/set1/yellow.gif","img/card_backs/set1/red.gif","img/card_backs/set1/green.gif","img/card_backs/set2/pink.gif","img/card_backs/set2/gray.gif","img/card_backs/set2/blue.gif","img/card_backs/set2/orange.gif","""event"",""trial"",""time""
""fullscreenenter"",""1"",""10278""
","
","
","""event"",""trial"",""time""
""fullscreenenter"",""1"",""10278""
","
","","null","","null","","fixation","2021-04-12 13:10:36.126","","","","","",""
"card-selection-trial","91","346040","0.0-25.0-1.9","A573","true","img/card_backs/set1/purple.gif","img/card_backs/set1/yellow.gif","img/card_backs/set1/red.gif","img/card_backs/set1/green.gif","img/card_backs/set2/pink.gif","img/card_backs/set2/gray.gif","img/card_backs/set2/blue.gif","img/card_backs/set2/orange.gif","""event"",""trial"",""time""
""fullscreenenter"",""1"",""10278""
","
","
","""event"",""trial"",""time""
""fullscreenenter"",""1"",""10278""
","
","","236.4650000235997","","","","real_trial","2021-04-12 13:10:38.368","img/card_backs/set1/red.gif","1","40","1","",""
"casino-fixation","92","346541","0.0-25.0-0.10","A573","true","img/card_backs/set1/purple.gif","img/card_backs/set1/yellow.gif","img/card_backs/set1/red.gif","img/card_backs/set1/green.gif","img/card_backs/set2/pink.gif","img/card_backs/set2/gray.gif","img/card_backs/set2/blue.gif","img/card_backs/set2/orange.gif","""event"",""trial"",""time""
""fullscreenenter"",""1"",""10278""
","
","
","""event"",""trial"",""time""
""fullscreenenter"",""1"",""10278""
","
","","null","","null","","fixation","2021-04-12 13:10:38.869","","","","","",""
"card-selection-trial","93","348778","0.0-25.0-1.10","A573","true","img/card_backs/set1/purple.gif","img/card_backs/set1/yellow.gif","img/card_backs/set1/red.gif","img/card_backs/set1/green.gif","img/card_backs/set2/pink.gif","img/card_backs/set2/gray.gif","img/card_backs/set2/blue.gif","img/card_backs/set2/orange.gif","""event"",""trial"",""time""
""fullscreenenter"",""1"",""10278""
","
","
","""event"",""trial"",""time""
""fullscreenenter"",""1"",""10278""
","
","","232.62999998405576","","","","real_trial","2021-04-12 13:10:41.106","img/card_backs/set1/purple.gif","1","-210","1","",""
"casino-fixation","94","349279","0.0-25.0-0.11","A573","true","img/card_backs/set1/purple.gif","img/card_backs/set1/yellow.gif","img/card_backs/set1/red.gif","img/card_backs/set1/green.gif","img/card_backs/set2/pink.gif","img/card_backs/set2/gray.gif","img/card_backs/set2/blue.gif","img/card_backs/set2/orange.gif","""event"",""trial"",""time""
""fullscreenenter"",""1"",""10278""
","
","
","""event"",""trial"",""time""
""fullscreenenter"",""1"",""10278""
","
","","null","","null","","fixation","2021-04-12 13:10:41.607","","","","","",""
"card-selection-trial","95","351514","0.0-25.0-1.11","A573","true","img/card_backs/set1/purple.gif","img/card_backs/set1/yellow.gif","img/card_backs/set1/red.gif","img/card_backs/set1/green.gif","img/card_backs/set2/pink.gif","img/card_backs/set2/gray.gif","img/card_backs/set2/blue.gif","img/card_backs/set2/orange.gif","""event"",""trial"",""time""
""fullscreenenter"",""1"",""10278""
","
","
","""event"",""trial"",""time""
""fullscreenenter"",""1"",""10278""
","
","","231.13499995088205","","","","real_trial","2021-04-12 13:10:43.842","img/card_backs/set1/green.gif","1","-100","1","",""
"casino-fixation","96","352017","0.0-25.0-0.12","A573","true","img/card_backs/set1/purple.gif","img/card_backs/set1/yellow.gif","img/card_backs/set1/red.gif","img/card_backs/set1/green.gif","img/card_backs/set2/pink.gif","img/card_backs/set2/gray.gif","img/card_backs/set2/blue.gif","img/card_backs/set2/orange.gif","""event"",""trial"",""time""
""fullscreenenter"",""1"",""10278""
","
","
","""event"",""trial"",""time""
""fullscreenenter"",""1"",""10278""
","
","","null","","null","","fixation","2021-04-12 13:10:44.345","","","","","",""
"card-selection-trial","97","354234","0.0-25.0-1.12","A573","true","img/card_backs/set1/purple.gif","img/card_backs/set1/yellow.gif","img/card_backs/set1/red.gif","img/card_backs/set1/green.gif","img/card_backs/set2/pink.gif","img/card_backs/set2/gray.gif","img/card_backs/set2/blue.gif","img/card_backs/set2/orange.gif","""event"",""trial"",""time""
""fullscreenenter"",""1"",""10278""
","
","
","""event"",""trial"",""time""
""fullscreenenter"",""1"",""10278""
","
","","211.8250000057742","","","","real_trial","2021-04-12 13:10:46.562","img/card_backs/set1/purple.gif","1","240","1","",""
"casino-fixation","98","354735","0.0-25.0-0.13","A573","true","img/card_backs/set1/purple.gif","img/card_backs/set1/yellow.gif","img/card_backs/set1/red.gif","img/card_backs/set1/green.gif","img/card_backs/set2/pink.gif","img/card_backs/set2/gray.gif","img/card_backs/set2/blue.gif","img/card_backs/set2/orange.gif","""event"",""trial"",""time""
""fullscreenenter"",""1"",""10278""
","
","
","""event"",""trial"",""time""
""fullscreenenter"",""1"",""10278""
","
","","null","","null","","fixation","2021-04-12 13:10:47.063","","","","","",""
"card-selection-trial","99","356857","0.0-25.0-1.13","A573","true","img/card_backs/set1/purple.gif","img/card_backs/set1/yellow.gif","img/card_backs/set1/red.gif","img/card_backs/set1/green.gif","img/card_backs/set2/pink.gif","img/card_backs/set2/gray.gif","img/card_backs/set2/blue.gif","img/card_backs/set2/orange.gif","""event"",""trial"",""time""
""fullscreenenter"",""1"",""10278""
","
","
","""event"",""trial"",""time""
""fullscreenenter"",""1"",""10278""
","
","","117.995000036899","","","","real_trial","2021-04-12 13:10:49.185","img/card_backs/set1/purple.gif","1","250","1","",""
"casino-fixation","100","357359","0.0-25.0-0.14","A573","true","img/card_backs/set1/purple.gif","img/card_backs/set1/yellow.gif","img/card_backs/set1/red.gif","img/card_backs/set1/green.gif","img/card_backs/set2/pink.gif","img/card_backs/set2/gray.gif","img/card_backs/set2/blue.gif","img/card_backs/set2/orange.gif","""event"",""trial"",""time""
""fullscreenenter"",""1"",""10278""
","
","
","""event"",""trial"",""time""
""fullscreenenter"",""1"",""10278""
","
","","null","","null","","fixation","2021-04-12 13:10:49.687","","","","","",""
"card-selection-trial","101","359462","0.0-25.0-1.14","A573","true","img/card_backs/set1/purple.gif","img/card_backs/set1/yellow.gif","img/card_backs/set1/red.gif","img/card_backs/set1/green.gif","img/card_backs/set2/pink.gif","img/card_backs/set2/gray.gif","img/card_backs/set2/blue.gif","img/card_backs/set2/orange.gif","""event"",""trial"",""time""
""fullscreenenter"",""1"",""10278""
","
","
","""event"",""trial"",""time""
""fullscreenenter"",""1"",""10278""
","
","","98.84000004967675","","","","real_trial","2021-04-12 13:10:51.790","img/card_backs/set1/red.gif","1","50","1","",""
"casino-fixation","102","359964","0.0-25.0-0.15","A573","true","img/card_backs/set1/purple.gif","img/card_backs/set1/yellow.gif","img/card_backs/set1/red.gif","img/card_backs/set1/green.gif","img/card_backs/set2/pink.gif","img/card_backs/set2/gray.gif","img/card_backs/set2/blue.gif","img/card_backs/set2/orange.gif","""event"",""trial"",""time""
""fullscreenenter"",""1"",""10278""
","
","
","""event"",""trial"",""time""
""fullscreenenter"",""1"",""10278""
","
","","null","","null","","fixation","2021-04-12 13:10:52.292","","","","","",""
"card-selection-trial","103","362666","0.0-25.0-1.15","A573","true","img/card_backs/set1/purple.gif","img/card_backs/set1/yellow.gif","img/card_backs/set1/red.gif","img/card_backs/set1/green.gif","img/card_backs/set2/pink.gif","img/card_backs/set2/gray.gif","img/card_backs/set2/blue.gif","img/card_backs/set2/orange.gif","""event"",""trial"",""time""
""fullscreenenter"",""1"",""10278""
","
","
","""event"",""trial"",""time""
""fullscreenenter"",""1"",""10278""
","
","","696.570000029169","","","","real_trial","2021-04-12 13:10:54.994","img/card_backs/set1/purple.gif","1","260","1","",""
"casino-fixation","104","363167","0.0-25.0-0.16","A573","true","img/card_backs/set1/purple.gif","img/card_backs/set1/yellow.gif","img/card_backs/set1/red.gif","img/card_backs/set1/green.gif","img/card_backs/set2/pink.gif","img/card_backs/set2/gray.gif","img/card_backs/set2/blue.gif","img/card_backs/set2/orange.gif","""event"",""trial"",""time""
""fullscreenenter"",""1"",""10278""
","
","
","""event"",""trial"",""time""
""fullscreenenter"",""1"",""10278""
","
","","null","","null","","fixation","2021-04-12 13:10:55.495","","","","","",""
"card-selection-trial","105","365771","0.0-25.0-1.16","A573","true","img/card_backs/set1/purple.gif","img/card_backs/set1/yellow.gif","img/card_backs/set1/red.gif","img/card_backs/set1/green.gif","img/card_backs/set2/pink.gif","img/card_backs/set2/gray.gif","img/card_backs/set2/blue.gif","img/card_backs/set2/orange.gif","""event"",""trial"",""time""
""fullscreenenter"",""1"",""10278""
","
","
","""event"",""trial"",""time""
""fullscreenenter"",""1"",""10278""
","
","","598.5449999570847","","","","real_trial","2021-04-12 13:10:58.099","img/card_backs/set1/purple.gif","1","-210","1","",""
"casino-fixation","106","366272","0.0-25.0-0.17","A573","true","img/card_backs/set1/purple.gif","img/card_backs/set1/yellow.gif","img/card_backs/set1/red.gif","img/card_backs/set1/green.gif","img/card_backs/set2/pink.gif","img/card_backs/set2/gray.gif","img/card_backs/set2/blue.gif","img/card_backs/set2/orange.gif","""event"",""trial"",""time""
""fullscreenenter"",""1"",""10278""
","
","
","""event"",""trial"",""time""
""fullscreenenter"",""1"",""10278""
","
","","null","","null","","fixation","2021-04-12 13:10:58.601","","","","","",""
"card-selection-trial","107","369086","0.0-25.0-1.17","A573","true","img/card_backs/set1/purple.gif","img/card_backs/set1/yellow.gif","img/card_backs/set1/red.gif","img/card_backs/set1/green.gif","img/card_backs/set2/pink.gif","img/card_backs/set2/gray.gif","img/card_backs/set2/blue.gif","img/card_backs/set2/orange.gif","""event"",""trial"",""time""
""fullscreenenter"",""1"",""10278""
","
","
","""event"",""trial"",""time""
""fullscreenenter"",""1"",""10278""
","
","","809.1349999886006","","","","real_trial","2021-04-12 13:11:01.415","img/card_backs/set1/purple.gif","0","-200","1","",""
"casino-fixation","108","369588","0.0-25.0-0.18","A573","true","img/card_backs/set1/purple.gif","img/card_backs/set1/yellow.gif","img/card_backs/set1/red.gif","img/card_backs/set1/green.gif","img/card_backs/set2/pink.gif","img/card_backs/set2/gray.gif","img/card_backs/set2/blue.gif","img/card_backs/set2/orange.gif","""event"",""trial"",""time""
""fullscreenenter"",""1"",""10278""
","
","
","""event"",""trial"",""time""
""fullscreenenter"",""1"",""10278""
","
","","null","","null","","fixation","2021-04-12 13:11:01.916","","","","","",""
"card-selection-trial","109","372261","0.0-25.0-1.18","A573","true","img/card_backs/set1/purple.gif","img/card_backs/set1/yellow.gif","img/card_backs/set1/red.gif","img/card_backs/set1/green.gif","img/card_backs/set2/pink.gif","img/card_backs/set2/gray.gif","img/card_backs/set2/blue.gif","img/card_backs/set2/orange.gif","""event"",""trial"",""time""
""fullscreenenter"",""1"",""10278""
","
","
","""event"",""trial"",""time""
""fullscreenenter"",""1"",""10278""
","
","","668.5949999955483","","","","real_trial","2021-04-12 13:11:04.589","img/card_backs/set1/yellow.gif","1","-190","1","",""
"casino-fixation","110","372763","0.0-25.0-0.19","A573","true","img/card_backs/set1/purple.gif","img/card_backs/set1/yellow.gif","img/card_backs/set1/red.gif","img/card_backs/set1/green.gif","img/card_backs/set2/pink.gif","img/card_backs/set2/gray.gif","img/card_backs/set2/blue.gif","img/card_backs/set2/orange.gif","""event"",""trial"",""time""
""fullscreenenter"",""1"",""10278""
","
","
","""event"",""trial"",""time""
""fullscreenenter"",""1"",""10278""
","
","","null","","null","","fixation","2021-04-12 13:11:05.091","","","","","",""
"card-selection-trial","111","375316","0.0-25.0-1.19","A573","true","img/card_backs/set1/purple.gif","img/card_backs/set1/yellow.gif","img/card_backs/set1/red.gif","img/card_backs/set1/green.gif","img/card_backs/set2/pink.gif","img/card_backs/set2/gray.gif","img/card_backs/set2/blue.gif","img/card_backs/set2/orange.gif","""event"",""trial"",""time""
""fullscreenenter"",""1"",""10278""
","
","
","""event"",""trial"",""time""
""fullscreenenter"",""1"",""10278""
","
","","547.5899999728426","","","","real_trial","2021-04-12 13:11:07.644","img/card_backs/set1/purple.gif","1","250","1","",""
"casino-fixation","112","375817","0.0-25.0-0.20","A573","true","img/card_backs/set1/purple.gif","img/card_backs/set1/yellow.gif","img/card_backs/set1/red.gif","img/card_backs/set1/green.gif","img/card_backs/set2/pink.gif","img/card_backs/set2/gray.gif","img/card_backs/set2/blue.gif","img/card_backs/set2/orange.gif","""event"",""trial"",""time""
""fullscreenenter"",""1"",""10278""
","
","
","""event"",""trial"",""time""
""fullscreenenter"",""1"",""10278""
","
","","null","","null","","fixation","2021-04-12 13:11:08.146","","","","","",""
"card-selection-trial","113","378746","0.0-25.0-1.20","A573","true","img/card_backs/set1/purple.gif","img/card_backs/set1/yellow.gif","img/card_backs/set1/red.gif","img/card_backs/set1/green.gif","img/card_backs/set2/pink.gif","img/card_backs/set2/gray.gif","img/card_backs/set2/blue.gif","img/card_backs/set2/orange.gif","""event"",""trial"",""time""
""fullscreenenter"",""1"",""10278""
","
","
","""event"",""trial"",""time""
""fullscreenenter"",""1"",""10278""
","
","","922.6050000288524","","","","real_trial","2021-04-12 13:11:11.074","img/card_backs/set1/red.gif","3","-90","1","",""
"casino-fixation","114","379246","0.0-25.0-0.21","A573","true","img/card_backs/set1/purple.gif","img/card_backs/set1/yellow.gif","img/card_backs/set1/red.gif","img/card_backs/set1/green.gif","img/card_backs/set2/pink.gif","img/card_backs/set2/gray.gif","img/card_backs/set2/blue.gif","img/card_backs/set2/orange.gif","""event"",""trial"",""time""
""fullscreenenter"",""1"",""10278""
","
","
","""event"",""trial"",""time""
""fullscreenenter"",""1"",""10278""
","
","","null","","null","","fixation","2021-04-12 13:11:11.575","","","","","",""
"card-selection-trial","115","381641","0.0-25.0-1.21","A573","true","img/card_backs/set1/purple.gif","img/card_backs/set1/yellow.gif","img/card_backs/set1/red.gif","img/card_backs/set1/green.gif","img/card_backs/set2/pink.gif","img/card_backs/set2/gray.gif","img/card_backs/set2/blue.gif","img/card_backs/set2/orange.gif","""event"",""trial"",""time""
""fullscreenenter"",""1"",""10278""
","
","
","""event"",""trial"",""time""
""fullscreenenter"",""1"",""10278""
","
","","388.8499999884516","","","","real_trial","2021-04-12 13:11:13.969","img/card_backs/set1/purple.gif","1","-190","1","",""
"casino-fixation","116","382142","0.0-25.0-0.22","A573","true","img/card_backs/set1/purple.gif","img/card_backs/set1/yellow.gif","img/card_backs/set1/red.gif","img/card_backs/set1/green.gif","img/card_backs/set2/pink.gif","img/card_backs/set2/gray.gif","img/card_backs/set2/blue.gif","img/card_backs/set2/orange.gif","""event"",""trial"",""time""
""fullscreenenter"",""1"",""10278""
","
","
","""event"",""trial"",""time""
""fullscreenenter"",""1"",""10278""
","
","","null","","null","","fixation","2021-04-12 13:11:14.470","","","","","",""
"card-selection-trial","117","385029","0.0-25.0-1.22","A573","true","img/card_backs/set1/purple.gif","img/card_backs/set1/yellow.gif","img/card_backs/set1/red.gif","img/card_backs/set1/green.gif","img/card_backs/set2/pink.gif","img/card_backs/set2/gray.gif","img/card_backs/set2/blue.gif","img/card_backs/set2/orange.gif","""event"",""trial"",""time""
""fullscreenenter"",""1"",""10278""
","
","
","""event"",""trial"",""time""
""fullscreenenter"",""1"",""10278""
","
","","881.3950000330806","","","","real_trial","2021-04-12 13:11:17.357","img/card_backs/set1/green.gif","2","-110","1","",""
"casino-fixation","118","385530","0.0-25.0-0.23","A573","true","img/card_backs/set1/purple.gif","img/card_backs/set1/yellow.gif","img/card_backs/set1/red.gif","img/card_backs/set1/green.gif","img/card_backs/set2/pink.gif","img/card_backs/set2/gray.gif","img/card_backs/set2/blue.gif","img/card_backs/set2/orange.gif","""event"",""trial"",""time""
""fullscreenenter"",""1"",""10278""
","
","
","""event"",""trial"",""time""
""fullscreenenter"",""1"",""10278""
","
","","null","","null","","fixation","2021-04-12 13:11:17.858","","","","","",""
"card-selection-trial","119","388082","0.0-25.0-1.23","A573","true","img/card_backs/set1/purple.gif","img/card_backs/set1/yellow.gif","img/card_backs/set1/red.gif","img/card_backs/set1/green.gif","img/card_backs/set2/pink.gif","img/card_backs/set2/gray.gif","img/card_backs/set2/blue.gif","img/card_backs/set2/orange.gif","""event"",""trial"",""time""
""fullscreenenter"",""1"",""10278""
","
","
","""event"",""trial"",""time""
""fullscreenenter"",""1"",""10278""
","
","","548.5099999932572","","","","real_trial","2021-04-12 13:11:20.410","img/card_backs/set1/green.gif","2","40","1","",""
"casino-fixation","120","388583","0.0-25.0-0.24","A573","true","img/card_backs/set1/purple.gif","img/card_backs/set1/yellow.gif","img/card_backs/set1/red.gif","img/card_backs/set1/green.gif","img/card_backs/set2/pink.gif","img/card_backs/set2/gray.gif","img/card_backs/set2/blue.gif","img/card_backs/set2/orange.gif","""event"",""trial"",""time""
""fullscreenenter"",""1"",""10278""
","
","
","""event"",""trial"",""time""
""fullscreenenter"",""1"",""10278""
","
","","null","","null","","fixation","2021-04-12 13:11:20.911","","","","","",""
"card-selection-trial","121","392318","0.0-25.0-1.24","A573","true","img/card_backs/set1/purple.gif","img/card_backs/set1/yellow.gif","img/card_backs/set1/red.gif","img/card_backs/set1/green.gif","img/card_backs/set2/pink.gif","img/card_backs/set2/gray.gif","img/card_backs/set2/blue.gif","img/card_backs/set2/orange.gif","""event"",""trial"",""time""
""fullscreenenter"",""1"",""10278""
","
","
","""event"",""trial"",""time""
""fullscreenenter"",""1"",""10278""
","
","","1729.189999983646","","","","real_trial","2021-04-12 13:11:24.646","img/card_backs/set1/purple.gif","0","-200","1","",""
"casino-fixation","122","392819","0.0-25.0-0.25","A573","true","img/card_backs/set1/purple.gif","img/card_backs/set1/yellow.gif","img/card_backs/set1/red.gif","img/card_backs/set1/green.gif","img/card_backs/set2/pink.gif","img/card_backs/set2/gray.gif","img/card_backs/set2/blue.gif","img/card_backs/set2/orange.gif","""event"",""trial"",""time""
""fullscreenenter"",""1"",""10278""
","
","
","""event"",""trial"",""time""
""fullscreenenter"",""1"",""10278""
","
","","null","","null","","fixation","2021-04-12 13:11:25.147","","","","","",""
"card-selection-trial","123","395320","0.0-25.0-1.25","A573","true","img/card_backs/set1/purple.gif","img/card_backs/set1/yellow.gif","img/card_backs/set1/red.gif","img/card_backs/set1/green.gif","img/card_backs/set2/pink.gif","img/card_backs/set2/gray.gif","img/card_backs/set2/blue.gif","img/card_backs/set2/orange.gif","""event"",""trial"",""time""
""fullscreenenter"",""1"",""10278""
","
","
","""event"",""trial"",""time""
""fullscreenenter"",""1"",""10278""
","
","","496.32999999448657","","","","real_trial","2021-04-12 13:11:27.648","img/card_backs/set1/yellow.gif","1","240","1","",""
"casino-fixation","124","395821","0.0-25.0-0.26","A573","true","img/card_backs/set1/purple.gif","img/card_backs/set1/yellow.gif","img/card_backs/set1/red.gif","img/card_backs/set1/green.gif","img/card_backs/set2/pink.gif","img/card_backs/set2/gray.gif","img/card_backs/set2/blue.gif","img/card_backs/set2/orange.gif","""event"",""trial"",""time""
""fullscreenenter"",""1"",""10278""
","
","
","""event"",""trial"",""time""
""fullscreenenter"",""1"",""10278""
","
","","null","","null","","fixation","2021-04-12 13:11:28.149","","","","","",""
"card-selection-trial","125","398313","0.0-25.0-1.26","A573","true","img/card_backs/set1/purple.gif","img/card_backs/set1/yellow.gif","img/card_backs/set1/red.gif","img/card_backs/set1/green.gif","img/card_backs/set2/pink.gif","img/card_backs/set2/gray.gif","img/card_backs/set2/blue.gif","img/card_backs/set2/orange.gif","""event"",""trial"",""time""
""fullscreenenter"",""1"",""10278""
","
","
","""event"",""trial"",""time""
""fullscreenenter"",""1"",""10278""
","
","","485.87499995483086","","","","real_trial","2021-04-12 13:11:30.641","img/card_backs/set1/yellow.gif","3","250","1","",""
"casino-fixation","126","398814","0.0-25.0-0.27","A573","true","img/card_backs/set1/purple.gif","img/card_backs/set1/yellow.gif","img/card_backs/set1/red.gif","img/card_backs/set1/green.gif","img/card_backs/set2/pink.gif","img/card_backs/set2/gray.gif","img/card_backs/set2/blue.gif","img/card_backs/set2/orange.gif","""event"",""trial"",""time""
""fullscreenenter"",""1"",""10278""
","
","
","""event"",""trial"",""time""
""fullscreenenter"",""1"",""10278""
","
","","null","","null","","fixation","2021-04-12 13:11:31.143","","","","","",""
"card-selection-trial","127","401460","0.0-25.0-1.27","A573","true","img/card_backs/set1/purple.gif","img/card_backs/set1/yellow.gif","img/card_backs/set1/red.gif","img/card_backs/set1/green.gif","img/card_backs/set2/pink.gif","img/card_backs/set2/gray.gif","img/card_backs/set2/blue.gif","img/card_backs/set2/orange.gif","""event"",""trial"",""time""
""fullscreenenter"",""1"",""10278""
","
","
","""event"",""trial"",""time""
""fullscreenenter"",""1"",""10278""
","
","","640.4999999795109","","","","real_trial","2021-04-12 13:11:33.788","img/card_backs/set1/yellow.gif","2","250","1","",""
"casino-fixation","128","401961","0.0-25.0-0.28","A573","true","img/card_backs/set1/purple.gif","img/card_backs/set1/yellow.gif","img/card_backs/set1/red.gif","img/card_backs/set1/green.gif","img/card_backs/set2/pink.gif","img/card_backs/set2/gray.gif","img/card_backs/set2/blue.gif","img/card_backs/set2/orange.gif","""event"",""trial"",""time""
""fullscreenenter"",""1"",""10278""
","
","
","""event"",""trial"",""time""
""fullscreenenter"",""1"",""10278""
","
","","null","","null","","fixation","2021-04-12 13:11:34.289","","","","","",""
"card-selection-trial","129","404505","0.0-25.0-1.28","A573","true","img/card_backs/set1/purple.gif","img/card_backs/set1/yellow.gif","img/card_backs/set1/red.gif","img/card_backs/set1/green.gif","img/card_backs/set2/pink.gif","img/card_backs/set2/gray.gif","img/card_backs/set2/blue.gif","img/card_backs/set2/orange.gif","""event"",""trial"",""time""
""fullscreenenter"",""1"",""10278""
","
","
","""event"",""trial"",""time""
""fullscreenenter"",""1"",""10278""
","
","","538.2249999674968","","","","real_trial","2021-04-12 13:11:36.833","img/card_backs/set1/yellow.gif","3","250","1","",""
"casino-fixation","130","405006","0.0-25.0-0.29","A573","true","img/card_backs/set1/purple.gif","img/card_backs/set1/yellow.gif","img/card_backs/set1/red.gif","img/card_backs/set1/green.gif","img/card_backs/set2/pink.gif","img/card_backs/set2/gray.gif","img/card_backs/set2/blue.gif","img/card_backs/set2/orange.gif","""event"",""trial"",""time""
""fullscreenenter"",""1"",""10278""
","
","
","""event"",""trial"",""time""
""fullscreenenter"",""1"",""10278""
","
","","null","","null","","fixation","2021-04-12 13:11:37.334","","","","","",""
"card-selection-trial","131","408433","0.0-25.0-1.29","A573","true","img/card_backs/set1/purple.gif","img/card_backs/set1/yellow.gif","img/card_backs/set1/red.gif","img/card_backs/set1/green.gif","img/card_backs/set2/pink.gif","img/card_backs/set2/gray.gif","img/card_backs/set2/blue.gif","img/card_backs/set2/orange.gif","""event"",""trial"",""time""
""fullscreenenter"",""1"",""10278""
","
","
","""event"",""trial"",""time""
""fullscreenenter"",""1"",""10278""
","
","","1422.2249999875203","","","","real_trial","2021-04-12 13:11:40.761","img/card_backs/set1/yellow.gif","1","-210","1","",""
"casino-fixation","132","408935","0.0-25.0-0.30","A573","true","img/card_backs/set1/purple.gif","img/card_backs/set1/yellow.gif","img/card_backs/set1/red.gif","img/card_backs/set1/green.gif","img/card_backs/set2/pink.gif","img/card_backs/set2/gray.gif","img/card_backs/set2/blue.gif","img/card_backs/set2/orange.gif","""event"",""trial"",""time""
""fullscreenenter"",""1"",""10278""
","
","
","""event"",""trial"",""time""
""fullscreenenter"",""1"",""10278""
","
","","null","","null","","fixation","2021-04-12 13:11:41.263","","","","","",""
"card-selection-trial","133","411621","0.0-25.0-1.30","A573","true","img/card_backs/set1/purple.gif","img/card_backs/set1/yellow.gif","img/card_backs/set1/red.gif","img/card_backs/set1/green.gif","img/card_backs/set2/pink.gif","img/card_backs/set2/gray.gif","img/card_backs/set2/blue.gif","img/card_backs/set2/orange.gif","""event"",""trial"",""time""
""fullscreenenter"",""1"",""10278""
","
","
","""event"",""trial"",""time""
""fullscreenenter"",""1"",""10278""
","
","","680.4150000098161","","","","real_trial","2021-04-12 13:11:43.949","img/card_backs/set1/yellow.gif","1","250","1","",""
"casino-fixation","134","412122","0.0-25.0-0.31","A573","true","img/card_backs/set1/purple.gif","img/card_backs/set1/yellow.gif","img/card_backs/set1/red.gif","img/card_backs/set1/green.gif","img/card_backs/set2/pink.gif","img/card_backs/set2/gray.gif","img/card_backs/set2/blue.gif","img/card_backs/set2/orange.gif","""event"",""trial"",""time""
""fullscreenenter"",""1"",""10278""
","
","
","""event"",""trial"",""time""
""fullscreenenter"",""1"",""10278""
","
","","null","","null","","fixation","2021-04-12 13:11:44.450","","","","","",""
"card-selection-trial","135","414679","0.0-25.0-1.31","A573","true","img/card_backs/set1/purple.gif","img/card_backs/set1/yellow.gif","img/card_backs/set1/red.gif","img/card_backs/set1/green.gif","img/card_backs/set2/pink.gif","img/card_backs/set2/gray.gif","img/card_backs/set2/blue.gif","img/card_backs/set2/orange.gif","""event"",""trial"",""time""
""fullscreenenter"",""1"",""10278""
","
","
","""event"",""trial"",""time""
""fullscreenenter"",""1"",""10278""
","
","","552.4000000441447","","","","real_trial","2021-04-12 13:11:47.007","img/card_backs/set1/yellow.gif","0","240","1","",""
"casino-fixation","136","415181","0.0-25.0-0.32","A573","true","img/card_backs/set1/purple.gif","img/card_backs/set1/yellow.gif","img/card_backs/set1/red.gif","img/card_backs/set1/green.gif","img/card_backs/set2/pink.gif","img/card_backs/set2/gray.gif","img/card_backs/set2/blue.gif","img/card_backs/set2/orange.gif","""event"",""trial"",""time""
""fullscreenenter"",""1"",""10278""
","
","
","""event"",""trial"",""time""
""fullscreenenter"",""1"",""10278""
","
","","null","","null","","fixation","2021-04-12 13:11:47.509","","","","","",""
"card-selection-trial","137","417744","0.0-25.0-1.32","A573","true","img/card_backs/set1/purple.gif","img/card_backs/set1/yellow.gif","img/card_backs/set1/red.gif","img/card_backs/set1/green.gif","img/card_backs/set2/pink.gif","img/card_backs/set2/gray.gif","img/card_backs/set2/blue.gif","img/card_backs/set2/orange.gif","""event"",""trial"",""time""
""fullscreenenter"",""1"",""10278""
","
","
","""event"",""trial"",""time""
""fullscreenenter"",""1"",""10278""
","
","","557.3100000037812","","","","real_trial","2021-04-12 13:11:50.072","img/card_backs/set1/yellow.gif","0","-210","1","",""
"casino-fixation","138","418246","0.0-25.0-0.33","A573","true","img/card_backs/set1/purple.gif","img/card_backs/set1/yellow.gif","img/card_backs/set1/red.gif","img/card_backs/set1/green.gif","img/card_backs/set2/pink.gif","img/card_backs/set2/gray.gif","img/card_backs/set2/blue.gif","img/card_backs/set2/orange.gif","""event"",""trial"",""time""
""fullscreenenter"",""1"",""10278""
","
","
","""event"",""trial"",""time""
""fullscreenenter"",""1"",""10278""
","
","","null","","null","","fixation","2021-04-12 13:11:50.574","","","","","",""
"card-selection-trial","139","420776","0.0-25.0-1.33","A573","true","img/card_backs/set1/purple.gif","img/card_backs/set1/yellow.gif","img/card_backs/set1/red.gif","img/card_backs/set1/green.gif","img/card_backs/set2/pink.gif","img/card_backs/set2/gray.gif","img/card_backs/set2/blue.gif","img/card_backs/set2/orange.gif","""event"",""trial"",""time""
""fullscreenenter"",""1"",""10278""
","
","
","""event"",""trial"",""time""
""fullscreenenter"",""1"",""10278""
","
","","525.3650000086054","","","","real_trial","2021-04-12 13:11:53.104","img/card_backs/set1/yellow.gif","1","-190","1","",""
"casino-fixation","140","421277","0.0-25.0-0.34","A573","true","img/card_backs/set1/purple.gif","img/card_backs/set1/yellow.gif","img/card_backs/set1/red.gif","img/card_backs/set1/green.gif","img/card_backs/set2/pink.gif","img/card_backs/set2/gray.gif","img/card_backs/set2/blue.gif","img/card_backs/set2/orange.gif","""event"",""trial"",""time""
""fullscreenenter"",""1"",""10278""
","
","
","""event"",""trial"",""time""
""fullscreenenter"",""1"",""10278""
","
","","null","","null","","fixation","2021-04-12 13:11:53.605","","","","","",""
"card-selection-trial","141","423717","0.0-25.0-1.34","A573","true","img/card_backs/set1/purple.gif","img/card_backs/set1/yellow.gif","img/card_backs/set1/red.gif","img/card_backs/set1/green.gif","img/card_backs/set2/pink.gif","img/card_backs/set2/gray.gif","img/card_backs/set2/blue.gif","img/card_backs/set2/orange.gif","""event"",""trial"",""time""
""fullscreenenter"",""1"",""10278""
","
","
","""event"",""trial"",""time""
""fullscreenenter"",""1"",""10278""
","
","","435.7849999796599","","","","real_trial","2021-04-12 13:11:56.045","img/card_backs/set1/yellow.gif","1","240","1","",""
"casino-fixation","142","424218","0.0-25.0-0.35","A573","true","img/card_backs/set1/purple.gif","img/card_backs/set1/yellow.gif","img/card_backs/set1/red.gif","img/card_backs/set1/green.gif","img/card_backs/set2/pink.gif","img/card_backs/set2/gray.gif","img/card_backs/set2/blue.gif","img/card_backs/set2/orange.gif","""event"",""trial"",""time""
""fullscreenenter"",""1"",""10278""
","
","
","""event"",""trial"",""time""
""fullscreenenter"",""1"",""10278""
","
","","null","","null","","fixation","2021-04-12 13:11:56.546","","","","","",""
"card-selection-trial","143","426757","0.0-25.0-1.35","A573","true","img/card_backs/set1/purple.gif","img/card_backs/set1/yellow.gif","img/card_backs/set1/red.gif","img/card_backs/set1/green.gif","img/card_backs/set2/pink.gif","img/card_backs/set2/gray.gif","img/card_backs/set2/blue.gif","img/card_backs/set2/orange.gif","""event"",""trial"",""time""
""fullscreenenter"",""1"",""10278""
","
","
","""event"",""trial"",""time""
""fullscreenenter"",""1"",""10278""
","
","","534.174999978859","","","","real_trial","2021-04-12 13:11:59.085","img/card_backs/set1/yellow.gif","0","-200","1","",""
"casino-fixation","144","427258","0.0-25.0-0.36","A573","true","img/card_backs/set1/purple.gif","img/card_backs/set1/yellow.gif","img/card_backs/set1/red.gif","img/card_backs/set1/green.gif","img/card_backs/set2/pink.gif","img/card_backs/set2/gray.gif","img/card_backs/set2/blue.gif","img/card_backs/set2/orange.gif","""event"",""trial"",""time""
""fullscreenenter"",""1"",""10278""
","
","
","""event"",""trial"",""time""
""fullscreenenter"",""1"",""10278""
","
","","null","","null","","fixation","2021-04-12 13:11:59.586","","","","","",""
"card-selection-trial","145","429749","0.0-25.0-1.36","A573","true","img/card_backs/set1/purple.gif","img/card_backs/set1/yellow.gif","img/card_backs/set1/red.gif","img/card_backs/set1/green.gif","img/card_backs/set2/pink.gif","img/card_backs/set2/gray.gif","img/card_backs/set2/blue.gif","img/card_backs/set2/orange.gif","""event"",""trial"",""time""
""fullscreenenter"",""1"",""10278""
","
","
","""event"",""trial"",""time""
""fullscreenenter"",""1"",""10278""
","
","","486.2800000119023","","","","real_trial","2021-04-12 13:12:02.077","img/card_backs/set1/yellow.gif","1","-210","1","",""
"casino-fixation","146","430251","0.0-25.0-0.37","A573","true","img/card_backs/set1/purple.gif","img/card_backs/set1/yellow.gif","img/card_backs/set1/red.gif","img/card_backs/set1/green.gif","img/card_backs/set2/pink.gif","img/card_backs/set2/gray.gif","img/card_backs/set2/blue.gif","img/card_backs/set2/orange.gif","""event"",""trial"",""time""
""fullscreenenter"",""1"",""10278""
","
","
","""event"",""trial"",""time""
""fullscreenenter"",""1"",""10278""
","
","","null","","null","","fixation","2021-04-12 13:12:02.579","","","","","",""
"card-selection-trial","147","432649","0.0-25.0-1.37","A573","true","img/card_backs/set1/purple.gif","img/card_backs/set1/yellow.gif","img/card_backs/set1/red.gif","img/card_backs/set1/green.gif","img/card_backs/set2/pink.gif","img/card_backs/set2/gray.gif","img/card_backs/set2/blue.gif","img/card_backs/set2/orange.gif","""event"",""trial"",""time""
""fullscreenenter"",""1"",""10278""
","
","
","""event"",""trial"",""time""
""fullscreenenter"",""1"",""10278""
","
","","393.6950000352226","","","","real_trial","2021-04-12 13:12:04.977","img/card_backs/set1/yellow.gif","0","240","1","",""
"casino-fixation","148","433150","0.0-25.0-0.38","A573","true","img/card_backs/set1/purple.gif","img/card_backs/set1/yellow.gif","img/card_backs/set1/red.gif","img/card_backs/set1/green.gif","img/card_backs/set2/pink.gif","img/card_backs/set2/gray.gif","img/card_backs/set2/blue.gif","img/card_backs/set2/orange.gif","""event"",""trial"",""time""
""fullscreenenter"",""1"",""10278""
","
","
","""event"",""trial"",""time""
""fullscreenenter"",""1"",""10278""
","
","","null","","null","","fixation","2021-04-12 13:12:05.478","","","","","",""
"card-selection-trial","149","435806","0.0-25.0-1.38","A573","true","img/card_backs/set1/purple.gif","img/card_backs/set1/yellow.gif","img/card_backs/set1/red.gif","img/card_backs/set1/green.gif","img/card_backs/set2/pink.gif","img/card_backs/set2/gray.gif","img/card_backs/set2/blue.gif","img/card_backs/set2/orange.gif","""event"",""trial"",""time""
""fullscreenenter"",""1"",""10278""
","
","
","""event"",""trial"",""time""
""fullscreenenter"",""1"",""10278""
","
","","650.3050000173971","","","","real_trial","2021-04-12 13:12:08.134","img/card_backs/set1/yellow.gif","3","240","1","",""
"casino-fixation","150","436308","0.0-25.0-0.39","A573","true","img/card_backs/set1/purple.gif","img/card_backs/set1/yellow.gif","img/card_backs/set1/red.gif","img/card_backs/set1/green.gif","img/card_backs/set2/pink.gif","img/card_backs/set2/gray.gif","img/card_backs/set2/blue.gif","img/card_backs/set2/orange.gif","""event"",""trial"",""time""
""fullscreenenter"",""1"",""10278""
","
","
","""event"",""trial"",""time""
""fullscreenenter"",""1"",""10278""
","
","","null","","null","","fixation","2021-04-12 13:12:08.636","","","","","",""
"card-selection-trial","151","439033","0.0-25.0-1.39","A573","true","img/card_backs/set1/purple.gif","img/card_backs/set1/yellow.gif","img/card_backs/set1/red.gif","img/card_backs/set1/green.gif","img/card_backs/set2/pink.gif","img/card_backs/set2/gray.gif","img/card_backs/set2/blue.gif","img/card_backs/set2/orange.gif","""event"",""trial"",""time""
""fullscreenenter"",""1"",""10278""
","
","
","""event"",""trial"",""time""
""fullscreenenter"",""1"",""10278""
","
","","720.2650000108406","","","","real_trial","2021-04-12 13:12:11.361","img/card_backs/set1/yellow.gif","2","260","1","",""
"casino-fixation","152","439535","0.0-25.0-0.40","A573","true","img/card_backs/set1/purple.gif","img/card_backs/set1/yellow.gif","img/card_backs/set1/red.gif","img/card_backs/set1/green.gif","img/card_backs/set2/pink.gif","img/card_backs/set2/gray.gif","img/card_backs/set2/blue.gif","img/card_backs/set2/orange.gif","""event"",""trial"",""time""
""fullscreenenter"",""1"",""10278""
","
","
","""event"",""trial"",""time""
""fullscreenenter"",""1"",""10278""
","
","","null","","null","","fixation","2021-04-12 13:12:11.863","","","","","",""
"card-selection-trial","153","442003","0.0-25.0-1.40","A573","true","img/card_backs/set1/purple.gif","img/card_backs/set1/yellow.gif","img/card_backs/set1/red.gif","img/card_backs/set1/green.gif","img/card_backs/set2/pink.gif","img/card_backs/set2/gray.gif","img/card_backs/set2/blue.gif","img/card_backs/set2/orange.gif","""event"",""trial"",""time""
""fullscreenenter"",""1"",""10278""
","
","
","""event"",""trial"",""time""
""fullscreenenter"",""1"",""10278""
","
","","462.5450000166893","","","","real_trial","2021-04-12 13:12:14.331","img/card_backs/set1/yellow.gif","0","-190","1","",""
"casino-fixation","154","442505","0.0-25.0-0.41","A573","true","img/card_backs/set1/purple.gif","img/card_backs/set1/yellow.gif","img/card_backs/set1/red.gif","img/card_backs/set1/green.gif","img/card_backs/set2/pink.gif","img/card_backs/set2/gray.gif","img/card_backs/set2/blue.gif","img/card_backs/set2/orange.gif","""event"",""trial"",""time""
""fullscreenenter"",""1"",""10278""
","
","
","""event"",""trial"",""time""
""fullscreenenter"",""1"",""10278""
","
","","null","","null","","fixation","2021-04-12 13:12:14.833","","","","","",""
"card-selection-trial","155","444988","0.0-25.0-1.41","A573","true","img/card_backs/set1/purple.gif","img/card_backs/set1/yellow.gif","img/card_backs/set1/red.gif","img/card_backs/set1/green.gif","img/card_backs/set2/pink.gif","img/card_backs/set2/gray.gif","img/card_backs/set2/blue.gif","img/card_backs/set2/orange.gif","""event"",""trial"",""time""
""fullscreenenter"",""1"",""10278""
","
","
","""event"",""trial"",""time""
""fullscreenenter"",""1"",""10278""
","
","","478.60000003129244","","","","real_trial","2021-04-12 13:12:17.316","img/card_backs/set1/yellow.gif","3","-200","1","",""
"casino-fixation","156","445489","0.0-25.0-0.42","A573","true","img/card_backs/set1/purple.gif","img/card_backs/set1/yellow.gif","img/card_backs/set1/red.gif","img/card_backs/set1/green.gif","img/card_backs/set2/pink.gif","img/card_backs/set2/gray.gif","img/card_backs/set2/blue.gif","img/card_backs/set2/orange.gif","""event"",""trial"",""time""
""fullscreenenter"",""1"",""10278""
","
","
","""event"",""trial"",""time""
""fullscreenenter"",""1"",""10278""
","
","","null","","null","","fixation","2021-04-12 13:12:17.817","","","","","",""
"card-selection-trial","157","448245","0.0-25.0-1.42","A573","true","img/card_backs/set1/purple.gif","img/card_backs/set1/yellow.gif","img/card_backs/set1/red.gif","img/card_backs/set1/green.gif","img/card_backs/set2/pink.gif","img/card_backs/set2/gray.gif","img/card_backs/set2/blue.gif","img/card_backs/set2/orange.gif","""event"",""trial"",""time""
""fullscreenenter"",""1"",""10278""
","
","
","""event"",""trial"",""time""
""fullscreenenter"",""1"",""10278""
","
","","750.2049999893643","","","","real_trial","2021-04-12 13:12:20.573","img/card_backs/set1/yellow.gif","2","250","1","",""
"casino-fixation","158","448746","0.0-25.0-0.43","A573","true","img/card_backs/set1/purple.gif","img/card_backs/set1/yellow.gif","img/card_backs/set1/red.gif","img/card_backs/set1/green.gif","img/card_backs/set2/pink.gif","img/card_backs/set2/gray.gif","img/card_backs/set2/blue.gif","img/card_backs/set2/orange.gif","""event"",""trial"",""time""
""fullscreenenter"",""1"",""10278""
","
","
","""event"",""trial"",""time""
""fullscreenenter"",""1"",""10278""
","
","","null","","null","","fixation","2021-04-12 13:12:21.074","","","","","",""
"card-selection-trial","159","451093","0.0-25.0-1.43","A573","true","img/card_backs/set1/purple.gif","img/card_backs/set1/yellow.gif","img/card_backs/set1/red.gif","img/card_backs/set1/green.gif","img/card_backs/set2/pink.gif","img/card_backs/set2/gray.gif","img/card_backs/set2/blue.gif","img/card_backs/set2/orange.gif","""event"",""trial"",""time""
""fullscreenenter"",""1"",""10278""
","
","
","""event"",""trial"",""time""
""fullscreenenter"",""1"",""10278""
","
","","343.45499996561557","","","","real_trial","2021-04-12 13:12:23.421","img/card_backs/set1/green.gif","0","-110","1","",""
"casino-fixation","160","451595","0.0-25.0-0.44","A573","true","img/card_backs/set1/purple.gif","img/card_backs/set1/yellow.gif","img/card_backs/set1/red.gif","img/card_backs/set1/green.gif","img/card_backs/set2/pink.gif","img/card_backs/set2/gray.gif","img/card_backs/set2/blue.gif","img/card_backs/set2/orange.gif","""event"",""trial"",""time""
""fullscreenenter"",""1"",""10278""
","
","
","""event"",""trial"",""time""
""fullscreenenter"",""1"",""10278""
","
","","null","","null","","fixation","2021-04-12 13:12:23.923","","","","","",""
"card-selection-trial","161","454040","0.0-25.0-1.44","A573","true","img/card_backs/set1/purple.gif","img/card_backs/set1/yellow.gif","img/card_backs/set1/red.gif","img/card_backs/set1/green.gif","img/card_backs/set2/pink.gif","img/card_backs/set2/gray.gif","img/card_backs/set2/blue.gif","img/card_backs/set2/orange.gif","""event"",""trial"",""time""
""fullscreenenter"",""1"",""10278""
","
","
","""event"",""trial"",""time""
""fullscreenenter"",""1"",""10278""
","
","","440.30000001657754","","","","real_trial","2021-04-12 13:12:26.368","img/card_backs/set1/yellow.gif","1","-200","1","",""
"casino-fixation","162","454542","0.0-25.0-0.45","A573","true","img/card_backs/set1/purple.gif","img/card_backs/set1/yellow.gif","img/card_backs/set1/red.gif","img/card_backs/set1/green.gif","img/card_backs/set2/pink.gif","img/card_backs/set2/gray.gif","img/card_backs/set2/blue.gif","img/card_backs/set2/orange.gif","""event"",""trial"",""time""
""fullscreenenter"",""1"",""10278""
","
","
","""event"",""trial"",""time""
""fullscreenenter"",""1"",""10278""
","
","","null","","null","","fixation","2021-04-12 13:12:26.870","","","","","",""
"card-selection-trial","163","457015","0.0-25.0-1.45","A573","true","img/card_backs/set1/purple.gif","img/card_backs/set1/yellow.gif","img/card_backs/set1/red.gif","img/card_backs/set1/green.gif","img/card_backs/set2/pink.gif","img/card_backs/set2/gray.gif","img/card_backs/set2/blue.gif","img/card_backs/set2/orange.gif","""event"",""trial"",""time""
""fullscreenenter"",""1"",""10278""
","
","
","""event"",""trial"",""time""
""fullscreenenter"",""1"",""10278""
","
","","467.5649999990128","","","","real_trial","2021-04-12 13:12:29.343","img/card_backs/set1/yellow.gif","1","-190","1","",""
"casino-fixation","164","457516","0.0-25.0-0.46","A573","true","img/card_backs/set1/purple.gif","img/card_backs/set1/yellow.gif","img/card_backs/set1/red.gif","img/card_backs/set1/green.gif","img/card_backs/set2/pink.gif","img/card_backs/set2/gray.gif","img/card_backs/set2/blue.gif","img/card_backs/set2/orange.gif","""event"",""trial"",""time""
""fullscreenenter"",""1"",""10278""
","
","
","""event"",""trial"",""time""
""fullscreenenter"",""1"",""10278""
","
","","null","","null","","fixation","2021-04-12 13:12:29.844","","","","","",""
"card-selection-trial","165","460266","0.0-25.0-1.46","A573","true","img/card_backs/set1/purple.gif","img/card_backs/set1/yellow.gif","img/card_backs/set1/red.gif","img/card_backs/set1/green.gif","img/card_backs/set2/pink.gif","img/card_backs/set2/gray.gif","img/card_backs/set2/blue.gif","img/card_backs/set2/orange.gif","""event"",""trial"",""time""
""fullscreenenter"",""1"",""10278""
","
","
","""event"",""trial"",""time""
""fullscreenenter"",""1"",""10278""
","
","","745.0499999686144","","","","real_trial","2021-04-12 13:12:32.594","img/card_backs/set1/yellow.gif","3","260","1","",""
"casino-fixation","166","460769","0.0-25.0-0.47","A573","true","img/card_backs/set1/purple.gif","img/card_backs/set1/yellow.gif","img/card_backs/set1/red.gif","img/card_backs/set1/green.gif","img/card_backs/set2/pink.gif","img/card_backs/set2/gray.gif","img/card_backs/set2/blue.gif","img/card_backs/set2/orange.gif","""event"",""trial"",""time""
