"trial_type","trial_index","time_elapsed","internal_node_id","sub_id","risk_good_first","block1_A","block1_B","block1_C","block1_D","block2_A","block2_B","block2_C","block2_D","interactions","blur_events","focus_events","fullscreenenter_events","fullscreenexit_events","success","rt","stimulus","key_press","button_pressed","task_part","timestamp","card_choice","choice_position","points_earned","block","correct","response"
"pavlovia","0","3","0.0-0.0","459","true","img/card_backs/set1/yellow.gif","img/card_backs/set1/purple.gif","img/card_backs/set1/red.gif","img/card_backs/set1/green.gif","img/card_backs/set2/gray.gif","img/card_backs/set2/pink.gif","img/card_backs/set2/orange.gif","img/card_backs/set2/blue.gif","""event"",""trial"",""time""
""fullscreenenter"",""1"",""1607""
","
","
","""event"",""trial"",""time""
""fullscreenenter"",""1"",""1607""
","
","","","","","","","","","","","","",""
"fullscreen","1","2562","0.0-1.0","459","true","img/card_backs/set1/yellow.gif","img/card_backs/set1/purple.gif","img/card_backs/set1/red.gif","img/card_backs/set1/green.gif","img/card_backs/set2/gray.gif","img/card_backs/set2/pink.gif","img/card_backs/set2/orange.gif","img/card_backs/set2/blue.gif","""event"",""trial"",""time""
""fullscreenenter"",""1"",""1607""
","
","
","""event"",""trial"",""time""
""fullscreenenter"",""1"",""1607""
","
","true","","","","","","","","","","","",""
"audio-keyboard-response","2","3963","0.0-2.0","459","true","img/card_backs/set1/yellow.gif","img/card_backs/set1/purple.gif","img/card_backs/set1/red.gif","img/card_backs/set1/green.gif","img/card_backs/set2/gray.gif","img/card_backs/set2/pink.gif","img/card_backs/set2/orange.gif","img/card_backs/set2/blue.gif","""event"",""trial"",""time""
""fullscreenenter"",""1"",""1607""
","
","
","""event"",""trial"",""time""
""fullscreenenter"",""1"",""1607""
","
","","1355","audio/beep_loop.wav","32","","","","","","","","",""
"audio-button-response","3","24942","0.0-3.0","459","true","img/card_backs/set1/yellow.gif","img/card_backs/set1/purple.gif","img/card_backs/set1/red.gif","img/card_backs/set1/green.gif","img/card_backs/set2/gray.gif","img/card_backs/set2/pink.gif","img/card_backs/set2/orange.gif","img/card_backs/set2/blue.gif","""event"",""trial"",""time""
""fullscreenenter"",""1"",""1607""
","
","
","""event"",""trial"",""time""
""fullscreenenter"",""1"",""1607""
","
","","NaN","audio/turtle.mp3","","3","","","","","","","",""
"audio-button-response","4","27057","0.0-4.0","459","true","img/card_backs/set1/yellow.gif","img/card_backs/set1/purple.gif","img/card_backs/set1/red.gif","img/card_backs/set1/green.gif","img/card_backs/set2/gray.gif","img/card_backs/set2/pink.gif","img/card_backs/set2/orange.gif","img/card_backs/set2/blue.gif","""event"",""trial"",""time""
""fullscreenenter"",""1"",""1607""
","
","
","""event"",""trial"",""time""
""fullscreenenter"",""1"",""1607""
","
","","NaN","audio/shark.mp3","","2","","","","","","","",""
"fullscreen","5","30260","0.0-5.0","459","true","img/card_backs/set1/yellow.gif","img/card_backs/set1/purple.gif","img/card_backs/set1/red.gif","img/card_backs/set1/green.gif","img/card_backs/set2/gray.gif","img/card_backs/set2/pink.gif","img/card_backs/set2/orange.gif","img/card_backs/set2/blue.gif","""event"",""trial"",""time""
""fullscreenenter"",""1"",""1607""
","
","
","""event"",""trial"",""time""
""fullscreenenter"",""1"",""1607""
","
","true","","","","","","","","","","","",""
"casino-keyboard-response","6","33681","0.0-6.0-0.0","459","true","img/card_backs/set1/yellow.gif","img/card_backs/set1/purple.gif","img/card_backs/set1/red.gif","img/card_backs/set1/green.gif","img/card_backs/set2/gray.gif","img/card_backs/set2/pink.gif","img/card_backs/set2/orange.gif","img/card_backs/set2/blue.gif","""event"",""trial"",""time""
""fullscreenenter"",""1"",""1607""
","
","
","""event"",""trial"",""time""
""fullscreenenter"",""1"",""1607""
","
","","3415.5","Welcome to the casino!","71","","instructions","2021-07-08 20:57:17.389","","","","","",""
"casino-keyboard-response","7","43071","0.0-6.0-0.1","459","true","img/card_backs/set1/yellow.gif","img/card_backs/set1/purple.gif","img/card_backs/set1/red.gif","img/card_backs/set1/green.gif","img/card_backs/set2/gray.gif","img/card_backs/set2/pink.gif","img/card_backs/set2/orange.gif","img/card_backs/set2/blue.gif","""event"",""trial"",""time""
""fullscreenenter"",""1"",""1607""
","
","
","""event"",""trial"",""time""
""fullscreenenter"",""1"",""1607""
","
","","9386.199999928474","Today you will be playing a game to earn tokens. </br> At the end of the experiment, you will be paid a bonus based on how many tokens you win. ","69","","instructions","2021-07-08 20:57:26.778","","","","","",""
"casino-keyboard-response","8","50410","0.0-6.0-0.2","459","true","img/card_backs/set1/yellow.gif","img/card_backs/set1/purple.gif","img/card_backs/set1/red.gif","img/card_backs/set1/green.gif","img/card_backs/set2/gray.gif","img/card_backs/set2/pink.gif","img/card_backs/set2/orange.gif","img/card_backs/set2/blue.gif","""event"",""trial"",""time""
""fullscreenenter"",""1"",""1607""
","
","
","""event"",""trial"",""time""
""fullscreenenter"",""1"",""1607""
","
","","7336.200000047684","On every turn, you will be shown four different decks of cards. </br> You need to select a card from one of the four decks.  ","75","","instructions","2021-07-08 20:57:34.118","","","","","",""
"casino-keyboard-response","9","55288","0.0-6.0-0.3","459","true","img/card_backs/set1/yellow.gif","img/card_backs/set1/purple.gif","img/card_backs/set1/red.gif","img/card_backs/set1/green.gif","img/card_backs/set2/gray.gif","img/card_backs/set2/pink.gif","img/card_backs/set2/orange.gif","img/card_backs/set2/blue.gif","""event"",""trial"",""time""
""fullscreenenter"",""1"",""1607""
","
","
","""event"",""trial"",""time""
""fullscreenenter"",""1"",""1607""
","
","","4875.599999904633","On the next screen, you will see what the decks will look like. ","66","","instructions","2021-07-08 20:57:38.995","","","","","",""
"card-selection-trial","10","59297","0.0-7.0-0.0","459","true","img/card_backs/set1/yellow.gif","img/card_backs/set1/purple.gif","img/card_backs/set1/red.gif","img/card_backs/set1/green.gif","img/card_backs/set2/gray.gif","img/card_backs/set2/pink.gif","img/card_backs/set2/orange.gif","img/card_backs/set2/blue.gif","""event"",""trial"",""time""
""fullscreenenter"",""1"",""1607""
","
","
","""event"",""trial"",""time""
""fullscreenenter"",""1"",""1607""
","
","","null","","","","practice","2021-07-08 20:57:43.005","null","null","null","0","",""
"casino-keyboard-response","11","67868","0.0-8.0-0.0","459","true","img/card_backs/set1/yellow.gif","img/card_backs/set1/purple.gif","img/card_backs/set1/red.gif","img/card_backs/set1/green.gif","img/card_backs/set2/gray.gif","img/card_backs/set2/pink.gif","img/card_backs/set2/orange.gif","img/card_backs/set2/blue.gif","""event"",""trial"",""time""
""fullscreenenter"",""1"",""1607""
","
","
","""event"",""trial"",""time""
""fullscreenenter"",""1"",""1607""
","
","","8566.800000071526","You should pick a card from a deck using the '2', '4', '6', and '8' keys at the top of the keyboard.","85","","instructions","2021-07-08 20:57:51.575","","","","","",""
"casino-keyboard-response","12","73603","0.0-8.0-0.1","459","true","img/card_backs/set1/yellow.gif","img/card_backs/set1/purple.gif","img/card_backs/set1/red.gif","img/card_backs/set1/green.gif","img/card_backs/set2/gray.gif","img/card_backs/set2/pink.gif","img/card_backs/set2/orange.gif","img/card_backs/set2/blue.gif","""event"",""trial"",""time""
""fullscreenenter"",""1"",""1607""
","
","
","""event"",""trial"",""time""
""fullscreenenter"",""1"",""1607""
","
","","5732.5","Once you select a card, it will turn over and you will see how many tokens you earned.","83","","instructions","2021-07-08 20:57:57.310","","","","","",""
"casino-keyboard-response","13","88329","0.0-8.0-0.2","459","true","img/card_backs/set1/yellow.gif","img/card_backs/set1/purple.gif","img/card_backs/set1/red.gif","img/card_backs/set1/green.gif","img/card_backs/set2/gray.gif","img/card_backs/set2/pink.gif","img/card_backs/set2/orange.gif","img/card_backs/set2/blue.gif","""event"",""trial"",""time""
""fullscreenenter"",""1"",""1607""
","
","
","""event"",""trial"",""time""
""fullscreenenter"",""1"",""1607""
","
","","14723.700000047684","Let's try practicing that! </br> First, try to put your fingers over the '2', '4', '6', and '8' keys. </br>  You can use whatever fingers are most comfortable for you. Try to find a comfortable position now. ","50","","instructions","2021-07-08 20:58:12.036","","","","","",""
"casino-keyboard-response","14","94080","0.0-8.0-0.3","459","true","img/card_backs/set1/yellow.gif","img/card_backs/set1/purple.gif","img/card_backs/set1/red.gif","img/card_backs/set1/green.gif","img/card_backs/set2/gray.gif","img/card_backs/set2/pink.gif","img/card_backs/set2/orange.gif","img/card_backs/set2/blue.gif","""event"",""trial"",""time""
""fullscreenenter"",""1"",""1607""
","
","
","""event"",""trial"",""time""
""fullscreenenter"",""1"",""1607""
","
","","5748.899999976158","Okay ready? </br> On the next screen, press '2' to select the left deck. ","50","","instructions","2021-07-08 20:58:17.787","","","","","",""
"card-selection-trial","15","97012","0.0-9.0-0.0","459","true","img/card_backs/set1/yellow.gif","img/card_backs/set1/purple.gif","img/card_backs/set1/red.gif","img/card_backs/set1/green.gif","img/card_backs/set2/gray.gif","img/card_backs/set2/pink.gif","img/card_backs/set2/orange.gif","img/card_backs/set2/blue.gif","""event"",""trial"",""time""
""fullscreenenter"",""1"",""1607""
","
","
","""event"",""trial"",""time""
""fullscreenenter"",""1"",""1607""
","
","","918.8000000715256","","","","practice_card_selection","2021-07-08 20:58:20.719","img/practice_cards/backs/dark_green.gif","0","200","","",""
"casino-keyboard-response","16","102324","0.0-10.0-0.0","459","true","img/card_backs/set1/yellow.gif","img/card_backs/set1/purple.gif","img/card_backs/set1/red.gif","img/card_backs/set1/green.gif","img/card_backs/set2/gray.gif","img/card_backs/set2/pink.gif","img/card_backs/set2/orange.gif","img/card_backs/set2/blue.gif","""event"",""trial"",""time""
""fullscreenenter"",""1"",""1607""
","
","
","""event"",""trial"",""time""
""fullscreenenter"",""1"",""1607""
","
","","5308.900000095367","Great! Now on the next screen, try pressing '6' to select the third deck.","54","","instructions","2021-07-08 20:58:26.031","","","","","",""
"card-selection-trial","17","104814","0.0-11.0-0.0","459","true","img/card_backs/set1/yellow.gif","img/card_backs/set1/purple.gif","img/card_backs/set1/red.gif","img/card_backs/set1/green.gif","img/card_backs/set2/gray.gif","img/card_backs/set2/pink.gif","img/card_backs/set2/orange.gif","img/card_backs/set2/blue.gif","""event"",""trial"",""time""
""fullscreenenter"",""1"",""1607""
","
","
","""event"",""trial"",""time""
""fullscreenenter"",""1"",""1607""
","
","","480.7999999523163","","","","practice_card_selection","2021-07-08 20:58:28.521","img/practice_cards/backs/brown.gif","2","100","","",""
"casino-keyboard-response","18","108921","0.0-12.0-0.0","459","true","img/card_backs/set1/yellow.gif","img/card_backs/set1/purple.gif","img/card_backs/set1/red.gif","img/card_backs/set1/green.gif","img/card_backs/set2/gray.gif","img/card_backs/set2/pink.gif","img/card_backs/set2/orange.gif","img/card_backs/set2/blue.gif","""event"",""trial"",""time""
""fullscreenenter"",""1"",""1607""
","
","
","""event"",""trial"",""time""
""fullscreenenter"",""1"",""1607""
","
","","4103.399999976158","Now on the next screen, try pressing '4' to select the second deck.","52","","instructions","2021-07-08 20:58:32.628","","","","","",""
"card-selection-trial","19","111028","0.0-13.0-0.0","459","true","img/card_backs/set1/yellow.gif","img/card_backs/set1/purple.gif","img/card_backs/set1/red.gif","img/card_backs/set1/green.gif","img/card_backs/set2/gray.gif","img/card_backs/set2/pink.gif","img/card_backs/set2/orange.gif","img/card_backs/set2/blue.gif","""event"",""trial"",""time""
""fullscreenenter"",""1"",""1607""
","
","
","""event"",""trial"",""time""
""fullscreenenter"",""1"",""1607""
","
","","94.19999992847443","","","","practice_card_selection","2021-07-08 20:58:34.735","img/practice_cards/backs/brown.gif","1","100","","",""
"casino-keyboard-response","20","113973","0.0-14.0-0.0","459","true","img/card_backs/set1/yellow.gif","img/card_backs/set1/purple.gif","img/card_backs/set1/red.gif","img/card_backs/set1/green.gif","img/card_backs/set2/gray.gif","img/card_backs/set2/pink.gif","img/card_backs/set2/orange.gif","img/card_backs/set2/blue.gif","""event"",""trial"",""time""
""fullscreenenter"",""1"",""1607""
","
","
","""event"",""trial"",""time""
""fullscreenenter"",""1"",""1607""
","
","","2942.7000000476837","Finally, try pressing '8' to select the deck all the way on the right.","56","","instructions","2021-07-08 20:58:37.680","","","","","",""
"card-selection-trial","21","116073","0.0-15.0-0.0","459","true","img/card_backs/set1/yellow.gif","img/card_backs/set1/purple.gif","img/card_backs/set1/red.gif","img/card_backs/set1/green.gif","img/card_backs/set2/gray.gif","img/card_backs/set2/pink.gif","img/card_backs/set2/orange.gif","img/card_backs/set2/blue.gif","""event"",""trial"",""time""
""fullscreenenter"",""1"",""1607""
","
","
","""event"",""trial"",""time""
""fullscreenenter"",""1"",""1607""
","
","","87.5","","","","practice_card_selection","2021-07-08 20:58:39.780","img/practice_cards/backs/dark_green.gif","3","-200","","",""
"casino-keyboard-response","22","120420","0.0-16.0-0.0","459","true","img/card_backs/set1/yellow.gif","img/card_backs/set1/purple.gif","img/card_backs/set1/red.gif","img/card_backs/set1/green.gif","img/card_backs/set2/gray.gif","img/card_backs/set2/pink.gif","img/card_backs/set2/orange.gif","img/card_backs/set2/blue.gif","""event"",""trial"",""time""
""fullscreenenter"",""1"",""1607""
","
","
","""event"",""trial"",""time""
""fullscreenenter"",""1"",""1607""
","
","","4344.699999928474","Great! It seems like you are getting the hang of this.","80","","instructions","2021-07-08 20:58:44.127","","","","","",""
"casino-keyboard-response","23","128126","0.0-16.0-0.1","459","true","img/card_backs/set1/yellow.gif","img/card_backs/set1/purple.gif","img/card_backs/set1/red.gif","img/card_backs/set1/green.gif","img/card_backs/set2/gray.gif","img/card_backs/set2/pink.gif","img/card_backs/set2/orange.gif","img/card_backs/set2/blue.gif","""event"",""trial"",""time""
""fullscreenenter"",""1"",""1607""
","
","
","""event"",""trial"",""time""
""fullscreenenter"",""1"",""1607""
","
","","7702.600000023842","You may have noticed that some cards will cause you to <b> win </b> tokens while other cards will cause you to <b> lose </b>  tokens.","70","","instructions","2021-07-08 20:58:51.833","","","","","",""
"casino-keyboard-response","24","137580","0.0-16.0-0.2","459","true","img/card_backs/set1/yellow.gif","img/card_backs/set1/purple.gif","img/card_backs/set1/red.gif","img/card_backs/set1/green.gif","img/card_backs/set2/gray.gif","img/card_backs/set2/pink.gif","img/card_backs/set2/orange.gif","img/card_backs/set2/blue.gif","""event"",""trial"",""time""
""fullscreenenter"",""1"",""1607""
","
","
","""event"",""trial"",""time""
""fullscreenenter"",""1"",""1607""
","
","","9451.799999952316","Each deck has a mix of cards that will cause you to win and lose tokens. </br> However, the cards in each colored deck are different.","73","","instructions","2021-07-08 20:59:01.287","","","","","",""
"casino-keyboard-response","25","145925","0.0-16.0-0.3","459","true","img/card_backs/set1/yellow.gif","img/card_backs/set1/purple.gif","img/card_backs/set1/red.gif","img/card_backs/set1/green.gif","img/card_backs/set2/gray.gif","img/card_backs/set2/pink.gif","img/card_backs/set2/orange.gif","img/card_backs/set2/blue.gif","""event"",""trial"",""time""
""fullscreenenter"",""1"",""1607""
","
","
","""event"",""trial"",""time""
""fullscreenenter"",""1"",""1607""
","
","","8342.100000023842","Some colored decks are luckier than others. </br> If you choose the lucky decks, you will earn more tokens than if you choose the unlucky decks.","69","","instructions","2021-07-08 20:59:09.632","","","","","",""
"casino-keyboard-response","26","153954","0.0-16.0-0.4","459","true","img/card_backs/set1/yellow.gif","img/card_backs/set1/purple.gif","img/card_backs/set1/red.gif","img/card_backs/set1/green.gif","img/card_backs/set2/gray.gif","img/card_backs/set2/pink.gif","img/card_backs/set2/orange.gif","img/card_backs/set2/blue.gif","""event"",""trial"",""time""
""fullscreenenter"",""1"",""1607""
","
","
","""event"",""trial"",""time""
""fullscreenenter"",""1"",""1607""
","
","","8027","You should try to figure out which decks are lucky. </br> Then, try to choose the lucky decks so you can win the most tokens.","87","","instructions","2021-07-08 20:59:17.661","","","","","",""
"casino-keyboard-response","27","166627","0.0-16.0-0.5","459","true","img/card_backs/set1/yellow.gif","img/card_backs/set1/purple.gif","img/card_backs/set1/red.gif","img/card_backs/set1/green.gif","img/card_backs/set2/gray.gif","img/card_backs/set2/pink.gif","img/card_backs/set2/orange.gif","img/card_backs/set2/blue.gif","""event"",""trial"",""time""
""fullscreenenter"",""1"",""1607""
","
","
","""event"",""trial"",""time""
""fullscreenenter"",""1"",""1607""
","
","","12671.399999976158","To make it trickier, the casino dealer will switch the locations of the decks on every turn. </br> The color of the deck determines how lucky it is. The location does not matter.","88","","instructions","2021-07-08 20:59:30.334","","","","","",""
"casino-keyboard-response","28","176228","0.0-16.0-0.6","459","true","img/card_backs/set1/yellow.gif","img/card_backs/set1/purple.gif","img/card_backs/set1/red.gif","img/card_backs/set1/green.gif","img/card_backs/set2/gray.gif","img/card_backs/set2/pink.gif","img/card_backs/set2/orange.gif","img/card_backs/set2/blue.gif","""event"",""trial"",""time""
""fullscreenenter"",""1"",""1607""
","
","
","""event"",""trial"",""time""
""fullscreenenter"",""1"",""1607""
","
","","9598","The mix of cards in each colored deck will stay the same throughout the game. </br> That means that a deck that is lucky early on will stay lucky.","79","","instructions","2021-07-08 20:59:39.935","","","","","",""
"casino-keyboard-response","29","184523","0.0-16.0-0.7","459","true","img/card_backs/set1/yellow.gif","img/card_backs/set1/purple.gif","img/card_backs/set1/red.gif","img/card_backs/set1/green.gif","img/card_backs/set2/gray.gif","img/card_backs/set2/pink.gif","img/card_backs/set2/orange.gif","img/card_backs/set2/blue.gif","""event"",""trial"",""time""
""fullscreenenter"",""1"",""1607""
","
","
","""event"",""trial"",""time""
""fullscreenenter"",""1"",""1607""
","
","","8293","Remember though, all the decks have a <b> mix </b> of both <b> good </b> and <b> bad </b> cards so it may take a couple of turns to figure out if a deck is lucky.","69","","instructions","2021-07-08 20:59:48.230","","","","","",""
"casino-keyboard-response","30","193133","0.0-16.0-0.8","459","true","img/card_backs/set1/yellow.gif","img/card_backs/set1/purple.gif","img/card_backs/set1/red.gif","img/card_backs/set1/green.gif","img/card_backs/set2/gray.gif","img/card_backs/set2/pink.gif","img/card_backs/set2/orange.gif","img/card_backs/set2/blue.gif","""event"",""trial"",""time""
""fullscreenenter"",""1"",""1607""
","
","
","""event"",""trial"",""time""
""fullscreenenter"",""1"",""1607""
","
","","8608.300000071526","At the end of the game, you will be paid bonus money based on how many tokens you win. </br> If you win more tokens, you will earn more money!","72","","instructions","2021-07-08 20:59:56.840","","","","","",""
"casino-keyboard-response","31","203526","0.0-16.0-0.9","459","true","img/card_backs/set1/yellow.gif","img/card_backs/set1/purple.gif","img/card_backs/set1/red.gif","img/card_backs/set1/green.gif","img/card_backs/set2/gray.gif","img/card_backs/set2/pink.gif","img/card_backs/set2/orange.gif","img/card_backs/set2/blue.gif","""event"",""trial"",""time""
""fullscreenenter"",""1"",""1607""
","
","
","""event"",""trial"",""time""
""fullscreenenter"",""1"",""1607""
","
","","10389.5","You will never <b> lose </b> money. </br> If you end up with fewer than 0 tokens, you will earn $0 of bonus money, but you will still be paid for playing the game.","83","","instructions","2021-07-08 21:00:07.233","","","","","",""
"casino-keyboard-response","32","207472","0.0-16.0-0.10","459","true","img/card_backs/set1/yellow.gif","img/card_backs/set1/purple.gif","img/card_backs/set1/red.gif","img/card_backs/set1/green.gif","img/card_backs/set2/gray.gif","img/card_backs/set2/pink.gif","img/card_backs/set2/orange.gif","img/card_backs/set2/blue.gif","""event"",""trial"",""time""
""fullscreenenter"",""1"",""1607""
","
","
","""event"",""trial"",""time""
""fullscreenenter"",""1"",""1607""
","
","","3943.600000023842","You will have 10 seconds to make each choice.","82","","instructions","2021-07-08 21:00:11.179","","","","","",""
"casino-keyboard-response","33","215891","0.0-16.0-0.11","459","true","img/card_backs/set1/yellow.gif","img/card_backs/set1/purple.gif","img/card_backs/set1/red.gif","img/card_backs/set1/green.gif","img/card_backs/set2/gray.gif","img/card_backs/set2/pink.gif","img/card_backs/set2/orange.gif","img/card_backs/set2/blue.gif","""event"",""trial"",""time""
""fullscreenenter"",""1"",""1607""
","
","
","""event"",""trial"",""time""
""fullscreenenter"",""1"",""1607""
","
","","8414.700000047684","Before you play the game for real, you will play with practice decks. </br> The tokens you earn during practice won't count toward your total.","86","","instructions","2021-07-08 21:00:19.598","","","","","",""
"casino-keyboard-response","34","221894","0.0-16.0-0.12","459","true","img/card_backs/set1/yellow.gif","img/card_backs/set1/purple.gif","img/card_backs/set1/red.gif","img/card_backs/set1/green.gif","img/card_backs/set2/gray.gif","img/card_backs/set2/pink.gif","img/card_backs/set2/orange.gif","img/card_backs/set2/blue.gif","""event"",""trial"",""time""
""fullscreenenter"",""1"",""1607""
","
","
","""event"",""trial"",""time""
""fullscreenenter"",""1"",""1607""
","
","","6000","Ready? Remember, use the '2', '4', '6', and '8' keys to select the decks. </br> Put your fingers on those keys now and then press '2' to begin.","50","","instructions","2021-07-08 21:00:25.601","","","","","",""
"casino-fixation","35","222398","0.0-17.0-0.0","459","true","img/card_backs/set1/yellow.gif","img/card_backs/set1/purple.gif","img/card_backs/set1/red.gif","img/card_backs/set1/green.gif","img/card_backs/set2/gray.gif","img/card_backs/set2/pink.gif","img/card_backs/set2/orange.gif","img/card_backs/set2/blue.gif","""event"",""trial"",""time""
""fullscreenenter"",""1"",""1607""
","
","
","""event"",""trial"",""time""
""fullscreenenter"",""1"",""1607""
","
","","null","","null","","fixation","2021-07-08 21:00:26.105","","","","","",""
"card-selection-trial","36","225424","0.0-17.0-1.0","459","true","img/card_backs/set1/yellow.gif","img/card_backs/set1/purple.gif","img/card_backs/set1/red.gif","img/card_backs/set1/green.gif","img/card_backs/set2/gray.gif","img/card_backs/set2/pink.gif","img/card_backs/set2/orange.gif","img/card_backs/set2/blue.gif","""event"",""trial"",""time""
""fullscreenenter"",""1"",""1607""
","
","
","""event"",""trial"",""time""
""fullscreenenter"",""1"",""1607""
","
","","1011","","","","practice","2021-07-08 21:00:29.131","img/practice_cards/backs/black.gif","1","-100","0","",""
"casino-fixation","37","225930","0.0-17.0-0.1","459","true","img/card_backs/set1/yellow.gif","img/card_backs/set1/purple.gif","img/card_backs/set1/red.gif","img/card_backs/set1/green.gif","img/card_backs/set2/gray.gif","img/card_backs/set2/pink.gif","img/card_backs/set2/orange.gif","img/card_backs/set2/blue.gif","""event"",""trial"",""time""
""fullscreenenter"",""1"",""1607""
","
","
","""event"",""trial"",""time""
""fullscreenenter"",""1"",""1607""
","
","","null","","null","","fixation","2021-07-08 21:00:29.637","","","","","",""
"card-selection-trial","38","228880","0.0-17.0-1.1","459","true","img/card_backs/set1/yellow.gif","img/card_backs/set1/purple.gif","img/card_backs/set1/red.gif","img/card_backs/set1/green.gif","img/card_backs/set2/gray.gif","img/card_backs/set2/pink.gif","img/card_backs/set2/orange.gif","img/card_backs/set2/blue.gif","""event"",""trial"",""time""
""fullscreenenter"",""1"",""1607""
","
","
","""event"",""trial"",""time""
""fullscreenenter"",""1"",""1607""
","
","","942.8999999761581","","","","practice","2021-07-08 21:00:32.587","img/practice_cards/backs/dark_green.gif","2","-200","0","",""
"casino-fixation","39","229386","0.0-17.0-0.2","459","true","img/card_backs/set1/yellow.gif","img/card_backs/set1/purple.gif","img/card_backs/set1/red.gif","img/card_backs/set1/green.gif","img/card_backs/set2/gray.gif","img/card_backs/set2/pink.gif","img/card_backs/set2/orange.gif","img/card_backs/set2/blue.gif","""event"",""trial"",""time""
""fullscreenenter"",""1"",""1607""
","
","
","""event"",""trial"",""time""
""fullscreenenter"",""1"",""1607""
","
","","null","","null","","fixation","2021-07-08 21:00:33.093","","","","","",""
"card-selection-trial","40","231904","0.0-17.0-1.2","459","true","img/card_backs/set1/yellow.gif","img/card_backs/set1/purple.gif","img/card_backs/set1/red.gif","img/card_backs/set1/green.gif","img/card_backs/set2/gray.gif","img/card_backs/set2/pink.gif","img/card_backs/set2/orange.gif","img/card_backs/set2/blue.gif","""event"",""trial"",""time""
""fullscreenenter"",""1"",""1607""
","
","
","""event"",""trial"",""time""
""fullscreenenter"",""1"",""1607""
","
","","506.3000000715256","","","","practice","2021-07-08 21:00:35.611","img/practice_cards/backs/dark_blue.gif","3","-200","0","",""
"casino-fixation","41","232411","0.0-17.0-0.3","459","true","img/card_backs/set1/yellow.gif","img/card_backs/set1/purple.gif","img/card_backs/set1/red.gif","img/card_backs/set1/green.gif","img/card_backs/set2/gray.gif","img/card_backs/set2/pink.gif","img/card_backs/set2/orange.gif","img/card_backs/set2/blue.gif","""event"",""trial"",""time""
""fullscreenenter"",""1"",""1607""
","
","
","""event"",""trial"",""time""
""fullscreenenter"",""1"",""1607""
","
","","null","","null","","fixation","2021-07-08 21:00:36.118","","","","","",""
"card-selection-trial","42","235013","0.0-17.0-1.3","459","true","img/card_backs/set1/yellow.gif","img/card_backs/set1/purple.gif","img/card_backs/set1/red.gif","img/card_backs/set1/green.gif","img/card_backs/set2/gray.gif","img/card_backs/set2/pink.gif","img/card_backs/set2/orange.gif","img/card_backs/set2/blue.gif","""event"",""trial"",""time""
""fullscreenenter"",""1"",""1607""
","
","
","""event"",""trial"",""time""
""fullscreenenter"",""1"",""1607""
","
","","591.3999999761581","","","","practice","2021-07-08 21:00:38.721","img/practice_cards/backs/brown.gif","0","100","0","",""
"casino-fixation","43","235520","0.0-17.0-0.4","459","true","img/card_backs/set1/yellow.gif","img/card_backs/set1/purple.gif","img/card_backs/set1/red.gif","img/card_backs/set1/green.gif","img/card_backs/set2/gray.gif","img/card_backs/set2/pink.gif","img/card_backs/set2/orange.gif","img/card_backs/set2/blue.gif","""event"",""trial"",""time""
""fullscreenenter"",""1"",""1607""
","
","
","""event"",""trial"",""time""
""fullscreenenter"",""1"",""1607""
","
","","null","","null","","fixation","2021-07-08 21:00:39.227","","","","","",""
"card-selection-trial","44","237904","0.0-17.0-1.4","459","true","img/card_backs/set1/yellow.gif","img/card_backs/set1/purple.gif","img/card_backs/set1/red.gif","img/card_backs/set1/green.gif","img/card_backs/set2/gray.gif","img/card_backs/set2/pink.gif","img/card_backs/set2/orange.gif","img/card_backs/set2/blue.gif","""event"",""trial"",""time""
""fullscreenenter"",""1"",""1607""
","
","
","""event"",""trial"",""time""
""fullscreenenter"",""1"",""1607""
","
","","371.60000002384186","","","","practice","2021-07-08 21:00:41.611","img/practice_cards/backs/dark_green.gif","1","200","0","",""
"casino-fixation","45","238410","0.0-17.0-0.5","459","true","img/card_backs/set1/yellow.gif","img/card_backs/set1/purple.gif","img/card_backs/set1/red.gif","img/card_backs/set1/green.gif","img/card_backs/set2/gray.gif","img/card_backs/set2/pink.gif","img/card_backs/set2/orange.gif","img/card_backs/set2/blue.gif","""event"",""trial"",""time""
""fullscreenenter"",""1"",""1607""
","
","
","""event"",""trial"",""time""
""fullscreenenter"",""1"",""1607""
","
","","null","","null","","fixation","2021-07-08 21:00:42.117","","","","","",""
"card-selection-trial","46","240699","0.0-17.0-1.5","459","true","img/card_backs/set1/yellow.gif","img/card_backs/set1/purple.gif","img/card_backs/set1/red.gif","img/card_backs/set1/green.gif","img/card_backs/set2/gray.gif","img/card_backs/set2/pink.gif","img/card_backs/set2/orange.gif","img/card_backs/set2/blue.gif","""event"",""trial"",""time""
""fullscreenenter"",""1"",""1607""
","
","
","""event"",""trial"",""time""
""fullscreenenter"",""1"",""1607""
","
","","276.6999999284744","","","","practice","2021-07-08 21:00:44.406","img/practice_cards/backs/black.gif","2","-100","0","",""
"casino-fixation","47","241205","0.0-17.0-0.6","459","true","img/card_backs/set1/yellow.gif","img/card_backs/set1/purple.gif","img/card_backs/set1/red.gif","img/card_backs/set1/green.gif","img/card_backs/set2/gray.gif","img/card_backs/set2/pink.gif","img/card_backs/set2/orange.gif","img/card_backs/set2/blue.gif","""event"",""trial"",""time""
""fullscreenenter"",""1"",""1607""
","
","
","""event"",""trial"",""time""
""fullscreenenter"",""1"",""1607""
","
","","null","","null","","fixation","2021-07-08 21:00:44.912","","","","","",""
"card-selection-trial","48","243301","0.0-17.0-1.6","459","true","img/card_backs/set1/yellow.gif","img/card_backs/set1/purple.gif","img/card_backs/set1/red.gif","img/card_backs/set1/green.gif","img/card_backs/set2/gray.gif","img/card_backs/set2/pink.gif","img/card_backs/set2/orange.gif","img/card_backs/set2/blue.gif","""event"",""trial"",""time""
""fullscreenenter"",""1"",""1607""
","
","
","""event"",""trial"",""time""
""fullscreenenter"",""1"",""1607""
","
","","82.59999990463257","","","","practice","2021-07-08 21:00:47.009","img/practice_cards/backs/black.gif","3","-100","0","",""
"casino-fixation","49","243808","0.0-17.0-0.7","459","true","img/card_backs/set1/yellow.gif","img/card_backs/set1/purple.gif","img/card_backs/set1/red.gif","img/card_backs/set1/green.gif","img/card_backs/set2/gray.gif","img/card_backs/set2/pink.gif","img/card_backs/set2/orange.gif","img/card_backs/set2/blue.gif","""event"",""trial"",""time""
""fullscreenenter"",""1"",""1607""
","
","
","""event"",""trial"",""time""
""fullscreenenter"",""1"",""1607""
","
","","null","","null","","fixation","2021-07-08 21:00:47.515","","","","","",""
"card-selection-trial","50","247515","0.0-17.0-1.7","459","true","img/card_backs/set1/yellow.gif","img/card_backs/set1/purple.gif","img/card_backs/set1/red.gif","img/card_backs/set1/green.gif","img/card_backs/set2/gray.gif","img/card_backs/set2/pink.gif","img/card_backs/set2/orange.gif","img/card_backs/set2/blue.gif","""event"",""trial"",""time""
""fullscreenenter"",""1"",""1607""
","
","
","""event"",""trial"",""time""
""fullscreenenter"",""1"",""1607""
","
","","1692.9000000953674","","","","practice","2021-07-08 21:00:51.222","img/practice_cards/backs/dark_green.gif","0","-200","0","",""
"casino-fixation","51","248021","0.0-17.0-0.8","459","true","img/card_backs/set1/yellow.gif","img/card_backs/set1/purple.gif","img/card_backs/set1/red.gif","img/card_backs/set1/green.gif","img/card_backs/set2/gray.gif","img/card_backs/set2/pink.gif","img/card_backs/set2/orange.gif","img/card_backs/set2/blue.gif","""event"",""trial"",""time""
""fullscreenenter"",""1"",""1607""
","
","
","""event"",""trial"",""time""
""fullscreenenter"",""1"",""1607""
","
","","null","","null","","fixation","2021-07-08 21:00:51.728","","","","","",""
"card-selection-trial","52","250331","0.0-17.0-1.8","459","true","img/card_backs/set1/yellow.gif","img/card_backs/set1/purple.gif","img/card_backs/set1/red.gif","img/card_backs/set1/green.gif","img/card_backs/set2/gray.gif","img/card_backs/set2/pink.gif","img/card_backs/set2/orange.gif","img/card_backs/set2/blue.gif","""event"",""trial"",""time""
""fullscreenenter"",""1"",""1607""
","
","
","""event"",""trial"",""time""
""fullscreenenter"",""1"",""1607""
","
","","297.5","","","","practice","2021-07-08 21:00:54.038","img/practice_cards/backs/brown.gif","1","-100","0","",""
"casino-fixation","53","250837","0.0-17.0-0.9","459","true","img/card_backs/set1/yellow.gif","img/card_backs/set1/purple.gif","img/card_backs/set1/red.gif","img/card_backs/set1/green.gif","img/card_backs/set2/gray.gif","img/card_backs/set2/pink.gif","img/card_backs/set2/orange.gif","img/card_backs/set2/blue.gif","""event"",""trial"",""time""
""fullscreenenter"",""1"",""1607""
","
","
","""event"",""trial"",""time""
""fullscreenenter"",""1"",""1607""
","
","","null","","null","","fixation","2021-07-08 21:00:54.544","","","","","",""
"card-selection-trial","54","253216","0.0-17.0-1.9","459","true","img/card_backs/set1/yellow.gif","img/card_backs/set1/purple.gif","img/card_backs/set1/red.gif","img/card_backs/set1/green.gif","img/card_backs/set2/gray.gif","img/card_backs/set2/pink.gif","img/card_backs/set2/orange.gif","img/card_backs/set2/blue.gif","""event"",""trial"",""time""
""fullscreenenter"",""1"",""1607""
","
","
","""event"",""trial"",""time""
""fullscreenenter"",""1"",""1607""
","
","","369.60000002384186","","","","practice","2021-07-08 21:00:56.924","img/practice_cards/backs/black.gif","1","-100","0","",""
"casino-keyboard-response","55","256325","0.0-18.0","459","true","img/card_backs/set1/yellow.gif","img/card_backs/set1/purple.gif","img/card_backs/set1/red.gif","img/card_backs/set1/green.gif","img/card_backs/set2/gray.gif","img/card_backs/set2/pink.gif","img/card_backs/set2/orange.gif","img/card_backs/set2/blue.gif","""event"",""trial"",""time""
""fullscreenenter"",""1"",""1607""
","
","
","""event"",""trial"",""time""
""fullscreenenter"",""1"",""1607""
","
","","3105.5","You earned -800 tokens during the practice round!","82","","","2021-07-08 21:01:00.032","","","","","",""
"casino-keyboard-response","56","260723","0.0-19.0-0.0","459","true","img/card_backs/set1/yellow.gif","img/card_backs/set1/purple.gif","img/card_backs/set1/red.gif","img/card_backs/set1/green.gif","img/card_backs/set2/gray.gif","img/card_backs/set2/pink.gif","img/card_backs/set2/orange.gif","img/card_backs/set2/blue.gif","""event"",""trial"",""time""
""fullscreenenter"",""1"",""1607""
","
","
","""event"",""trial"",""time""
""fullscreenenter"",""1"",""1607""
","
","","4395.400000095367","Nice job! You are almost ready to play the real game.","86","","instructions","2021-07-08 21:01:04.430","","","","","",""
"casino-keyboard-response","57","267164","0.0-19.0-0.1","459","true","img/card_backs/set1/yellow.gif","img/card_backs/set1/purple.gif","img/card_backs/set1/red.gif","img/card_backs/set1/green.gif","img/card_backs/set2/gray.gif","img/card_backs/set2/pink.gif","img/card_backs/set2/orange.gif","img/card_backs/set2/blue.gif","""event"",""trial"",""time""
""fullscreenenter"",""1"",""1607""
","
","
","""event"",""trial"",""time""
""fullscreenenter"",""1"",""1607""
","
","","6438.699999928474","You will play two rounds of the real game. In each round, you will pick 100 cards in total.","73","","instructions","2021-07-08 21:01:10.872","","","","","",""
"casino-keyboard-response","58","271355","0.0-19.0-0.2","459","true","img/card_backs/set1/yellow.gif","img/card_backs/set1/purple.gif","img/card_backs/set1/red.gif","img/card_backs/set1/green.gif","img/card_backs/set2/gray.gif","img/card_backs/set2/pink.gif","img/card_backs/set2/orange.gif","img/card_backs/set2/blue.gif","""event"",""trial"",""time""
""fullscreenenter"",""1"",""1607""
","
","
","""event"",""trial"",""time""
""fullscreenenter"",""1"",""1607""
","
","","4187.399999976158","We are now going to ask you some questions about how the game works.","66","","instructions","2021-07-08 21:01:15.062","","","","","",""
"casino-keyboard-response","59","277559","0.0-19.0-0.3","459","true","img/card_backs/set1/yellow.gif","img/card_backs/set1/purple.gif","img/card_backs/set1/red.gif","img/card_backs/set1/green.gif","img/card_backs/set2/gray.gif","img/card_backs/set2/pink.gif","img/card_backs/set2/orange.gif","img/card_backs/set2/blue.gif","""event"",""trial"",""time""
""fullscreenenter"",""1"",""1607""
","
","
","""event"",""trial"",""time""
""fullscreenenter"",""1"",""1607""
","
","","6200.800000071526","Answer carefully. You will not be able to begin the game until you answer them correctly.","67","","instructions","2021-07-08 21:01:21.266","","","","","",""
"casino-comp_q","60","286024","0.0-20.0-0.0","459","true","img/card_backs/set1/yellow.gif","img/card_backs/set1/purple.gif","img/card_backs/set1/red.gif","img/card_backs/set1/green.gif","img/card_backs/set2/gray.gif","img/card_backs/set2/pink.gif","img/card_backs/set2/orange.gif","img/card_backs/set2/blue.gif","""event"",""trial"",""time""
""fullscreenenter"",""1"",""1607""
","
","
","""event"",""trial"",""time""
""fullscreenenter"",""1"",""1607""
","
","","8461.299999952316","True or False: All the decks have some cards that cause you to win tokens and some cards that cause you to lose tokens.","84","","","2021-07-08 21:01:29.731","","","","","",""
"casino-keyboard-response","61","289025","0.0-20.0-1.0","459","true","img/card_backs/set1/yellow.gif","img/card_backs/set1/purple.gif","img/card_backs/set1/red.gif","img/card_backs/set1/green.gif","img/card_backs/set2/gray.gif","img/card_backs/set2/pink.gif","img/card_backs/set2/orange.gif","img/card_backs/set2/blue.gif","""event"",""trial"",""time""
""fullscreenenter"",""1"",""1607""
","
","
","""event"",""trial"",""time""
""fullscreenenter"",""1"",""1607""
","
","","2997.600000023842","True is correct! All the decks have a mix of winning and losing cards.","77","","","2021-07-08 21:01:32.732","","","","","true",""
"casino-comp_q","62","293402","0.0-21.0-0.0","459","true","img/card_backs/set1/yellow.gif","img/card_backs/set1/purple.gif","img/card_backs/set1/red.gif","img/card_backs/set1/green.gif","img/card_backs/set2/gray.gif","img/card_backs/set2/pink.gif","img/card_backs/set2/orange.gif","img/card_backs/set2/blue.gif","""event"",""trial"",""time""
""fullscreenenter"",""1"",""1607""
","
","
","""event"",""trial"",""time""
""fullscreenenter"",""1"",""1607""
","
","","4374.100000023842","True or False: You will have as much time as you want to make your response.","70","","","2021-07-08 21:01:37.109","","","","","",""
"casino-keyboard-response","63","296553","0.0-21.0-1.0","459","true","img/card_backs/set1/yellow.gif","img/card_backs/set1/purple.gif","img/card_backs/set1/red.gif","img/card_backs/set1/green.gif","img/card_backs/set2/gray.gif","img/card_backs/set2/pink.gif","img/card_backs/set2/orange.gif","img/card_backs/set2/blue.gif","""event"",""trial"",""time""
""fullscreenenter"",""1"",""1607""
","
","
","""event"",""trial"",""time""
""fullscreenenter"",""1"",""1607""
","
","","3147.5","False is correct! You will only have 10 seconds to make each choice.","75","","","2021-07-08 21:01:40.260","","","","","true",""
"casino-comp_q","64","302348","0.0-22.0-0.0","459","true","img/card_backs/set1/yellow.gif","img/card_backs/set1/purple.gif","img/card_backs/set1/red.gif","img/card_backs/set1/green.gif","img/card_backs/set2/gray.gif","img/card_backs/set2/pink.gif","img/card_backs/set2/orange.gif","img/card_backs/set2/blue.gif","""event"",""trial"",""time""
""fullscreenenter"",""1"",""1607""
","
","
","""event"",""trial"",""time""
""fullscreenenter"",""1"",""1607""
","
","","5791.899999976158","True or False: The location of the deck determines how lucky it is.","70","","","2021-07-08 21:01:46.055","","","","","",""
"casino-keyboard-response","65","305120","0.0-22.0-1.0","459","true","img/card_backs/set1/yellow.gif","img/card_backs/set1/purple.gif","img/card_backs/set1/red.gif","img/card_backs/set1/green.gif","img/card_backs/set2/gray.gif","img/card_backs/set2/pink.gif","img/card_backs/set2/orange.gif","img/card_backs/set2/blue.gif","""event"",""trial"",""time""
""fullscreenenter"",""1"",""1607""
","
","
","""event"",""trial"",""time""
""fullscreenenter"",""1"",""1607""
","
","","2768.7999999523163","False is correct! The <i>color</i>  of the deck determines how lucky or unlucky it is.","68","","","2021-07-08 21:01:48.827","","","","","true",""
"casino-keyboard-response","66","309925","0.0-23.0-0.0","459","true","img/card_backs/set1/yellow.gif","img/card_backs/set1/purple.gif","img/card_backs/set1/red.gif","img/card_backs/set1/green.gif","img/card_backs/set2/gray.gif","img/card_backs/set2/pink.gif","img/card_backs/set2/orange.gif","img/card_backs/set2/blue.gif","""event"",""trial"",""time""
""fullscreenenter"",""1"",""1607""
","
","
","""event"",""trial"",""time""
""fullscreenenter"",""1"",""1607""
","
","","4803.200000047684","Great job! Now it's time to start the real game.","82","","instructions","2021-07-08 21:01:53.632","","","","","",""
"casino-keyboard-response","67","315368","0.0-23.0-0.1","459","true","img/card_backs/set1/yellow.gif","img/card_backs/set1/purple.gif","img/card_backs/set1/red.gif","img/card_backs/set1/green.gif","img/card_backs/set2/gray.gif","img/card_backs/set2/pink.gif","img/card_backs/set2/orange.gif","img/card_backs/set2/blue.gif","""event"",""trial"",""time""
""fullscreenenter"",""1"",""1607""
","
","
","""event"",""trial"",""time""
""fullscreenenter"",""1"",""1607""
","
","","5441","Before we start, we're going to head into a new room of the casino.","86","","instructions","2021-07-08 21:01:59.075","","","","","",""
"casino-keyboard-response","68","321672","0.0-24.0-0.0","459","true","img/card_backs/set1/yellow.gif","img/card_backs/set1/purple.gif","img/card_backs/set1/red.gif","img/card_backs/set1/green.gif","img/card_backs/set2/gray.gif","img/card_backs/set2/pink.gif","img/card_backs/set2/orange.gif","img/card_backs/set2/blue.gif","""event"",""trial"",""time""
""fullscreenenter"",""1"",""1607""
","
","
","""event"",""trial"",""time""
""fullscreenenter"",""1"",""1607""
","
","","6300.800000071526","Here we are! The real game will use different cards, but the rules will be the same.","71","","instructions","2021-07-08 21:02:05.379","","","","","",""
"casino-keyboard-response","69","326046","0.0-24.0-0.1","459","true","img/card_backs/set1/yellow.gif","img/card_backs/set1/purple.gif","img/card_backs/set1/red.gif","img/card_backs/set1/green.gif","img/card_backs/set2/gray.gif","img/card_backs/set2/pink.gif","img/card_backs/set2/orange.gif","img/card_backs/set2/blue.gif","""event"",""trial"",""time""
""fullscreenenter"",""1"",""1607""
","
","
","""event"",""trial"",""time""
""fullscreenenter"",""1"",""1607""
","
","","4370.899999976158","Ready? Put your fingers over the '2', '4', 6', and '8' keys so you are ready to play the game. </br> Then press 2 to start.","50","","instructions","2021-07-08 21:02:09.753","","","","","",""
"casino-fixation","70","326550","0.0-25.0-0.0","459","true","img/card_backs/set1/yellow.gif","img/card_backs/set1/purple.gif","img/card_backs/set1/red.gif","img/card_backs/set1/green.gif","img/card_backs/set2/gray.gif","img/card_backs/set2/pink.gif","img/card_backs/set2/orange.gif","img/card_backs/set2/blue.gif","""event"",""trial"",""time""
""fullscreenenter"",""1"",""1607""
","
","
","""event"",""trial"",""time""
""fullscreenenter"",""1"",""1607""
","
","","null","","null","","fixation","2021-07-08 21:02:10.257","","","","","",""
"card-selection-trial","71","329745","0.0-25.0-1.0","459","true","img/card_backs/set1/yellow.gif","img/card_backs/set1/purple.gif","img/card_backs/set1/red.gif","img/card_backs/set1/green.gif","img/card_backs/set2/gray.gif","img/card_backs/set2/pink.gif","img/card_backs/set2/orange.gif","img/card_backs/set2/blue.gif","""event"",""trial"",""time""
""fullscreenenter"",""1"",""1607""
","
","
","""event"",""trial"",""time""
""fullscreenenter"",""1"",""1607""
","
","","1180.0999999046326","","","","real_trial","2021-07-08 21:02:13.452","img/card_backs/set1/green.gif","1","-110","1","",""
"casino-fixation","72","330252","0.0-25.0-0.1","459","true","img/card_backs/set1/yellow.gif","img/card_backs/set1/purple.gif","img/card_backs/set1/red.gif","img/card_backs/set1/green.gif","img/card_backs/set2/gray.gif","img/card_backs/set2/pink.gif","img/card_backs/set2/orange.gif","img/card_backs/set2/blue.gif","""event"",""trial"",""time""
""fullscreenenter"",""1"",""1607""
","
","
","""event"",""trial"",""time""
""fullscreenenter"",""1"",""1607""
","
","","null","","null","","fixation","2021-07-08 21:02:13.959","","","","","",""
"card-selection-trial","73","333381","0.0-25.0-1.1","459","true","img/card_backs/set1/yellow.gif","img/card_backs/set1/purple.gif","img/card_backs/set1/red.gif","img/card_backs/set1/green.gif","img/card_backs/set2/gray.gif","img/card_backs/set2/pink.gif","img/card_backs/set2/orange.gif","img/card_backs/set2/blue.gif","""event"",""trial"",""time""
""fullscreenenter"",""1"",""1607""
","
","
","""event"",""trial"",""time""
""fullscreenenter"",""1"",""1607""
","
","","1117.1000000238419","","","","real_trial","2021-07-08 21:02:17.088","img/card_backs/set1/purple.gif","3","250","1","",""
"casino-fixation","74","333885","0.0-25.0-0.2","459","true","img/card_backs/set1/yellow.gif","img/card_backs/set1/purple.gif","img/card_backs/set1/red.gif","img/card_backs/set1/green.gif","img/card_backs/set2/gray.gif","img/card_backs/set2/pink.gif","img/card_backs/set2/orange.gif","img/card_backs/set2/blue.gif","""event"",""trial"",""time""
""fullscreenenter"",""1"",""1607""
","
","
","""event"",""trial"",""time""
""fullscreenenter"",""1"",""1607""
","
","","null","","null","","fixation","2021-07-08 21:02:17.592","","","","","",""
"card-selection-trial","75","336460","0.0-25.0-1.2","459","true","img/card_backs/set1/yellow.gif","img/card_backs/set1/purple.gif","img/card_backs/set1/red.gif","img/card_backs/set1/green.gif","img/card_backs/set2/gray.gif","img/card_backs/set2/pink.gif","img/card_backs/set2/orange.gif","img/card_backs/set2/blue.gif","""event"",""trial"",""time""
""fullscreenenter"",""1"",""1607""
","
","
","""event"",""trial"",""time""
""fullscreenenter"",""1"",""1607""
","
","","565.5","","","","real_trial","2021-07-08 21:02:20.167","img/card_backs/set1/purple.gif","0","-190","1","",""
"casino-fixation","76","336966","0.0-25.0-0.3","459","true","img/card_backs/set1/yellow.gif","img/card_backs/set1/purple.gif","img/card_backs/set1/red.gif","img/card_backs/set1/green.gif","img/card_backs/set2/gray.gif","img/card_backs/set2/pink.gif","img/card_backs/set2/orange.gif","img/card_backs/set2/blue.gif","""event"",""trial"",""time""
""fullscreenenter"",""1"",""1607""
","
","
","""event"",""trial"",""time""
""fullscreenenter"",""1"",""1607""
","
","","null","","null","","fixation","2021-07-08 21:02:20.673","","","","","",""
"card-selection-trial","77","340146","0.0-25.0-1.3","459","true","img/card_backs/set1/yellow.gif","img/card_backs/set1/purple.gif","img/card_backs/set1/red.gif","img/card_backs/set1/green.gif","img/card_backs/set2/gray.gif","img/card_backs/set2/pink.gif","img/card_backs/set2/orange.gif","img/card_backs/set2/blue.gif","""event"",""trial"",""time""
""fullscreenenter"",""1"",""1607""
","
","
","""event"",""trial"",""time""
""fullscreenenter"",""1"",""1607""
","
","","1167","","","","real_trial","2021-07-08 21:02:23.853","img/card_backs/set1/red.gif","1","-90","1","",""
"casino-fixation","78","340652","0.0-25.0-0.4","459","true","img/card_backs/set1/yellow.gif","img/card_backs/set1/purple.gif","img/card_backs/set1/red.gif","img/card_backs/set1/green.gif","img/card_backs/set2/gray.gif","img/card_backs/set2/pink.gif","img/card_backs/set2/orange.gif","img/card_backs/set2/blue.gif","""event"",""trial"",""time""
""fullscreenenter"",""1"",""1607""
","
","
","""event"",""trial"",""time""
""fullscreenenter"",""1"",""1607""
","
","","null","","null","","fixation","2021-07-08 21:02:24.359","","","","","",""
"card-selection-trial","79","352173","0.0-25.0-1.4","459","true","img/card_backs/set1/yellow.gif","img/card_backs/set1/purple.gif","img/card_backs/set1/red.gif","img/card_backs/set1/green.gif","img/card_backs/set2/gray.gif","img/card_backs/set2/pink.gif","img/card_backs/set2/orange.gif","img/card_backs/set2/blue.gif","""event"",""trial"",""time""
""fullscreenenter"",""1"",""1607""
","
","
","""event"",""trial"",""time""
""fullscreenenter"",""1"",""1607""
","
","","9507.799999952316","","","","real_trial","2021-07-08 21:02:35.880","img/card_backs/set1/yellow.gif","2","-210","1","",""
"casino-fixation","80","352678","0.0-25.0-0.5","459","true","img/card_backs/set1/yellow.gif","img/card_backs/set1/purple.gif","img/card_backs/set1/red.gif","img/card_backs/set1/green.gif","img/card_backs/set2/gray.gif","img/card_backs/set2/pink.gif","img/card_backs/set2/orange.gif","img/card_backs/set2/blue.gif","""event"",""trial"",""time""
""fullscreenenter"",""1"",""1607""
","
","
","""event"",""trial"",""time""
""fullscreenenter"",""1"",""1607""
","
","","null","","null","","fixation","2021-07-08 21:02:36.385","","","","","",""
"card-selection-trial","81","356498","0.0-25.0-1.5","459","true","img/card_backs/set1/yellow.gif","img/card_backs/set1/purple.gif","img/card_backs/set1/red.gif","img/card_backs/set1/green.gif","img/card_backs/set2/gray.gif","img/card_backs/set2/pink.gif","img/card_backs/set2/orange.gif","img/card_backs/set2/blue.gif","""event"",""trial"",""time""
""fullscreenenter"",""1"",""1607""
","
","
","""event"",""trial"",""time""
""fullscreenenter"",""1"",""1607""
","
","","1806.6000000238419","","","","real_trial","2021-07-08 21:02:40.205","img/card_backs/set1/purple.gif","3","-210","1","",""
"casino-fixation","82","357004","0.0-25.0-0.6","459","true","img/card_backs/set1/yellow.gif","img/card_backs/set1/purple.gif","img/card_backs/set1/red.gif","img/card_backs/set1/green.gif","img/card_backs/set2/gray.gif","img/card_backs/set2/pink.gif","img/card_backs/set2/orange.gif","img/card_backs/set2/blue.gif","""event"",""trial"",""time""
""fullscreenenter"",""1"",""1607""
","
","
","""event"",""trial"",""time""
""fullscreenenter"",""1"",""1607""
","
","","null","","null","","fixation","2021-07-08 21:02:40.711","","","","","",""
"card-selection-trial","83","361926","0.0-25.0-1.6","459","true","img/card_backs/set1/yellow.gif","img/card_backs/set1/purple.gif","img/card_backs/set1/red.gif","img/card_backs/set1/green.gif","img/card_backs/set2/gray.gif","img/card_backs/set2/pink.gif","img/card_backs/set2/orange.gif","img/card_backs/set2/blue.gif","""event"",""trial"",""time""
""fullscreenenter"",""1"",""1607""
","
","
","""event"",""trial"",""time""
""fullscreenenter"",""1"",""1607""
","
","","2909","","","","real_trial","2021-07-08 21:02:45.633","img/card_backs/set1/purple.gif","1","250","1","",""
"casino-fixation","84","362433","0.0-25.0-0.7","459","true","img/card_backs/set1/yellow.gif","img/card_backs/set1/purple.gif","img/card_backs/set1/red.gif","img/card_backs/set1/green.gif","img/card_backs/set2/gray.gif","img/card_backs/set2/pink.gif","img/card_backs/set2/orange.gif","img/card_backs/set2/blue.gif","""event"",""trial"",""time""
""fullscreenenter"",""1"",""1607""
","
","
","""event"",""trial"",""time""
""fullscreenenter"",""1"",""1607""
","
","","null","","null","","fixation","2021-07-08 21:02:46.140","","","","","",""
"card-selection-trial","85","365202","0.0-25.0-1.7","459","true","img/card_backs/set1/yellow.gif","img/card_backs/set1/purple.gif","img/card_backs/set1/red.gif","img/card_backs/set1/green.gif","img/card_backs/set2/gray.gif","img/card_backs/set2/pink.gif","img/card_backs/set2/orange.gif","img/card_backs/set2/blue.gif","""event"",""trial"",""time""
""fullscreenenter"",""1"",""1607""
","
","
","""event"",""trial"",""time""
""fullscreenenter"",""1"",""1607""
","
","","758.3999999761581","","","","real_trial","2021-07-08 21:02:48.909","img/card_backs/set1/green.gif","2","50","1","",""
"casino-fixation","86","365708","0.0-25.0-0.8","459","true","img/card_backs/set1/yellow.gif","img/card_backs/set1/purple.gif","img/card_backs/set1/red.gif","img/card_backs/set1/green.gif","img/card_backs/set2/gray.gif","img/card_backs/set2/pink.gif","img/card_backs/set2/orange.gif","img/card_backs/set2/blue.gif","""event"",""trial"",""time""
""fullscreenenter"",""1"",""1607""
","
","
","""event"",""trial"",""time""
""fullscreenenter"",""1"",""1607""
","
","","null","","null","","fixation","2021-07-08 21:02:49.415","","","","","",""
"card-selection-trial","87","368178","0.0-25.0-1.8","459","true","img/card_backs/set1/yellow.gif","img/card_backs/set1/purple.gif","img/card_backs/set1/red.gif","img/card_backs/set1/green.gif","img/card_backs/set2/gray.gif","img/card_backs/set2/pink.gif","img/card_backs/set2/orange.gif","img/card_backs/set2/blue.gif","""event"",""trial"",""time""
""fullscreenenter"",""1"",""1607""
","
","
","""event"",""trial"",""time""
""fullscreenenter"",""1"",""1607""
","
","","455.5","","","","real_trial","2021-07-08 21:02:51.885","img/card_backs/set1/purple.gif","0","-210","1","",""
"casino-fixation","88","368684","0.0-25.0-0.9","459","true","img/card_backs/set1/yellow.gif","img/card_backs/set1/purple.gif","img/card_backs/set1/red.gif","img/card_backs/set1/green.gif","img/card_backs/set2/gray.gif","img/card_backs/set2/pink.gif","img/card_backs/set2/orange.gif","img/card_backs/set2/blue.gif","""event"",""trial"",""time""
""fullscreenenter"",""1"",""1607""
","
","
","""event"",""trial"",""time""
""fullscreenenter"",""1"",""1607""
","
","","null","","null","","fixation","2021-07-08 21:02:52.391","","","","","",""
"card-selection-trial","89","371516","0.0-25.0-1.9","459","true","img/card_backs/set1/yellow.gif","img/card_backs/set1/purple.gif","img/card_backs/set1/red.gif","img/card_backs/set1/green.gif","img/card_backs/set2/gray.gif","img/card_backs/set2/pink.gif","img/card_backs/set2/orange.gif","img/card_backs/set2/blue.gif","""event"",""trial"",""time""
""fullscreenenter"",""1"",""1607""
","
","
","""event"",""trial"",""time""
""fullscreenenter"",""1"",""1607""
","
","","816.6999999284744","","","","real_trial","2021-07-08 21:02:55.223","img/card_backs/set1/purple.gif","1","-200","1","",""
"casino-fixation","90","372023","0.0-25.0-0.10","459","true","img/card_backs/set1/yellow.gif","img/card_backs/set1/purple.gif","img/card_backs/set1/red.gif","img/card_backs/set1/green.gif","img/card_backs/set2/gray.gif","img/card_backs/set2/pink.gif","img/card_backs/set2/orange.gif","img/card_backs/set2/blue.gif","""event"",""trial"",""time""
""fullscreenenter"",""1"",""1607""
","
","
","""event"",""trial"",""time""
""fullscreenenter"",""1"",""1607""
","
","","null","","null","","fixation","2021-07-08 21:02:55.730","","","","","",""
"card-selection-trial","91","374615","0.0-25.0-1.10","459","true","img/card_backs/set1/yellow.gif","img/card_backs/set1/purple.gif","img/card_backs/set1/red.gif","img/card_backs/set1/green.gif","img/card_backs/set2/gray.gif","img/card_backs/set2/pink.gif","img/card_backs/set2/orange.gif","img/card_backs/set2/blue.gif","""event"",""trial"",""time""
""fullscreenenter"",""1"",""1607""
","
","
","""event"",""trial"",""time""
""fullscreenenter"",""1"",""1607""
","
","","581.6000000238419","","","","real_trial","2021-07-08 21:02:58.322","img/card_backs/set1/green.gif","2","40","1","",""
"casino-fixation","92","375121","0.0-25.0-0.11","459","true","img/card_backs/set1/yellow.gif","img/card_backs/set1/purple.gif","img/card_backs/set1/red.gif","img/card_backs/set1/green.gif","img/card_backs/set2/gray.gif","img/card_backs/set2/pink.gif","img/card_backs/set2/orange.gif","img/card_backs/set2/blue.gif","""event"",""trial"",""time""
""fullscreenenter"",""1"",""1607""
","
","
","""event"",""trial"",""time""
""fullscreenenter"",""1"",""1607""
","
","","null","","null","","fixation","2021-07-08 21:02:58.829","","","","","",""
"card-selection-trial","93","377474","0.0-25.0-1.11","459","true","img/card_backs/set1/yellow.gif","img/card_backs/set1/purple.gif","img/card_backs/set1/red.gif","img/card_backs/set1/green.gif","img/card_backs/set2/gray.gif","img/card_backs/set2/pink.gif","img/card_backs/set2/orange.gif","img/card_backs/set2/blue.gif","""event"",""trial"",""time""
""fullscreenenter"",""1"",""1607""
","
","
","""event"",""trial"",""time""
""fullscreenenter"",""1"",""1607""
","
","","340","","","","real_trial","2021-07-08 21:03:01.181","img/card_backs/set1/yellow.gif","3","-200","1","",""
"casino-fixation","94","377978","0.0-25.0-0.12","459","true","img/card_backs/set1/yellow.gif","img/card_backs/set1/purple.gif","img/card_backs/set1/red.gif","img/card_backs/set1/green.gif","img/card_backs/set2/gray.gif","img/card_backs/set2/pink.gif","img/card_backs/set2/orange.gif","img/card_backs/set2/blue.gif","""event"",""trial"",""time""
""fullscreenenter"",""1"",""1607""
","
","
","""event"",""trial"",""time""
""fullscreenenter"",""1"",""1607""
","
","","null","","null","","fixation","2021-07-08 21:03:01.685","","","","","",""
"card-selection-trial","95","380412","0.0-25.0-1.12","459","true","img/card_backs/set1/yellow.gif","img/card_backs/set1/purple.gif","img/card_backs/set1/red.gif","img/card_backs/set1/green.gif","img/card_backs/set2/gray.gif","img/card_backs/set2/pink.gif","img/card_backs/set2/orange.gif","img/card_backs/set2/blue.gif","""event"",""trial"",""time""
""fullscreenenter"",""1"",""1607""
","
","
","""event"",""trial"",""time""
""fullscreenenter"",""1"",""1607""
","
","","419.60000002384186","","","","real_trial","2021-07-08 21:03:04.119","img/card_backs/set1/purple.gif","0","240","1","",""
"casino-fixation","96","380919","0.0-25.0-0.13","459","true","img/card_backs/set1/yellow.gif","img/card_backs/set1/purple.gif","img/card_backs/set1/red.gif","img/card_backs/set1/green.gif","img/card_backs/set2/gray.gif","img/card_backs/set2/pink.gif","img/card_backs/set2/orange.gif","img/card_backs/set2/blue.gif","""event"",""trial"",""time""
""fullscreenenter"",""1"",""1607""
","
","
","""event"",""trial"",""time""
""fullscreenenter"",""1"",""1607""
","
","","null","","null","","fixation","2021-07-08 21:03:04.626","","","","","",""
"card-selection-trial","97","383213","0.0-25.0-1.13","459","true","img/card_backs/set1/yellow.gif","img/card_backs/set1/purple.gif","img/card_backs/set1/red.gif","img/card_backs/set1/green.gif","img/card_backs/set2/gray.gif","img/card_backs/set2/pink.gif","img/card_backs/set2/orange.gif","img/card_backs/set2/blue.gif","""event"",""trial"",""time""
""fullscreenenter"",""1"",""1607""
","
","
","""event"",""trial"",""time""
""fullscreenenter"",""1"",""1607""
","
","","280.1999999284744","","","","real_trial","2021-07-08 21:03:06.920","img/card_backs/set1/green.gif","1","60","1","",""
"casino-fixation","98","383719","0.0-25.0-0.14","459","true","img/card_backs/set1/yellow.gif","img/card_backs/set1/purple.gif","img/card_backs/set1/red.gif","img/card_backs/set1/green.gif","img/card_backs/set2/gray.gif","img/card_backs/set2/pink.gif","img/card_backs/set2/orange.gif","img/card_backs/set2/blue.gif","""event"",""trial"",""time""
""fullscreenenter"",""1"",""1607""
","
","
","""event"",""trial"",""time""
""fullscreenenter"",""1"",""1607""
","
","","null","","null","","fixation","2021-07-08 21:03:07.426","","","","","",""
"card-selection-trial","99","386135","0.0-25.0-1.14","459","true","img/card_backs/set1/yellow.gif","img/card_backs/set1/purple.gif","img/card_backs/set1/red.gif","img/card_backs/set1/green.gif","img/card_backs/set2/gray.gif","img/card_backs/set2/pink.gif","img/card_backs/set2/orange.gif","img/card_backs/set2/blue.gif","""event"",""trial"",""time""
""fullscreenenter"",""1"",""1607""
","
","
","""event"",""trial"",""time""
""fullscreenenter"",""1"",""1607""
","
","","406.60000002384186","","","","real_trial","2021-07-08 21:03:09.843","img/card_backs/set1/red.gif","3","-110","1","",""
"casino-fixation","100","386642","0.0-25.0-0.15","459","true","img/card_backs/set1/yellow.gif","img/card_backs/set1/purple.gif","img/card_backs/set1/red.gif","img/card_backs/set1/green.gif","img/card_backs/set2/gray.gif","img/card_backs/set2/pink.gif","img/card_backs/set2/orange.gif","img/card_backs/set2/blue.gif","""event"",""trial"",""time""
""fullscreenenter"",""1"",""1607""
","
","
","""event"",""trial"",""time""
""fullscreenenter"",""1"",""1607""
","
","","null","","null","","fixation","2021-07-08 21:03:10.349","","","","","",""
"card-selection-trial","101","389234","0.0-25.0-1.15","459","true","img/card_backs/set1/yellow.gif","img/card_backs/set1/purple.gif","img/card_backs/set1/red.gif","img/card_backs/set1/green.gif","img/card_backs/set2/gray.gif","img/card_backs/set2/pink.gif","img/card_backs/set2/orange.gif","img/card_backs/set2/blue.gif","""event"",""trial"",""time""
""fullscreenenter"",""1"",""1607""
","
","
","""event"",""trial"",""time""
""fullscreenenter"",""1"",""1607""
","
","","582.1999999284744","","","","real_trial","2021-07-08 21:03:12.941","img/card_backs/set1/yellow.gif","1","-190","1","",""
"casino-fixation","102","389740","0.0-25.0-0.16","459","true","img/card_backs/set1/yellow.gif","img/card_backs/set1/purple.gif","img/card_backs/set1/red.gif","img/card_backs/set1/green.gif","img/card_backs/set2/gray.gif","img/card_backs/set2/pink.gif","img/card_backs/set2/orange.gif","img/card_backs/set2/blue.gif","""event"",""trial"",""time""
""fullscreenenter"",""1"",""1607""
","
","
","""event"",""trial"",""time""
""fullscreenenter"",""1"",""1607""
","
","","null","","null","","fixation","2021-07-08 21:03:13.447","","","","","",""
"card-selection-trial","103","392167","0.0-25.0-1.16","459","true","img/card_backs/set1/yellow.gif","img/card_backs/set1/purple.gif","img/card_backs/set1/red.gif","img/card_backs/set1/green.gif","img/card_backs/set2/gray.gif","img/card_backs/set2/pink.gif","img/card_backs/set2/orange.gif","img/card_backs/set2/blue.gif","""event"",""trial"",""time""
""fullscreenenter"",""1"",""1607""
","
","
","""event"",""trial"",""time""
""fullscreenenter"",""1"",""1607""
","
","","415.39999997615814","","","","real_trial","2021-07-08 21:03:15.874","img/card_backs/set1/purple.gif","2","260","1","",""
"casino-fixation","104","392674","0.0-25.0-0.17","459","true","img/card_backs/set1/yellow.gif","img/card_backs/set1/purple.gif","img/card_backs/set1/red.gif","img/card_backs/set1/green.gif","img/card_backs/set2/gray.gif","img/card_backs/set2/pink.gif","img/card_backs/set2/orange.gif","img/card_backs/set2/blue.gif","""event"",""trial"",""time""
""fullscreenenter"",""1"",""1607""
","
","
","""event"",""trial"",""time""
""fullscreenenter"",""1"",""1607""
","
","","null","","null","","fixation","2021-07-08 21:03:16.381","","","","","",""
"card-selection-trial","105","395127","0.0-25.0-1.17","459","true","img/card_backs/set1/yellow.gif","img/card_backs/set1/purple.gif","img/card_backs/set1/red.gif","img/card_backs/set1/green.gif","img/card_backs/set2/gray.gif","img/card_backs/set2/pink.gif","img/card_backs/set2/orange.gif","img/card_backs/set2/blue.gif","""event"",""trial"",""time""
""fullscreenenter"",""1"",""1607""
","
","
","""event"",""trial"",""time""
""fullscreenenter"",""1"",""1607""
","
","","439.1999999284744","","","","real_trial","2021-07-08 21:03:18.835","img/card_backs/set1/red.gif","2","-100","1","",""
"casino-fixation","106","395634","0.0-25.0-0.18","459","true","img/card_backs/set1/yellow.gif","img/card_backs/set1/purple.gif","img/card_backs/set1/red.gif","img/card_backs/set1/green.gif","img/card_backs/set2/gray.gif","img/card_backs/set2/pink.gif","img/card_backs/set2/orange.gif","img/card_backs/set2/blue.gif","""event"",""trial"",""time""
""fullscreenenter"",""1"",""1607""
","
","
","""event"",""trial"",""time""
""fullscreenenter"",""1"",""1607""
","
","","null","","null","","fixation","2021-07-08 21:03:19.341","","","","","",""
"card-selection-trial","107","398530","0.0-25.0-1.18","459","true","img/card_backs/set1/yellow.gif","img/card_backs/set1/purple.gif","img/card_backs/set1/red.gif","img/card_backs/set1/green.gif","img/card_backs/set2/gray.gif","img/card_backs/set2/pink.gif","img/card_backs/set2/orange.gif","img/card_backs/set2/blue.gif","""event"",""trial"",""time""
""fullscreenenter"",""1"",""1607""
","
","
","""event"",""trial"",""time""
""fullscreenenter"",""1"",""1607""
","
","","882.3999999761581","","","","real_trial","2021-07-08 21:03:22.237","img/card_backs/set1/purple.gif","2","250","1","",""
"casino-fixation","108","399033","0.0-25.0-0.19","459","true","img/card_backs/set1/yellow.gif","img/card_backs/set1/purple.gif","img/card_backs/set1/red.gif","img/card_backs/set1/green.gif","img/card_backs/set2/gray.gif","img/card_backs/set2/pink.gif","img/card_backs/set2/orange.gif","img/card_backs/set2/blue.gif","""event"",""trial"",""time""
""fullscreenenter"",""1"",""1607""
","
","
","""event"",""trial"",""time""
""fullscreenenter"",""1"",""1607""
","
","","null","","null","","fixation","2021-07-08 21:03:22.740","","","","","",""
"card-selection-trial","109","401816","0.0-25.0-1.19","459","true","img/card_backs/set1/yellow.gif","img/card_backs/set1/purple.gif","img/card_backs/set1/red.gif","img/card_backs/set1/green.gif","img/card_backs/set2/gray.gif","img/card_backs/set2/pink.gif","img/card_backs/set2/orange.gif","img/card_backs/set2/blue.gif","""event"",""trial"",""time""
""fullscreenenter"",""1"",""1607""
","
","
","""event"",""trial"",""time""
""fullscreenenter"",""1"",""1607""
","
","","771.7000000476837","","","","real_trial","2021-07-08 21:03:25.523","img/card_backs/set1/purple.gif","3","-190","1","",""
"casino-fixation","110","402322","0.0-25.0-0.20","459","true","img/card_backs/set1/yellow.gif","img/card_backs/set1/purple.gif","img/card_backs/set1/red.gif","img/card_backs/set1/green.gif","img/card_backs/set2/gray.gif","img/card_backs/set2/pink.gif","img/card_backs/set2/orange.gif","img/card_backs/set2/blue.gif","""event"",""trial"",""time""
""fullscreenenter"",""1"",""1607""
","
","
","""event"",""trial"",""time""
""fullscreenenter"",""1"",""1607""
","
","","null","","null","","fixation","2021-07-08 21:03:26.029","","","","","",""
"card-selection-trial","111","406701","0.0-25.0-1.20","459","true","img/card_backs/set1/yellow.gif","img/card_backs/set1/purple.gif","img/card_backs/set1/red.gif","img/card_backs/set1/green.gif","img/card_backs/set2/gray.gif","img/card_backs/set2/pink.gif","img/card_backs/set2/orange.gif","img/card_backs/set2/blue.gif","""event"",""trial"",""time""
""fullscreenenter"",""1"",""1607""
","
","
","""event"",""trial"",""time""
""fullscreenenter"",""1"",""1607""
","
","","2366.7999999523163","","","","real_trial","2021-07-08 21:03:30.408","img/card_backs/set1/purple.gif","0","-200","1","",""
"casino-fixation","112","407207","0.0-25.0-0.21","459","true","img/card_backs/set1/yellow.gif","img/card_backs/set1/purple.gif","img/card_backs/set1/red.gif","img/card_backs/set1/green.gif","img/card_backs/set2/gray.gif","img/card_backs/set2/pink.gif","img/card_backs/set2/orange.gif","img/card_backs/set2/blue.gif","""event"",""trial"",""time""
""fullscreenenter"",""1"",""1607""
","
","
","""event"",""trial"",""time""
""fullscreenenter"",""1"",""1607""
","
","","null","","null","","fixation","2021-07-08 21:03:30.914","","","","","",""
"card-selection-trial","113","410936","0.0-25.0-1.21","459","true","img/card_backs/set1/yellow.gif","img/card_backs/set1/purple.gif","img/card_backs/set1/red.gif","img/card_backs/set1/green.gif","img/card_backs/set2/gray.gif","img/card_backs/set2/pink.gif","img/card_backs/set2/orange.gif","img/card_backs/set2/blue.gif","""event"",""trial"",""time""
""fullscreenenter"",""1"",""1607""
","
","
","""event"",""trial"",""time""
""fullscreenenter"",""1"",""1607""
","
","","1717","","","","real_trial","2021-07-08 21:03:34.643","img/card_backs/set1/green.gif","3","-90","1","",""
"casino-fixation","114","411442","0.0-25.0-0.22","459","true","img/card_backs/set1/yellow.gif","img/card_backs/set1/purple.gif","img/card_backs/set1/red.gif","img/card_backs/set1/green.gif","img/card_backs/set2/gray.gif","img/card_backs/set2/pink.gif","img/card_backs/set2/orange.gif","img/card_backs/set2/blue.gif","""event"",""trial"",""time""
""fullscreenenter"",""1"",""1607""
","
","
","""event"",""trial"",""time""
""fullscreenenter"",""1"",""1607""
","
","","null","","null","","fixation","2021-07-08 21:03:35.149","","","","","",""
"card-selection-trial","115","414233","0.0-25.0-1.22","459","true","img/card_backs/set1/yellow.gif","img/card_backs/set1/purple.gif","img/card_backs/set1/red.gif","img/card_backs/set1/green.gif","img/card_backs/set2/gray.gif","img/card_backs/set2/pink.gif","img/card_backs/set2/orange.gif","img/card_backs/set2/blue.gif","""event"",""trial"",""time""
""fullscreenenter"",""1"",""1607""
","
","
","""event"",""trial"",""time""
""fullscreenenter"",""1"",""1607""
","
","","777.3999999761581","","","","real_trial","2021-07-08 21:03:37.940","img/card_backs/set1/yellow.gif","3","240","1","",""
"casino-fixation","116","414738","0.0-25.0-0.23","459","true","img/card_backs/set1/yellow.gif","img/card_backs/set1/purple.gif","img/card_backs/set1/red.gif","img/card_backs/set1/green.gif","img/card_backs/set2/gray.gif","img/card_backs/set2/pink.gif","img/card_backs/set2/orange.gif","img/card_backs/set2/blue.gif","""event"",""trial"",""time""
""fullscreenenter"",""1"",""1607""
","
","
","""event"",""trial"",""time""
""fullscreenenter"",""1"",""1607""
","
","","null","","null","","fixation","2021-07-08 21:03:38.445","","","","","",""
"card-selection-trial","117","417704","0.0-25.0-1.23","459","true","img/card_backs/set1/yellow.gif","img/card_backs/set1/purple.gif","img/card_backs/set1/red.gif","img/card_backs/set1/green.gif","img/card_backs/set2/gray.gif","img/card_backs/set2/pink.gif","img/card_backs/set2/orange.gif","img/card_backs/set2/blue.gif","""event"",""trial"",""time""
""fullscreenenter"",""1"",""1607""
","
","
","""event"",""trial"",""time""
""fullscreenenter"",""1"",""1607""
","
","","952","","","","real_trial","2021-07-08 21:03:41.411","img/card_backs/set1/purple.gif","3","-210","1","",""
"casino-fixation","118","418210","0.0-25.0-0.24","459","true","img/card_backs/set1/yellow.gif","img/card_backs/set1/purple.gif","img/card_backs/set1/red.gif","img/card_backs/set1/green.gif","img/card_backs/set2/gray.gif","img/card_backs/set2/pink.gif","img/card_backs/set2/orange.gif","img/card_backs/set2/blue.gif","""event"",""trial"",""time""
""fullscreenenter"",""1"",""1607""
","
","
","""event"",""trial"",""time""
""fullscreenenter"",""1"",""1607""
","
","","null","","null","","fixation","2021-07-08 21:03:41.917","","","","","",""
"card-selection-trial","119","421443","0.0-25.0-1.24","459","true","img/card_backs/set1/yellow.gif","img/card_backs/set1/purple.gif","img/card_backs/set1/red.gif","img/card_backs/set1/green.gif","img/card_backs/set2/gray.gif","img/card_backs/set2/pink.gif","img/card_backs/set2/orange.gif","img/card_backs/set2/blue.gif","""event"",""trial"",""time""
""fullscreenenter"",""1"",""1607""
","
","
","""event"",""trial"",""time""
""fullscreenenter"",""1"",""1607""
","
","","1222.2999999523163","","","","real_trial","2021-07-08 21:03:45.150","img/card_backs/set1/green.gif","1","60","1","",""
"casino-fixation","120","421949","0.0-25.0-0.25","459","true","img/card_backs/set1/yellow.gif","img/card_backs/set1/purple.gif","img/card_backs/set1/red.gif","img/card_backs/set1/green.gif","img/card_backs/set2/gray.gif","img/card_backs/set2/pink.gif","img/card_backs/set2/orange.gif","img/card_backs/set2/blue.gif","""event"",""trial"",""time""
""fullscreenenter"",""1"",""1607""
","
","
","""event"",""trial"",""time""
""fullscreenenter"",""1"",""1607""
","
","","null","","null","","fixation","2021-07-08 21:03:45.656","","","","","",""
"card-selection-trial","121","425037","0.0-25.0-1.25","459","true","img/card_backs/set1/yellow.gif","img/card_backs/set1/purple.gif","img/card_backs/set1/red.gif","img/card_backs/set1/green.gif","img/card_backs/set2/gray.gif","img/card_backs/set2/pink.gif","img/card_backs/set2/orange.gif","img/card_backs/set2/blue.gif","""event"",""trial"",""time""
""fullscreenenter"",""1"",""1607""
","
","
","""event"",""trial"",""time""
""fullscreenenter"",""1"",""1607""
","
","","1075.7000000476837","","","","real_trial","2021-07-08 21:03:48.745","img/card_backs/set1/green.gif","1","60","1","",""
"casino-fixation","122","425543","0.0-25.0-0.26","459","true","img/card_backs/set1/yellow.gif","img/card_backs/set1/purple.gif","img/card_backs/set1/red.gif","img/card_backs/set1/green.gif","img/card_backs/set2/gray.gif","img/card_backs/set2/pink.gif","img/card_backs/set2/orange.gif","img/card_backs/set2/blue.gif","""event"",""trial"",""time""
""fullscreenenter"",""1"",""1607""
","
","
","""event"",""trial"",""time""
""fullscreenenter"",""1"",""1607""
","
","","null","","null","","fixation","2021-07-08 21:03:49.251","","","","","",""
"card-selection-trial","123","428295","0.0-25.0-1.26","459","true","img/card_backs/set1/yellow.gif","img/card_backs/set1/purple.gif","img/card_backs/set1/red.gif","img/card_backs/set1/green.gif","img/card_backs/set2/gray.gif","img/card_backs/set2/pink.gif","img/card_backs/set2/orange.gif","img/card_backs/set2/blue.gif","""event"",""trial"",""time""
""fullscreenenter"",""1"",""1607""
","
","
","""event"",""trial"",""time""
""fullscreenenter"",""1"",""1607""
","
","","738.0999999046326","","","","real_trial","2021-07-08 21:03:52.002","img/card_backs/set1/red.gif","1","50","1","",""
"casino-fixation","124","428802","0.0-25.0-0.27","459","true","img/card_backs/set1/yellow.gif","img/card_backs/set1/purple.gif","img/card_backs/set1/red.gif","img/card_backs/set1/green.gif","img/card_backs/set2/gray.gif","img/card_backs/set2/pink.gif","img/card_backs/set2/orange.gif","img/card_backs/set2/blue.gif","""event"",""trial"",""time""
""fullscreenenter"",""1"",""1607""
","
","
","""event"",""trial"",""time""
""fullscreenenter"",""1"",""1607""
","
","","null","","null","","fixation","2021-07-08 21:03:52.509","","","","","",""
"card-selection-trial","125","432274","0.0-25.0-1.27","459","true","img/card_backs/set1/yellow.gif","img/card_backs/set1/purple.gif","img/card_backs/set1/red.gif","img/card_backs/set1/green.gif","img/card_backs/set2/gray.gif","img/card_backs/set2/pink.gif","img/card_backs/set2/orange.gif","img/card_backs/set2/blue.gif","""event"",""trial"",""time""
""fullscreenenter"",""1"",""1607""
","
","
","""event"",""trial"",""time""
""fullscreenenter"",""1"",""1607""
","
","","1460.8000000715256","","","","real_trial","2021-07-08 21:03:55.981","img/card_backs/set1/green.gif","2","-90","1","",""
"casino-fixation","126","432781","0.0-25.0-0.28","459","true","img/card_backs/set1/yellow.gif","img/card_backs/set1/purple.gif","img/card_backs/set1/red.gif","img/card_backs/set1/green.gif","img/card_backs/set2/gray.gif","img/card_backs/set2/pink.gif","img/card_backs/set2/orange.gif","img/card_backs/set2/blue.gif","""event"",""trial"",""time""
""fullscreenenter"",""1"",""1607""
","
","
","""event"",""trial"",""time""
""fullscreenenter"",""1"",""1607""
","
","","null","","null","","fixation","2021-07-08 21:03:56.488","","","","","",""
"card-selection-trial","127","435224","0.0-25.0-1.28","459","true","img/card_backs/set1/yellow.gif","img/card_backs/set1/purple.gif","img/card_backs/set1/red.gif","img/card_backs/set1/green.gif","img/card_backs/set2/gray.gif","img/card_backs/set2/pink.gif","img/card_backs/set2/orange.gif","img/card_backs/set2/blue.gif","""event"",""trial"",""time""
""fullscreenenter"",""1"",""1607""
","
","
","""event"",""trial"",""time""
""fullscreenenter"",""1"",""1607""
","
","","433.39999997615814","","","","real_trial","2021-07-08 21:03:58.931","img/card_backs/set1/red.gif","3","50","1","",""
"casino-fixation","128","435730","0.0-25.0-0.29","459","true","img/card_backs/set1/yellow.gif","img/card_backs/set1/purple.gif","img/card_backs/set1/red.gif","img/card_backs/set1/green.gif","img/card_backs/set2/gray.gif","img/card_backs/set2/pink.gif","img/card_backs/set2/orange.gif","img/card_backs/set2/blue.gif","""event"",""trial"",""time""
""fullscreenenter"",""1"",""1607""
","
","
","""event"",""trial"",""time""
""fullscreenenter"",""1"",""1607""
","
","","null","","null","","fixation","2021-07-08 21:03:59.437","","","","","",""
"card-selection-trial","129","438077","0.0-25.0-1.29","459","true","img/card_backs/set1/yellow.gif","img/card_backs/set1/purple.gif","img/card_backs/set1/red.gif","img/card_backs/set1/green.gif","img/card_backs/set2/gray.gif","img/card_backs/set2/pink.gif","img/card_backs/set2/orange.gif","img/card_backs/set2/blue.gif","""event"",""trial"",""time""
""fullscreenenter"",""1"",""1607""
","
","
","""event"",""trial"",""time""
""fullscreenenter"",""1"",""1607""
","
","","332.2999999523163","","","","real_trial","2021-07-08 21:04:01.784","img/card_backs/set1/purple.gif","0","240","1","",""
"casino-fixation","130","438584","0.0-25.0-0.30","459","true","img/card_backs/set1/yellow.gif","img/card_backs/set1/purple.gif","img/card_backs/set1/red.gif","img/card_backs/set1/green.gif","img/card_backs/set2/gray.gif","img/card_backs/set2/pink.gif","img/card_backs/set2/orange.gif","img/card_backs/set2/blue.gif","""event"",""trial"",""time""
""fullscreenenter"",""1"",""1607""
","
","
","""event"",""trial"",""time""
""fullscreenenter"",""1"",""1607""
","
","","null","","null","","fixation","2021-07-08 21:04:02.291","","","","","",""
"card-selection-trial","131","441139","0.0-25.0-1.30","459","true","img/card_backs/set1/yellow.gif","img/card_backs/set1/purple.gif","img/card_backs/set1/red.gif","img/card_backs/set1/green.gif","img/card_backs/set2/gray.gif","img/card_backs/set2/pink.gif","img/card_backs/set2/orange.gif","img/card_backs/set2/blue.gif","""event"",""trial"",""time""
""fullscreenenter"",""1"",""1607""
","
","
","""event"",""trial"",""time""
""fullscreenenter"",""1"",""1607""
","
","","542.7999999523163","","","","real_trial","2021-07-08 21:04:04.846","img/card_backs/set1/red.gif","3","50","1","",""
"casino-fixation","132","441645","0.0-25.0-0.31","459","true","img/card_backs/set1/yellow.gif","img/card_backs/set1/purple.gif","img/card_backs/set1/red.gif","img/card_backs/set1/green.gif","img/card_backs/set2/gray.gif","img/card_backs/set2/pink.gif","img/card_backs/set2/orange.gif","img/card_backs/set2/blue.gif","""event"",""trial"",""time""
""fullscreenenter"",""1"",""1607""
","
","
","""event"",""trial"",""time""
""fullscreenenter"",""1"",""1607""
","
","","null","","null","","fixation","2021-07-08 21:04:05.352","","","","","",""
"card-selection-trial","133","444945","0.0-25.0-1.31","459","true","img/card_backs/set1/yellow.gif","img/card_backs/set1/purple.gif","img/card_backs/set1/red.gif","img/card_backs/set1/green.gif","img/card_backs/set2/gray.gif","img/card_backs/set2/pink.gif","img/card_backs/set2/orange.gif","img/card_backs/set2/blue.gif","""event"",""trial"",""time""
""fullscreenenter"",""1"",""1607""
","
","
","""event"",""trial"",""time""
""fullscreenenter"",""1"",""1607""
","
","","1286.5","","","","real_trial","2021-07-08 21:04:08.652","img/card_backs/set1/yellow.gif","1","-210","1","",""
"casino-fixation","134","445452","0.0-25.0-0.32","459","true","img/card_backs/set1/yellow.gif","img/card_backs/set1/purple.gif","img/card_backs/set1/red.gif","img/card_backs/set1/green.gif","img/card_backs/set2/gray.gif","img/card_backs/set2/pink.gif","img/card_backs/set2/orange.gif","img/card_backs/set2/blue.gif","""event"",""trial"",""time""
""fullscreenenter"",""1"",""1607""
","
","
","""event"",""trial"",""time""
""fullscreenenter"",""1"",""1607""
","
","","null","","null","","fixation","2021-07-08 21:04:09.160","","","","","",""
"card-selection-trial","135","447917","0.0-25.0-1.32","459","true","img/card_backs/set1/yellow.gif","img/card_backs/set1/purple.gif","img/card_backs/set1/red.gif","img/card_backs/set1/green.gif","img/card_backs/set2/gray.gif","img/card_backs/set2/pink.gif","img/card_backs/set2/orange.gif","img/card_backs/set2/blue.gif","""event"",""trial"",""time""
""fullscreenenter"",""1"",""1607""
","
","
","""event"",""trial"",""time""
""fullscreenenter"",""1"",""1607""
","
","","453.7000000476837","","","","real_trial","2021-07-08 21:04:11.624","img/card_backs/set1/red.gif","0","60","1","",""
"casino-fixation","136","448424","0.0-25.0-0.33","459","true","img/card_backs/set1/yellow.gif","img/card_backs/set1/purple.gif","img/card_backs/set1/red.gif","img/card_backs/set1/green.gif","img/card_backs/set2/gray.gif","img/card_backs/set2/pink.gif","img/card_backs/set2/orange.gif","img/card_backs/set2/blue.gif","""event"",""trial"",""time""
""fullscreenenter"",""1"",""1607""
","
","
","""event"",""trial"",""time""
""fullscreenenter"",""1"",""1607""
","
","","null","","null","","fixation","2021-07-08 21:04:12.131","","","","","",""
"card-selection-trial","137","451056","0.0-25.0-1.33","459","true","img/card_backs/set1/yellow.gif","img/card_backs/set1/purple.gif","img/card_backs/set1/red.gif","img/card_backs/set1/green.gif","img/card_backs/set2/gray.gif","img/card_backs/set2/pink.gif","img/card_backs/set2/orange.gif","img/card_backs/set2/blue.gif","""event"",""trial"",""time""
""fullscreenenter"",""1"",""1607""
","
","
","""event"",""trial"",""time""
""fullscreenenter"",""1"",""1607""
","
","","617.8999999761581","","","","real_trial","2021-07-08 21:04:14.763","img/card_backs/set1/green.gif","2","-100","1","",""
"casino-fixation","138","451562","0.0-25.0-0.34","459","true","img/card_backs/set1/yellow.gif","img/card_backs/set1/purple.gif","img/card_backs/set1/red.gif","img/card_backs/set1/green.gif","img/card_backs/set2/gray.gif","img/card_backs/set2/pink.gif","img/card_backs/set2/orange.gif","img/card_backs/set2/blue.gif","""event"",""trial"",""time""
""fullscreenenter"",""1"",""1607""
","
","
","""event"",""trial"",""time""
""fullscreenenter"",""1"",""1607""
","
","","null","","null","","fixation","2021-07-08 21:04:15.269","","","","","",""
"card-selection-trial","139","464573","0.0-25.0-1.34","459","true","img/card_backs/set1/yellow.gif","img/card_backs/set1/purple.gif","img/card_backs/set1/red.gif","img/card_backs/set1/green.gif","img/card_backs/set2/gray.gif","img/card_backs/set2/pink.gif","img/card_backs/set2/orange.gif","img/card_backs/set2/blue.gif","""event"",""trial"",""time""
""fullscreenenter"",""1"",""1607""
","
","
","""event"",""trial"",""time""
""fullscreenenter"",""1"",""1607""
","
","","null","","","","real_trial","2021-07-08 21:04:28.281","null","null","null","1","",""
"casino-fixation","140","465080","0.0-25.0-0.35","459","true","img/card_backs/set1/yellow.gif","img/card_backs/set1/purple.gif","img/card_backs/set1/red.gif","img/card_backs/set1/green.gif","img/card_backs/set2/gray.gif","img/card_backs/set2/pink.gif","img/card_backs/set2/orange.gif","img/card_backs/set2/blue.gif","""event"",""trial"",""time""
""fullscreenenter"",""1"",""1607""
","
","
","""event"",""trial"",""time""
""fullscreenenter"",""1"",""1607""
","
","","null","","null","","fixation","2021-07-08 21:04:28.787","","","","","",""
"card-selection-trial","141","471613","0.0-25.0-1.35","459","true","img/card_backs/set1/yellow.gif","img/card_backs/set1/purple.gif","img/card_backs/set1/red.gif","img/card_backs/set1/green.gif","img/card_backs/set2/gray.gif","img/card_backs/set2/pink.gif","img/card_backs/set2/orange.gif","img/card_backs/set2/blue.gif","""event"",""trial"",""time""
""fullscreenenter"",""1"",""1607""
","
","
","""event"",""trial"",""time""
""fullscreenenter"",""1"",""1607""
","
","","4518.699999928474","","","","real_trial","2021-07-08 21:04:35.320","img/card_backs/set1/red.gif","2","50","1","",""
"casino-fixation","142","472120","0.0-25.0-0.36","459","true","img/card_backs/set1/yellow.gif","img/card_backs/set1/purple.gif","img/card_backs/set1/red.gif","img/card_backs/set1/green.gif","img/card_backs/set2/gray.gif","img/card_backs/set2/pink.gif","img/card_backs/set2/orange.gif","img/card_backs/set2/blue.gif","""event"",""trial"",""time""
""fullscreenenter"",""1"",""1607""
","
","
","""event"",""trial"",""time""
""fullscreenenter"",""1"",""1607""
","
","","null","","null","","fixation","2021-07-08 21:04:35.827","","","","","",""
"card-selection-trial","143","475854","0.0-25.0-1.36","459","true","img/card_backs/set1/yellow.gif","img/card_backs/set1/purple.gif","img/card_backs/set1/red.gif","img/card_backs/set1/green.gif","img/card_backs/set2/gray.gif","img/card_backs/set2/pink.gif","img/card_backs/set2/orange.gif","img/card_backs/set2/blue.gif","""event"",""trial"",""time""
""fullscreenenter"",""1"",""1607""
","
","
","""event"",""trial"",""time""
""fullscreenenter"",""1"",""1607""
","
","","1721.7000000476837","","","","real_trial","2021-07-08 21:04:39.561","img/card_backs/set1/yellow.gif","3","240","1","",""
"casino-fixation","144","476362","0.0-25.0-0.37","459","true","img/card_backs/set1/yellow.gif","img/card_backs/set1/purple.gif","img/card_backs/set1/red.gif","img/card_backs/set1/green.gif","img/card_backs/set2/gray.gif","img/card_backs/set2/pink.gif","img/card_backs/set2/orange.gif","img/card_backs/set2/blue.gif","""event"",""trial"",""time""
""fullscreenenter"",""1"",""1607""
","
","
","""event"",""trial"",""time""
""fullscreenenter"",""1"",""1607""
","
","","null","","null","","fixation","2021-07-08 21:04:40.069","","","","","",""
"card-selection-trial","145","484189","0.0-25.0-1.37","459","true","img/card_backs/set1/yellow.gif","img/card_backs/set1/purple.gif","img/card_backs/set1/red.gif","img/card_backs/set1/green.gif","img/card_backs/set2/gray.gif","img/card_backs/set2/pink.gif","img/card_backs/set2/orange.gif","img/card_backs/set2/blue.gif","""event"",""trial"",""time""
""fullscreenenter"",""1"",""1607""
","
","
","""event"",""trial"",""time""
""fullscreenenter"",""1"",""1607""
","
","","5813.100000023842","","","","real_trial","2021-07-08 21:04:47.896","img/card_backs/set1/purple.gif","2","240","1","",""
"casino-fixation","146","484696","0.0-25.0-0.38","459","true","img/card_backs/set1/yellow.gif","img/card_backs/set1/purple.gif","img/card_backs/set1/red.gif","img/card_backs/set1/green.gif","img/card_backs/set2/gray.gif","img/card_backs/set2/pink.gif","img/card_backs/set2/orange.gif","img/card_backs/set2/blue.gif","""event"",""trial"",""time""
""fullscreenenter"",""1"",""1607""
","
","
","""event"",""trial"",""time""
""fullscreenenter"",""1"",""1607""
","
","","null","","null","","fixation","2021-07-08 21:04:48.403","","","","","",""
"card-selection-trial","147","490803","0.0-25.0-1.38","459","true","img/card_backs/set1/yellow.gif","img/card_backs/set1/purple.gif","img/card_backs/set1/red.gif","img/card_backs/set1/green.gif","img/card_backs/set2/gray.gif","img/card_backs/set2/pink.gif","img/card_backs/set2/orange.gif","img/card_backs/set2/blue.gif","""event"",""trial"",""time""
""fullscreenenter"",""1"",""1607""
","
","
","""event"",""trial"",""time""
""fullscreenenter"",""1"",""1607""
","
","","4097.200000047684","","","","real_trial","2021-07-08 21:04:54.511","img/card_backs/set1/purple.gif","1","-190","1","",""
"casino-fixation","148","491310","0.0-25.0-0.39","459","true","img/card_backs/set1/yellow.gif","img/card_backs/set1/purple.gif","img/card_backs/set1/red.gif","img/card_backs/set1/green.gif","img/card_backs/set2/gray.gif","img/card_backs/set2/pink.gif","img/card_backs/set2/orange.gif","img/card_backs/set2/blue.gif","""event"",""trial"",""time""
""fullscreenenter"",""1"",""1607""
","
","
","""event"",""trial"",""time""
""fullscreenenter"",""1"",""1607""
","
","","null","","null","","fixation","2021-07-08 21:04:55.017","","","","","",""
"card-selection-trial","149","494727","0.0-25.0-1.39","459","true","img/card_backs/set1/yellow.gif","img/card_backs/set1/purple.gif","img/card_backs/set1/red.gif","img/card_backs/set1/green.gif","img/card_backs/set2/gray.gif","img/card_backs/set2/pink.gif","img/card_backs/set2/orange.gif","img/card_backs/set2/blue.gif","""event"",""trial"",""time""
""fullscreenenter"",""1"",""1607""
","
","
","""event"",""trial"",""time""
""fullscreenenter"",""1"",""1607""
","
","","1407.6000000238419","","","","real_trial","2021-07-08 21:04:58.435","img/card_backs/set1/yellow.gif","3","240","1","",""
"casino-fixation","150","495235","0.0-25.0-0.40","459","true","img/card_backs/set1/yellow.gif","img/card_backs/set1/purple.gif","img/card_backs/set1/red.gif","img/card_backs/set1/green.gif","img/card_backs/set2/gray.gif","img/card_backs/set2/pink.gif","img/card_backs/set2/orange.gif","img/card_backs/set2/blue.gif","""event"",""trial"",""time""
""fullscreenenter"",""1"",""1607""
","
","
","""event"",""trial"",""time""
""fullscreenenter"",""1"",""1607""
","
","","null","","null","","fixation","2021-07-08 21:04:58.942","","","","","",""
"card-selection-trial","151","497278","0.0-25.0-1.40","459","true","img/card_backs/set1/yellow.gif","img/card_backs/set1/purple.gif","img/card_backs/set1/red.gif","img/card_backs/set1/green.gif","img/card_backs/set2/gray.gif","img/card_backs/set2/pink.gif","img/card_backs/set2/orange.gif","img/card_backs/set2/blue.gif","""event"",""trial"",""time""
""fullscreenenter"",""1"",""1607""
","
","
","""event"",""trial"",""time""
""fullscreenenter"",""1"",""1607""
","
","","30.600000023841858","","","","real_trial","2021-07-08 21:05:00.985","img/card_backs/set1/green.gif","2","40","1","",""
"casino-fixation","152","497785","0.0-25.0-0.41","459","true","img/card_backs/set1/yellow.gif","img/card_backs/set1/purple.gif","img/card_backs/set1/red.gif","img/card_backs/set1/green.gif","img/card_backs/set2/gray.gif","img/card_backs/set2/pink.gif","img/card_backs/set2/orange.gif","img/card_backs/set2/blue.gif","""event"",""trial"",""time""
""fullscreenenter"",""1"",""1607""
","
","
","""event"",""trial"",""time""
""fullscreenenter"",""1"",""1607""
","
","","null","","null","","fixation","2021-07-08 21:05:01.492","","","","","",""
"card-selection-trial","153","499923","0.0-25.0-1.41","459","true","img/card_backs/set1/yellow.gif","img/card_backs/set1/purple.gif","img/card_backs/set1/red.gif","img/card_backs/set1/green.gif","img/card_backs/set2/gray.gif","img/card_backs/set2/pink.gif","img/card_backs/set2/orange.gif","img/card_backs/set2/blue.gif","""event"",""trial"",""time""
""fullscreenenter"",""1"",""1607""
","
","
","""event"",""trial"",""time""
""fullscreenenter"",""1"",""1607""
","
","","128.90000009536743","","","","real_trial","2021-07-08 21:05:03.630","img/card_backs/set1/yellow.gif","1","250","1","",""
"casino-fixation","154","500425","0.0-25.0-0.42","459","true","img/card_backs/set1/yellow.gif","img/card_backs/set1/purple.gif","img/card_backs/set1/red.gif","img/card_backs/set1/green.gif","img/card_backs/set2/gray.gif","img/card_backs/set2/pink.gif","img/card_backs/set2/orange.gif","img/card_backs/set2/blue.gif","""event"",""trial"",""time""
""fullscreenenter"",""1"",""1607""
","
","
","""event"",""trial"",""time""
""fullscreenenter"",""1"",""1607""
","
","","null","","null","","fixation","2021-07-08 21:05:04.132","","","","","",""
"card-selection-trial","155","502521","0.0-25.0-1.42","459","true","img/card_backs/set1/yellow.gif","img/card_backs/set1/purple.gif","img/card_backs/set1/red.gif","img/card_backs/set1/green.gif","img/card_backs/set2/gray.gif","img/card_backs/set2/pink.gif","img/card_backs/set2/orange.gif","img/card_backs/set2/blue.gif","""event"",""trial"",""time""
""fullscreenenter"",""1"",""1607""
","
","
","""event"",""trial"",""time""
""fullscreenenter"",""1"",""1607""
","
","","85.39999997615814","","","","real_trial","2021-07-08 21:05:06.230","img/card_backs/set1/purple.gif","3","240","1","",""
"casino-fixation","156","503027","0.0-25.0-0.43","459","true","img/card_backs/set1/yellow.gif","img/card_backs/set1/purple.gif","img/card_backs/set1/red.gif","img/card_backs/set1/green.gif","img/card_backs/set2/gray.gif","img/card_backs/set2/pink.gif","img/card_backs/set2/orange.gif","img/card_backs/set2/blue.gif","""event"",""trial"",""time""
""fullscreenenter"",""1"",""1607""
","
","
","""event"",""trial"",""time""
""fullscreenenter"",""1"",""1607""
","
","","null","","null","","fixation","2021-07-08 21:05:06.734","","","","","",""
"card-selection-trial","157","505054","0.0-25.0-1.43","459","true","img/card_backs/set1/yellow.gif","img/card_backs/set1/purple.gif","img/card_backs/set1/red.gif","img/card_backs/set1/green.gif","img/card_backs/set2/gray.gif","img/card_backs/set2/pink.gif","img/card_backs/set2/orange.gif","img/card_backs/set2/blue.gif","""event"",""trial"",""time""
""fullscreenenter"",""1"",""1607""
","
","
","""event"",""trial"",""time""
""fullscreenenter"",""1"",""1607""
","
","","14.699999928474426","","","","real_trial","2021-07-08 21:05:08.762","img/card_backs/set1/purple.gif","0","-190","1","",""
"casino-fixation","158","505561","0.0-25.0-0.44","459","true","img/card_backs/set1/yellow.gif","img/card_backs/set1/purple.gif","img/card_backs/set1/red.gif","img/card_backs/set1/green.gif","img/card_backs/set2/gray.gif","img/card_backs/set2/pink.gif","img/card_backs/set2/orange.gif","img/card_backs/set2/blue.gif","""event"",""trial"",""time""
""fullscreenenter"",""1"",""1607""
","
","
","""event"",""trial"",""time""
""fullscreenenter"",""1"",""1607""
","
","","null","","null","","fixation","2021-07-08 21:05:09.268","","","","","",""
"card-selection-trial","159","507684","0.0-25.0-1.44","459","true","img/card_backs/set1/yellow.gif","img/card_backs/set1/purple.gif","img/card_backs/set1/red.gif","img/card_backs/set1/green.gif","img/card_backs/set2/gray.gif","img/card_backs/set2/pink.gif","img/card_backs/set2/orange.gif","img/card_backs/set2/blue.gif","""event"",""trial"",""time""
""fullscreenenter"",""1"",""1607""
","
","
","""event"",""trial"",""time""
""fullscreenenter"",""1"",""1607""
","
","","109.5","","","","real_trial","2021-07-08 21:05:11.391","img/card_backs/set1/purple.gif","2","260","1","",""
"casino-fixation","160","508190","0.0-25.0-0.45","459","true","img/card_backs/set1/yellow.gif","img/card_backs/set1/purple.gif","img/card_backs/set1/red.gif","img/card_backs/set1/green.gif","img/card_backs/set2/gray.gif","img/card_backs/set2/pink.gif","img/card_backs/set2/orange.gif","img/card_backs/set2/blue.gif","""event"",""trial"",""time""
""fullscreenenter"",""1"",""1607""
","
","
","""event"",""trial"",""time""
""fullscreenenter"",""1"",""1607""
","
","","null","","null","","fixation","2021-07-08 21:05:11.897","","","","","",""
"card-selection-trial","161","510430","0.0-25.0-1.45","459","true","img/card_backs/set1/yellow.gif","img/card_backs/set1/purple.gif","img/card_backs/set1/red.gif","img/card_backs/set1/green.gif","img/card_backs/set2/gray.gif","img/card_backs/set2/pink.gif","img/card_backs/set2/orange.gif","img/card_backs/set2/blue.gif","""event"",""trial"",""time""
""fullscreenenter"",""1"",""1607""
","
","
","""event"",""trial"",""time""
""fullscreenenter"",""1"",""1607""
","
","","230.60000002384186","","","","real_trial","2021-07-08 21:05:14.138","img/card_backs/set1/green.gif","1","40","1","",""
"casino-fixation","162","510937","0.0-25.0-0.46","459","true","img/card_backs/set1/yellow.gif","img/card_backs/set1/purple.gif","img/card_backs/set1/red.gif","img/card_backs/set1/green.gif","img/card_backs/set2/gray.gif","img/card_backs/set2/pink.gif","img/card_backs/set2/orange.gif","img/card_backs/set2/blue.gif","""event"",""trial"",""time""
""fullscreenenter"",""1"",""1607""
","
","
","""event"",""trial"",""time""
""fullscreenenter"",""1"",""1607""
","
","","null","","null","","fixation","2021-07-08 21:05:14.644","","","","","",""
"card-selection-trial","163","513193","0.0-25.0-1.46","459","true","img/card_backs/set1/yellow.gif","img/card_backs/set1/purple.gif","img/card_backs/set1/red.gif","img/card_backs/set1/green.gif","img/card_backs/set2/gray.gif","img/card_backs/set2/pink.gif","img/card_backs/set2/orange.gif","img/card_backs/set2/blue.gif","""event"",""trial"",""time""
""fullscreenenter"",""1"",""1607""
","
","
","""event"",""trial"",""time""
""fullscreenenter"",""1"",""1607""
","
","","244","","","","real_trial","2021-07-08 21:05:16.901","img/card_backs/set1/purple.gif","3","-190","1","",""
"casino-fixation","164","513699","0.0-25.0-0.47","459","true","img/card_backs/set1/yellow.gif","img/card_backs/set1/purple.gif","img/card_backs/set1/red.gif","img/card_backs/set1/green.gif","img/card_backs/set2/gray.gif","img/card_backs/set2/pink.gif","img/card_backs/set2/orange.gif","img/card_backs/set2/blue.gif","""event"",""trial"",""time""
""fullscreenenter"",""1"",""1607""
","
","
","""event"",""trial"",""time""
""fullscreenenter"",""1"",""1607""
","
","","null","","null","","fixation","2021-07-08 21:05:17.407","","","","","",""
"card-selection-trial","165","516089","0.0-25.0-1.47","459","true","img/card_backs/set1/yellow.gif","img/card_backs/set1/purple.gif","img/card_backs/set1/red.gif","img/card_backs/set1/green.gif","img/card_backs/set2/gray.gif","img/card_backs/set2/pink.gif","img/card_backs/set2/orange.gif","img/card_backs/set2/blue.gif","""event"",""trial"",""time""
""fullscreenenter"",""1"",""1607""
","
","
","""event"",""trial"",""time""
""fullscreenenter"",""1"",""1607""
","
","","376.8000000715256","","","","real_trial","2021-07-08 21:05:19.796","img/card_backs/set1/red.gif","2","40","1","",""
"casino-fixation","166","516595","0.0-25.0-0.48","459","true","img/card_backs/set1/yellow.gif","img/card_backs/set1/purple.gif","img/card_backs/set1/red.gif","img/card_backs/set1/green.gif","img/card_backs/set2/gray.gif","img/card_backs/set2/pink.gif","img/card_backs/set2/orange.gif","img/card_backs/set2/blue.gif","""event"",""trial"",""time""
""fullscreenenter"",""1"",""1607""
","
","
","""event"",""trial"",""time""
""fullscreenenter"",""1"",""1607""
","
","","null","","null","","fixation","2021-07-08 21:05:20.302","","","","","",""
"card-selection-trial","167","518724","0.0-25.0-1.48","459","true","img/card_backs/set1/yellow.gif","img/card_backs/set1/purple.gif","img/card_backs/set1/red.gif","img/card_backs/set1/green.gif","img/card_backs/set2/gray.gif","img/card_backs/set2/pink.gif","img/card_backs/set2/orange.gif","img/card_backs/set2/blue.gif","""event"",""trial"",""time""
""fullscreenenter"",""1"",""1607""
","
","
","""event"",""trial"",""time""
""fullscreenenter"",""1"",""1607""
","
","","117.10000002384186","","","","real_trial","2021-07-08 21:05:22.431","img/card_backs/set1/purple.gif","0","-210","1","",""
