"trial_type","trial_index","time_elapsed","internal_node_id","sub_id","risk_good_first","block1_A","block1_B","block1_C","block1_D","block2_A","block2_B","block2_C","block2_D","interactions","blur_events","focus_events","fullscreenenter_events","fullscreenexit_events","success","rt","stimulus","key_press","button_pressed","task_part","timestamp","card_choice","choice_position","points_earned","block","correct","response"
"pavlovia","0","4","0.0-0.0","1025","true","img/card_backs/set1/yellow.gif","img/card_backs/set1/red.gif","img/card_backs/set1/purple.gif","img/card_backs/set1/green.gif","img/card_backs/set2/blue.gif","img/card_backs/set2/pink.gif","img/card_backs/set2/gray.gif","img/card_backs/set2/orange.gif","""event"",""trial"",""time""
""fullscreenenter"",""1"",""4244""
","
","
","""event"",""trial"",""time""
""fullscreenenter"",""1"",""4244""
","
","","","","","","","","","","","","",""
"fullscreen","1","5244","0.0-1.0","1025","true","img/card_backs/set1/yellow.gif","img/card_backs/set1/red.gif","img/card_backs/set1/purple.gif","img/card_backs/set1/green.gif","img/card_backs/set2/blue.gif","img/card_backs/set2/pink.gif","img/card_backs/set2/gray.gif","img/card_backs/set2/orange.gif","""event"",""trial"",""time""
""fullscreenenter"",""1"",""4244""
","
","
","""event"",""trial"",""time""
""fullscreenenter"",""1"",""4244""
","
","true","","","","","","","","","","","",""
"audio-keyboard-response","2","12052","0.0-2.0","1025","true","img/card_backs/set1/yellow.gif","img/card_backs/set1/red.gif","img/card_backs/set1/purple.gif","img/card_backs/set1/green.gif","img/card_backs/set2/blue.gif","img/card_backs/set2/pink.gif","img/card_backs/set2/gray.gif","img/card_backs/set2/orange.gif","""event"",""trial"",""time""
""fullscreenenter"",""1"",""4244""
","
","
","""event"",""trial"",""time""
""fullscreenenter"",""1"",""4244""
","
","","6781","audio/beep_loop.wav","32","","","","","","","","",""
"audio-button-response","3","17155","0.0-3.0","1025","true","img/card_backs/set1/yellow.gif","img/card_backs/set1/red.gif","img/card_backs/set1/purple.gif","img/card_backs/set1/green.gif","img/card_backs/set2/blue.gif","img/card_backs/set2/pink.gif","img/card_backs/set2/gray.gif","img/card_backs/set2/orange.gif","""event"",""trial"",""time""
""fullscreenenter"",""1"",""4244""
","
","
","""event"",""trial"",""time""
""fullscreenenter"",""1"",""4244""
","
","","NaN","audio/turtle.mp3","","3","","","","","","","",""
"audio-button-response","4","20699","0.0-4.0","1025","true","img/card_backs/set1/yellow.gif","img/card_backs/set1/red.gif","img/card_backs/set1/purple.gif","img/card_backs/set1/green.gif","img/card_backs/set2/blue.gif","img/card_backs/set2/pink.gif","img/card_backs/set2/gray.gif","img/card_backs/set2/orange.gif","""event"",""trial"",""time""
""fullscreenenter"",""1"",""4244""
","
","
","""event"",""trial"",""time""
""fullscreenenter"",""1"",""4244""
","
","","NaN","audio/shark.mp3","","2","","","","","","","",""
"fullscreen","5","25538","0.0-5.0","1025","true","img/card_backs/set1/yellow.gif","img/card_backs/set1/red.gif","img/card_backs/set1/purple.gif","img/card_backs/set1/green.gif","img/card_backs/set2/blue.gif","img/card_backs/set2/pink.gif","img/card_backs/set2/gray.gif","img/card_backs/set2/orange.gif","""event"",""trial"",""time""
""fullscreenenter"",""1"",""4244""
","
","
","""event"",""trial"",""time""
""fullscreenenter"",""1"",""4244""
","
","true","","","","","","","","","","","",""
"casino-keyboard-response","6","30903","0.0-6.0-0.0","1025","true","img/card_backs/set1/yellow.gif","img/card_backs/set1/red.gif","img/card_backs/set1/purple.gif","img/card_backs/set1/green.gif","img/card_backs/set2/blue.gif","img/card_backs/set2/pink.gif","img/card_backs/set2/gray.gif","img/card_backs/set2/orange.gif","""event"",""trial"",""time""
""fullscreenenter"",""1"",""4244""
","
","
","""event"",""trial"",""time""
""fullscreenenter"",""1"",""4244""
","
","","5362.599999904633","Welcome to the casino!","71","","instructions","2021-07-28 15:04:26.790","","","","","",""
"casino-keyboard-response","7","43813","0.0-6.0-0.1","1025","true","img/card_backs/set1/yellow.gif","img/card_backs/set1/red.gif","img/card_backs/set1/purple.gif","img/card_backs/set1/green.gif","img/card_backs/set2/blue.gif","img/card_backs/set2/pink.gif","img/card_backs/set2/gray.gif","img/card_backs/set2/orange.gif","""event"",""trial"",""time""
""fullscreenenter"",""1"",""4244""
","
","
","""event"",""trial"",""time""
""fullscreenenter"",""1"",""4244""
","
","","12909.199999809265","Today you will be playing a game to earn tokens. </br> At the end of the experiment, you will be paid a bonus based on how many tokens you win. ","69","","instructions","2021-07-28 15:04:39.700","","","","","",""
"casino-keyboard-response","8","52693","0.0-6.0-0.2","1025","true","img/card_backs/set1/yellow.gif","img/card_backs/set1/red.gif","img/card_backs/set1/purple.gif","img/card_backs/set1/green.gif","img/card_backs/set2/blue.gif","img/card_backs/set2/pink.gif","img/card_backs/set2/gray.gif","img/card_backs/set2/orange.gif","""event"",""trial"",""time""
""fullscreenenter"",""1"",""4244""
","
","
","""event"",""trial"",""time""
""fullscreenenter"",""1"",""4244""
","
","","8878.399999856949","On every turn, you will be shown four different decks of cards. </br> You need to select a card from one of the four decks.  ","75","","instructions","2021-07-28 15:04:48.580","","","","","",""
"casino-keyboard-response","9","70921","0.0-6.0-0.3","1025","true","img/card_backs/set1/yellow.gif","img/card_backs/set1/red.gif","img/card_backs/set1/purple.gif","img/card_backs/set1/green.gif","img/card_backs/set2/blue.gif","img/card_backs/set2/pink.gif","img/card_backs/set2/gray.gif","img/card_backs/set2/orange.gif","""event"",""trial"",""time""
""fullscreenenter"",""1"",""4244""
","
","
","""event"",""trial"",""time""
""fullscreenenter"",""1"",""4244""
","
","","18227.099999904633","On the next screen, you will see what the decks will look like. ","66","","instructions","2021-07-28 15:05:06.808","","","","","",""
"card-selection-trial","10","74938","0.0-7.0-0.0","1025","true","img/card_backs/set1/yellow.gif","img/card_backs/set1/red.gif","img/card_backs/set1/purple.gif","img/card_backs/set1/green.gif","img/card_backs/set2/blue.gif","img/card_backs/set2/pink.gif","img/card_backs/set2/gray.gif","img/card_backs/set2/orange.gif","""event"",""trial"",""time""
""fullscreenenter"",""1"",""4244""
","
","
","""event"",""trial"",""time""
""fullscreenenter"",""1"",""4244""
","
","","null","","","","practice","2021-07-28 15:05:10.825","null","null","null","0","",""
"casino-keyboard-response","11","86494","0.0-8.0-0.0","1025","true","img/card_backs/set1/yellow.gif","img/card_backs/set1/red.gif","img/card_backs/set1/purple.gif","img/card_backs/set1/green.gif","img/card_backs/set2/blue.gif","img/card_backs/set2/pink.gif","img/card_backs/set2/gray.gif","img/card_backs/set2/orange.gif","""event"",""trial"",""time""
""fullscreenenter"",""1"",""4244""
","
","
","""event"",""trial"",""time""
""fullscreenenter"",""1"",""4244""
","
","","11555.199999809265","You should pick a card from a deck using the '2', '4', '6', and '8' keys at the top of the keyboard.","85","","instructions","2021-07-28 15:05:22.381","","","","","",""
"casino-keyboard-response","12","95437","0.0-8.0-0.1","1025","true","img/card_backs/set1/yellow.gif","img/card_backs/set1/red.gif","img/card_backs/set1/purple.gif","img/card_backs/set1/green.gif","img/card_backs/set2/blue.gif","img/card_backs/set2/pink.gif","img/card_backs/set2/gray.gif","img/card_backs/set2/orange.gif","""event"",""trial"",""time""
""fullscreenenter"",""1"",""4244""
","
","
","""event"",""trial"",""time""
""fullscreenenter"",""1"",""4244""
","
","","8941.700000047684","Once you select a card, it will turn over and you will see how many tokens you earned.","83","","instructions","2021-07-28 15:05:31.324","","","","","",""
"casino-keyboard-response","13","112526","0.0-8.0-0.2","1025","true","img/card_backs/set1/yellow.gif","img/card_backs/set1/red.gif","img/card_backs/set1/purple.gif","img/card_backs/set1/green.gif","img/card_backs/set2/blue.gif","img/card_backs/set2/pink.gif","img/card_backs/set2/gray.gif","img/card_backs/set2/orange.gif","""event"",""trial"",""time""
""fullscreenenter"",""1"",""4244""
","
","
","""event"",""trial"",""time""
""fullscreenenter"",""1"",""4244""
","
","","17088.299999952316","Let's try practicing that! </br> First, try to put your fingers over the '2', '4', '6', and '8' keys. </br>  You can use whatever fingers are most comfortable for you. Try to find a comfortable position now. ","50","","instructions","2021-07-28 15:05:48.413","","","","","",""
"casino-keyboard-response","14","123869","0.0-8.0-0.3","1025","true","img/card_backs/set1/yellow.gif","img/card_backs/set1/red.gif","img/card_backs/set1/purple.gif","img/card_backs/set1/green.gif","img/card_backs/set2/blue.gif","img/card_backs/set2/pink.gif","img/card_backs/set2/gray.gif","img/card_backs/set2/orange.gif","""event"",""trial"",""time""
""fullscreenenter"",""1"",""4244""
","
","
","""event"",""trial"",""time""
""fullscreenenter"",""1"",""4244""
","
","","11341.900000095367","Okay ready? </br> On the next screen, press '2' to select the left deck. ","50","","instructions","2021-07-28 15:05:59.756","","","","","",""
"card-selection-trial","15","128752","0.0-9.0-0.0","1025","true","img/card_backs/set1/yellow.gif","img/card_backs/set1/red.gif","img/card_backs/set1/purple.gif","img/card_backs/set1/green.gif","img/card_backs/set2/blue.gif","img/card_backs/set2/pink.gif","img/card_backs/set2/gray.gif","img/card_backs/set2/orange.gif","""event"",""trial"",""time""
""fullscreenenter"",""1"",""4244""
","
","
","""event"",""trial"",""time""
""fullscreenenter"",""1"",""4244""
","
","","2863.399999856949","","","","practice_card_selection","2021-07-28 15:06:04.639","img/practice_cards/backs/dark_blue.gif","0","-200","","",""
"casino-keyboard-response","16","139590","0.0-10.0-0.0","1025","true","img/card_backs/set1/yellow.gif","img/card_backs/set1/red.gif","img/card_backs/set1/purple.gif","img/card_backs/set1/green.gif","img/card_backs/set2/blue.gif","img/card_backs/set2/pink.gif","img/card_backs/set2/gray.gif","img/card_backs/set2/orange.gif","""event"",""trial"",""time""
""fullscreenenter"",""1"",""4244""
","
","
","""event"",""trial"",""time""
""fullscreenenter"",""1"",""4244""
","
","","10836.5","Great! Now on the next screen, try pressing '6' to select the third deck.","54","","instructions","2021-07-28 15:06:15.477","","","","","",""
"card-selection-trial","17","143236","0.0-11.0-0.0","1025","true","img/card_backs/set1/yellow.gif","img/card_backs/set1/red.gif","img/card_backs/set1/purple.gif","img/card_backs/set1/green.gif","img/card_backs/set2/blue.gif","img/card_backs/set2/pink.gif","img/card_backs/set2/gray.gif","img/card_backs/set2/orange.gif","""event"",""trial"",""time""
""fullscreenenter"",""1"",""4244""
","
","
","""event"",""trial"",""time""
""fullscreenenter"",""1"",""4244""
","
","","1627.7999999523163","","","","practice_card_selection","2021-07-28 15:06:19.124","img/practice_cards/backs/brown.gif","2","-100","","",""
"casino-keyboard-response","18","149687","0.0-12.0-0.0","1025","true","img/card_backs/set1/yellow.gif","img/card_backs/set1/red.gif","img/card_backs/set1/purple.gif","img/card_backs/set1/green.gif","img/card_backs/set2/blue.gif","img/card_backs/set2/pink.gif","img/card_backs/set2/gray.gif","img/card_backs/set2/orange.gif","""event"",""trial"",""time""
""fullscreenenter"",""1"",""4244""
","
","
","""event"",""trial"",""time""
""fullscreenenter"",""1"",""4244""
","
","","6449.400000095367","Now on the next screen, try pressing '4' to select the second deck.","52","","instructions","2021-07-28 15:06:25.574","","","","","",""
"card-selection-trial","19","156073","0.0-13.0-0.0","1025","true","img/card_backs/set1/yellow.gif","img/card_backs/set1/red.gif","img/card_backs/set1/purple.gif","img/card_backs/set1/green.gif","img/card_backs/set2/blue.gif","img/card_backs/set2/pink.gif","img/card_backs/set2/gray.gif","img/card_backs/set2/orange.gif","""event"",""trial"",""time""
""fullscreenenter"",""1"",""4244""
","
","
","""event"",""trial"",""time""
""fullscreenenter"",""1"",""4244""
","
","","4370.599999904633","","","","practice_card_selection","2021-07-28 15:06:31.960","img/practice_cards/backs/dark_blue.gif","1","200","","",""
"casino-keyboard-response","20","160394","0.0-14.0-0.0","1025","true","img/card_backs/set1/yellow.gif","img/card_backs/set1/red.gif","img/card_backs/set1/purple.gif","img/card_backs/set1/green.gif","img/card_backs/set2/blue.gif","img/card_backs/set2/pink.gif","img/card_backs/set2/gray.gif","img/card_backs/set2/orange.gif","""event"",""trial"",""time""
""fullscreenenter"",""1"",""4244""
","
","
","""event"",""trial"",""time""
""fullscreenenter"",""1"",""4244""
","
","","4319.900000095367","Finally, try pressing '8' to select the deck all the way on the right.","56","","instructions","2021-07-28 15:06:36.281","","","","","",""
"card-selection-trial","21","163312","0.0-15.0-0.0","1025","true","img/card_backs/set1/yellow.gif","img/card_backs/set1/red.gif","img/card_backs/set1/purple.gif","img/card_backs/set1/green.gif","img/card_backs/set2/blue.gif","img/card_backs/set2/pink.gif","img/card_backs/set2/gray.gif","img/card_backs/set2/orange.gif","""event"",""trial"",""time""
""fullscreenenter"",""1"",""4244""
","
","
","""event"",""trial"",""time""
""fullscreenenter"",""1"",""4244""
","
","","910.2000000476837","","","","practice_card_selection","2021-07-28 15:06:39.199","img/practice_cards/backs/brown.gif","3","-100","","",""
"casino-keyboard-response","22","181375","0.0-16.0-0.0","1025","true","img/card_backs/set1/yellow.gif","img/card_backs/set1/red.gif","img/card_backs/set1/purple.gif","img/card_backs/set1/green.gif","img/card_backs/set2/blue.gif","img/card_backs/set2/pink.gif","img/card_backs/set2/gray.gif","img/card_backs/set2/orange.gif","""event"",""trial"",""time""
""fullscreenenter"",""1"",""4244""
","
","
","""event"",""trial"",""time""
""fullscreenenter"",""1"",""4244""
","
","","18062.200000047684","Great! It seems like you are getting the hang of this.","80","","instructions","2021-07-28 15:06:57.262","","","","","",""
"casino-keyboard-response","23","199382","0.0-16.0-0.1","1025","true","img/card_backs/set1/yellow.gif","img/card_backs/set1/red.gif","img/card_backs/set1/purple.gif","img/card_backs/set1/green.gif","img/card_backs/set2/blue.gif","img/card_backs/set2/pink.gif","img/card_backs/set2/gray.gif","img/card_backs/set2/orange.gif","""event"",""trial"",""time""
""fullscreenenter"",""1"",""4244""
","
","
","""event"",""trial"",""time""
""fullscreenenter"",""1"",""4244""
","
","","18006.5","You may have noticed that some cards will cause you to <b> win </b> tokens while other cards will cause you to <b> lose </b>  tokens.","70","","instructions","2021-07-28 15:07:15.270","","","","","",""
"casino-keyboard-response","24","220375","0.0-16.0-0.2","1025","true","img/card_backs/set1/yellow.gif","img/card_backs/set1/red.gif","img/card_backs/set1/purple.gif","img/card_backs/set1/green.gif","img/card_backs/set2/blue.gif","img/card_backs/set2/pink.gif","img/card_backs/set2/gray.gif","img/card_backs/set2/orange.gif","""event"",""trial"",""time""
""fullscreenenter"",""1"",""4244""
","
","
","""event"",""trial"",""time""
""fullscreenenter"",""1"",""4244""
","
","","20991.10000014305","Each deck has a mix of cards that will cause you to win and lose tokens. </br> However, the cards in each colored deck are different.","73","","instructions","2021-07-28 15:07:36.262","","","","","",""
"casino-keyboard-response","25","236626","0.0-16.0-0.3","1025","true","img/card_backs/set1/yellow.gif","img/card_backs/set1/red.gif","img/card_backs/set1/purple.gif","img/card_backs/set1/green.gif","img/card_backs/set2/blue.gif","img/card_backs/set2/pink.gif","img/card_backs/set2/gray.gif","img/card_backs/set2/orange.gif","""event"",""trial"",""time""
""fullscreenenter"",""1"",""4244""
","
","
","""event"",""trial"",""time""
""fullscreenenter"",""1"",""4244""
","
","","16249.899999856949","Some colored decks are luckier than others. </br> If you choose the lucky decks, you will earn more tokens than if you choose the unlucky decks.","69","","instructions","2021-07-28 15:07:52.513","","","","","",""
"casino-keyboard-response","26","259562","0.0-16.0-0.4","1025","true","img/card_backs/set1/yellow.gif","img/card_backs/set1/red.gif","img/card_backs/set1/purple.gif","img/card_backs/set1/green.gif","img/card_backs/set2/blue.gif","img/card_backs/set2/pink.gif","img/card_backs/set2/gray.gif","img/card_backs/set2/orange.gif","""event"",""trial"",""time""
""fullscreenenter"",""1"",""4244""
","
","
","""event"",""trial"",""time""
""fullscreenenter"",""1"",""4244""
","
","","22935.099999904633","You should try to figure out which decks are lucky. </br> Then, try to choose the lucky decks so you can win the most tokens.","87","","instructions","2021-07-28 15:08:15.450","","","","","",""
"casino-keyboard-response","27","275441","0.0-16.0-0.5","1025","true","img/card_backs/set1/yellow.gif","img/card_backs/set1/red.gif","img/card_backs/set1/purple.gif","img/card_backs/set1/green.gif","img/card_backs/set2/blue.gif","img/card_backs/set2/pink.gif","img/card_backs/set2/gray.gif","img/card_backs/set2/orange.gif","""event"",""trial"",""time""
""fullscreenenter"",""1"",""4244""
","
","
","""event"",""trial"",""time""
""fullscreenenter"",""1"",""4244""
","
","","15877.399999856949","To make it trickier, the casino dealer will switch the locations of the decks on every turn. </br> The color of the deck determines how lucky it is. The location does not matter.","88","","instructions","2021-07-28 15:08:31.328","","","","","",""
"casino-keyboard-response","28","289905","0.0-16.0-0.6","1025","true","img/card_backs/set1/yellow.gif","img/card_backs/set1/red.gif","img/card_backs/set1/purple.gif","img/card_backs/set1/green.gif","img/card_backs/set2/blue.gif","img/card_backs/set2/pink.gif","img/card_backs/set2/gray.gif","img/card_backs/set2/orange.gif","""event"",""trial"",""time""
""fullscreenenter"",""1"",""4244""
","
","
","""event"",""trial"",""time""
""fullscreenenter"",""1"",""4244""
","
","","14462.900000095367","The mix of cards in each colored deck will stay the same throughout the game. </br> That means that a deck that is lucky early on will stay lucky.","79","","instructions","2021-07-28 15:08:45.792","","","","","",""
"casino-keyboard-response","29","300452","0.0-16.0-0.7","1025","true","img/card_backs/set1/yellow.gif","img/card_backs/set1/red.gif","img/card_backs/set1/purple.gif","img/card_backs/set1/green.gif","img/card_backs/set2/blue.gif","img/card_backs/set2/pink.gif","img/card_backs/set2/gray.gif","img/card_backs/set2/orange.gif","""event"",""trial"",""time""
""fullscreenenter"",""1"",""4244""
","
","
","""event"",""trial"",""time""
""fullscreenenter"",""1"",""4244""
","
","","10545.299999952316","Remember though, all the decks have a <b> mix </b> of both <b> good </b> and <b> bad </b> cards so it may take a couple of turns to figure out if a deck is lucky.","69","","instructions","2021-07-28 15:08:56.339","","","","","",""
"casino-keyboard-response","30","316608","0.0-16.0-0.8","1025","true","img/card_backs/set1/yellow.gif","img/card_backs/set1/red.gif","img/card_backs/set1/purple.gif","img/card_backs/set1/green.gif","img/card_backs/set2/blue.gif","img/card_backs/set2/pink.gif","img/card_backs/set2/gray.gif","img/card_backs/set2/orange.gif","""event"",""trial"",""time""
""fullscreenenter"",""1"",""4244""
","
","
","""event"",""trial"",""time""
""fullscreenenter"",""1"",""4244""
","
","","16155.200000047684","At the end of the game, you will be paid bonus money based on how many tokens you win. </br> If you win more tokens, you will earn more money!","72","","instructions","2021-07-28 15:09:12.495","","","","","",""
"casino-keyboard-response","31","328621","0.0-16.0-0.9","1025","true","img/card_backs/set1/yellow.gif","img/card_backs/set1/red.gif","img/card_backs/set1/purple.gif","img/card_backs/set1/green.gif","img/card_backs/set2/blue.gif","img/card_backs/set2/pink.gif","img/card_backs/set2/gray.gif","img/card_backs/set2/orange.gif","""event"",""trial"",""time""
""fullscreenenter"",""1"",""4244""
","
","
","""event"",""trial"",""time""
""fullscreenenter"",""1"",""4244""
","
","","12011.700000047684","You will never <b> lose </b> money. </br> If you end up with fewer than 0 tokens, you will earn $0 of bonus money, but you will still be paid for playing the game.","83","","instructions","2021-07-28 15:09:24.508","","","","","",""
"casino-keyboard-response","32","351748","0.0-16.0-0.10","1025","true","img/card_backs/set1/yellow.gif","img/card_backs/set1/red.gif","img/card_backs/set1/purple.gif","img/card_backs/set1/green.gif","img/card_backs/set2/blue.gif","img/card_backs/set2/pink.gif","img/card_backs/set2/gray.gif","img/card_backs/set2/orange.gif","""event"",""trial"",""time""
""fullscreenenter"",""1"",""4244""
","
","
","""event"",""trial"",""time""
""fullscreenenter"",""1"",""4244""
","
","","23126.099999904633","You will have 10 seconds to make each choice.","82","","instructions","2021-07-28 15:09:47.635","","","","","",""
"casino-keyboard-response","33","363872","0.0-16.0-0.11","1025","true","img/card_backs/set1/yellow.gif","img/card_backs/set1/red.gif","img/card_backs/set1/purple.gif","img/card_backs/set1/green.gif","img/card_backs/set2/blue.gif","img/card_backs/set2/pink.gif","img/card_backs/set2/gray.gif","img/card_backs/set2/orange.gif","""event"",""trial"",""time""
""fullscreenenter"",""1"",""4244""
","
","
","""event"",""trial"",""time""
""fullscreenenter"",""1"",""4244""
","
","","12121.899999856949","Before you play the game for real, you will play with practice decks. </br> The tokens you earn during practice won't count toward your total.","86","","instructions","2021-07-28 15:09:59.759","","","","","",""
"casino-keyboard-response","34","378928","0.0-16.0-0.12","1025","true","img/card_backs/set1/yellow.gif","img/card_backs/set1/red.gif","img/card_backs/set1/purple.gif","img/card_backs/set1/green.gif","img/card_backs/set2/blue.gif","img/card_backs/set2/pink.gif","img/card_backs/set2/gray.gif","img/card_backs/set2/orange.gif","""event"",""trial"",""time""
""fullscreenenter"",""1"",""4244""
","
","
","""event"",""trial"",""time""
""fullscreenenter"",""1"",""4244""
","
","","15054.099999904633","Ready? Remember, use the '2', '4', '6', and '8' keys to select the decks. </br> Put your fingers on those keys now and then press '2' to begin.","50","","instructions","2021-07-28 15:10:14.815","","","","","",""
"casino-fixation","35","379433","0.0-17.0-0.0","1025","true","img/card_backs/set1/yellow.gif","img/card_backs/set1/red.gif","img/card_backs/set1/purple.gif","img/card_backs/set1/green.gif","img/card_backs/set2/blue.gif","img/card_backs/set2/pink.gif","img/card_backs/set2/gray.gif","img/card_backs/set2/orange.gif","""event"",""trial"",""time""
""fullscreenenter"",""1"",""4244""
","
","
","""event"",""trial"",""time""
""fullscreenenter"",""1"",""4244""
","
","","null","","null","","fixation","2021-07-28 15:10:15.320","","","","","",""
"card-selection-trial","36","392456","0.0-17.0-1.0","1025","true","img/card_backs/set1/yellow.gif","img/card_backs/set1/red.gif","img/card_backs/set1/purple.gif","img/card_backs/set1/green.gif","img/card_backs/set2/blue.gif","img/card_backs/set2/pink.gif","img/card_backs/set2/gray.gif","img/card_backs/set2/orange.gif","""event"",""trial"",""time""
""fullscreenenter"",""1"",""4244""
","
","
","""event"",""trial"",""time""
""fullscreenenter"",""1"",""4244""
","
","","null","","","","practice","2021-07-28 15:10:28.343","null","null","null","0","",""
"casino-fixation","37","392966","0.0-17.0-0.1","1025","true","img/card_backs/set1/yellow.gif","img/card_backs/set1/red.gif","img/card_backs/set1/purple.gif","img/card_backs/set1/green.gif","img/card_backs/set2/blue.gif","img/card_backs/set2/pink.gif","img/card_backs/set2/gray.gif","img/card_backs/set2/orange.gif","""event"",""trial"",""time""
""fullscreenenter"",""1"",""4244""
","
","
","""event"",""trial"",""time""
""fullscreenenter"",""1"",""4244""
","
","","null","","null","","fixation","2021-07-28 15:10:28.853","","","","","",""
"card-selection-trial","38","396162","0.0-17.0-1.1","1025","true","img/card_backs/set1/yellow.gif","img/card_backs/set1/red.gif","img/card_backs/set1/purple.gif","img/card_backs/set1/green.gif","img/card_backs/set2/blue.gif","img/card_backs/set2/pink.gif","img/card_backs/set2/gray.gif","img/card_backs/set2/orange.gif","""event"",""trial"",""time""
""fullscreenenter"",""1"",""4244""
","
","
","""event"",""trial"",""time""
""fullscreenenter"",""1"",""4244""
","
","","1181.7999999523163","","","","practice","2021-07-28 15:10:32.049","img/practice_cards/backs/brown.gif","2","-100","0","",""
"casino-fixation","39","396672","0.0-17.0-0.2","1025","true","img/card_backs/set1/yellow.gif","img/card_backs/set1/red.gif","img/card_backs/set1/purple.gif","img/card_backs/set1/green.gif","img/card_backs/set2/blue.gif","img/card_backs/set2/pink.gif","img/card_backs/set2/gray.gif","img/card_backs/set2/orange.gif","""event"",""trial"",""time""
""fullscreenenter"",""1"",""4244""
","
","
","""event"",""trial"",""time""
""fullscreenenter"",""1"",""4244""
","
","","null","","null","","fixation","2021-07-28 15:10:32.559","","","","","",""
"card-selection-trial","40","401549","0.0-17.0-1.2","1025","true","img/card_backs/set1/yellow.gif","img/card_backs/set1/red.gif","img/card_backs/set1/purple.gif","img/card_backs/set1/green.gif","img/card_backs/set2/blue.gif","img/card_backs/set2/pink.gif","img/card_backs/set2/gray.gif","img/card_backs/set2/orange.gif","""event"",""trial"",""time""
""fullscreenenter"",""1"",""4244""
","
","
","""event"",""trial"",""time""
""fullscreenenter"",""1"",""4244""
","
","","2873.5","","","","practice","2021-07-28 15:10:37.436","img/practice_cards/backs/black.gif","1","-100","0","",""
"casino-fixation","41","402051","0.0-17.0-0.3","1025","true","img/card_backs/set1/yellow.gif","img/card_backs/set1/red.gif","img/card_backs/set1/purple.gif","img/card_backs/set1/green.gif","img/card_backs/set2/blue.gif","img/card_backs/set2/pink.gif","img/card_backs/set2/gray.gif","img/card_backs/set2/orange.gif","""event"",""trial"",""time""
""fullscreenenter"",""1"",""4244""
","
","
","""event"",""trial"",""time""
""fullscreenenter"",""1"",""4244""
","
","","null","","null","","fixation","2021-07-28 15:10:37.938","","","","","",""
"card-selection-trial","42","405462","0.0-17.0-1.3","1025","true","img/card_backs/set1/yellow.gif","img/card_backs/set1/red.gif","img/card_backs/set1/purple.gif","img/card_backs/set1/green.gif","img/card_backs/set2/blue.gif","img/card_backs/set2/pink.gif","img/card_backs/set2/gray.gif","img/card_backs/set2/orange.gif","""event"",""trial"",""time""
""fullscreenenter"",""1"",""4244""
","
","
","""event"",""trial"",""time""
""fullscreenenter"",""1"",""4244""
","
","","1407.3999998569489","","","","practice","2021-07-28 15:10:41.349","img/practice_cards/backs/dark_blue.gif","0","-200","0","",""
"casino-fixation","43","405965","0.0-17.0-0.4","1025","true","img/card_backs/set1/yellow.gif","img/card_backs/set1/red.gif","img/card_backs/set1/purple.gif","img/card_backs/set1/green.gif","img/card_backs/set2/blue.gif","img/card_backs/set2/pink.gif","img/card_backs/set2/gray.gif","img/card_backs/set2/orange.gif","""event"",""trial"",""time""
""fullscreenenter"",""1"",""4244""
","
","
","""event"",""trial"",""time""
""fullscreenenter"",""1"",""4244""
","
","","null","","null","","fixation","2021-07-28 15:10:41.852","","","","","",""
"card-selection-trial","44","409914","0.0-17.0-1.4","1025","true","img/card_backs/set1/yellow.gif","img/card_backs/set1/red.gif","img/card_backs/set1/purple.gif","img/card_backs/set1/green.gif","img/card_backs/set2/blue.gif","img/card_backs/set2/pink.gif","img/card_backs/set2/gray.gif","img/card_backs/set2/orange.gif","""event"",""trial"",""time""
""fullscreenenter"",""1"",""4244""
","
","
","""event"",""trial"",""time""
""fullscreenenter"",""1"",""4244""
","
","","1944.9000000953674","","","","practice","2021-07-28 15:10:45.801","img/practice_cards/backs/brown.gif","3","100","0","",""
"casino-fixation","45","410416","0.0-17.0-0.5","1025","true","img/card_backs/set1/yellow.gif","img/card_backs/set1/red.gif","img/card_backs/set1/purple.gif","img/card_backs/set1/green.gif","img/card_backs/set2/blue.gif","img/card_backs/set2/pink.gif","img/card_backs/set2/gray.gif","img/card_backs/set2/orange.gif","""event"",""trial"",""time""
""fullscreenenter"",""1"",""4244""
","
","
","""event"",""trial"",""time""
""fullscreenenter"",""1"",""4244""
","
","","null","","null","","fixation","2021-07-28 15:10:46.303","","","","","",""
"card-selection-trial","46","416394","0.0-17.0-1.5","1025","true","img/card_backs/set1/yellow.gif","img/card_backs/set1/red.gif","img/card_backs/set1/purple.gif","img/card_backs/set1/green.gif","img/card_backs/set2/blue.gif","img/card_backs/set2/pink.gif","img/card_backs/set2/gray.gif","img/card_backs/set2/orange.gif","""event"",""trial"",""time""
""fullscreenenter"",""1"",""4244""
","
","
","""event"",""trial"",""time""
""fullscreenenter"",""1"",""4244""
","
","","3974.7000000476837","","","","practice","2021-07-28 15:10:52.281","img/practice_cards/backs/brown.gif","2","100","0","",""
"casino-fixation","47","416896","0.0-17.0-0.6","1025","true","img/card_backs/set1/yellow.gif","img/card_backs/set1/red.gif","img/card_backs/set1/purple.gif","img/card_backs/set1/green.gif","img/card_backs/set2/blue.gif","img/card_backs/set2/pink.gif","img/card_backs/set2/gray.gif","img/card_backs/set2/orange.gif","""event"",""trial"",""time""
""fullscreenenter"",""1"",""4244""
","
","
","""event"",""trial"",""time""
""fullscreenenter"",""1"",""4244""
","
","","null","","null","","fixation","2021-07-28 15:10:52.783","","","","","",""
"card-selection-trial","48","420944","0.0-17.0-1.6","1025","true","img/card_backs/set1/yellow.gif","img/card_backs/set1/red.gif","img/card_backs/set1/purple.gif","img/card_backs/set1/green.gif","img/card_backs/set2/blue.gif","img/card_backs/set2/pink.gif","img/card_backs/set2/gray.gif","img/card_backs/set2/orange.gif","""event"",""trial"",""time""
""fullscreenenter"",""1"",""4244""
","
","
","""event"",""trial"",""time""
""fullscreenenter"",""1"",""4244""
","
","","2043.5","","","","practice","2021-07-28 15:10:56.832","img/practice_cards/backs/dark_green.gif","0","-200","0","",""
"casino-fixation","49","421446","0.0-17.0-0.7","1025","true","img/card_backs/set1/yellow.gif","img/card_backs/set1/red.gif","img/card_backs/set1/purple.gif","img/card_backs/set1/green.gif","img/card_backs/set2/blue.gif","img/card_backs/set2/pink.gif","img/card_backs/set2/gray.gif","img/card_backs/set2/orange.gif","""event"",""trial"",""time""
""fullscreenenter"",""1"",""4244""
","
","
","""event"",""trial"",""time""
""fullscreenenter"",""1"",""4244""
","
","","null","","null","","fixation","2021-07-28 15:10:57.333","","","","","",""
"card-selection-trial","50","425498","0.0-17.0-1.7","1025","true","img/card_backs/set1/yellow.gif","img/card_backs/set1/red.gif","img/card_backs/set1/purple.gif","img/card_backs/set1/green.gif","img/card_backs/set2/blue.gif","img/card_backs/set2/pink.gif","img/card_backs/set2/gray.gif","img/card_backs/set2/orange.gif","""event"",""trial"",""time""
""fullscreenenter"",""1"",""4244""
","
","
","""event"",""trial"",""time""
""fullscreenenter"",""1"",""4244""
","
","","2048.2000000476837","","","","practice","2021-07-28 15:11:01.386","img/practice_cards/backs/dark_blue.gif","2","-200","0","",""
"casino-fixation","51","426000","0.0-17.0-0.8","1025","true","img/card_backs/set1/yellow.gif","img/card_backs/set1/red.gif","img/card_backs/set1/purple.gif","img/card_backs/set1/green.gif","img/card_backs/set2/blue.gif","img/card_backs/set2/pink.gif","img/card_backs/set2/gray.gif","img/card_backs/set2/orange.gif","""event"",""trial"",""time""
""fullscreenenter"",""1"",""4244""
","
","
","""event"",""trial"",""time""
""fullscreenenter"",""1"",""4244""
","
","","null","","null","","fixation","2021-07-28 15:11:01.887","","","","","",""
"card-selection-trial","52","430029","0.0-17.0-1.8","1025","true","img/card_backs/set1/yellow.gif","img/card_backs/set1/red.gif","img/card_backs/set1/purple.gif","img/card_backs/set1/green.gif","img/card_backs/set2/blue.gif","img/card_backs/set2/pink.gif","img/card_backs/set2/gray.gif","img/card_backs/set2/orange.gif","""event"",""trial"",""time""
""fullscreenenter"",""1"",""4244""
","
","
","""event"",""trial"",""time""
""fullscreenenter"",""1"",""4244""
","
","","2025.6000001430511","","","","practice","2021-07-28 15:11:05.916","img/practice_cards/backs/brown.gif","3","-100","0","",""
"casino-fixation","53","430532","0.0-17.0-0.9","1025","true","img/card_backs/set1/yellow.gif","img/card_backs/set1/red.gif","img/card_backs/set1/purple.gif","img/card_backs/set1/green.gif","img/card_backs/set2/blue.gif","img/card_backs/set2/pink.gif","img/card_backs/set2/gray.gif","img/card_backs/set2/orange.gif","""event"",""trial"",""time""
""fullscreenenter"",""1"",""4244""
","
","
","""event"",""trial"",""time""
""fullscreenenter"",""1"",""4244""
","
","","null","","null","","fixation","2021-07-28 15:11:06.419","","","","","",""
"card-selection-trial","54","433816","0.0-17.0-1.9","1025","true","img/card_backs/set1/yellow.gif","img/card_backs/set1/red.gif","img/card_backs/set1/purple.gif","img/card_backs/set1/green.gif","img/card_backs/set2/blue.gif","img/card_backs/set2/pink.gif","img/card_backs/set2/gray.gif","img/card_backs/set2/orange.gif","""event"",""trial"",""time""
""fullscreenenter"",""1"",""4244""
","
","
","""event"",""trial"",""time""
""fullscreenenter"",""1"",""4244""
","
","","1280.2999999523163","","","","practice","2021-07-28 15:11:09.703","img/practice_cards/backs/black.gif","1","100","0","",""
"casino-keyboard-response","55","438373","0.0-18.0","1025","true","img/card_backs/set1/yellow.gif","img/card_backs/set1/red.gif","img/card_backs/set1/purple.gif","img/card_backs/set1/green.gif","img/card_backs/set2/blue.gif","img/card_backs/set2/pink.gif","img/card_backs/set2/gray.gif","img/card_backs/set2/orange.gif","""event"",""trial"",""time""
""fullscreenenter"",""1"",""4244""
","
","
","""event"",""trial"",""time""
""fullscreenenter"",""1"",""4244""
","
","","4556.199999809265","You earned -600 tokens during the practice round!","82","","","2021-07-28 15:11:14.261","","","","","",""
"casino-keyboard-response","56","445198","0.0-19.0-0.0","1025","true","img/card_backs/set1/yellow.gif","img/card_backs/set1/red.gif","img/card_backs/set1/purple.gif","img/card_backs/set1/green.gif","img/card_backs/set2/blue.gif","img/card_backs/set2/pink.gif","img/card_backs/set2/gray.gif","img/card_backs/set2/orange.gif","""event"",""trial"",""time""
""fullscreenenter"",""1"",""4244""
","
","
","""event"",""trial"",""time""
""fullscreenenter"",""1"",""4244""
","
","","6822.899999856949","Nice job! You are almost ready to play the real game.","86","","instructions","2021-07-28 15:11:21.085","","","","","",""
"casino-keyboard-response","57","458967","0.0-19.0-0.1","1025","true","img/card_backs/set1/yellow.gif","img/card_backs/set1/red.gif","img/card_backs/set1/purple.gif","img/card_backs/set1/green.gif","img/card_backs/set2/blue.gif","img/card_backs/set2/pink.gif","img/card_backs/set2/gray.gif","img/card_backs/set2/orange.gif","""event"",""trial"",""time""
""fullscreenenter"",""1"",""4244""
","
","
","""event"",""trial"",""time""
""fullscreenenter"",""1"",""4244""
","
","","13767.700000047684","You will play two rounds of the real game. In each round, you will pick 100 cards in total.","73","","instructions","2021-07-28 15:11:34.854","","","","","",""
"casino-keyboard-response","58","464318","0.0-19.0-0.2","1025","true","img/card_backs/set1/yellow.gif","img/card_backs/set1/red.gif","img/card_backs/set1/purple.gif","img/card_backs/set1/green.gif","img/card_backs/set2/blue.gif","img/card_backs/set2/pink.gif","img/card_backs/set2/gray.gif","img/card_backs/set2/orange.gif","""event"",""trial"",""time""
""fullscreenenter"",""1"",""4244""
","
","
","""event"",""trial"",""time""
""fullscreenenter"",""1"",""4244""
","
","","5350.599999904633","We are now going to ask you some questions about how the game works.","66","","instructions","2021-07-28 15:11:40.205","","","","","",""
"casino-keyboard-response","59","471286","0.0-19.0-0.3","1025","true","img/card_backs/set1/yellow.gif","img/card_backs/set1/red.gif","img/card_backs/set1/purple.gif","img/card_backs/set1/green.gif","img/card_backs/set2/blue.gif","img/card_backs/set2/pink.gif","img/card_backs/set2/gray.gif","img/card_backs/set2/orange.gif","""event"",""trial"",""time""
""fullscreenenter"",""1"",""4244""
","
","
","""event"",""trial"",""time""
""fullscreenenter"",""1"",""4244""
","
","","6966.099999904633","Answer carefully. You will not be able to begin the game until you answer them correctly.","67","","instructions","2021-07-28 15:11:47.173","","","","","",""
"casino-comp_q","60","479092","0.0-20.0-0.0","1025","true","img/card_backs/set1/yellow.gif","img/card_backs/set1/red.gif","img/card_backs/set1/purple.gif","img/card_backs/set1/green.gif","img/card_backs/set2/blue.gif","img/card_backs/set2/pink.gif","img/card_backs/set2/gray.gif","img/card_backs/set2/orange.gif","""event"",""trial"",""time""
""fullscreenenter"",""1"",""4244""
","
","
","""event"",""trial"",""time""
""fullscreenenter"",""1"",""4244""
","
","","7804.399999856949","True or False: All the decks have some cards that cause you to win tokens and some cards that cause you to lose tokens.","84","","","2021-07-28 15:11:54.979","","","","","",""
"casino-keyboard-response","61","483809","0.0-20.0-1.0","1025","true","img/card_backs/set1/yellow.gif","img/card_backs/set1/red.gif","img/card_backs/set1/purple.gif","img/card_backs/set1/green.gif","img/card_backs/set2/blue.gif","img/card_backs/set2/pink.gif","img/card_backs/set2/gray.gif","img/card_backs/set2/orange.gif","""event"",""trial"",""time""
""fullscreenenter"",""1"",""4244""
","
","
","""event"",""trial"",""time""
""fullscreenenter"",""1"",""4244""
","
","","4716.399999856949","True is correct! All the decks have a mix of winning and losing cards.","77","","","2021-07-28 15:11:59.697","","","","","true",""
"casino-comp_q","62","491241","0.0-21.0-0.0","1025","true","img/card_backs/set1/yellow.gif","img/card_backs/set1/red.gif","img/card_backs/set1/purple.gif","img/card_backs/set1/green.gif","img/card_backs/set2/blue.gif","img/card_backs/set2/pink.gif","img/card_backs/set2/gray.gif","img/card_backs/set2/orange.gif","""event"",""trial"",""time""
""fullscreenenter"",""1"",""4244""
","
","
","""event"",""trial"",""time""
""fullscreenenter"",""1"",""4244""
","
","","7429.899999856949","True or False: You will have as much time as you want to make your response.","70","","","2021-07-28 15:12:07.128","","","","","",""
"casino-keyboard-response","63","495644","0.0-21.0-1.0","1025","true","img/card_backs/set1/yellow.gif","img/card_backs/set1/red.gif","img/card_backs/set1/purple.gif","img/card_backs/set1/green.gif","img/card_backs/set2/blue.gif","img/card_backs/set2/pink.gif","img/card_backs/set2/gray.gif","img/card_backs/set2/orange.gif","""event"",""trial"",""time""
""fullscreenenter"",""1"",""4244""
","
","
","""event"",""trial"",""time""
""fullscreenenter"",""1"",""4244""
","
","","4400.599999904633","False is correct! You will only have 10 seconds to make each choice.","75","","","2021-07-28 15:12:11.531","","","","","true",""
"casino-comp_q","64","502062","0.0-22.0-0.0","1025","true","img/card_backs/set1/yellow.gif","img/card_backs/set1/red.gif","img/card_backs/set1/purple.gif","img/card_backs/set1/green.gif","img/card_backs/set2/blue.gif","img/card_backs/set2/pink.gif","img/card_backs/set2/gray.gif","img/card_backs/set2/orange.gif","""event"",""trial"",""time""
""fullscreenenter"",""1"",""4244""
","
","
","""event"",""trial"",""time""
""fullscreenenter"",""1"",""4244""
","
","","6417.400000095367","True or False: The location of the deck determines how lucky it is.","84","","","2021-07-28 15:12:17.949","","","","","",""
"casino-keyboard-response","65","512295","0.0-22.0-1.0","1025","true","img/card_backs/set1/yellow.gif","img/card_backs/set1/red.gif","img/card_backs/set1/purple.gif","img/card_backs/set1/green.gif","img/card_backs/set2/blue.gif","img/card_backs/set2/pink.gif","img/card_backs/set2/gray.gif","img/card_backs/set2/orange.gif","""event"",""trial"",""time""
""fullscreenenter"",""1"",""4244""
","
","
","""event"",""trial"",""time""
""fullscreenenter"",""1"",""4244""
","
","","10231.299999952316","True is incorrect. The <i>color</i> of the deck determines how lucky or unlucky it is.","68","","","2021-07-28 15:12:28.182","","","","","false",""
"casino-comp_q","66","518608","0.0-22.1-0.1","1025","true","img/card_backs/set1/yellow.gif","img/card_backs/set1/red.gif","img/card_backs/set1/purple.gif","img/card_backs/set1/green.gif","img/card_backs/set2/blue.gif","img/card_backs/set2/pink.gif","img/card_backs/set2/gray.gif","img/card_backs/set2/orange.gif","""event"",""trial"",""time""
""fullscreenenter"",""1"",""4244""
","
","
","""event"",""trial"",""time""
""fullscreenenter"",""1"",""4244""
","
","","6312.300000190735","True or False: The location of the deck determines how lucky it is.","70","","","2021-07-28 15:12:34.496","","","","","",""
"casino-keyboard-response","67","526136","0.0-22.1-1.1","1025","true","img/card_backs/set1/yellow.gif","img/card_backs/set1/red.gif","img/card_backs/set1/purple.gif","img/card_backs/set1/green.gif","img/card_backs/set2/blue.gif","img/card_backs/set2/pink.gif","img/card_backs/set2/gray.gif","img/card_backs/set2/orange.gif","""event"",""trial"",""time""
""fullscreenenter"",""1"",""4244""
","
","
","""event"",""trial"",""time""
""fullscreenenter"",""1"",""4244""
","
","","7526.199999809265","False is correct! The <i>color</i>  of the deck determines how lucky or unlucky it is.","68","","","2021-07-28 15:12:42.023","","","","","true",""
"casino-keyboard-response","68","536243","0.0-23.0-0.0","1025","true","img/card_backs/set1/yellow.gif","img/card_backs/set1/red.gif","img/card_backs/set1/purple.gif","img/card_backs/set1/green.gif","img/card_backs/set2/blue.gif","img/card_backs/set2/pink.gif","img/card_backs/set2/gray.gif","img/card_backs/set2/orange.gif","""event"",""trial"",""time""
""fullscreenenter"",""1"",""4244""
","
","
","""event"",""trial"",""time""
""fullscreenenter"",""1"",""4244""
","
","","10106.299999952316","Great job! Now it's time to start the real game.","82","","instructions","2021-07-28 15:12:52.130","","","","","",""
"casino-keyboard-response","69","543015","0.0-23.0-0.1","1025","true","img/card_backs/set1/yellow.gif","img/card_backs/set1/red.gif","img/card_backs/set1/purple.gif","img/card_backs/set1/green.gif","img/card_backs/set2/blue.gif","img/card_backs/set2/pink.gif","img/card_backs/set2/gray.gif","img/card_backs/set2/orange.gif","""event"",""trial"",""time""
""fullscreenenter"",""1"",""4244""
","
","
","""event"",""trial"",""time""
""fullscreenenter"",""1"",""4244""
","
","","6770.700000047684","Before we start, we're going to head into a new room of the casino.","86","","instructions","2021-07-28 15:12:58.902","","","","","",""
"casino-keyboard-response","70","551909","0.0-24.0-0.0","1025","true","img/card_backs/set1/yellow.gif","img/card_backs/set1/red.gif","img/card_backs/set1/purple.gif","img/card_backs/set1/green.gif","img/card_backs/set2/blue.gif","img/card_backs/set2/pink.gif","img/card_backs/set2/gray.gif","img/card_backs/set2/orange.gif","""event"",""trial"",""time""
""fullscreenenter"",""1"",""4244""
","
","
","""event"",""trial"",""time""
""fullscreenenter"",""1"",""4244""
","
","","8893.299999952316","Here we are! The real game will use different cards, but the rules will be the same.","71","","instructions","2021-07-28 15:13:07.797","","","","","",""
"casino-keyboard-response","71","561410","0.0-24.0-0.1","1025","true","img/card_backs/set1/yellow.gif","img/card_backs/set1/red.gif","img/card_backs/set1/purple.gif","img/card_backs/set1/green.gif","img/card_backs/set2/blue.gif","img/card_backs/set2/pink.gif","img/card_backs/set2/gray.gif","img/card_backs/set2/orange.gif","""event"",""trial"",""time""
""fullscreenenter"",""1"",""4244""
","
","
","""event"",""trial"",""time""
""fullscreenenter"",""1"",""4244""
","
","","9499.700000047684","Ready? Put your fingers over the '2', '4', 6', and '8' keys so you are ready to play the game. </br> Then press 2 to start.","50","","instructions","2021-07-28 15:13:17.298","","","","","",""
"casino-fixation","72","561913","0.0-25.0-0.0","1025","true","img/card_backs/set1/yellow.gif","img/card_backs/set1/red.gif","img/card_backs/set1/purple.gif","img/card_backs/set1/green.gif","img/card_backs/set2/blue.gif","img/card_backs/set2/pink.gif","img/card_backs/set2/gray.gif","img/card_backs/set2/orange.gif","""event"",""trial"",""time""
""fullscreenenter"",""1"",""4244""
","
","
","""event"",""trial"",""time""
""fullscreenenter"",""1"",""4244""
","
","","null","","null","","fixation","2021-07-28 15:13:17.800","","","","","",""
"card-selection-trial","73","570655","0.0-25.0-1.0","1025","true","img/card_backs/set1/yellow.gif","img/card_backs/set1/red.gif","img/card_backs/set1/purple.gif","img/card_backs/set1/green.gif","img/card_backs/set2/blue.gif","img/card_backs/set2/pink.gif","img/card_backs/set2/gray.gif","img/card_backs/set2/orange.gif","""event"",""trial"",""time""
""fullscreenenter"",""1"",""4244""
","
","
","""event"",""trial"",""time""
""fullscreenenter"",""1"",""4244""
","
","","6737.099999904633","","","","real_trial","2021-07-28 15:13:26.542","img/card_backs/set1/purple.gif","1","-110","1","",""
"casino-fixation","74","571169","0.0-25.0-0.1","1025","true","img/card_backs/set1/yellow.gif","img/card_backs/set1/red.gif","img/card_backs/set1/purple.gif","img/card_backs/set1/green.gif","img/card_backs/set2/blue.gif","img/card_backs/set2/pink.gif","img/card_backs/set2/gray.gif","img/card_backs/set2/orange.gif","""event"",""trial"",""time""
""fullscreenenter"",""1"",""4244""
","
","
","""event"",""trial"",""time""
""fullscreenenter"",""1"",""4244""
","
","","null","","null","","fixation","2021-07-28 15:13:27.056","","","","","",""
"card-selection-trial","75","576365","0.0-25.0-1.1","1025","true","img/card_backs/set1/yellow.gif","img/card_backs/set1/red.gif","img/card_backs/set1/purple.gif","img/card_backs/set1/green.gif","img/card_backs/set2/blue.gif","img/card_backs/set2/pink.gif","img/card_backs/set2/gray.gif","img/card_backs/set2/orange.gif","""event"",""trial"",""time""
""fullscreenenter"",""1"",""4244""
","
","
","""event"",""trial"",""time""
""fullscreenenter"",""1"",""4244""
","
","","3186.300000190735","","","","real_trial","2021-07-28 15:13:32.252","img/card_backs/set1/yellow.gif","0","-210","1","",""
"casino-fixation","76","576877","0.0-25.0-0.2","1025","true","img/card_backs/set1/yellow.gif","img/card_backs/set1/red.gif","img/card_backs/set1/purple.gif","img/card_backs/set1/green.gif","img/card_backs/set2/blue.gif","img/card_backs/set2/pink.gif","img/card_backs/set2/gray.gif","img/card_backs/set2/orange.gif","""event"",""trial"",""time""
""fullscreenenter"",""1"",""4244""
","
","
","""event"",""trial"",""time""
""fullscreenenter"",""1"",""4244""
","
","","null","","null","","fixation","2021-07-28 15:13:32.765","","","","","",""
"card-selection-trial","77","580720","0.0-25.0-1.2","1025","true","img/card_backs/set1/yellow.gif","img/card_backs/set1/red.gif","img/card_backs/set1/purple.gif","img/card_backs/set1/green.gif","img/card_backs/set2/blue.gif","img/card_backs/set2/pink.gif","img/card_backs/set2/gray.gif","img/card_backs/set2/orange.gif","""event"",""trial"",""time""
""fullscreenenter"",""1"",""4244""
","
","
","""event"",""trial"",""time""
""fullscreenenter"",""1"",""4244""
","
","","1830.8999998569489","","","","real_trial","2021-07-28 15:13:36.607","img/card_backs/set1/yellow.gif","3","260","1","",""
"casino-fixation","78","581232","0.0-25.0-0.3","1025","true","img/card_backs/set1/yellow.gif","img/card_backs/set1/red.gif","img/card_backs/set1/purple.gif","img/card_backs/set1/green.gif","img/card_backs/set2/blue.gif","img/card_backs/set2/pink.gif","img/card_backs/set2/gray.gif","img/card_backs/set2/orange.gif","""event"",""trial"",""time""
""fullscreenenter"",""1"",""4244""
","
","
","""event"",""trial"",""time""
""fullscreenenter"",""1"",""4244""
","
","","null","","null","","fixation","2021-07-28 15:13:37.119","","","","","",""
"card-selection-trial","79","584761","0.0-25.0-1.3","1025","true","img/card_backs/set1/yellow.gif","img/card_backs/set1/red.gif","img/card_backs/set1/purple.gif","img/card_backs/set1/green.gif","img/card_backs/set2/blue.gif","img/card_backs/set2/pink.gif","img/card_backs/set2/gray.gif","img/card_backs/set2/orange.gif","""event"",""trial"",""time""
""fullscreenenter"",""1"",""4244""
","
","
","""event"",""trial"",""time""
""fullscreenenter"",""1"",""4244""
","
","","1519.5999999046326","","","","real_trial","2021-07-28 15:13:40.648","img/card_backs/set1/red.gif","2","-200","1","",""
"casino-fixation","80","585275","0.0-25.0-0.4","1025","true","img/card_backs/set1/yellow.gif","img/card_backs/set1/red.gif","img/card_backs/set1/purple.gif","img/card_backs/set1/green.gif","img/card_backs/set2/blue.gif","img/card_backs/set2/pink.gif","img/card_backs/set2/gray.gif","img/card_backs/set2/orange.gif","""event"",""trial"",""time""
""fullscreenenter"",""1"",""4244""
","
","
","""event"",""trial"",""time""
""fullscreenenter"",""1"",""4244""
","
","","null","","null","","fixation","2021-07-28 15:13:41.162","","","","","",""
"card-selection-trial","81","591875","0.0-25.0-1.4","1025","true","img/card_backs/set1/yellow.gif","img/card_backs/set1/red.gif","img/card_backs/set1/purple.gif","img/card_backs/set1/green.gif","img/card_backs/set2/blue.gif","img/card_backs/set2/pink.gif","img/card_backs/set2/gray.gif","img/card_backs/set2/orange.gif","""event"",""trial"",""time""
""fullscreenenter"",""1"",""4244""
","
","
","""event"",""trial"",""time""
""fullscreenenter"",""1"",""4244""
","
","","4594.700000047684","","","","real_trial","2021-07-28 15:13:47.762","img/card_backs/set1/yellow.gif","2","260","1","",""
"casino-fixation","82","592377","0.0-25.0-0.5","1025","true","img/card_backs/set1/yellow.gif","img/card_backs/set1/red.gif","img/card_backs/set1/purple.gif","img/card_backs/set1/green.gif","img/card_backs/set2/blue.gif","img/card_backs/set2/pink.gif","img/card_backs/set2/gray.gif","img/card_backs/set2/orange.gif","""event"",""trial"",""time""
""fullscreenenter"",""1"",""4244""
","
","
","""event"",""trial"",""time""
""fullscreenenter"",""1"",""4244""
","
","","null","","null","","fixation","2021-07-28 15:13:48.264","","","","","",""
"card-selection-trial","83","597240","0.0-25.0-1.5","1025","true","img/card_backs/set1/yellow.gif","img/card_backs/set1/red.gif","img/card_backs/set1/purple.gif","img/card_backs/set1/green.gif","img/card_backs/set2/blue.gif","img/card_backs/set2/pink.gif","img/card_backs/set2/gray.gif","img/card_backs/set2/orange.gif","""event"",""trial"",""time""
""fullscreenenter"",""1"",""4244""
","
","
","""event"",""trial"",""time""
""fullscreenenter"",""1"",""4244""
","
","","2859.7000000476837","","","","real_trial","2021-07-28 15:13:53.127","img/card_backs/set1/yellow.gif","0","-210","1","",""
"casino-fixation","84","597742","0.0-25.0-0.6","1025","true","img/card_backs/set1/yellow.gif","img/card_backs/set1/red.gif","img/card_backs/set1/purple.gif","img/card_backs/set1/green.gif","img/card_backs/set2/blue.gif","img/card_backs/set2/pink.gif","img/card_backs/set2/gray.gif","img/card_backs/set2/orange.gif","""event"",""trial"",""time""
""fullscreenenter"",""1"",""4244""
","
","
","""event"",""trial"",""time""
""fullscreenenter"",""1"",""4244""
","
","","null","","null","","fixation","2021-07-28 15:13:53.629","","","","","",""
"card-selection-trial","85","601722","0.0-25.0-1.6","1025","true","img/card_backs/set1/yellow.gif","img/card_backs/set1/red.gif","img/card_backs/set1/purple.gif","img/card_backs/set1/green.gif","img/card_backs/set2/blue.gif","img/card_backs/set2/pink.gif","img/card_backs/set2/gray.gif","img/card_backs/set2/orange.gif","""event"",""trial"",""time""
""fullscreenenter"",""1"",""4244""
","
","
","""event"",""trial"",""time""
""fullscreenenter"",""1"",""4244""
","
","","1976.6000001430511","","","","real_trial","2021-07-28 15:13:57.609","img/card_backs/set1/green.gif","3","40","1","",""
"casino-fixation","86","602223","0.0-25.0-0.7","1025","true","img/card_backs/set1/yellow.gif","img/card_backs/set1/red.gif","img/card_backs/set1/purple.gif","img/card_backs/set1/green.gif","img/card_backs/set2/blue.gif","img/card_backs/set2/pink.gif","img/card_backs/set2/gray.gif","img/card_backs/set2/orange.gif","""event"",""trial"",""time""
""fullscreenenter"",""1"",""4244""
","
","
","""event"",""trial"",""time""
""fullscreenenter"",""1"",""4244""
","
","","null","","null","","fixation","2021-07-28 15:13:58.110","","","","","",""
"card-selection-trial","87","607684","0.0-25.0-1.7","1025","true","img/card_backs/set1/yellow.gif","img/card_backs/set1/red.gif","img/card_backs/set1/purple.gif","img/card_backs/set1/green.gif","img/card_backs/set2/blue.gif","img/card_backs/set2/pink.gif","img/card_backs/set2/gray.gif","img/card_backs/set2/orange.gif","""event"",""trial"",""time""
""fullscreenenter"",""1"",""4244""
","
","
","""event"",""trial"",""time""
""fullscreenenter"",""1"",""4244""
","
","","3456.5999999046326","","","","real_trial","2021-07-28 15:14:03.571","img/card_backs/set1/green.gif","2","-110","1","",""
"casino-fixation","88","608186","0.0-25.0-0.8","1025","true","img/card_backs/set1/yellow.gif","img/card_backs/set1/red.gif","img/card_backs/set1/purple.gif","img/card_backs/set1/green.gif","img/card_backs/set2/blue.gif","img/card_backs/set2/pink.gif","img/card_backs/set2/gray.gif","img/card_backs/set2/orange.gif","""event"",""trial"",""time""
""fullscreenenter"",""1"",""4244""
","
","
","""event"",""trial"",""time""
""fullscreenenter"",""1"",""4244""
","
","","null","","null","","fixation","2021-07-28 15:14:04.073","","","","","",""
"card-selection-trial","89","611700","0.0-25.0-1.8","1025","true","img/card_backs/set1/yellow.gif","img/card_backs/set1/red.gif","img/card_backs/set1/purple.gif","img/card_backs/set1/green.gif","img/card_backs/set2/blue.gif","img/card_backs/set2/pink.gif","img/card_backs/set2/gray.gif","img/card_backs/set2/orange.gif","""event"",""trial"",""time""
""fullscreenenter"",""1"",""4244""
","
","
","""event"",""trial"",""time""
""fullscreenenter"",""1"",""4244""
","
","","1501.5","","","","real_trial","2021-07-28 15:14:07.587","img/card_backs/set1/purple.gif","1","60","1","",""
"casino-fixation","90","612201","0.0-25.0-0.9","1025","true","img/card_backs/set1/yellow.gif","img/card_backs/set1/red.gif","img/card_backs/set1/purple.gif","img/card_backs/set1/green.gif","img/card_backs/set2/blue.gif","img/card_backs/set2/pink.gif","img/card_backs/set2/gray.gif","img/card_backs/set2/orange.gif","""event"",""trial"",""time""
""fullscreenenter"",""1"",""4244""
","
","
","""event"",""trial"",""time""
""fullscreenenter"",""1"",""4244""
","
","","null","","null","","fixation","2021-07-28 15:14:08.088","","","","","",""
"card-selection-trial","91","615276","0.0-25.0-1.9","1025","true","img/card_backs/set1/yellow.gif","img/card_backs/set1/red.gif","img/card_backs/set1/purple.gif","img/card_backs/set1/green.gif","img/card_backs/set2/blue.gif","img/card_backs/set2/pink.gif","img/card_backs/set2/gray.gif","img/card_backs/set2/orange.gif","""event"",""trial"",""time""
""fullscreenenter"",""1"",""4244""
","
","
","""event"",""trial"",""time""
""fullscreenenter"",""1"",""4244""
","
","","1070.1000001430511","","","","real_trial","2021-07-28 15:14:11.163","img/card_backs/set1/red.gif","3","240","1","",""
"casino-fixation","92","615777","0.0-25.0-0.10","1025","true","img/card_backs/set1/yellow.gif","img/card_backs/set1/red.gif","img/card_backs/set1/purple.gif","img/card_backs/set1/green.gif","img/card_backs/set2/blue.gif","img/card_backs/set2/pink.gif","img/card_backs/set2/gray.gif","img/card_backs/set2/orange.gif","""event"",""trial"",""time""
""fullscreenenter"",""1"",""4244""
","
","
","""event"",""trial"",""time""
""fullscreenenter"",""1"",""4244""
","
","","null","","null","","fixation","2021-07-28 15:14:11.664","","","","","",""
"card-selection-trial","93","620225","0.0-25.0-1.10","1025","true","img/card_backs/set1/yellow.gif","img/card_backs/set1/red.gif","img/card_backs/set1/purple.gif","img/card_backs/set1/green.gif","img/card_backs/set2/blue.gif","img/card_backs/set2/pink.gif","img/card_backs/set2/gray.gif","img/card_backs/set2/orange.gif","""event"",""trial"",""time""
""fullscreenenter"",""1"",""4244""
","
","
","""event"",""trial"",""time""
""fullscreenenter"",""1"",""4244""
","
","","2443.5999999046326","","","","real_trial","2021-07-28 15:14:16.112","img/card_backs/set1/red.gif","0","250","1","",""
"casino-fixation","94","620727","0.0-25.0-0.11","1025","true","img/card_backs/set1/yellow.gif","img/card_backs/set1/red.gif","img/card_backs/set1/purple.gif","img/card_backs/set1/green.gif","img/card_backs/set2/blue.gif","img/card_backs/set2/pink.gif","img/card_backs/set2/gray.gif","img/card_backs/set2/orange.gif","""event"",""trial"",""time""
""fullscreenenter"",""1"",""4244""
","
","
","""event"",""trial"",""time""
""fullscreenenter"",""1"",""4244""
","
","","null","","null","","fixation","2021-07-28 15:14:16.614","","","","","",""
"card-selection-trial","95","624990","0.0-25.0-1.11","1025","true","img/card_backs/set1/yellow.gif","img/card_backs/set1/red.gif","img/card_backs/set1/purple.gif","img/card_backs/set1/green.gif","img/card_backs/set2/blue.gif","img/card_backs/set2/pink.gif","img/card_backs/set2/gray.gif","img/card_backs/set2/orange.gif","""event"",""trial"",""time""
""fullscreenenter"",""1"",""4244""
","
","
","""event"",""trial"",""time""
""fullscreenenter"",""1"",""4244""
","
","","2259.7999999523163","","","","real_trial","2021-07-28 15:14:20.877","img/card_backs/set1/red.gif","3","-190","1","",""
"casino-fixation","96","625491","0.0-25.0-0.12","1025","true","img/card_backs/set1/yellow.gif","img/card_backs/set1/red.gif","img/card_backs/set1/purple.gif","img/card_backs/set1/green.gif","img/card_backs/set2/blue.gif","img/card_backs/set2/pink.gif","img/card_backs/set2/gray.gif","img/card_backs/set2/orange.gif","""event"",""trial"",""time""
""fullscreenenter"",""1"",""4244""
","
","
","""event"",""trial"",""time""
""fullscreenenter"",""1"",""4244""
","
","","null","","null","","fixation","2021-07-28 15:14:21.378","","","","","",""
"card-selection-trial","97","628539","0.0-25.0-1.12","1025","true","img/card_backs/set1/yellow.gif","img/card_backs/set1/red.gif","img/card_backs/set1/purple.gif","img/card_backs/set1/green.gif","img/card_backs/set2/blue.gif","img/card_backs/set2/pink.gif","img/card_backs/set2/gray.gif","img/card_backs/set2/orange.gif","""event"",""trial"",""time""
""fullscreenenter"",""1"",""4244""
","
","
","""event"",""trial"",""time""
""fullscreenenter"",""1"",""4244""
","
","","1044.5","","","","real_trial","2021-07-28 15:14:24.426","img/card_backs/set1/red.gif","0","-210","1","",""
"casino-fixation","98","629041","0.0-25.0-0.13","1025","true","img/card_backs/set1/yellow.gif","img/card_backs/set1/red.gif","img/card_backs/set1/purple.gif","img/card_backs/set1/green.gif","img/card_backs/set2/blue.gif","img/card_backs/set2/pink.gif","img/card_backs/set2/gray.gif","img/card_backs/set2/orange.gif","""event"",""trial"",""time""
""fullscreenenter"",""1"",""4244""
","
","
","""event"",""trial"",""time""
""fullscreenenter"",""1"",""4244""
","
","","null","","null","","fixation","2021-07-28 15:14:24.928","","","","","",""
"card-selection-trial","99","632917","0.0-25.0-1.13","1025","true","img/card_backs/set1/yellow.gif","img/card_backs/set1/red.gif","img/card_backs/set1/purple.gif","img/card_backs/set1/green.gif","img/card_backs/set2/blue.gif","img/card_backs/set2/pink.gif","img/card_backs/set2/gray.gif","img/card_backs/set2/orange.gif","""event"",""trial"",""time""
""fullscreenenter"",""1"",""4244""
","
","
","""event"",""trial"",""time""
""fullscreenenter"",""1"",""4244""
","
","","1871.1000001430511","","","","real_trial","2021-07-28 15:14:28.804","img/card_backs/set1/purple.gif","1","-110","1","",""
"casino-fixation","100","633420","0.0-25.0-0.14","1025","true","img/card_backs/set1/yellow.gif","img/card_backs/set1/red.gif","img/card_backs/set1/purple.gif","img/card_backs/set1/green.gif","img/card_backs/set2/blue.gif","img/card_backs/set2/pink.gif","img/card_backs/set2/gray.gif","img/card_backs/set2/orange.gif","""event"",""trial"",""time""
""fullscreenenter"",""1"",""4244""
","
","
","""event"",""trial"",""time""
""fullscreenenter"",""1"",""4244""
","
","","null","","null","","fixation","2021-07-28 15:14:29.307","","","","","",""
"card-selection-trial","101","636514","0.0-25.0-1.14","1025","true","img/card_backs/set1/yellow.gif","img/card_backs/set1/red.gif","img/card_backs/set1/purple.gif","img/card_backs/set1/green.gif","img/card_backs/set2/blue.gif","img/card_backs/set2/pink.gif","img/card_backs/set2/gray.gif","img/card_backs/set2/orange.gif","""event"",""trial"",""time""
""fullscreenenter"",""1"",""4244""
","
","
","""event"",""trial"",""time""
""fullscreenenter"",""1"",""4244""
","
","","1090.1000001430511","","","","real_trial","2021-07-28 15:14:32.401","img/card_backs/set1/yellow.gif","2","240","1","",""
"casino-fixation","102","637016","0.0-25.0-0.15","1025","true","img/card_backs/set1/yellow.gif","img/card_backs/set1/red.gif","img/card_backs/set1/purple.gif","img/card_backs/set1/green.gif","img/card_backs/set2/blue.gif","img/card_backs/set2/pink.gif","img/card_backs/set2/gray.gif","img/card_backs/set2/orange.gif","""event"",""trial"",""time""
""fullscreenenter"",""1"",""4244""
","
","
","""event"",""trial"",""time""
""fullscreenenter"",""1"",""4244""
","
","","null","","null","","fixation","2021-07-28 15:14:32.903","","","","","",""
"card-selection-trial","103","639951","0.0-25.0-1.15","1025","true","img/card_backs/set1/yellow.gif","img/card_backs/set1/red.gif","img/card_backs/set1/purple.gif","img/card_backs/set1/green.gif","img/card_backs/set2/blue.gif","img/card_backs/set2/pink.gif","img/card_backs/set2/gray.gif","img/card_backs/set2/orange.gif","""event"",""trial"",""time""
""fullscreenenter"",""1"",""4244""
","
","
","""event"",""trial"",""time""
""fullscreenenter"",""1"",""4244""
","
","","932.2000000476837","","","","real_trial","2021-07-28 15:14:35.838","img/card_backs/set1/yellow.gif","2","-210","1","",""
"casino-fixation","104","640453","0.0-25.0-0.16","1025","true","img/card_backs/set1/yellow.gif","img/card_backs/set1/red.gif","img/card_backs/set1/purple.gif","img/card_backs/set1/green.gif","img/card_backs/set2/blue.gif","img/card_backs/set2/pink.gif","img/card_backs/set2/gray.gif","img/card_backs/set2/orange.gif","""event"",""trial"",""time""
""fullscreenenter"",""1"",""4244""
","
","
","""event"",""trial"",""time""
""fullscreenenter"",""1"",""4244""
","
","","null","","null","","fixation","2021-07-28 15:14:36.341","","","","","",""
"card-selection-trial","105","644742","0.0-25.0-1.16","1025","true","img/card_backs/set1/yellow.gif","img/card_backs/set1/red.gif","img/card_backs/set1/purple.gif","img/card_backs/set1/green.gif","img/card_backs/set2/blue.gif","img/card_backs/set2/pink.gif","img/card_backs/set2/gray.gif","img/card_backs/set2/orange.gif","""event"",""trial"",""time""
""fullscreenenter"",""1"",""4244""
","
","
","""event"",""trial"",""time""
""fullscreenenter"",""1"",""4244""
","
","","2285.2000000476837","","","","real_trial","2021-07-28 15:14:40.629","img/card_backs/set1/green.gif","3","50","1","",""
"casino-fixation","106","645244","0.0-25.0-0.17","1025","true","img/card_backs/set1/yellow.gif","img/card_backs/set1/red.gif","img/card_backs/set1/purple.gif","img/card_backs/set1/green.gif","img/card_backs/set2/blue.gif","img/card_backs/set2/pink.gif","img/card_backs/set2/gray.gif","img/card_backs/set2/orange.gif","""event"",""trial"",""time""
""fullscreenenter"",""1"",""4244""
","
","
","""event"",""trial"",""time""
""fullscreenenter"",""1"",""4244""
","
","","null","","null","","fixation","2021-07-28 15:14:41.131","","","","","",""
"card-selection-trial","107","648998","0.0-25.0-1.17","1025","true","img/card_backs/set1/yellow.gif","img/card_backs/set1/red.gif","img/card_backs/set1/purple.gif","img/card_backs/set1/green.gif","img/card_backs/set2/blue.gif","img/card_backs/set2/pink.gif","img/card_backs/set2/gray.gif","img/card_backs/set2/orange.gif","""event"",""trial"",""time""
""fullscreenenter"",""1"",""4244""
","
","
","""event"",""trial"",""time""
""fullscreenenter"",""1"",""4244""
","
","","1750.7999999523163","","","","real_trial","2021-07-28 15:14:44.885","img/card_backs/set1/yellow.gif","0","-210","1","",""
"casino-fixation","108","649500","0.0-25.0-0.18","1025","true","img/card_backs/set1/yellow.gif","img/card_backs/set1/red.gif","img/card_backs/set1/purple.gif","img/card_backs/set1/green.gif","img/card_backs/set2/blue.gif","img/card_backs/set2/pink.gif","img/card_backs/set2/gray.gif","img/card_backs/set2/orange.gif","""event"",""trial"",""time""
""fullscreenenter"",""1"",""4244""
","
","
","""event"",""trial"",""time""
""fullscreenenter"",""1"",""4244""
","
","","null","","null","","fixation","2021-07-28 15:14:45.387","","","","","",""
"card-selection-trial","109","654430","0.0-25.0-1.18","1025","true","img/card_backs/set1/yellow.gif","img/card_backs/set1/red.gif","img/card_backs/set1/purple.gif","img/card_backs/set1/green.gif","img/card_backs/set2/blue.gif","img/card_backs/set2/pink.gif","img/card_backs/set2/gray.gif","img/card_backs/set2/orange.gif","""event"",""trial"",""time""
""fullscreenenter"",""1"",""4244""
","
","
","""event"",""trial"",""time""
""fullscreenenter"",""1"",""4244""
","
","","2925.0999999046326","","","","real_trial","2021-07-28 15:14:50.317","img/card_backs/set1/red.gif","2","-200","1","",""
"casino-fixation","110","654931","0.0-25.0-0.19","1025","true","img/card_backs/set1/yellow.gif","img/card_backs/set1/red.gif","img/card_backs/set1/purple.gif","img/card_backs/set1/green.gif","img/card_backs/set2/blue.gif","img/card_backs/set2/pink.gif","img/card_backs/set2/gray.gif","img/card_backs/set2/orange.gif","""event"",""trial"",""time""
""fullscreenenter"",""1"",""4244""
","
","
","""event"",""trial"",""time""
""fullscreenenter"",""1"",""4244""
","
","","null","","null","","fixation","2021-07-28 15:14:50.818","","","","","",""
"card-selection-trial","111","659958","0.0-25.0-1.19","1025","true","img/card_backs/set1/yellow.gif","img/card_backs/set1/red.gif","img/card_backs/set1/purple.gif","img/card_backs/set1/green.gif","img/card_backs/set2/blue.gif","img/card_backs/set2/pink.gif","img/card_backs/set2/gray.gif","img/card_backs/set2/orange.gif","""event"",""trial"",""time""
""fullscreenenter"",""1"",""4244""
","
","
","""event"",""trial"",""time""
""fullscreenenter"",""1"",""4244""
","
","","3023.7999999523163","","","","real_trial","2021-07-28 15:14:55.845","img/card_backs/set1/green.gif","3","-90","1","",""
"casino-fixation","112","660460","0.0-25.0-0.20","1025","true","img/card_backs/set1/yellow.gif","img/card_backs/set1/red.gif","img/card_backs/set1/purple.gif","img/card_backs/set1/green.gif","img/card_backs/set2/blue.gif","img/card_backs/set2/pink.gif","img/card_backs/set2/gray.gif","img/card_backs/set2/orange.gif","""event"",""trial"",""time""
""fullscreenenter"",""1"",""4244""
","
","
","""event"",""trial"",""time""
""fullscreenenter"",""1"",""4244""
","
","","null","","null","","fixation","2021-07-28 15:14:56.347","","","","","",""
"card-selection-trial","113","666598","0.0-25.0-1.20","1025","true","img/card_backs/set1/yellow.gif","img/card_backs/set1/red.gif","img/card_backs/set1/purple.gif","img/card_backs/set1/green.gif","img/card_backs/set2/blue.gif","img/card_backs/set2/pink.gif","img/card_backs/set2/gray.gif","img/card_backs/set2/orange.gif","""event"",""trial"",""time""
""fullscreenenter"",""1"",""4244""
","
","
","""event"",""trial"",""time""
""fullscreenenter"",""1"",""4244""
","
","","4134.5","","","","real_trial","2021-07-28 15:15:02.486","img/card_backs/set1/purple.gif","2","40","1","",""
"casino-fixation","114","667100","0.0-25.0-0.21","1025","true","img/card_backs/set1/yellow.gif","img/card_backs/set1/red.gif","img/card_backs/set1/purple.gif","img/card_backs/set1/green.gif","img/card_backs/set2/blue.gif","img/card_backs/set2/pink.gif","img/card_backs/set2/gray.gif","img/card_backs/set2/orange.gif","""event"",""trial"",""time""
""fullscreenenter"",""1"",""4244""
","
","
","""event"",""trial"",""time""
""fullscreenenter"",""1"",""4244""
","
","","null","","null","","fixation","2021-07-28 15:15:02.987","","","","","",""
"card-selection-trial","115","671532","0.0-25.0-1.21","1025","true","img/card_backs/set1/yellow.gif","img/card_backs/set1/red.gif","img/card_backs/set1/purple.gif","img/card_backs/set1/green.gif","img/card_backs/set2/blue.gif","img/card_backs/set2/pink.gif","img/card_backs/set2/gray.gif","img/card_backs/set2/orange.gif","""event"",""trial"",""time""
""fullscreenenter"",""1"",""4244""
","
","
","""event"",""trial"",""time""
""fullscreenenter"",""1"",""4244""
","
","","2428.2999999523163","","","","real_trial","2021-07-28 15:15:07.419","img/card_backs/set1/green.gif","1","40","1","",""
"casino-fixation","116","672033","0.0-25.0-0.22","1025","true","img/card_backs/set1/yellow.gif","img/card_backs/set1/red.gif","img/card_backs/set1/purple.gif","img/card_backs/set1/green.gif","img/card_backs/set2/blue.gif","img/card_backs/set2/pink.gif","img/card_backs/set2/gray.gif","img/card_backs/set2/orange.gif","""event"",""trial"",""time""
""fullscreenenter"",""1"",""4244""
","
","
","""event"",""trial"",""time""
""fullscreenenter"",""1"",""4244""
","
","","null","","null","","fixation","2021-07-28 15:15:07.920","","","","","",""
"card-selection-trial","117","685036","0.0-25.0-1.22","1025","true","img/card_backs/set1/yellow.gif","img/card_backs/set1/red.gif","img/card_backs/set1/purple.gif","img/card_backs/set1/green.gif","img/card_backs/set2/blue.gif","img/card_backs/set2/pink.gif","img/card_backs/set2/gray.gif","img/card_backs/set2/orange.gif","""event"",""trial"",""time""
""fullscreenenter"",""1"",""4244""
","
","
","""event"",""trial"",""time""
""fullscreenenter"",""1"",""4244""
","
","","null","","","","real_trial","2021-07-28 15:15:20.923","null","null","null","1","",""
"casino-fixation","118","685538","0.0-25.0-0.23","1025","true","img/card_backs/set1/yellow.gif","img/card_backs/set1/red.gif","img/card_backs/set1/purple.gif","img/card_backs/set1/green.gif","img/card_backs/set2/blue.gif","img/card_backs/set2/pink.gif","img/card_backs/set2/gray.gif","img/card_backs/set2/orange.gif","""event"",""trial"",""time""
""fullscreenenter"",""1"",""4244""
","
","
","""event"",""trial"",""time""
""fullscreenenter"",""1"",""4244""
","
","","null","","null","","fixation","2021-07-28 15:15:21.425","","","","","",""
"card-selection-trial","119","688357","0.0-25.0-1.23","1025","true","img/card_backs/set1/yellow.gif","img/card_backs/set1/red.gif","img/card_backs/set1/purple.gif","img/card_backs/set1/green.gif","img/card_backs/set2/blue.gif","img/card_backs/set2/pink.gif","img/card_backs/set2/gray.gif","img/card_backs/set2/orange.gif","""event"",""trial"",""time""
""fullscreenenter"",""1"",""4244""
","
","
","""event"",""trial"",""time""
""fullscreenenter"",""1"",""4244""
","
","","811.5999999046326","","","","real_trial","2021-07-28 15:15:24.244","img/card_backs/set1/yellow.gif","0","240","1","",""
"casino-fixation","120","688858","0.0-25.0-0.24","1025","true","img/card_backs/set1/yellow.gif","img/card_backs/set1/red.gif","img/card_backs/set1/purple.gif","img/card_backs/set1/green.gif","img/card_backs/set2/blue.gif","img/card_backs/set2/pink.gif","img/card_backs/set2/gray.gif","img/card_backs/set2/orange.gif","""event"",""trial"",""time""
""fullscreenenter"",""1"",""4244""
","
","
","""event"",""trial"",""time""
""fullscreenenter"",""1"",""4244""
","
","","null","","null","","fixation","2021-07-28 15:15:24.745","","","","","",""
"card-selection-trial","121","693383","0.0-25.0-1.24","1025","true","img/card_backs/set1/yellow.gif","img/card_backs/set1/red.gif","img/card_backs/set1/purple.gif","img/card_backs/set1/green.gif","img/card_backs/set2/blue.gif","img/card_backs/set2/pink.gif","img/card_backs/set2/gray.gif","img/card_backs/set2/orange.gif","""event"",""trial"",""time""
""fullscreenenter"",""1"",""4244""
","
","
","""event"",""trial"",""time""
""fullscreenenter"",""1"",""4244""
","
","","2520.5999999046326","","","","real_trial","2021-07-28 15:15:29.270","img/card_backs/set1/yellow.gif","2","-190","1","",""
"casino-fixation","122","693885","0.0-25.0-0.25","1025","true","img/card_backs/set1/yellow.gif","img/card_backs/set1/red.gif","img/card_backs/set1/purple.gif","img/card_backs/set1/green.gif","img/card_backs/set2/blue.gif","img/card_backs/set2/pink.gif","img/card_backs/set2/gray.gif","img/card_backs/set2/orange.gif","""event"",""trial"",""time""
""fullscreenenter"",""1"",""4244""
","
","
","""event"",""trial"",""time""
""fullscreenenter"",""1"",""4244""
","
","","null","","null","","fixation","2021-07-28 15:15:29.772","","","","","",""
"card-selection-trial","123","696616","0.0-25.0-1.25","1025","true","img/card_backs/set1/yellow.gif","img/card_backs/set1/red.gif","img/card_backs/set1/purple.gif","img/card_backs/set1/green.gif","img/card_backs/set2/blue.gif","img/card_backs/set2/pink.gif","img/card_backs/set2/gray.gif","img/card_backs/set2/orange.gif","""event"",""trial"",""time""
""fullscreenenter"",""1"",""4244""
","
","
","""event"",""trial"",""time""
""fullscreenenter"",""1"",""4244""
","
","","721","","","","real_trial","2021-07-28 15:15:32.503","img/card_backs/set1/red.gif","1","260","1","",""
"casino-fixation","124","697118","0.0-25.0-0.26","1025","true","img/card_backs/set1/yellow.gif","img/card_backs/set1/red.gif","img/card_backs/set1/purple.gif","img/card_backs/set1/green.gif","img/card_backs/set2/blue.gif","img/card_backs/set2/pink.gif","img/card_backs/set2/gray.gif","img/card_backs/set2/orange.gif","""event"",""trial"",""time""
""fullscreenenter"",""1"",""4244""
","
","
","""event"",""trial"",""time""
""fullscreenenter"",""1"",""4244""
","
","","null","","null","","fixation","2021-07-28 15:15:33.005","","","","","",""
"card-selection-trial","125","699927","0.0-25.0-1.26","1025","true","img/card_backs/set1/yellow.gif","img/card_backs/set1/red.gif","img/card_backs/set1/purple.gif","img/card_backs/set1/green.gif","img/card_backs/set2/blue.gif","img/card_backs/set2/pink.gif","img/card_backs/set2/gray.gif","img/card_backs/set2/orange.gif","""event"",""trial"",""time""
""fullscreenenter"",""1"",""4244""
","
","
","""event"",""trial"",""time""
""fullscreenenter"",""1"",""4244""
","
","","804","","","","real_trial","2021-07-28 15:15:35.814","img/card_backs/set1/red.gif","3","-210","1","",""
"casino-fixation","126","700428","0.0-25.0-0.27","1025","true","img/card_backs/set1/yellow.gif","img/card_backs/set1/red.gif","img/card_backs/set1/purple.gif","img/card_backs/set1/green.gif","img/card_backs/set2/blue.gif","img/card_backs/set2/pink.gif","img/card_backs/set2/gray.gif","img/card_backs/set2/orange.gif","""event"",""trial"",""time""
""fullscreenenter"",""1"",""4244""
","
","
","""event"",""trial"",""time""
""fullscreenenter"",""1"",""4244""
","
","","null","","null","","fixation","2021-07-28 15:15:36.315","","","","","",""
"card-selection-trial","127","704137","0.0-25.0-1.27","1025","true","img/card_backs/set1/yellow.gif","img/card_backs/set1/red.gif","img/card_backs/set1/purple.gif","img/card_backs/set1/green.gif","img/card_backs/set2/blue.gif","img/card_backs/set2/pink.gif","img/card_backs/set2/gray.gif","img/card_backs/set2/orange.gif","""event"",""trial"",""time""
""fullscreenenter"",""1"",""4244""
","
","
","""event"",""trial"",""time""
""fullscreenenter"",""1"",""4244""
","
","","1705.5","","","","real_trial","2021-07-28 15:15:40.024","img/card_backs/set1/red.gif","1","250","1","",""
"casino-fixation","128","704639","0.0-25.0-0.28","1025","true","img/card_backs/set1/yellow.gif","img/card_backs/set1/red.gif","img/card_backs/set1/purple.gif","img/card_backs/set1/green.gif","img/card_backs/set2/blue.gif","img/card_backs/set2/pink.gif","img/card_backs/set2/gray.gif","img/card_backs/set2/orange.gif","""event"",""trial"",""time""
""fullscreenenter"",""1"",""4244""
","
","
","""event"",""trial"",""time""
""fullscreenenter"",""1"",""4244""
","
","","null","","null","","fixation","2021-07-28 15:15:40.526","","","","","",""
"card-selection-trial","129","707472","0.0-25.0-1.28","1025","true","img/card_backs/set1/yellow.gif","img/card_backs/set1/red.gif","img/card_backs/set1/purple.gif","img/card_backs/set1/green.gif","img/card_backs/set2/blue.gif","img/card_backs/set2/pink.gif","img/card_backs/set2/gray.gif","img/card_backs/set2/orange.gif","""event"",""trial"",""time""
""fullscreenenter"",""1"",""4244""
","
","
","""event"",""trial"",""time""
""fullscreenenter"",""1"",""4244""
","
","","829.3999998569489","","","","real_trial","2021-07-28 15:15:43.359","img/card_backs/set1/red.gif","3","-210","1","",""
"casino-fixation","130","707974","0.0-25.0-0.29","1025","true","img/card_backs/set1/yellow.gif","img/card_backs/set1/red.gif","img/card_backs/set1/purple.gif","img/card_backs/set1/green.gif","img/card_backs/set2/blue.gif","img/card_backs/set2/pink.gif","img/card_backs/set2/gray.gif","img/card_backs/set2/orange.gif","""event"",""trial"",""time""
""fullscreenenter"",""1"",""4244""
","
","
","""event"",""trial"",""time""
""fullscreenenter"",""1"",""4244""
","
","","null","","null","","fixation","2021-07-28 15:15:43.861","","","","","",""
"card-selection-trial","131","711910","0.0-25.0-1.29","1025","true","img/card_backs/set1/yellow.gif","img/card_backs/set1/red.gif","img/card_backs/set1/purple.gif","img/card_backs/set1/green.gif","img/card_backs/set2/blue.gif","img/card_backs/set2/pink.gif","img/card_backs/set2/gray.gif","img/card_backs/set2/orange.gif","""event"",""trial"",""time""
""fullscreenenter"",""1"",""4244""
","
","
","""event"",""trial"",""time""
""fullscreenenter"",""1"",""4244""
","
","","1932.2999999523163","","","","real_trial","2021-07-28 15:15:47.797","img/card_backs/set1/red.gif","2","250","1","",""
"casino-fixation","132","712411","0.0-25.0-0.30","1025","true","img/card_backs/set1/yellow.gif","img/card_backs/set1/red.gif","img/card_backs/set1/purple.gif","img/card_backs/set1/green.gif","img/card_backs/set2/blue.gif","img/card_backs/set2/pink.gif","img/card_backs/set2/gray.gif","img/card_backs/set2/orange.gif","""event"",""trial"",""time""
""fullscreenenter"",""1"",""4244""
","
","
","""event"",""trial"",""time""
""fullscreenenter"",""1"",""4244""
","
","","null","","null","","fixation","2021-07-28 15:15:48.298","","","","","",""
"card-selection-trial","133","717218","0.0-25.0-1.30","1025","true","img/card_backs/set1/yellow.gif","img/card_backs/set1/red.gif","img/card_backs/set1/purple.gif","img/card_backs/set1/green.gif","img/card_backs/set2/blue.gif","img/card_backs/set2/pink.gif","img/card_backs/set2/gray.gif","img/card_backs/set2/orange.gif","""event"",""trial"",""time""
""fullscreenenter"",""1"",""4244""
","
","
","""event"",""trial"",""time""
""fullscreenenter"",""1"",""4244""
","
","","2803.5","","","","real_trial","2021-07-28 15:15:53.105","img/card_backs/set1/red.gif","0","-210","1","",""
"casino-fixation","134","717720","0.0-25.0-0.31","1025","true","img/card_backs/set1/yellow.gif","img/card_backs/set1/red.gif","img/card_backs/set1/purple.gif","img/card_backs/set1/green.gif","img/card_backs/set2/blue.gif","img/card_backs/set2/pink.gif","img/card_backs/set2/gray.gif","img/card_backs/set2/orange.gif","""event"",""trial"",""time""
""fullscreenenter"",""1"",""4244""
","
","
","""event"",""trial"",""time""
""fullscreenenter"",""1"",""4244""
","
","","null","","null","","fixation","2021-07-28 15:15:53.607","","","","","",""
"card-selection-trial","135","726419","0.0-25.0-1.31","1025","true","img/card_backs/set1/yellow.gif","img/card_backs/set1/red.gif","img/card_backs/set1/purple.gif","img/card_backs/set1/green.gif","img/card_backs/set2/blue.gif","img/card_backs/set2/pink.gif","img/card_backs/set2/gray.gif","img/card_backs/set2/orange.gif","""event"",""trial"",""time""
""fullscreenenter"",""1"",""4244""
","
","
","""event"",""trial"",""time""
""fullscreenenter"",""1"",""4244""
","
","","6695.800000190735","","","","real_trial","2021-07-28 15:16:02.306","img/card_backs/set1/green.gif","1","-110","1","",""
"casino-fixation","136","726920","0.0-25.0-0.32","1025","true","img/card_backs/set1/yellow.gif","img/card_backs/set1/red.gif","img/card_backs/set1/purple.gif","img/card_backs/set1/green.gif","img/card_backs/set2/blue.gif","img/card_backs/set2/pink.gif","img/card_backs/set2/gray.gif","img/card_backs/set2/orange.gif","""event"",""trial"",""time""
""fullscreenenter"",""1"",""4244""
","
","
","""event"",""trial"",""time""
""fullscreenenter"",""1"",""4244""
","
","","null","","null","","fixation","2021-07-28 15:16:02.808","","","","","",""
"card-selection-trial","137","731042","0.0-25.0-1.32","1025","true","img/card_backs/set1/yellow.gif","img/card_backs/set1/red.gif","img/card_backs/set1/purple.gif","img/card_backs/set1/green.gif","img/card_backs/set2/blue.gif","img/card_backs/set2/pink.gif","img/card_backs/set2/gray.gif","img/card_backs/set2/orange.gif","""event"",""trial"",""time""
""fullscreenenter"",""1"",""4244""
","
","
","""event"",""trial"",""time""
""fullscreenenter"",""1"",""4244""
","
","","2117.5","","","","real_trial","2021-07-28 15:16:06.929","img/card_backs/set1/red.gif","3","240","1","",""
"casino-fixation","138","731543","0.0-25.0-0.33","1025","true","img/card_backs/set1/yellow.gif","img/card_backs/set1/red.gif","img/card_backs/set1/purple.gif","img/card_backs/set1/green.gif","img/card_backs/set2/blue.gif","img/card_backs/set2/pink.gif","img/card_backs/set2/gray.gif","img/card_backs/set2/orange.gif","""event"",""trial"",""time""
""fullscreenenter"",""1"",""4244""
","
","
","""event"",""trial"",""time""
""fullscreenenter"",""1"",""4244""
","
","","null","","null","","fixation","2021-07-28 15:16:07.430","","","","","",""
"card-selection-trial","139","737482","0.0-25.0-1.33","1025","true","img/card_backs/set1/yellow.gif","img/card_backs/set1/red.gif","img/card_backs/set1/purple.gif","img/card_backs/set1/green.gif","img/card_backs/set2/blue.gif","img/card_backs/set2/pink.gif","img/card_backs/set2/gray.gif","img/card_backs/set2/orange.gif","""event"",""trial"",""time""
""fullscreenenter"",""1"",""4244""
","
","
","""event"",""trial"",""time""
""fullscreenenter"",""1"",""4244""
","
","","3925","","","","real_trial","2021-07-28 15:16:13.369","img/card_backs/set1/red.gif","0","260","1","",""
"casino-fixation","140","737984","0.0-25.0-0.34","1025","true","img/card_backs/set1/yellow.gif","img/card_backs/set1/red.gif","img/card_backs/set1/purple.gif","img/card_backs/set1/green.gif","img/card_backs/set2/blue.gif","img/card_backs/set2/pink.gif","img/card_backs/set2/gray.gif","img/card_backs/set2/orange.gif","""event"",""trial"",""time""
""fullscreenenter"",""1"",""4244""
","
","
","""event"",""trial"",""time""
""fullscreenenter"",""1"",""4244""
","
","","null","","null","","fixation","2021-07-28 15:16:13.871","","","","","",""
"card-selection-trial","141","743437","0.0-25.0-1.34","1025","true","img/card_backs/set1/yellow.gif","img/card_backs/set1/red.gif","img/card_backs/set1/purple.gif","img/card_backs/set1/green.gif","img/card_backs/set2/blue.gif","img/card_backs/set2/pink.gif","img/card_backs/set2/gray.gif","img/card_backs/set2/orange.gif","""event"",""trial"",""time""
""fullscreenenter"",""1"",""4244""
","
","
","""event"",""trial"",""time""
""fullscreenenter"",""1"",""4244""
","
","","3448.0999999046326","","","","real_trial","2021-07-28 15:16:19.324","img/card_backs/set1/red.gif","0","240","1","",""
"casino-fixation","142","743939","0.0-25.0-0.35","1025","true","img/card_backs/set1/yellow.gif","img/card_backs/set1/red.gif","img/card_backs/set1/purple.gif","img/card_backs/set1/green.gif","img/card_backs/set2/blue.gif","img/card_backs/set2/pink.gif","img/card_backs/set2/gray.gif","img/card_backs/set2/orange.gif","""event"",""trial"",""time""
""fullscreenenter"",""1"",""4244""
","
","
","""event"",""trial"",""time""
""fullscreenenter"",""1"",""4244""
","
","","null","","null","","fixation","2021-07-28 15:16:19.826","","","","","",""
"card-selection-trial","143","748525","0.0-25.0-1.35","1025","true","img/card_backs/set1/yellow.gif","img/card_backs/set1/red.gif","img/card_backs/set1/purple.gif","img/card_backs/set1/green.gif","img/card_backs/set2/blue.gif","img/card_backs/set2/pink.gif","img/card_backs/set2/gray.gif","img/card_backs/set2/orange.gif","""event"",""trial"",""time""
""fullscreenenter"",""1"",""4244""
","
","
","""event"",""trial"",""time""
""fullscreenenter"",""1"",""4244""
","
","","2582.7000000476837","","","","real_trial","2021-07-28 15:16:24.412","img/card_backs/set1/red.gif","2","260","1","",""
"casino-fixation","144","749026","0.0-25.0-0.36","1025","true","img/card_backs/set1/yellow.gif","img/card_backs/set1/red.gif","img/card_backs/set1/purple.gif","img/card_backs/set1/green.gif","img/card_backs/set2/blue.gif","img/card_backs/set2/pink.gif","img/card_backs/set2/gray.gif","img/card_backs/set2/orange.gif","""event"",""trial"",""time""
""fullscreenenter"",""1"",""4244""
","
","
","""event"",""trial"",""time""
""fullscreenenter"",""1"",""4244""
","
","","null","","null","","fixation","2021-07-28 15:16:24.913","","","","","",""
"card-selection-trial","145","753063","0.0-25.0-1.36","1025","true","img/card_backs/set1/yellow.gif","img/card_backs/set1/red.gif","img/card_backs/set1/purple.gif","img/card_backs/set1/green.gif","img/card_backs/set2/blue.gif","img/card_backs/set2/pink.gif","img/card_backs/set2/gray.gif","img/card_backs/set2/orange.gif","""event"",""trial"",""time""
""fullscreenenter"",""1"",""4244""
","
","
","""event"",""trial"",""time""
""fullscreenenter"",""1"",""4244""
","
","","2032.8999998569489","","","","real_trial","2021-07-28 15:16:28.950","img/card_backs/set1/red.gif","2","250","1","",""
"casino-fixation","146","753564","0.0-25.0-0.37","1025","true","img/card_backs/set1/yellow.gif","img/card_backs/set1/red.gif","img/card_backs/set1/purple.gif","img/card_backs/set1/green.gif","img/card_backs/set2/blue.gif","img/card_backs/set2/pink.gif","img/card_backs/set2/gray.gif","img/card_backs/set2/orange.gif","""event"",""trial"",""time""
""fullscreenenter"",""1"",""4244""
","
","
","""event"",""trial"",""time""
""fullscreenenter"",""1"",""4244""
","
","","null","","null","","fixation","2021-07-28 15:16:29.451","","","","","",""
"card-selection-trial","147","757167","0.0-25.0-1.37","1025","true","img/card_backs/set1/yellow.gif","img/card_backs/set1/red.gif","img/card_backs/set1/purple.gif","img/card_backs/set1/green.gif","img/card_backs/set2/blue.gif","img/card_backs/set2/pink.gif","img/card_backs/set2/gray.gif","img/card_backs/set2/orange.gif","""event"",""trial"",""time""
""fullscreenenter"",""1"",""4244""
","
","
","""event"",""trial"",""time""
""fullscreenenter"",""1"",""4244""
","
","","1597.8999998569489","","","","real_trial","2021-07-28 15:16:33.054","img/card_backs/set1/red.gif","2","260","1","",""
"casino-fixation","148","757668","0.0-25.0-0.38","1025","true","img/card_backs/set1/yellow.gif","img/card_backs/set1/red.gif","img/card_backs/set1/purple.gif","img/card_backs/set1/green.gif","img/card_backs/set2/blue.gif","img/card_backs/set2/pink.gif","img/card_backs/set2/gray.gif","img/card_backs/set2/orange.gif","""event"",""trial"",""time""
""fullscreenenter"",""1"",""4244""
","
","
","""event"",""trial"",""time""
""fullscreenenter"",""1"",""4244""
","
","","null","","null","","fixation","2021-07-28 15:16:33.555","","","","","",""
"card-selection-trial","149","761518","0.0-25.0-1.38","1025","true","img/card_backs/set1/yellow.gif","img/card_backs/set1/red.gif","img/card_backs/set1/purple.gif","img/card_backs/set1/green.gif","img/card_backs/set2/blue.gif","img/card_backs/set2/pink.gif","img/card_backs/set2/gray.gif","img/card_backs/set2/orange.gif","""event"",""trial"",""time""
""fullscreenenter"",""1"",""4244""
","
","
","""event"",""trial"",""time""
""fullscreenenter"",""1"",""4244""
","
","","1844.2000000476837","","","","real_trial","2021-07-28 15:16:37.405","img/card_backs/set1/red.gif","1","-210","1","",""
"casino-fixation","150","762019","0.0-25.0-0.39","1025","true","img/card_backs/set1/yellow.gif","img/card_backs/set1/red.gif","img/card_backs/set1/purple.gif","img/card_backs/set1/green.gif","img/card_backs/set2/blue.gif","img/card_backs/set2/pink.gif","img/card_backs/set2/gray.gif","img/card_backs/set2/orange.gif","""event"",""trial"",""time""
""fullscreenenter"",""1"",""4244""
","
","
","""event"",""trial"",""time""
""fullscreenenter"",""1"",""4244""
","
","","null","","null","","fixation","2021-07-28 15:16:37.906","","","","","",""
"card-selection-trial","151","767393","0.0-25.0-1.39","1025","true","img/card_backs/set1/yellow.gif","img/card_backs/set1/red.gif","img/card_backs/set1/purple.gif","img/card_backs/set1/green.gif","img/card_backs/set2/blue.gif","img/card_backs/set2/pink.gif","img/card_backs/set2/gray.gif","img/card_backs/set2/orange.gif","""event"",""trial"",""time""
""fullscreenenter"",""1"",""4244""
","
","
","""event"",""trial"",""time""
""fullscreenenter"",""1"",""4244""
","
","","3370.2000000476837","","","","real_trial","2021-07-28 15:16:43.280","img/card_backs/set1/red.gif","0","-200","1","",""
"casino-fixation","152","767895","0.0-25.0-0.40","1025","true","img/card_backs/set1/yellow.gif","img/card_backs/set1/red.gif","img/card_backs/set1/purple.gif","img/card_backs/set1/green.gif","img/card_backs/set2/blue.gif","img/card_backs/set2/pink.gif","img/card_backs/set2/gray.gif","img/card_backs/set2/orange.gif","""event"",""trial"",""time""
""fullscreenenter"",""1"",""4244""
","
","
","""event"",""trial"",""time""
""fullscreenenter"",""1"",""4244""
","
","","null","","null","","fixation","2021-07-28 15:16:43.782","","","","","",""
"card-selection-trial","153","774262","0.0-25.0-1.40","1025","true","img/card_backs/set1/yellow.gif","img/card_backs/set1/red.gif","img/card_backs/set1/purple.gif","img/card_backs/set1/green.gif","img/card_backs/set2/blue.gif","img/card_backs/set2/pink.gif","img/card_backs/set2/gray.gif","img/card_backs/set2/orange.gif","""event"",""trial"",""time""
""fullscreenenter"",""1"",""4244""
","
","
","""event"",""trial"",""time""
""fullscreenenter"",""1"",""4244""
","
","","4363.099999904633","","","","real_trial","2021-07-28 15:16:50.150","img/card_backs/set1/red.gif","1","-210","1","",""
"casino-fixation","154","774764","0.0-25.0-0.41","1025","true","img/card_backs/set1/yellow.gif","img/card_backs/set1/red.gif","img/card_backs/set1/purple.gif","img/card_backs/set1/green.gif","img/card_backs/set2/blue.gif","img/card_backs/set2/pink.gif","img/card_backs/set2/gray.gif","img/card_backs/set2/orange.gif","""event"",""trial"",""time""
""fullscreenenter"",""1"",""4244""
","
","
","""event"",""trial"",""time""
""fullscreenenter"",""1"",""4244""
","
","","null","","null","","fixation","2021-07-28 15:16:50.651","","","","","",""
"card-selection-trial","155","778955","0.0-25.0-1.41","1025","true","img/card_backs/set1/yellow.gif","img/card_backs/set1/red.gif","img/card_backs/set1/purple.gif","img/card_backs/set1/green.gif","img/card_backs/set2/blue.gif","img/card_backs/set2/pink.gif","img/card_backs/set2/gray.gif","img/card_backs/set2/orange.gif","""event"",""trial"",""time""
""fullscreenenter"",""1"",""4244""
","
","
","""event"",""trial"",""time""
""fullscreenenter"",""1"",""4244""
","
","","2186.5","","","","real_trial","2021-07-28 15:16:54.842","img/card_backs/set1/red.gif","3","250","1","",""
"casino-fixation","156","779457","0.0-25.0-0.42","1025","true","img/card_backs/set1/yellow.gif","img/card_backs/set1/red.gif","img/card_backs/set1/purple.gif","img/card_backs/set1/green.gif","img/card_backs/set2/blue.gif","img/card_backs/set2/pink.gif","img/card_backs/set2/gray.gif","img/card_backs/set2/orange.gif","""event"",""trial"",""time""
""fullscreenenter"",""1"",""4244""
","
","
","""event"",""trial"",""time""
""fullscreenenter"",""1"",""4244""
","
","","null","","null","","fixation","2021-07-28 15:16:55.344","","","","","",""
"card-selection-trial","157","784209","0.0-25.0-1.42","1025","true","img/card_backs/set1/yellow.gif","img/card_backs/set1/red.gif","img/card_backs/set1/purple.gif","img/card_backs/set1/green.gif","img/card_backs/set2/blue.gif","img/card_backs/set2/pink.gif","img/card_backs/set2/gray.gif","img/card_backs/set2/orange.gif","""event"",""trial"",""time""
""fullscreenenter"",""1"",""4244""
","
","
","""event"",""trial"",""time""
""fullscreenenter"",""1"",""4244""
","
","","2746.800000190735","","","","real_trial","2021-07-28 15:17:00.096","img/card_backs/set1/red.gif","3","240","1","",""
"casino-fixation","158","784710","0.0-25.0-0.43","1025","true","img/card_backs/set1/yellow.gif","img/card_backs/set1/red.gif","img/card_backs/set1/purple.gif","img/card_backs/set1/green.gif","img/card_backs/set2/blue.gif","img/card_backs/set2/pink.gif","img/card_backs/set2/gray.gif","img/card_backs/set2/orange.gif","""event"",""trial"",""time""
""fullscreenenter"",""1"",""4244""
","
","
","""event"",""trial"",""time""
""fullscreenenter"",""1"",""4244""
","
","","null","","null","","fixation","2021-07-28 15:17:00.597","","","","","",""
"card-selection-trial","159","791277","0.0-25.0-1.43","1025","true","img/card_backs/set1/yellow.gif","img/card_backs/set1/red.gif","img/card_backs/set1/purple.gif","img/card_backs/set1/green.gif","img/card_backs/set2/blue.gif","img/card_backs/set2/pink.gif","img/card_backs/set2/gray.gif","img/card_backs/set2/orange.gif","""event"",""trial"",""time""
""fullscreenenter"",""1"",""4244""
","
","
","""event"",""trial"",""time""
""fullscreenenter"",""1"",""4244""
","
","","4563.099999904633","","","","real_trial","2021-07-28 15:17:07.164","img/card_backs/set1/yellow.gif","3","260","1","",""
"casino-fixation","160","791779","0.0-25.0-0.44","1025","true","img/card_backs/set1/yellow.gif","img/card_backs/set1/red.gif","img/card_backs/set1/purple.gif","img/card_backs/set1/green.gif","img/card_backs/set2/blue.gif","img/card_backs/set2/pink.gif","img/card_backs/set2/gray.gif","img/card_backs/set2/orange.gif","""event"",""trial"",""time""
""fullscreenenter"",""1"",""4244""
","
","
","""event"",""trial"",""time""
""fullscreenenter"",""1"",""4244""
","
","","null","","null","","fixation","2021-07-28 15:17:07.666","","","","","",""
"card-selection-trial","161","797431","0.0-25.0-1.44","1025","true","img/card_backs/set1/yellow.gif","img/card_backs/set1/red.gif","img/card_backs/set1/purple.gif","img/card_backs/set1/green.gif","img/card_backs/set2/blue.gif","img/card_backs/set2/pink.gif","img/card_backs/set2/gray.gif","img/card_backs/set2/orange.gif","""event"",""trial"",""time""
""fullscreenenter"",""1"",""4244""
","
","
","""event"",""trial"",""time""
""fullscreenenter"",""1"",""4244""
","
","","3649.0999999046326","","","","real_trial","2021-07-28 15:17:13.318","img/card_backs/set1/red.gif","0","-210","1","",""
"casino-fixation","162","797933","0.0-25.0-0.45","1025","true","img/card_backs/set1/yellow.gif","img/card_backs/set1/red.gif","img/card_backs/set1/purple.gif","img/card_backs/set1/green.gif","img/card_backs/set2/blue.gif","img/card_backs/set2/pink.gif","img/card_backs/set2/gray.gif","img/card_backs/set2/orange.gif","""event"",""trial"",""time""
""fullscreenenter"",""1"",""4244""
","
","
","""event"",""trial"",""time""
""fullscreenenter"",""1"",""4244""
","
","","null","","null","","fixation","2021-07-28 15:17:13.821","","","","","",""
"card-selection-trial","163","803488","0.0-25.0-1.45","1025","true","img/card_backs/set1/yellow.gif","img/card_backs/set1/red.gif","img/card_backs/set1/purple.gif","img/card_backs/set1/green.gif","img/card_backs/set2/blue.gif","img/card_backs/set2/pink.gif","img/card_backs/set2/gray.gif","img/card_backs/set2/orange.gif","""event"",""trial"",""time""
""fullscreenenter"",""1"",""4244""
","
","
","""event"",""trial"",""time""
""fullscreenenter"",""1"",""4244""
","
","","3549.7999999523163","","","","real_trial","2021-07-28 15:17:19.375","img/card_backs/set1/yellow.gif","3","-190","1","",""
"casino-fixation","164","803989","0.0-25.0-0.46","1025","true","img/card_backs/set1/yellow.gif","img/card_backs/set1/red.gif","img/card_backs/set1/purple.gif","img/card_backs/set1/green.gif","img/card_backs/set2/blue.gif","img/card_backs/set2/pink.gif","img/card_backs/set2/gray.gif","img/card_backs/set2/orange.gif","""event"",""trial"",""time""
""fullscreenenter"",""1"",""4244""
","
","
","""event"",""trial"",""time""
""fullscreenenter"",""1"",""4244""
","
","","null","","null","","fixation","2021-07-28 15:17:19.876","","","","","",""
"card-selection-trial","165","808870","0.0-25.0-1.46","1025","true","img/card_backs/set1/yellow.gif","img/card_backs/set1/red.gif","img/card_backs/set1/purple.gif","img/card_backs/set1/green.gif","img/card_backs/set2/blue.gif","img/card_backs/set2/pink.gif","img/card_backs/set2/gray.gif","img/card_backs/set2/orange.gif","""event"",""trial"",""time""
""fullscreenenter"",""1"",""4244""
","
","
","""event"",""trial"",""time""
""fullscreenenter"",""1"",""4244""
","
","","2877.4000000953674","","","","real_trial","2021-07-28 15:17:24.757","img/card_backs/set1/purple.gif","0","-90","1","",""
"casino-fixation","166","809371","0.0-25.0-0.47","1025","true","img/card_backs/set1/yellow.gif","img/card_backs/set1/red.gif","img/card_backs/set1/purple.gif","img/card_backs/set1/green.gif","img/card_backs/set2/blue.gif","img/card_backs/set2/pink.gif","img/card_backs/set2/gray.gif","img/card_backs/set2/orange.gif","""event"",""trial"",""time""
""fullscreenenter"",""1"",""4244""
","
","
","""event"",""trial"",""time""
""fullscreenenter"",""1"",""4244""
","
","","null","","null","","fixation","2021-07-28 15:17:25.258","","","","","",""
"card-selection-trial","167","814417","0.0-25.0-1.47","1025","true","img/card_backs/set1/yellow.gif","img/card_backs/set1/red.gif","img/card_backs/set1/purple.gif","img/card_backs/set1/green.gif","img/card_backs/set2/blue.gif","img/card_backs/set2/pink.gif","img/card_backs/set2/gray.gif","img/card_backs/set2/orange.gif","""event"",""trial"",""time""
""fullscreenenter"",""1"",""4244""
","
","
