"trial_type","trial_index","time_elapsed","internal_node_id","sub_id","risk_good_first","block1_A","block1_B","block1_C","block1_D","block2_A","block2_B","block2_C","block2_D","interactions","blur_events","focus_events","fullscreenenter_events","fullscreenexit_events","success","rt","stimulus","key_press","button_pressed","task_part","timestamp","card_choice","choice_position","points_earned","block","correct","response"
"pavlovia","0","4","0.0-0.0","A109","false","img/card_backs/set1/yellow.gif","img/card_backs/set1/red.gif","img/card_backs/set1/purple.gif","img/card_backs/set1/green.gif","img/card_backs/set2/blue.gif","img/card_backs/set2/orange.gif","img/card_backs/set2/gray.gif","img/card_backs/set2/pink.gif","""event"",""trial"",""time""
""fullscreenenter"",""1"",""3076""
","
","
","""event"",""trial"",""time""
""fullscreenenter"",""1"",""3076""
","
","","","","","","","","","","","","",""
"fullscreen","1","4062","0.0-1.0","A109","false","img/card_backs/set1/yellow.gif","img/card_backs/set1/red.gif","img/card_backs/set1/purple.gif","img/card_backs/set1/green.gif","img/card_backs/set2/blue.gif","img/card_backs/set2/orange.gif","img/card_backs/set2/gray.gif","img/card_backs/set2/pink.gif","""event"",""trial"",""time""
""fullscreenenter"",""1"",""3076""
","
","
","""event"",""trial"",""time""
""fullscreenenter"",""1"",""3076""
","
","true","","","","","","","","","","","",""
"audio-keyboard-response","2","9470","0.0-2.0","A109","false","img/card_backs/set1/yellow.gif","img/card_backs/set1/red.gif","img/card_backs/set1/purple.gif","img/card_backs/set1/green.gif","img/card_backs/set2/blue.gif","img/card_backs/set2/orange.gif","img/card_backs/set2/gray.gif","img/card_backs/set2/pink.gif","""event"",""trial"",""time""
""fullscreenenter"",""1"",""3076""
","
","
","""event"",""trial"",""time""
""fullscreenenter"",""1"",""3076""
","
","","5404","audio/beep_loop.wav","32","","","","","","","","",""
"audio-button-response","3","11556","0.0-3.0","A109","false","img/card_backs/set1/yellow.gif","img/card_backs/set1/red.gif","img/card_backs/set1/purple.gif","img/card_backs/set1/green.gif","img/card_backs/set2/blue.gif","img/card_backs/set2/orange.gif","img/card_backs/set2/gray.gif","img/card_backs/set2/pink.gif","""event"",""trial"",""time""
""fullscreenenter"",""1"",""3076""
","
","
","""event"",""trial"",""time""
""fullscreenenter"",""1"",""3076""
","
","","NaN","audio/turtle.mp3","","3","","","","","","","",""
"audio-button-response","4","13803","0.0-4.0","A109","false","img/card_backs/set1/yellow.gif","img/card_backs/set1/red.gif","img/card_backs/set1/purple.gif","img/card_backs/set1/green.gif","img/card_backs/set2/blue.gif","img/card_backs/set2/orange.gif","img/card_backs/set2/gray.gif","img/card_backs/set2/pink.gif","""event"",""trial"",""time""
""fullscreenenter"",""1"",""3076""
","
","
","""event"",""trial"",""time""
""fullscreenenter"",""1"",""3076""
","
","","NaN","audio/shark.mp3","","2","","","","","","","",""
"fullscreen","5","16833","0.0-5.0","A109","false","img/card_backs/set1/yellow.gif","img/card_backs/set1/red.gif","img/card_backs/set1/purple.gif","img/card_backs/set1/green.gif","img/card_backs/set2/blue.gif","img/card_backs/set2/orange.gif","img/card_backs/set2/gray.gif","img/card_backs/set2/pink.gif","""event"",""trial"",""time""
""fullscreenenter"",""1"",""3076""
","
","
","""event"",""trial"",""time""
""fullscreenenter"",""1"",""3076""
","
","true","","","","","","","","","","","",""
"casino-keyboard-response","6","20382","0.0-6.0-0.0","A109","false","img/card_backs/set1/yellow.gif","img/card_backs/set1/red.gif","img/card_backs/set1/purple.gif","img/card_backs/set1/green.gif","img/card_backs/set2/blue.gif","img/card_backs/set2/orange.gif","img/card_backs/set2/gray.gif","img/card_backs/set2/pink.gif","""event"",""trial"",""time""
""fullscreenenter"",""1"",""3076""
","
","
","""event"",""trial"",""time""
""fullscreenenter"",""1"",""3076""
","
","","3543.26000000583","Welcome to the casino!","71","","instructions","2021-03-31 02:42:23.025","","","","","",""
"casino-keyboard-response","7","30153","0.0-6.0-0.1","A109","false","img/card_backs/set1/yellow.gif","img/card_backs/set1/red.gif","img/card_backs/set1/purple.gif","img/card_backs/set1/green.gif","img/card_backs/set2/blue.gif","img/card_backs/set2/orange.gif","img/card_backs/set2/gray.gif","img/card_backs/set2/pink.gif","""event"",""trial"",""time""
""fullscreenenter"",""1"",""3076""
","
","
","""event"",""trial"",""time""
""fullscreenenter"",""1"",""3076""
","
","","9768.674999999348","Today you will be playing a game to earn tokens. </br> At the end of the experiment, you will be paid a bonus based on how many tokens you win. ","69","","instructions","2021-03-31 02:42:32.796","","","","","",""
"casino-keyboard-response","8","43014","0.0-6.0-0.2","A109","false","img/card_backs/set1/yellow.gif","img/card_backs/set1/red.gif","img/card_backs/set1/purple.gif","img/card_backs/set1/green.gif","img/card_backs/set2/blue.gif","img/card_backs/set2/orange.gif","img/card_backs/set2/gray.gif","img/card_backs/set2/pink.gif","""event"",""trial"",""time""
""fullscreenenter"",""1"",""3076""
","
","
","""event"",""trial"",""time""
""fullscreenenter"",""1"",""3076""
","
","","12857.594999994035","On every turn, you will be shown four different decks of cards. </br> You need to select a card from one of the four decks.  ","75","","instructions","2021-03-31 02:42:45.657","","","","","",""
"casino-keyboard-response","9","47798","0.0-6.0-0.3","A109","false","img/card_backs/set1/yellow.gif","img/card_backs/set1/red.gif","img/card_backs/set1/purple.gif","img/card_backs/set1/green.gif","img/card_backs/set2/blue.gif","img/card_backs/set2/orange.gif","img/card_backs/set2/gray.gif","img/card_backs/set2/pink.gif","""event"",""trial"",""time""
""fullscreenenter"",""1"",""3076""
","
","
","""event"",""trial"",""time""
""fullscreenenter"",""1"",""3076""
","
","","4781.329999997979","On the next screen, you will see what the decks will look like. ","66","","instructions","2021-03-31 02:42:50.441","","","","","",""
"card-selection-trial","10","51804","0.0-7.0-0.0","A109","false","img/card_backs/set1/yellow.gif","img/card_backs/set1/red.gif","img/card_backs/set1/purple.gif","img/card_backs/set1/green.gif","img/card_backs/set2/blue.gif","img/card_backs/set2/orange.gif","img/card_backs/set2/gray.gif","img/card_backs/set2/pink.gif","""event"",""trial"",""time""
""fullscreenenter"",""1"",""3076""
","
","
","""event"",""trial"",""time""
""fullscreenenter"",""1"",""3076""
","
","","null","","","","practice","2021-03-31 02:42:54.447","null","null","null","0","",""
"casino-keyboard-response","11","59233","0.0-8.0-0.0","A109","false","img/card_backs/set1/yellow.gif","img/card_backs/set1/red.gif","img/card_backs/set1/purple.gif","img/card_backs/set1/green.gif","img/card_backs/set2/blue.gif","img/card_backs/set2/orange.gif","img/card_backs/set2/gray.gif","img/card_backs/set2/pink.gif","""event"",""trial"",""time""
""fullscreenenter"",""1"",""3076""
","
","
","""event"",""trial"",""time""
""fullscreenenter"",""1"",""3076""
","
","","7426.070000001346","You should pick a card from a deck using the '2', '4', '6', and '8' keys at the top of the keyboard.","85","","instructions","2021-03-31 02:43:01.876","","","","","",""
"casino-keyboard-response","12","64442","0.0-8.0-0.1","A109","false","img/card_backs/set1/yellow.gif","img/card_backs/set1/red.gif","img/card_backs/set1/purple.gif","img/card_backs/set1/green.gif","img/card_backs/set2/blue.gif","img/card_backs/set2/orange.gif","img/card_backs/set2/gray.gif","img/card_backs/set2/pink.gif","""event"",""trial"",""time""
""fullscreenenter"",""1"",""3076""
","
","
","""event"",""trial"",""time""
""fullscreenenter"",""1"",""3076""
","
","","5206.869999994524","Once you select a card, it will turn over and you will see how many tokens you earned.","83","","instructions","2021-03-31 02:43:07.085","","","","","",""
"casino-keyboard-response","13","78606","0.0-8.0-0.2","A109","false","img/card_backs/set1/yellow.gif","img/card_backs/set1/red.gif","img/card_backs/set1/purple.gif","img/card_backs/set1/green.gif","img/card_backs/set2/blue.gif","img/card_backs/set2/orange.gif","img/card_backs/set2/gray.gif","img/card_backs/set2/pink.gif","""event"",""trial"",""time""
""fullscreenenter"",""1"",""3076""
","
","
","""event"",""trial"",""time""
""fullscreenenter"",""1"",""3076""
","
","","14162.005000005593","Let's try practicing that! </br> First, try to put your fingers over the '2', '4', '6', and '8' keys. </br>  You can use whatever fingers are most comfortable for you. Try to find a comfortable position now. ","50","","instructions","2021-03-31 02:43:21.249","","","","","",""
"casino-keyboard-response","14","84402","0.0-8.0-0.3","A109","false","img/card_backs/set1/yellow.gif","img/card_backs/set1/red.gif","img/card_backs/set1/purple.gif","img/card_backs/set1/green.gif","img/card_backs/set2/blue.gif","img/card_backs/set2/orange.gif","img/card_backs/set2/gray.gif","img/card_backs/set2/pink.gif","""event"",""trial"",""time""
""fullscreenenter"",""1"",""3076""
","
","
","""event"",""trial"",""time""
""fullscreenenter"",""1"",""3076""
","
","","5792.82499999681","Okay ready? </br> On the next screen, press '2' to select the left deck. ","50","","instructions","2021-03-31 02:43:27.045","","","","","",""
"card-selection-trial","15","87610","0.0-9.0-0.0","A109","false","img/card_backs/set1/yellow.gif","img/card_backs/set1/red.gif","img/card_backs/set1/purple.gif","img/card_backs/set1/green.gif","img/card_backs/set2/blue.gif","img/card_backs/set2/orange.gif","img/card_backs/set2/gray.gif","img/card_backs/set2/pink.gif","""event"",""trial"",""time""
""fullscreenenter"",""1"",""3076""
","
","
","""event"",""trial"",""time""
""fullscreenenter"",""1"",""3076""
","
","","1182.1650000056252","","","","practice_card_selection","2021-03-31 02:43:30.253","img/practice_cards/backs/black.gif","0","100","","",""
"casino-keyboard-response","16","93377","0.0-10.0-0.0","A109","false","img/card_backs/set1/yellow.gif","img/card_backs/set1/red.gif","img/card_backs/set1/purple.gif","img/card_backs/set1/green.gif","img/card_backs/set2/blue.gif","img/card_backs/set2/orange.gif","img/card_backs/set2/gray.gif","img/card_backs/set2/pink.gif","""event"",""trial"",""time""
""fullscreenenter"",""1"",""3076""
","
","
","""event"",""trial"",""time""
""fullscreenenter"",""1"",""3076""
","
","","5764.934999999241","Great! Now on the next screen, try pressing '6' to select the third deck.","54","","instructions","2021-03-31 02:43:36.020","","","","","",""
"card-selection-trial","17","96225","0.0-11.0-0.0","A109","false","img/card_backs/set1/yellow.gif","img/card_backs/set1/red.gif","img/card_backs/set1/purple.gif","img/card_backs/set1/green.gif","img/card_backs/set2/blue.gif","img/card_backs/set2/orange.gif","img/card_backs/set2/gray.gif","img/card_backs/set2/pink.gif","""event"",""trial"",""time""
""fullscreenenter"",""1"",""3076""
","
","
","""event"",""trial"",""time""
""fullscreenenter"",""1"",""3076""
","
","","836.7949999956181","","","","practice_card_selection","2021-03-31 02:43:38.868","img/practice_cards/backs/brown.gif","2","-100","","",""
"casino-keyboard-response","18","100813","0.0-12.0-0.0","A109","false","img/card_backs/set1/yellow.gif","img/card_backs/set1/red.gif","img/card_backs/set1/purple.gif","img/card_backs/set1/green.gif","img/card_backs/set2/blue.gif","img/card_backs/set2/orange.gif","img/card_backs/set2/gray.gif","img/card_backs/set2/pink.gif","""event"",""trial"",""time""
""fullscreenenter"",""1"",""3076""
","
","
","""event"",""trial"",""time""
""fullscreenenter"",""1"",""3076""
","
","","4586.840000003576","Now on the next screen, try pressing '4' to select the second deck.","52","","instructions","2021-03-31 02:43:43.456","","","","","",""
"card-selection-trial","19","103359","0.0-13.0-0.0","A109","false","img/card_backs/set1/yellow.gif","img/card_backs/set1/red.gif","img/card_backs/set1/purple.gif","img/card_backs/set1/green.gif","img/card_backs/set2/blue.gif","img/card_backs/set2/orange.gif","img/card_backs/set2/gray.gif","img/card_backs/set2/pink.gif","""event"",""trial"",""time""
""fullscreenenter"",""1"",""3076""
","
","
","""event"",""trial"",""time""
""fullscreenenter"",""1"",""3076""
","
","","536.8200000084471","","","","practice_card_selection","2021-03-31 02:43:46.002","img/practice_cards/backs/dark_green.gif","1","-200","","",""
"casino-keyboard-response","20","107779","0.0-14.0-0.0","A109","false","img/card_backs/set1/yellow.gif","img/card_backs/set1/red.gif","img/card_backs/set1/purple.gif","img/card_backs/set1/green.gif","img/card_backs/set2/blue.gif","img/card_backs/set2/orange.gif","img/card_backs/set2/gray.gif","img/card_backs/set2/pink.gif","""event"",""trial"",""time""
""fullscreenenter"",""1"",""3076""
","
","
","""event"",""trial"",""time""
""fullscreenenter"",""1"",""3076""
","
","","4418.684999996913","Finally, try pressing '8' to select the deck all the way on the right.","56","","instructions","2021-03-31 02:43:50.422","","","","","",""
"card-selection-trial","21","110406","0.0-15.0-0.0","A109","false","img/card_backs/set1/yellow.gif","img/card_backs/set1/red.gif","img/card_backs/set1/purple.gif","img/card_backs/set1/green.gif","img/card_backs/set2/blue.gif","img/card_backs/set2/orange.gif","img/card_backs/set2/gray.gif","img/card_backs/set2/pink.gif","""event"",""trial"",""time""
""fullscreenenter"",""1"",""3076""
","
","
","""event"",""trial"",""time""
""fullscreenenter"",""1"",""3076""
","
","","616.7700000078185","","","","practice_card_selection","2021-03-31 02:43:53.049","img/practice_cards/backs/brown.gif","3","100","","",""
"casino-keyboard-response","22","114419","0.0-16.0-0.0","A109","false","img/card_backs/set1/yellow.gif","img/card_backs/set1/red.gif","img/card_backs/set1/purple.gif","img/card_backs/set1/green.gif","img/card_backs/set2/blue.gif","img/card_backs/set2/orange.gif","img/card_backs/set2/gray.gif","img/card_backs/set2/pink.gif","""event"",""trial"",""time""
""fullscreenenter"",""1"",""3076""
","
","
","""event"",""trial"",""time""
""fullscreenenter"",""1"",""3076""
","
","","4011.144999996759","Great! It seems like you are getting the hang of this.","80","","instructions","2021-03-31 02:43:57.062","","","","","",""
"casino-keyboard-response","23","122003","0.0-16.0-0.1","A109","false","img/card_backs/set1/yellow.gif","img/card_backs/set1/red.gif","img/card_backs/set1/purple.gif","img/card_backs/set1/green.gif","img/card_backs/set2/blue.gif","img/card_backs/set2/orange.gif","img/card_backs/set2/gray.gif","img/card_backs/set2/pink.gif","""event"",""trial"",""time""
""fullscreenenter"",""1"",""3076""
","
","
","""event"",""trial"",""time""
""fullscreenenter"",""1"",""3076""
","
","","7581.319999997504","You may have noticed that some cards will cause you to <b> win </b> tokens while other cards will cause you to <b> lose </b>  tokens.","70","","instructions","2021-03-31 02:44:04.646","","","","","",""
"casino-keyboard-response","24","130551","0.0-16.0-0.2","A109","false","img/card_backs/set1/yellow.gif","img/card_backs/set1/red.gif","img/card_backs/set1/purple.gif","img/card_backs/set1/green.gif","img/card_backs/set2/blue.gif","img/card_backs/set2/orange.gif","img/card_backs/set2/gray.gif","img/card_backs/set2/pink.gif","""event"",""trial"",""time""
""fullscreenenter"",""1"",""3076""
","
","
","""event"",""trial"",""time""
""fullscreenenter"",""1"",""3076""
","
","","8545.664999997825","Each deck has a mix of cards that will cause you to win and lose tokens. </br> However, the cards in each colored deck are different.","73","","instructions","2021-03-31 02:44:13.194","","","","","",""
"casino-keyboard-response","25","139150","0.0-16.0-0.3","A109","false","img/card_backs/set1/yellow.gif","img/card_backs/set1/red.gif","img/card_backs/set1/purple.gif","img/card_backs/set1/green.gif","img/card_backs/set2/blue.gif","img/card_backs/set2/orange.gif","img/card_backs/set2/gray.gif","img/card_backs/set2/pink.gif","""event"",""trial"",""time""
""fullscreenenter"",""1"",""3076""
","
","
","""event"",""trial"",""time""
""fullscreenenter"",""1"",""3076""
","
","","8596.00999999384","Some colored decks are luckier than others. </br> If you choose the lucky decks, you will earn more tokens than if you choose the unlucky decks.","69","","instructions","2021-03-31 02:44:21.794","","","","","",""
"casino-keyboard-response","26","146714","0.0-16.0-0.4","A109","false","img/card_backs/set1/yellow.gif","img/card_backs/set1/red.gif","img/card_backs/set1/purple.gif","img/card_backs/set1/green.gif","img/card_backs/set2/blue.gif","img/card_backs/set2/orange.gif","img/card_backs/set2/gray.gif","img/card_backs/set2/pink.gif","""event"",""trial"",""time""
""fullscreenenter"",""1"",""3076""
","
","
","""event"",""trial"",""time""
""fullscreenenter"",""1"",""3076""
","
","","7561.305000010179","You should try to figure out which decks are lucky. </br> Then, try to choose the lucky decks so you can win the most tokens.","87","","instructions","2021-03-31 02:44:29.357","","","","","",""
"casino-keyboard-response","27","157931","0.0-16.0-0.5","A109","false","img/card_backs/set1/yellow.gif","img/card_backs/set1/red.gif","img/card_backs/set1/purple.gif","img/card_backs/set1/green.gif","img/card_backs/set2/blue.gif","img/card_backs/set2/orange.gif","img/card_backs/set2/gray.gif","img/card_backs/set2/pink.gif","""event"",""trial"",""time""
""fullscreenenter"",""1"",""3076""
","
","
","""event"",""trial"",""time""
""fullscreenenter"",""1"",""3076""
","
","","11214.395000002696","To make it trickier, the casino dealer will switch the locations of the decks on every turn. </br> The color of the deck determines how lucky it is. The location does not matter.","88","","instructions","2021-03-31 02:44:40.574","","","","","",""
"casino-keyboard-response","28","167310","0.0-16.0-0.6","A109","false","img/card_backs/set1/yellow.gif","img/card_backs/set1/red.gif","img/card_backs/set1/purple.gif","img/card_backs/set1/green.gif","img/card_backs/set2/blue.gif","img/card_backs/set2/orange.gif","img/card_backs/set2/gray.gif","img/card_backs/set2/pink.gif","""event"",""trial"",""time""
""fullscreenenter"",""1"",""3076""
","
","
","""event"",""trial"",""time""
""fullscreenenter"",""1"",""3076""
","
","","9376.290000000154","The mix of cards in each colored deck will stay the same throughout the game. </br> That means that a deck that is lucky early on will stay lucky.","79","","instructions","2021-03-31 02:44:49.953","","","","","",""
"casino-keyboard-response","29","175598","0.0-16.0-0.7","A109","false","img/card_backs/set1/yellow.gif","img/card_backs/set1/red.gif","img/card_backs/set1/purple.gif","img/card_backs/set1/green.gif","img/card_backs/set2/blue.gif","img/card_backs/set2/orange.gif","img/card_backs/set2/gray.gif","img/card_backs/set2/pink.gif","""event"",""trial"",""time""
""fullscreenenter"",""1"",""3076""
","
","
","""event"",""trial"",""time""
""fullscreenenter"",""1"",""3076""
","
","","8284.89000000991","Remember though, all the decks have a <b> mix </b> of both <b> good </b> and <b> bad </b> cards so it may take a couple of turns to figure out if a deck is lucky.","69","","instructions","2021-03-31 02:44:58.241","","","","","",""
"casino-keyboard-response","30","183707","0.0-16.0-0.8","A109","false","img/card_backs/set1/yellow.gif","img/card_backs/set1/red.gif","img/card_backs/set1/purple.gif","img/card_backs/set1/green.gif","img/card_backs/set2/blue.gif","img/card_backs/set2/orange.gif","img/card_backs/set2/gray.gif","img/card_backs/set2/pink.gif","""event"",""trial"",""time""
""fullscreenenter"",""1"",""3076""
","
","
","""event"",""trial"",""time""
""fullscreenenter"",""1"",""3076""
","
","","8106.350000001839","At the end of the game, you will be paid bonus money based on how many tokens you win. </br> If you win more tokens, you will earn more money!","72","","instructions","2021-03-31 02:45:06.350","","","","","",""
"casino-keyboard-response","31","194016","0.0-16.0-0.9","A109","false","img/card_backs/set1/yellow.gif","img/card_backs/set1/red.gif","img/card_backs/set1/purple.gif","img/card_backs/set1/green.gif","img/card_backs/set2/blue.gif","img/card_backs/set2/orange.gif","img/card_backs/set2/gray.gif","img/card_backs/set2/pink.gif","""event"",""trial"",""time""
""fullscreenenter"",""1"",""3076""
","
","
","""event"",""trial"",""time""
""fullscreenenter"",""1"",""3076""
","
","","10306.30999999994","You will never <b> lose </b> money. </br> If you end up with fewer than 0 tokens, you will earn $0 of bonus money, but you will still be paid for playing the game.","83","","instructions","2021-03-31 02:45:16.659","","","","","",""
"casino-keyboard-response","32","198633","0.0-16.0-0.10","A109","false","img/card_backs/set1/yellow.gif","img/card_backs/set1/red.gif","img/card_backs/set1/purple.gif","img/card_backs/set1/green.gif","img/card_backs/set2/blue.gif","img/card_backs/set2/orange.gif","img/card_backs/set2/gray.gif","img/card_backs/set2/pink.gif","""event"",""trial"",""time""
""fullscreenenter"",""1"",""3076""
","
","
","""event"",""trial"",""time""
""fullscreenenter"",""1"",""3076""
","
","","4612.345000001369","You will have 10 seconds to make each choice.","82","","instructions","2021-03-31 02:45:21.276","","","","","",""
"casino-keyboard-response","33","206984","0.0-16.0-0.11","A109","false","img/card_backs/set1/yellow.gif","img/card_backs/set1/red.gif","img/card_backs/set1/purple.gif","img/card_backs/set1/green.gif","img/card_backs/set2/blue.gif","img/card_backs/set2/orange.gif","img/card_backs/set2/gray.gif","img/card_backs/set2/pink.gif","""event"",""trial"",""time""
""fullscreenenter"",""1"",""3076""
","
","
","""event"",""trial"",""time""
""fullscreenenter"",""1"",""3076""
","
","","8348.700000002282","Before you play the game for real, you will play with practice decks. </br> The tokens you earn during practice won't count toward your total.","86","","instructions","2021-03-31 02:45:29.627","","","","","",""
"casino-keyboard-response","34","213031","0.0-16.0-0.12","A109","false","img/card_backs/set1/yellow.gif","img/card_backs/set1/red.gif","img/card_backs/set1/purple.gif","img/card_backs/set1/green.gif","img/card_backs/set2/blue.gif","img/card_backs/set2/orange.gif","img/card_backs/set2/gray.gif","img/card_backs/set2/pink.gif","""event"",""trial"",""time""
""fullscreenenter"",""1"",""3076""
","
","
","""event"",""trial"",""time""
""fullscreenenter"",""1"",""3076""
","
","","6044.644999987213","Ready? Remember, use the '2', '4', '6', and '8' keys to select the decks. </br> Put your fingers on those keys now and then press '2' to begin.","50","","instructions","2021-03-31 02:45:35.674","","","","","",""
"casino-fixation","35","213534","0.0-17.0-0.0","A109","false","img/card_backs/set1/yellow.gif","img/card_backs/set1/red.gif","img/card_backs/set1/purple.gif","img/card_backs/set1/green.gif","img/card_backs/set2/blue.gif","img/card_backs/set2/orange.gif","img/card_backs/set2/gray.gif","img/card_backs/set2/pink.gif","""event"",""trial"",""time""
""fullscreenenter"",""1"",""3076""
","
","
","""event"",""trial"",""time""
""fullscreenenter"",""1"",""3076""
","
","","null","","null","","fixation","2021-03-31 02:45:36.177","","","","","",""
"card-selection-trial","36","218068","0.0-17.0-1.0","A109","false","img/card_backs/set1/yellow.gif","img/card_backs/set1/red.gif","img/card_backs/set1/purple.gif","img/card_backs/set1/green.gif","img/card_backs/set2/blue.gif","img/card_backs/set2/orange.gif","img/card_backs/set2/gray.gif","img/card_backs/set2/pink.gif","""event"",""trial"",""time""
""fullscreenenter"",""1"",""3076""
","
","
","""event"",""trial"",""time""
""fullscreenenter"",""1"",""3076""
","
","","2524.360000010347","","","","practice","2021-03-31 02:45:40.711","img/practice_cards/backs/dark_green.gif","1","200","0","",""
"casino-fixation","37","218573","0.0-17.0-0.1","A109","false","img/card_backs/set1/yellow.gif","img/card_backs/set1/red.gif","img/card_backs/set1/purple.gif","img/card_backs/set1/green.gif","img/card_backs/set2/blue.gif","img/card_backs/set2/orange.gif","img/card_backs/set2/gray.gif","img/card_backs/set2/pink.gif","""event"",""trial"",""time""
""fullscreenenter"",""1"",""3076""
","
","
","""event"",""trial"",""time""
""fullscreenenter"",""1"",""3076""
","
","","null","","null","","fixation","2021-03-31 02:45:41.216","","","","","",""
"card-selection-trial","38","221452","0.0-17.0-1.1","A109","false","img/card_backs/set1/yellow.gif","img/card_backs/set1/red.gif","img/card_backs/set1/purple.gif","img/card_backs/set1/green.gif","img/card_backs/set2/blue.gif","img/card_backs/set2/orange.gif","img/card_backs/set2/gray.gif","img/card_backs/set2/pink.gif","""event"",""trial"",""time""
""fullscreenenter"",""1"",""3076""
","
","
","""event"",""trial"",""time""
""fullscreenenter"",""1"",""3076""
","
","","871.6450000065379","","","","practice","2021-03-31 02:45:44.096","img/practice_cards/backs/black.gif","1","100","0","",""
"casino-fixation","39","221957","0.0-17.0-0.2","A109","false","img/card_backs/set1/yellow.gif","img/card_backs/set1/red.gif","img/card_backs/set1/purple.gif","img/card_backs/set1/green.gif","img/card_backs/set2/blue.gif","img/card_backs/set2/orange.gif","img/card_backs/set2/gray.gif","img/card_backs/set2/pink.gif","""event"",""trial"",""time""
""fullscreenenter"",""1"",""3076""
","
","
","""event"",""trial"",""time""
""fullscreenenter"",""1"",""3076""
","
","","null","","null","","fixation","2021-03-31 02:45:44.600","","","","","",""
"card-selection-trial","40","224901","0.0-17.0-1.2","A109","false","img/card_backs/set1/yellow.gif","img/card_backs/set1/red.gif","img/card_backs/set1/purple.gif","img/card_backs/set1/green.gif","img/card_backs/set2/blue.gif","img/card_backs/set2/orange.gif","img/card_backs/set2/gray.gif","img/card_backs/set2/pink.gif","""event"",""trial"",""time""
""fullscreenenter"",""1"",""3076""
","
","
","""event"",""trial"",""time""
""fullscreenenter"",""1"",""3076""
","
","","934.400000012829","","","","practice","2021-03-31 02:45:47.544","img/practice_cards/backs/brown.gif","1","100","0","",""
"casino-fixation","41","225405","0.0-17.0-0.3","A109","false","img/card_backs/set1/yellow.gif","img/card_backs/set1/red.gif","img/card_backs/set1/purple.gif","img/card_backs/set1/green.gif","img/card_backs/set2/blue.gif","img/card_backs/set2/orange.gif","img/card_backs/set2/gray.gif","img/card_backs/set2/pink.gif","""event"",""trial"",""time""
""fullscreenenter"",""1"",""3076""
","
","
","""event"",""trial"",""time""
""fullscreenenter"",""1"",""3076""
","
","","null","","null","","fixation","2021-03-31 02:45:48.049","","","","","",""
"card-selection-trial","42","228059","0.0-17.0-1.3","A109","false","img/card_backs/set1/yellow.gif","img/card_backs/set1/red.gif","img/card_backs/set1/purple.gif","img/card_backs/set1/green.gif","img/card_backs/set2/blue.gif","img/card_backs/set2/orange.gif","img/card_backs/set2/gray.gif","img/card_backs/set2/pink.gif","""event"",""trial"",""time""
""fullscreenenter"",""1"",""3076""
","
","
","""event"",""trial"",""time""
""fullscreenenter"",""1"",""3076""
","
","","642.9999999963911","","","","practice","2021-03-31 02:45:50.702","img/practice_cards/backs/dark_blue.gif","1","-200","0","",""
"casino-fixation","43","228562","0.0-17.0-0.4","A109","false","img/card_backs/set1/yellow.gif","img/card_backs/set1/red.gif","img/card_backs/set1/purple.gif","img/card_backs/set1/green.gif","img/card_backs/set2/blue.gif","img/card_backs/set2/orange.gif","img/card_backs/set2/gray.gif","img/card_backs/set2/pink.gif","""event"",""trial"",""time""
""fullscreenenter"",""1"",""3076""
","
","
","""event"",""trial"",""time""
""fullscreenenter"",""1"",""3076""
","
","","null","","null","","fixation","2021-03-31 02:45:51.205","","","","","",""
"card-selection-trial","44","231687","0.0-17.0-1.4","A109","false","img/card_backs/set1/yellow.gif","img/card_backs/set1/red.gif","img/card_backs/set1/purple.gif","img/card_backs/set1/green.gif","img/card_backs/set2/blue.gif","img/card_backs/set2/orange.gif","img/card_backs/set2/gray.gif","img/card_backs/set2/pink.gif","""event"",""trial"",""time""
""fullscreenenter"",""1"",""3076""
","
","
","""event"",""trial"",""time""
""fullscreenenter"",""1"",""3076""
","
","","1112.6000000076601","","","","practice","2021-03-31 02:45:54.330","img/practice_cards/backs/black.gif","3","100","0","",""
"casino-fixation","45","232192","0.0-17.0-0.5","A109","false","img/card_backs/set1/yellow.gif","img/card_backs/set1/red.gif","img/card_backs/set1/purple.gif","img/card_backs/set1/green.gif","img/card_backs/set2/blue.gif","img/card_backs/set2/orange.gif","img/card_backs/set2/gray.gif","img/card_backs/set2/pink.gif","""event"",""trial"",""time""
""fullscreenenter"",""1"",""3076""
","
","
","""event"",""trial"",""time""
""fullscreenenter"",""1"",""3076""
","
","","null","","null","","fixation","2021-03-31 02:45:54.835","","","","","",""
"card-selection-trial","46","234601","0.0-17.0-1.5","A109","false","img/card_backs/set1/yellow.gif","img/card_backs/set1/red.gif","img/card_backs/set1/purple.gif","img/card_backs/set1/green.gif","img/card_backs/set2/blue.gif","img/card_backs/set2/orange.gif","img/card_backs/set2/gray.gif","img/card_backs/set2/pink.gif","""event"",""trial"",""time""
""fullscreenenter"",""1"",""3076""
","
","
","""event"",""trial"",""time""
""fullscreenenter"",""1"",""3076""
","
","","398.48499999789055","","","","practice","2021-03-31 02:45:57.244","img/practice_cards/backs/brown.gif","3","-100","0","",""
"casino-fixation","47","235106","0.0-17.0-0.6","A109","false","img/card_backs/set1/yellow.gif","img/card_backs/set1/red.gif","img/card_backs/set1/purple.gif","img/card_backs/set1/green.gif","img/card_backs/set2/blue.gif","img/card_backs/set2/orange.gif","img/card_backs/set2/gray.gif","img/card_backs/set2/pink.gif","""event"",""trial"",""time""
""fullscreenenter"",""1"",""3076""
","
","
","""event"",""trial"",""time""
""fullscreenenter"",""1"",""3076""
","
","","null","","null","","fixation","2021-03-31 02:45:57.749","","","","","",""
"card-selection-trial","48","237544","0.0-17.0-1.6","A109","false","img/card_backs/set1/yellow.gif","img/card_backs/set1/red.gif","img/card_backs/set1/purple.gif","img/card_backs/set1/green.gif","img/card_backs/set2/blue.gif","img/card_backs/set2/orange.gif","img/card_backs/set2/gray.gif","img/card_backs/set2/pink.gif","""event"",""trial"",""time""
""fullscreenenter"",""1"",""3076""
","
","
","""event"",""trial"",""time""
""fullscreenenter"",""1"",""3076""
","
","","426.1350000015227","","","","practice","2021-03-31 02:46:00.187","img/practice_cards/backs/brown.gif","2","-100","0","",""
"casino-fixation","49","238049","0.0-17.0-0.7","A109","false","img/card_backs/set1/yellow.gif","img/card_backs/set1/red.gif","img/card_backs/set1/purple.gif","img/card_backs/set1/green.gif","img/card_backs/set2/blue.gif","img/card_backs/set2/orange.gif","img/card_backs/set2/gray.gif","img/card_backs/set2/pink.gif","""event"",""trial"",""time""
""fullscreenenter"",""1"",""3076""
","
","
","""event"",""trial"",""time""
""fullscreenenter"",""1"",""3076""
","
","","null","","null","","fixation","2021-03-31 02:46:00.692","","","","","",""
"card-selection-trial","50","240690","0.0-17.0-1.7","A109","false","img/card_backs/set1/yellow.gif","img/card_backs/set1/red.gif","img/card_backs/set1/purple.gif","img/card_backs/set1/green.gif","img/card_backs/set2/blue.gif","img/card_backs/set2/orange.gif","img/card_backs/set2/gray.gif","img/card_backs/set2/pink.gif","""event"",""trial"",""time""
""fullscreenenter"",""1"",""3076""
","
","
","""event"",""trial"",""time""
""fullscreenenter"",""1"",""3076""
","
","","628.8250000070548","","","","practice","2021-03-31 02:46:03.333","img/practice_cards/backs/dark_green.gif","2","-200","0","",""
"casino-fixation","51","241197","0.0-17.0-0.8","A109","false","img/card_backs/set1/yellow.gif","img/card_backs/set1/red.gif","img/card_backs/set1/purple.gif","img/card_backs/set1/green.gif","img/card_backs/set2/blue.gif","img/card_backs/set2/orange.gif","img/card_backs/set2/gray.gif","img/card_backs/set2/pink.gif","""event"",""trial"",""time""
""fullscreenenter"",""1"",""3076""
","
","
","""event"",""trial"",""time""
""fullscreenenter"",""1"",""3076""
","
","","null","","null","","fixation","2021-03-31 02:46:03.840","","","","","",""
"card-selection-trial","52","243699","0.0-17.0-1.8","A109","false","img/card_backs/set1/yellow.gif","img/card_backs/set1/red.gif","img/card_backs/set1/purple.gif","img/card_backs/set1/green.gif","img/card_backs/set2/blue.gif","img/card_backs/set2/orange.gif","img/card_backs/set2/gray.gif","img/card_backs/set2/pink.gif","""event"",""trial"",""time""
""fullscreenenter"",""1"",""3076""
","
","
","""event"",""trial"",""time""
""fullscreenenter"",""1"",""3076""
","
","","492.47499999182764","","","","practice","2021-03-31 02:46:06.342","img/practice_cards/backs/brown.gif","0","-100","0","",""
"casino-fixation","53","244203","0.0-17.0-0.9","A109","false","img/card_backs/set1/yellow.gif","img/card_backs/set1/red.gif","img/card_backs/set1/purple.gif","img/card_backs/set1/green.gif","img/card_backs/set2/blue.gif","img/card_backs/set2/orange.gif","img/card_backs/set2/gray.gif","img/card_backs/set2/pink.gif","""event"",""trial"",""time""
""fullscreenenter"",""1"",""3076""
","
","
","""event"",""trial"",""time""
""fullscreenenter"",""1"",""3076""
","
","","null","","null","","fixation","2021-03-31 02:46:06.847","","","","","",""
"card-selection-trial","54","246530","0.0-17.0-1.9","A109","false","img/card_backs/set1/yellow.gif","img/card_backs/set1/red.gif","img/card_backs/set1/purple.gif","img/card_backs/set1/green.gif","img/card_backs/set2/blue.gif","img/card_backs/set2/orange.gif","img/card_backs/set2/gray.gif","img/card_backs/set2/pink.gif","""event"",""trial"",""time""
""fullscreenenter"",""1"",""3076""
","
","
","""event"",""trial"",""time""
""fullscreenenter"",""1"",""3076""
","
","","317.2350000095321","","","","practice","2021-03-31 02:46:09.174","img/practice_cards/backs/dark_green.gif","0","200","0","",""
"casino-keyboard-response","55","250142","0.0-18.0","A109","false","img/card_backs/set1/yellow.gif","img/card_backs/set1/red.gif","img/card_backs/set1/purple.gif","img/card_backs/set1/green.gif","img/card_backs/set2/blue.gif","img/card_backs/set2/orange.gif","img/card_backs/set2/gray.gif","img/card_backs/set2/pink.gif","""event"",""trial"",""time""
""fullscreenenter"",""1"",""3076""
","
","
","""event"",""trial"",""time""
""fullscreenenter"",""1"",""3076""
","
","","3609.020000003511","You earned 0 tokens during the practice round!","75","","","2021-03-31 02:46:12.785","","","","","",""
"casino-keyboard-response","56","254895","0.0-19.0-0.0","A109","false","img/card_backs/set1/yellow.gif","img/card_backs/set1/red.gif","img/card_backs/set1/purple.gif","img/card_backs/set1/green.gif","img/card_backs/set2/blue.gif","img/card_backs/set2/orange.gif","img/card_backs/set2/gray.gif","img/card_backs/set2/pink.gif","""event"",""trial"",""time""
""fullscreenenter"",""1"",""3076""
","
","
","""event"",""trial"",""time""
""fullscreenenter"",""1"",""3076""
","
","","4750.644999992801","Nice job! You are almost ready to play the real game.","86","","instructions","2021-03-31 02:46:17.538","","","","","",""
"casino-keyboard-response","57","261264","0.0-19.0-0.1","A109","false","img/card_backs/set1/yellow.gif","img/card_backs/set1/red.gif","img/card_backs/set1/purple.gif","img/card_backs/set1/green.gif","img/card_backs/set2/blue.gif","img/card_backs/set2/orange.gif","img/card_backs/set2/gray.gif","img/card_backs/set2/pink.gif","""event"",""trial"",""time""
""fullscreenenter"",""1"",""3076""
","
","
","""event"",""trial"",""time""
""fullscreenenter"",""1"",""3076""
","
","","6366.339999993215","You will play two rounds of the real game. In each round, you will pick 100 cards in total.","73","","instructions","2021-03-31 02:46:23.907","","","","","",""
"casino-keyboard-response","58","265550","0.0-19.0-0.2","A109","false","img/card_backs/set1/yellow.gif","img/card_backs/set1/red.gif","img/card_backs/set1/purple.gif","img/card_backs/set1/green.gif","img/card_backs/set2/blue.gif","img/card_backs/set2/orange.gif","img/card_backs/set2/gray.gif","img/card_backs/set2/pink.gif","""event"",""trial"",""time""
""fullscreenenter"",""1"",""3076""
","
","
","""event"",""trial"",""time""
""fullscreenenter"",""1"",""3076""
","
","","4283.974999998463","We are now going to ask you some questions about how the game works.","66","","instructions","2021-03-31 02:46:28.193","","","","","",""
"casino-keyboard-response","59","271829","0.0-19.0-0.3","A109","false","img/card_backs/set1/yellow.gif","img/card_backs/set1/red.gif","img/card_backs/set1/purple.gif","img/card_backs/set1/green.gif","img/card_backs/set2/blue.gif","img/card_backs/set2/orange.gif","img/card_backs/set2/gray.gif","img/card_backs/set2/pink.gif","""event"",""trial"",""time""
""fullscreenenter"",""1"",""3076""
","
","
","""event"",""trial"",""time""
""fullscreenenter"",""1"",""3076""
","
","","6276.334999987739","Answer carefully. You will not be able to begin the game until you answer them correctly.","67","","instructions","2021-03-31 02:46:34.472","","","","","",""
"casino-comp_q","60","281762","0.0-20.0-0.0","A109","false","img/card_backs/set1/yellow.gif","img/card_backs/set1/red.gif","img/card_backs/set1/purple.gif","img/card_backs/set1/green.gif","img/card_backs/set2/blue.gif","img/card_backs/set2/orange.gif","img/card_backs/set2/gray.gif","img/card_backs/set2/pink.gif","""event"",""trial"",""time""
""fullscreenenter"",""1"",""3076""
","
","
","""event"",""trial"",""time""
""fullscreenenter"",""1"",""3076""
","
","","9930.24499999592","True or False: All the decks have some cards that cause you to win tokens and some cards that cause you to lose tokens.","84","","","2021-03-31 02:46:44.405","","","","","",""
"casino-keyboard-response","61","284611","0.0-20.0-1.0","A109","false","img/card_backs/set1/yellow.gif","img/card_backs/set1/red.gif","img/card_backs/set1/purple.gif","img/card_backs/set1/green.gif","img/card_backs/set2/blue.gif","img/card_backs/set2/orange.gif","img/card_backs/set2/gray.gif","img/card_backs/set2/pink.gif","""event"",""trial"",""time""
""fullscreenenter"",""1"",""3076""
","
","
","""event"",""trial"",""time""
""fullscreenenter"",""1"",""3076""
","
","","2845.6850000075065","True is correct! All the decks have a mix of winning and losing cards.","77","","","2021-03-31 02:46:47.254","","","","","true",""
"casino-comp_q","62","289819","0.0-21.0-0.0","A109","false","img/card_backs/set1/yellow.gif","img/card_backs/set1/red.gif","img/card_backs/set1/purple.gif","img/card_backs/set1/green.gif","img/card_backs/set2/blue.gif","img/card_backs/set2/orange.gif","img/card_backs/set2/gray.gif","img/card_backs/set2/pink.gif","""event"",""trial"",""time""
""fullscreenenter"",""1"",""3076""
","
","
","""event"",""trial"",""time""
""fullscreenenter"",""1"",""3076""
","
","","5203.610000011395","True or False: You will have as much time as you want to make your response.","84","","","2021-03-31 02:46:52.462","","","","","",""
"casino-keyboard-response","63","293171","0.0-21.0-1.0","A109","false","img/card_backs/set1/yellow.gif","img/card_backs/set1/red.gif","img/card_backs/set1/purple.gif","img/card_backs/set1/green.gif","img/card_backs/set2/blue.gif","img/card_backs/set2/orange.gif","img/card_backs/set2/gray.gif","img/card_backs/set2/pink.gif","""event"",""trial"",""time""
""fullscreenenter"",""1"",""3076""
","
","
","""event"",""trial"",""time""
""fullscreenenter"",""1"",""3076""
","
","","3348.9600000029895","True is incorrect. You will only have 10 seconds to make each choice.","75","","","2021-03-31 02:46:55.814","","","","","false",""
"casino-comp_q","64","296306","0.0-21.1-0.1","A109","false","img/card_backs/set1/yellow.gif","img/card_backs/set1/red.gif","img/card_backs/set1/purple.gif","img/card_backs/set1/green.gif","img/card_backs/set2/blue.gif","img/card_backs/set2/orange.gif","img/card_backs/set2/gray.gif","img/card_backs/set2/pink.gif","""event"",""trial"",""time""
""fullscreenenter"",""1"",""3076""
","
","
","""event"",""trial"",""time""
""fullscreenenter"",""1"",""3076""
","
","","3132.9249999980675","True or False: You will have as much time as you want to make your response.","70","","","2021-03-31 02:46:58.949","","","","","",""
"casino-keyboard-response","65","299401","0.0-21.1-1.1","A109","false","img/card_backs/set1/yellow.gif","img/card_backs/set1/red.gif","img/card_backs/set1/purple.gif","img/card_backs/set1/green.gif","img/card_backs/set2/blue.gif","img/card_backs/set2/orange.gif","img/card_backs/set2/gray.gif","img/card_backs/set2/pink.gif","""event"",""trial"",""time""
""fullscreenenter"",""1"",""3076""
","
","
","""event"",""trial"",""time""
""fullscreenenter"",""1"",""3076""
","
","","3090.7750000042142","False is correct! You will only have 10 seconds to make each choice.","75","","","2021-03-31 02:47:02.044","","","","","true",""
"casino-comp_q","66","303418","0.0-22.0-0.0","A109","false","img/card_backs/set1/yellow.gif","img/card_backs/set1/red.gif","img/card_backs/set1/purple.gif","img/card_backs/set1/green.gif","img/card_backs/set2/blue.gif","img/card_backs/set2/orange.gif","img/card_backs/set2/gray.gif","img/card_backs/set2/pink.gif","""event"",""trial"",""time""
""fullscreenenter"",""1"",""3076""
","
","
","""event"",""trial"",""time""
""fullscreenenter"",""1"",""3076""
","
","","4015.7000000035623","True or False: The location of the deck determines how lucky it is.","70","","","2021-03-31 02:47:06.061","","","","","",""
"casino-keyboard-response","67","306641","0.0-22.0-1.0","A109","false","img/card_backs/set1/yellow.gif","img/card_backs/set1/red.gif","img/card_backs/set1/purple.gif","img/card_backs/set1/green.gif","img/card_backs/set2/blue.gif","img/card_backs/set2/orange.gif","img/card_backs/set2/gray.gif","img/card_backs/set2/pink.gif","""event"",""trial"",""time""
""fullscreenenter"",""1"",""3076""
","
","
","""event"",""trial"",""time""
""fullscreenenter"",""1"",""3076""
","
","","3220.4300000012154","False is correct! The <i>color</i>  of the deck determines how lucky or unlucky it is.","68","","","2021-03-31 02:47:09.284","","","","","true",""
"casino-keyboard-response","68","311060","0.0-23.0-0.0","A109","false","img/card_backs/set1/yellow.gif","img/card_backs/set1/red.gif","img/card_backs/set1/purple.gif","img/card_backs/set1/green.gif","img/card_backs/set2/blue.gif","img/card_backs/set2/orange.gif","img/card_backs/set2/gray.gif","img/card_backs/set2/pink.gif","""event"",""trial"",""time""
""fullscreenenter"",""1"",""3076""
","
","
","""event"",""trial"",""time""
""fullscreenenter"",""1"",""3076""
","
","","4415.990000008605","Great job! Now it's time to start the real game.","82","","instructions","2021-03-31 02:47:13.703","","","","","",""
"casino-keyboard-response","69","316232","0.0-23.0-0.1","A109","false","img/card_backs/set1/yellow.gif","img/card_backs/set1/red.gif","img/card_backs/set1/purple.gif","img/card_backs/set1/green.gif","img/card_backs/set2/blue.gif","img/card_backs/set2/orange.gif","img/card_backs/set2/gray.gif","img/card_backs/set2/pink.gif","""event"",""trial"",""time""
""fullscreenenter"",""1"",""3076""
","
","
","""event"",""trial"",""time""
""fullscreenenter"",""1"",""3076""
","
","","5170.094999994035","Before we start, we're going to head into a new room of the casino.","86","","instructions","2021-03-31 02:47:18.875","","","","","",""
"casino-keyboard-response","70","322599","0.0-24.0-0.0","A109","false","img/card_backs/set1/yellow.gif","img/card_backs/set1/red.gif","img/card_backs/set1/purple.gif","img/card_backs/set1/green.gif","img/card_backs/set2/blue.gif","img/card_backs/set2/orange.gif","img/card_backs/set2/gray.gif","img/card_backs/set2/pink.gif","""event"",""trial"",""time""
""fullscreenenter"",""1"",""3076""
","
","
","""event"",""trial"",""time""
""fullscreenenter"",""1"",""3076""
","
","","6365.239999999176","Here we are! The real game will use different cards, but the rules will be the same.","71","","instructions","2021-03-31 02:47:25.243","","","","","",""
"casino-keyboard-response","71","324744","0.0-24.0-0.1","A109","false","img/card_backs/set1/yellow.gif","img/card_backs/set1/red.gif","img/card_backs/set1/purple.gif","img/card_backs/set1/green.gif","img/card_backs/set2/blue.gif","img/card_backs/set2/orange.gif","img/card_backs/set2/gray.gif","img/card_backs/set2/pink.gif","""event"",""trial"",""time""
""fullscreenenter"",""1"",""3076""
","
","
","""event"",""trial"",""time""
""fullscreenenter"",""1"",""3076""
","
","","2142.2100000054343","Ready? Put your fingers over the '2', '4', 6', and '8' keys so you are ready to play the game. </br> Then press 2 to start.","50","","instructions","2021-03-31 02:47:27.387","","","","","",""
"casino-fixation","72","325245","0.0-25.0-0.0","A109","false","img/card_backs/set1/yellow.gif","img/card_backs/set1/red.gif","img/card_backs/set1/purple.gif","img/card_backs/set1/green.gif","img/card_backs/set2/blue.gif","img/card_backs/set2/orange.gif","img/card_backs/set2/gray.gif","img/card_backs/set2/pink.gif","""event"",""trial"",""time""
""fullscreenenter"",""1"",""3076""
","
","
","""event"",""trial"",""time""
""fullscreenenter"",""1"",""3076""
","
","","null","","null","","fixation","2021-03-31 02:47:27.888","","","","","",""
"card-selection-trial","73","328594","0.0-25.0-1.0","A109","false","img/card_backs/set1/yellow.gif","img/card_backs/set1/red.gif","img/card_backs/set1/purple.gif","img/card_backs/set1/green.gif","img/card_backs/set2/blue.gif","img/card_backs/set2/orange.gif","img/card_backs/set2/gray.gif","img/card_backs/set2/pink.gif","""event"",""trial"",""time""
""fullscreenenter"",""1"",""3076""
","
","
","""event"",""trial"",""time""
""fullscreenenter"",""1"",""3076""
","
","","1337.7199999958975","","","","real_trial","2021-03-31 02:47:31.237","img/card_backs/set1/purple.gif","2","100","1","",""
"casino-fixation","74","329099","0.0-25.0-0.1","A109","false","img/card_backs/set1/yellow.gif","img/card_backs/set1/red.gif","img/card_backs/set1/purple.gif","img/card_backs/set1/green.gif","img/card_backs/set2/blue.gif","img/card_backs/set2/orange.gif","img/card_backs/set2/gray.gif","img/card_backs/set2/pink.gif","""event"",""trial"",""time""
""fullscreenenter"",""1"",""3076""
","
","
","""event"",""trial"",""time""
""fullscreenenter"",""1"",""3076""
","
","","null","","null","","fixation","2021-03-31 02:47:31.742","","","","","",""
"card-selection-trial","75","331398","0.0-25.0-1.1","A109","false","img/card_backs/set1/yellow.gif","img/card_backs/set1/red.gif","img/card_backs/set1/purple.gif","img/card_backs/set1/green.gif","img/card_backs/set2/blue.gif","img/card_backs/set2/orange.gif","img/card_backs/set2/gray.gif","img/card_backs/set2/pink.gif","""event"",""trial"",""time""
""fullscreenenter"",""1"",""3076""
","
","
","""event"",""trial"",""time""
""fullscreenenter"",""1"",""3076""
","
","","288.0399999994552","","","","real_trial","2021-03-31 02:47:34.041","img/card_backs/set1/red.gif","2","190","1","",""
"casino-fixation","76","331903","0.0-25.0-0.2","A109","false","img/card_backs/set1/yellow.gif","img/card_backs/set1/red.gif","img/card_backs/set1/purple.gif","img/card_backs/set1/green.gif","img/card_backs/set2/blue.gif","img/card_backs/set2/orange.gif","img/card_backs/set2/gray.gif","img/card_backs/set2/pink.gif","""event"",""trial"",""time""
""fullscreenenter"",""1"",""3076""
","
","
","""event"",""trial"",""time""
""fullscreenenter"",""1"",""3076""
","
","","null","","null","","fixation","2021-03-31 02:47:34.546","","","","","",""
"card-selection-trial","77","334243","0.0-25.0-1.2","A109","false","img/card_backs/set1/yellow.gif","img/card_backs/set1/red.gif","img/card_backs/set1/purple.gif","img/card_backs/set1/green.gif","img/card_backs/set2/blue.gif","img/card_backs/set2/orange.gif","img/card_backs/set2/gray.gif","img/card_backs/set2/pink.gif","""event"",""trial"",""time""
""fullscreenenter"",""1"",""3076""
","
","
","""event"",""trial"",""time""
""fullscreenenter"",""1"",""3076""
","
","","330.75999999709893","","","","real_trial","2021-03-31 02:47:36.886","img/card_backs/set1/green.gif","2","-50","1","",""
"casino-fixation","78","334747","0.0-25.0-0.3","A109","false","img/card_backs/set1/yellow.gif","img/card_backs/set1/red.gif","img/card_backs/set1/purple.gif","img/card_backs/set1/green.gif","img/card_backs/set2/blue.gif","img/card_backs/set2/orange.gif","img/card_backs/set2/gray.gif","img/card_backs/set2/pink.gif","""event"",""trial"",""time""
""fullscreenenter"",""1"",""3076""
","
","
","""event"",""trial"",""time""
""fullscreenenter"",""1"",""3076""
","
","","null","","null","","fixation","2021-03-31 02:47:37.390","","","","","",""
"card-selection-trial","79","337029","0.0-25.0-1.3","A109","false","img/card_backs/set1/yellow.gif","img/card_backs/set1/red.gif","img/card_backs/set1/purple.gif","img/card_backs/set1/green.gif","img/card_backs/set2/blue.gif","img/card_backs/set2/orange.gif","img/card_backs/set2/gray.gif","img/card_backs/set2/pink.gif","""event"",""trial"",""time""
""fullscreenenter"",""1"",""3076""
","
","
","""event"",""trial"",""time""
""fullscreenenter"",""1"",""3076""
","
","","274.9199999962002","","","","real_trial","2021-03-31 02:47:39.672","img/card_backs/set1/green.gif","3","120","1","",""
"casino-fixation","80","337534","0.0-25.0-0.4","A109","false","img/card_backs/set1/yellow.gif","img/card_backs/set1/red.gif","img/card_backs/set1/purple.gif","img/card_backs/set1/green.gif","img/card_backs/set2/blue.gif","img/card_backs/set2/orange.gif","img/card_backs/set2/gray.gif","img/card_backs/set2/pink.gif","""event"",""trial"",""time""
""fullscreenenter"",""1"",""3076""
","
","
","""event"",""trial"",""time""
""fullscreenenter"",""1"",""3076""
","
","","null","","null","","fixation","2021-03-31 02:47:40.177","","","","","",""
"card-selection-trial","81","339810","0.0-25.0-1.4","A109","false","img/card_backs/set1/yellow.gif","img/card_backs/set1/red.gif","img/card_backs/set1/purple.gif","img/card_backs/set1/green.gif","img/card_backs/set2/blue.gif","img/card_backs/set2/orange.gif","img/card_backs/set2/gray.gif","img/card_backs/set2/pink.gif","""event"",""trial"",""time""
""fullscreenenter"",""1"",""3076""
","
","
","""event"",""trial"",""time""
""fullscreenenter"",""1"",""3076""
","
","","265.72499999019783","","","","real_trial","2021-03-31 02:47:42.453","img/card_backs/set1/green.gif","3","-60","1","",""
"casino-fixation","82","340315","0.0-25.0-0.5","A109","false","img/card_backs/set1/yellow.gif","img/card_backs/set1/red.gif","img/card_backs/set1/purple.gif","img/card_backs/set1/green.gif","img/card_backs/set2/blue.gif","img/card_backs/set2/orange.gif","img/card_backs/set2/gray.gif","img/card_backs/set2/pink.gif","""event"",""trial"",""time""
""fullscreenenter"",""1"",""3076""
","
","
","""event"",""trial"",""time""
""fullscreenenter"",""1"",""3076""
","
","","null","","null","","fixation","2021-03-31 02:47:42.958","","","","","",""
"card-selection-trial","83","342600","0.0-25.0-1.5","A109","false","img/card_backs/set1/yellow.gif","img/card_backs/set1/red.gif","img/card_backs/set1/purple.gif","img/card_backs/set1/green.gif","img/card_backs/set2/blue.gif","img/card_backs/set2/orange.gif","img/card_backs/set2/gray.gif","img/card_backs/set2/pink.gif","""event"",""trial"",""time""
""fullscreenenter"",""1"",""3076""
","
","
","""event"",""trial"",""time""
""fullscreenenter"",""1"",""3076""
","
","","274.44500000274274","","","","real_trial","2021-03-31 02:47:45.243","img/card_backs/set1/purple.gif","3","100","1","",""
"casino-fixation","84","343107","0.0-25.0-0.6","A109","false","img/card_backs/set1/yellow.gif","img/card_backs/set1/red.gif","img/card_backs/set1/purple.gif","img/card_backs/set1/green.gif","img/card_backs/set2/blue.gif","img/card_backs/set2/orange.gif","img/card_backs/set2/gray.gif","img/card_backs/set2/pink.gif","""event"",""trial"",""time""
""fullscreenenter"",""1"",""3076""
","
","
","""event"",""trial"",""time""
""fullscreenenter"",""1"",""3076""
","
","","null","","null","","fixation","2021-03-31 02:47:45.750","","","","","",""
"card-selection-trial","85","345406","0.0-25.0-1.6","A109","false","img/card_backs/set1/yellow.gif","img/card_backs/set1/red.gif","img/card_backs/set1/purple.gif","img/card_backs/set1/green.gif","img/card_backs/set2/blue.gif","img/card_backs/set2/orange.gif","img/card_backs/set2/gray.gif","img/card_backs/set2/pink.gif","""event"",""trial"",""time""
""fullscreenenter"",""1"",""3076""
","
","
","""event"",""trial"",""time""
""fullscreenenter"",""1"",""3076""
","
","","291.47500000544824","","","","real_trial","2021-03-31 02:47:48.049","img/card_backs/set1/purple.gif","3","-50","1","",""
"casino-fixation","86","345911","0.0-25.0-0.7","A109","false","img/card_backs/set1/yellow.gif","img/card_backs/set1/red.gif","img/card_backs/set1/purple.gif","img/card_backs/set1/green.gif","img/card_backs/set2/blue.gif","img/card_backs/set2/orange.gif","img/card_backs/set2/gray.gif","img/card_backs/set2/pink.gif","""event"",""trial"",""time""
""fullscreenenter"",""1"",""3076""
","
","
","""event"",""trial"",""time""
""fullscreenenter"",""1"",""3076""
","
","","null","","null","","fixation","2021-03-31 02:47:48.554","","","","","",""
"card-selection-trial","87","348883","0.0-25.0-1.7","A109","false","img/card_backs/set1/yellow.gif","img/card_backs/set1/red.gif","img/card_backs/set1/purple.gif","img/card_backs/set1/green.gif","img/card_backs/set2/blue.gif","img/card_backs/set2/orange.gif","img/card_backs/set2/gray.gif","img/card_backs/set2/pink.gif","""event"",""trial"",""time""
""fullscreenenter"",""1"",""3076""
","
","
","""event"",""trial"",""time""
""fullscreenenter"",""1"",""3076""
","
","","962.4349999940023","","","","real_trial","2021-03-31 02:47:51.526","img/card_backs/set1/green.gif","1","120","1","",""
"casino-fixation","88","349388","0.0-25.0-0.8","A109","false","img/card_backs/set1/yellow.gif","img/card_backs/set1/red.gif","img/card_backs/set1/purple.gif","img/card_backs/set1/green.gif","img/card_backs/set2/blue.gif","img/card_backs/set2/orange.gif","img/card_backs/set2/gray.gif","img/card_backs/set2/pink.gif","""event"",""trial"",""time""
""fullscreenenter"",""1"",""3076""
","
","
","""event"",""trial"",""time""
""fullscreenenter"",""1"",""3076""
","
","","null","","null","","fixation","2021-03-31 02:47:52.031","","","","","",""
"card-selection-trial","89","351734","0.0-25.0-1.8","A109","false","img/card_backs/set1/yellow.gif","img/card_backs/set1/red.gif","img/card_backs/set1/purple.gif","img/card_backs/set1/green.gif","img/card_backs/set2/blue.gif","img/card_backs/set2/orange.gif","img/card_backs/set2/gray.gif","img/card_backs/set2/pink.gif","""event"",""trial"",""time""
""fullscreenenter"",""1"",""3076""
","
","
","""event"",""trial"",""time""
""fullscreenenter"",""1"",""3076""
","
","","337.75999999488704","","","","real_trial","2021-03-31 02:47:54.377","img/card_backs/set1/red.gif","1","200","1","",""
"casino-fixation","90","352238","0.0-25.0-0.9","A109","false","img/card_backs/set1/yellow.gif","img/card_backs/set1/red.gif","img/card_backs/set1/purple.gif","img/card_backs/set1/green.gif","img/card_backs/set2/blue.gif","img/card_backs/set2/orange.gif","img/card_backs/set2/gray.gif","img/card_backs/set2/pink.gif","""event"",""trial"",""time""
""fullscreenenter"",""1"",""3076""
","
","
","""event"",""trial"",""time""
""fullscreenenter"",""1"",""3076""
","
","","null","","null","","fixation","2021-03-31 02:47:54.881","","","","","",""
"card-selection-trial","91","354625","0.0-25.0-1.9","A109","false","img/card_backs/set1/yellow.gif","img/card_backs/set1/red.gif","img/card_backs/set1/purple.gif","img/card_backs/set1/green.gif","img/card_backs/set2/blue.gif","img/card_backs/set2/orange.gif","img/card_backs/set2/gray.gif","img/card_backs/set2/pink.gif","""event"",""trial"",""time""
""fullscreenenter"",""1"",""3076""
","
","
","""event"",""trial"",""time""
""fullscreenenter"",""1"",""3076""
","
","","375.2050000039162","","","","real_trial","2021-03-31 02:47:57.268","img/card_backs/set1/green.gif","1","120","1","",""
"casino-fixation","92","355130","0.0-25.0-0.10","A109","false","img/card_backs/set1/yellow.gif","img/card_backs/set1/red.gif","img/card_backs/set1/purple.gif","img/card_backs/set1/green.gif","img/card_backs/set2/blue.gif","img/card_backs/set2/orange.gif","img/card_backs/set2/gray.gif","img/card_backs/set2/pink.gif","""event"",""trial"",""time""
""fullscreenenter"",""1"",""3076""
","
","
","""event"",""trial"",""time""
""fullscreenenter"",""1"",""3076""
","
","","null","","null","","fixation","2021-03-31 02:47:57.773","","","","","",""
"card-selection-trial","93","357481","0.0-25.0-1.10","A109","false","img/card_backs/set1/yellow.gif","img/card_backs/set1/red.gif","img/card_backs/set1/purple.gif","img/card_backs/set1/green.gif","img/card_backs/set2/blue.gif","img/card_backs/set2/orange.gif","img/card_backs/set2/gray.gif","img/card_backs/set2/pink.gif","""event"",""trial"",""time""
""fullscreenenter"",""1"",""3076""
","
","
","""event"",""trial"",""time""
""fullscreenenter"",""1"",""3076""
","
","","339.14500000537373","","","","real_trial","2021-03-31 02:48:00.124","img/card_backs/set1/purple.gif","1","-50","1","",""
"casino-fixation","94","357986","0.0-25.0-0.11","A109","false","img/card_backs/set1/yellow.gif","img/card_backs/set1/red.gif","img/card_backs/set1/purple.gif","img/card_backs/set1/green.gif","img/card_backs/set2/blue.gif","img/card_backs/set2/orange.gif","img/card_backs/set2/gray.gif","img/card_backs/set2/pink.gif","""event"",""trial"",""time""
""fullscreenenter"",""1"",""3076""
","
","
","""event"",""trial"",""time""
""fullscreenenter"",""1"",""3076""
","
","","null","","null","","fixation","2021-03-31 02:48:00.630","","","","","",""
"card-selection-trial","95","360343","0.0-25.0-1.11","A109","false","img/card_backs/set1/yellow.gif","img/card_backs/set1/red.gif","img/card_backs/set1/purple.gif","img/card_backs/set1/green.gif","img/card_backs/set2/blue.gif","img/card_backs/set2/orange.gif","img/card_backs/set2/gray.gif","img/card_backs/set2/pink.gif","""event"",""trial"",""time""
""fullscreenenter"",""1"",""3076""
","
","
","""event"",""trial"",""time""
""fullscreenenter"",""1"",""3076""
","
","","348.75999999349006","","","","real_trial","2021-03-31 02:48:02.987","img/card_backs/set1/green.gif","1","110","1","",""
"casino-fixation","96","360848","0.0-25.0-0.12","A109","false","img/card_backs/set1/yellow.gif","img/card_backs/set1/red.gif","img/card_backs/set1/purple.gif","img/card_backs/set1/green.gif","img/card_backs/set2/blue.gif","img/card_backs/set2/orange.gif","img/card_backs/set2/gray.gif","img/card_backs/set2/pink.gif","""event"",""trial"",""time""
""fullscreenenter"",""1"",""3076""
","
","
","""event"",""trial"",""time""
""fullscreenenter"",""1"",""3076""
","
","","null","","null","","fixation","2021-03-31 02:48:03.491","","","","","",""
"card-selection-trial","97","363234","0.0-25.0-1.12","A109","false","img/card_backs/set1/yellow.gif","img/card_backs/set1/red.gif","img/card_backs/set1/purple.gif","img/card_backs/set1/green.gif","img/card_backs/set2/blue.gif","img/card_backs/set2/orange.gif","img/card_backs/set2/gray.gif","img/card_backs/set2/pink.gif","""event"",""trial"",""time""
""fullscreenenter"",""1"",""3076""
","
","
","""event"",""trial"",""time""
""fullscreenenter"",""1"",""3076""
","
","","374.72999999590684","","","","real_trial","2021-03-31 02:48:05.878","img/card_backs/set1/red.gif","1","200","1","",""
"casino-fixation","98","363741","0.0-25.0-0.13","A109","false","img/card_backs/set1/yellow.gif","img/card_backs/set1/red.gif","img/card_backs/set1/purple.gif","img/card_backs/set1/green.gif","img/card_backs/set2/blue.gif","img/card_backs/set2/orange.gif","img/card_backs/set2/gray.gif","img/card_backs/set2/pink.gif","""event"",""trial"",""time""
""fullscreenenter"",""1"",""3076""
","
","
","""event"",""trial"",""time""
""fullscreenenter"",""1"",""3076""
","
","","null","","null","","fixation","2021-03-31 02:48:06.384","","","","","",""
"card-selection-trial","99","366085","0.0-25.0-1.13","A109","false","img/card_backs/set1/yellow.gif","img/card_backs/set1/red.gif","img/card_backs/set1/purple.gif","img/card_backs/set1/green.gif","img/card_backs/set2/blue.gif","img/card_backs/set2/orange.gif","img/card_backs/set2/gray.gif","img/card_backs/set2/pink.gif","""event"",""trial"",""time""
""fullscreenenter"",""1"",""3076""
","
","
","""event"",""trial"",""time""
""fullscreenenter"",""1"",""3076""
","
","","336.64999999746215","","","","real_trial","2021-03-31 02:48:08.728","img/card_backs/set1/purple.gif","1","120","1","",""
"casino-fixation","100","366590","0.0-25.0-0.14","A109","false","img/card_backs/set1/yellow.gif","img/card_backs/set1/red.gif","img/card_backs/set1/purple.gif","img/card_backs/set1/green.gif","img/card_backs/set2/blue.gif","img/card_backs/set2/orange.gif","img/card_backs/set2/gray.gif","img/card_backs/set2/pink.gif","""event"",""trial"",""time""
""fullscreenenter"",""1"",""3076""
","
","
","""event"",""trial"",""time""
""fullscreenenter"",""1"",""3076""
","
","","null","","null","","fixation","2021-03-31 02:48:09.233","","","","","",""
"card-selection-trial","101","369719","0.0-25.0-1.14","A109","false","img/card_backs/set1/yellow.gif","img/card_backs/set1/red.gif","img/card_backs/set1/purple.gif","img/card_backs/set1/green.gif","img/card_backs/set2/blue.gif","img/card_backs/set2/orange.gif","img/card_backs/set2/gray.gif","img/card_backs/set2/pink.gif","""event"",""trial"",""time""
""fullscreenenter"",""1"",""3076""
","
","
","""event"",""trial"",""time""
""fullscreenenter"",""1"",""3076""
","
","","1117.3350000026403","","","","real_trial","2021-03-31 02:48:12.362","img/card_backs/set1/red.gif","2","190","1","",""
"casino-fixation","102","370224","0.0-25.0-0.15","A109","false","img/card_backs/set1/yellow.gif","img/card_backs/set1/red.gif","img/card_backs/set1/purple.gif","img/card_backs/set1/green.gif","img/card_backs/set2/blue.gif","img/card_backs/set2/orange.gif","img/card_backs/set2/gray.gif","img/card_backs/set2/pink.gif","""event"",""trial"",""time""
""fullscreenenter"",""1"",""3076""
","
","
","""event"",""trial"",""time""
""fullscreenenter"",""1"",""3076""
","
","","null","","null","","fixation","2021-03-31 02:48:12.867","","","","","",""
"card-selection-trial","103","372511","0.0-25.0-1.15","A109","false","img/card_backs/set1/yellow.gif","img/card_backs/set1/red.gif","img/card_backs/set1/purple.gif","img/card_backs/set1/green.gif","img/card_backs/set2/blue.gif","img/card_backs/set2/orange.gif","img/card_backs/set2/gray.gif","img/card_backs/set2/pink.gif","""event"",""trial"",""time""
""fullscreenenter"",""1"",""3076""
","
","
","""event"",""trial"",""time""
""fullscreenenter"",""1"",""3076""
","
","","276.3399999967078","","","","real_trial","2021-03-31 02:48:15.154","img/card_backs/set1/red.gif","1","200","1","",""
"casino-fixation","104","373016","0.0-25.0-0.16","A109","false","img/card_backs/set1/yellow.gif","img/card_backs/set1/red.gif","img/card_backs/set1/purple.gif","img/card_backs/set1/green.gif","img/card_backs/set2/blue.gif","img/card_backs/set2/orange.gif","img/card_backs/set2/gray.gif","img/card_backs/set2/pink.gif","""event"",""trial"",""time""
""fullscreenenter"",""1"",""3076""
","
","
","""event"",""trial"",""time""
""fullscreenenter"",""1"",""3076""
","
","","null","","null","","fixation","2021-03-31 02:48:15.659","","","","","",""
"card-selection-trial","105","375321","0.0-25.0-1.16","A109","false","img/card_backs/set1/yellow.gif","img/card_backs/set1/red.gif","img/card_backs/set1/purple.gif","img/card_backs/set1/green.gif","img/card_backs/set2/blue.gif","img/card_backs/set2/orange.gif","img/card_backs/set2/gray.gif","img/card_backs/set2/pink.gif","""event"",""trial"",""time""
""fullscreenenter"",""1"",""3076""
","
","
","""event"",""trial"",""time""
""fullscreenenter"",""1"",""3076""
","
","","288.55500000645407","","","","real_trial","2021-03-31 02:48:17.964","img/card_backs/set1/green.gif","1","110","1","",""
"casino-fixation","106","375826","0.0-25.0-0.17","A109","false","img/card_backs/set1/yellow.gif","img/card_backs/set1/red.gif","img/card_backs/set1/purple.gif","img/card_backs/set1/green.gif","img/card_backs/set2/blue.gif","img/card_backs/set2/orange.gif","img/card_backs/set2/gray.gif","img/card_backs/set2/pink.gif","""event"",""trial"",""time""
""fullscreenenter"",""1"",""3076""
","
","
","""event"",""trial"",""time""
""fullscreenenter"",""1"",""3076""
","
","","null","","null","","fixation","2021-03-31 02:48:18.469","","","","","",""
"card-selection-trial","107","378107","0.0-25.0-1.17","A109","false","img/card_backs/set1/yellow.gif","img/card_backs/set1/red.gif","img/card_backs/set1/purple.gif","img/card_backs/set1/green.gif","img/card_backs/set2/blue.gif","img/card_backs/set2/orange.gif","img/card_backs/set2/gray.gif","img/card_backs/set2/pink.gif","""event"",""trial"",""time""
""fullscreenenter"",""1"",""3076""
","
","
","""event"",""trial"",""time""
""fullscreenenter"",""1"",""3076""
","
","","272.50500000081956","","","","real_trial","2021-03-31 02:48:20.750","img/card_backs/set1/purple.gif","1","110","1","",""
"casino-fixation","108","378611","0.0-25.0-0.18","A109","false","img/card_backs/set1/yellow.gif","img/card_backs/set1/red.gif","img/card_backs/set1/purple.gif","img/card_backs/set1/green.gif","img/card_backs/set2/blue.gif","img/card_backs/set2/orange.gif","img/card_backs/set2/gray.gif","img/card_backs/set2/pink.gif","""event"",""trial"",""time""
""fullscreenenter"",""1"",""3076""
","
","
","""event"",""trial"",""time""
""fullscreenenter"",""1"",""3076""
","
","","null","","null","","fixation","2021-03-31 02:48:21.255","","","","","",""
"card-selection-trial","109","382641","0.0-25.0-1.18","A109","false","img/card_backs/set1/yellow.gif","img/card_backs/set1/red.gif","img/card_backs/set1/purple.gif","img/card_backs/set1/green.gif","img/card_backs/set2/blue.gif","img/card_backs/set2/orange.gif","img/card_backs/set2/gray.gif","img/card_backs/set2/pink.gif","""event"",""trial"",""time""
""fullscreenenter"",""1"",""3076""
","
","
","""event"",""trial"",""time""
""fullscreenenter"",""1"",""3076""
","
","","2019.1449999983888","","","","real_trial","2021-03-31 02:48:25.284","img/card_backs/set1/yellow.gif","3","-250","1","",""
"casino-fixation","110","383146","0.0-25.0-0.19","A109","false","img/card_backs/set1/yellow.gif","img/card_backs/set1/red.gif","img/card_backs/set1/purple.gif","img/card_backs/set1/green.gif","img/card_backs/set2/blue.gif","img/card_backs/set2/orange.gif","img/card_backs/set2/gray.gif","img/card_backs/set2/pink.gif","""event"",""trial"",""time""
""fullscreenenter"",""1"",""3076""
","
","
","""event"",""trial"",""time""
""fullscreenenter"",""1"",""3076""
","
","","null","","null","","fixation","2021-03-31 02:48:25.789","","","","","",""
"card-selection-trial","111","385625","0.0-25.0-1.19","A109","false","img/card_backs/set1/yellow.gif","img/card_backs/set1/red.gif","img/card_backs/set1/purple.gif","img/card_backs/set1/green.gif","img/card_backs/set2/blue.gif","img/card_backs/set2/orange.gif","img/card_backs/set2/gray.gif","img/card_backs/set2/pink.gif","""event"",""trial"",""time""
""fullscreenenter"",""1"",""3076""
","
","
","""event"",""trial"",""time""
""fullscreenenter"",""1"",""3076""
","
","","468.3050000021467","","","","real_trial","2021-03-31 02:48:28.268","img/card_backs/set1/yellow.gif","1","-240","1","",""
"casino-fixation","112","386130","0.0-25.0-0.20","A109","false","img/card_backs/set1/yellow.gif","img/card_backs/set1/red.gif","img/card_backs/set1/purple.gif","img/card_backs/set1/green.gif","img/card_backs/set2/blue.gif","img/card_backs/set2/orange.gif","img/card_backs/set2/gray.gif","img/card_backs/set2/pink.gif","""event"",""trial"",""time""
""fullscreenenter"",""1"",""3076""
","
","
","""event"",""trial"",""time""
""fullscreenenter"",""1"",""3076""
","
","","null","","null","","fixation","2021-03-31 02:48:28.773","","","","","",""
"card-selection-trial","113","388388","0.0-25.0-1.20","A109","false","img/card_backs/set1/yellow.gif","img/card_backs/set1/red.gif","img/card_backs/set1/purple.gif","img/card_backs/set1/green.gif","img/card_backs/set2/blue.gif","img/card_backs/set2/orange.gif","img/card_backs/set2/gray.gif","img/card_backs/set2/pink.gif","""event"",""trial"",""time""
""fullscreenenter"",""1"",""3076""
","
","
","""event"",""trial"",""time""
""fullscreenenter"",""1"",""3076""
","
","","247.39999999292195","","","","real_trial","2021-03-31 02:48:31.031","img/card_backs/set1/purple.gif","2","-60","1","",""
"casino-fixation","114","388893","0.0-25.0-0.21","A109","false","img/card_backs/set1/yellow.gif","img/card_backs/set1/red.gif","img/card_backs/set1/purple.gif","img/card_backs/set1/green.gif","img/card_backs/set2/blue.gif","img/card_backs/set2/orange.gif","img/card_backs/set2/gray.gif","img/card_backs/set2/pink.gif","""event"",""trial"",""time""
""fullscreenenter"",""1"",""3076""
","
","
","""event"",""trial"",""time""
""fullscreenenter"",""1"",""3076""
","
","","null","","null","","fixation","2021-03-31 02:48:31.536","","","","","",""
"card-selection-trial","115","391827","0.0-25.0-1.21","A109","false","img/card_backs/set1/yellow.gif","img/card_backs/set1/red.gif","img/card_backs/set1/purple.gif","img/card_backs/set1/green.gif","img/card_backs/set2/blue.gif","img/card_backs/set2/orange.gif","img/card_backs/set2/gray.gif","img/card_backs/set2/pink.gif","""event"",""trial"",""time""
""fullscreenenter"",""1"",""3076""
","
","
","""event"",""trial"",""time""
""fullscreenenter"",""1"",""3076""
","
","","924.7100000065984","","","","real_trial","2021-03-31 02:48:34.470","img/card_backs/set1/purple.gif","0","-50","1","",""
"casino-fixation","116","392329","0.0-25.0-0.22","A109","false","img/card_backs/set1/yellow.gif","img/card_backs/set1/red.gif","img/card_backs/set1/purple.gif","img/card_backs/set1/green.gif","img/card_backs/set2/blue.gif","img/card_backs/set2/orange.gif","img/card_backs/set2/gray.gif","img/card_backs/set2/pink.gif","""event"",""trial"",""time""
""fullscreenenter"",""1"",""3076""
","
","
","""event"",""trial"",""time""
""fullscreenenter"",""1"",""3076""
","
","","null","","null","","fixation","2021-03-31 02:48:34.972","","","","","",""
"card-selection-trial","117","394608","0.0-25.0-1.22","A109","false","img/card_backs/set1/yellow.gif","img/card_backs/set1/red.gif","img/card_backs/set1/purple.gif","img/card_backs/set1/green.gif","img/card_backs/set2/blue.gif","img/card_backs/set2/orange.gif","img/card_backs/set2/gray.gif","img/card_backs/set2/pink.gif","""event"",""trial"",""time""
""fullscreenenter"",""1"",""3076""
","
","
","""event"",""trial"",""time""
""fullscreenenter"",""1"",""3076""
","
","","266.6649999882793","","","","real_trial","2021-03-31 02:48:37.251","img/card_backs/set1/green.gif","1","-60","1","",""
"casino-fixation","118","395110","0.0-25.0-0.23","A109","false","img/card_backs/set1/yellow.gif","img/card_backs/set1/red.gif","img/card_backs/set1/purple.gif","img/card_backs/set1/green.gif","img/card_backs/set2/blue.gif","img/card_backs/set2/orange.gif","img/card_backs/set2/gray.gif","img/card_backs/set2/pink.gif","""event"",""trial"",""time""
""fullscreenenter"",""1"",""3076""
","
","
","""event"",""trial"",""time""
""fullscreenenter"",""1"",""3076""
","
","","null","","null","","fixation","2021-03-31 02:48:37.753","","","","","",""
"card-selection-trial","119","397386","0.0-25.0-1.23","A109","false","img/card_backs/set1/yellow.gif","img/card_backs/set1/red.gif","img/card_backs/set1/purple.gif","img/card_backs/set1/green.gif","img/card_backs/set2/blue.gif","img/card_backs/set2/orange.gif","img/card_backs/set2/gray.gif","img/card_backs/set2/pink.gif","""event"",""trial"",""time""
""fullscreenenter"",""1"",""3076""
","
","
","""event"",""trial"",""time""
""fullscreenenter"",""1"",""3076""
","
","","266.5299999935087","","","","real_trial","2021-03-31 02:48:40.029","img/card_backs/set1/green.gif","1","120","1","",""
"casino-fixation","120","397890","0.0-25.0-0.24","A109","false","img/card_backs/set1/yellow.gif","img/card_backs/set1/red.gif","img/card_backs/set1/purple.gif","img/card_backs/set1/green.gif","img/card_backs/set2/blue.gif","img/card_backs/set2/orange.gif","img/card_backs/set2/gray.gif","img/card_backs/set2/pink.gif","""event"",""trial"",""time""
""fullscreenenter"",""1"",""3076""
","
","
","""event"",""trial"",""time""
""fullscreenenter"",""1"",""3076""
","
","","null","","null","","fixation","2021-03-31 02:48:40.533","","","","","",""
"card-selection-trial","121","400161","0.0-25.0-1.24","A109","false","img/card_backs/set1/yellow.gif","img/card_backs/set1/red.gif","img/card_backs/set1/purple.gif","img/card_backs/set1/green.gif","img/card_backs/set2/blue.gif","img/card_backs/set2/orange.gif","img/card_backs/set2/gray.gif","img/card_backs/set2/pink.gif","""event"",""trial"",""time""
""fullscreenenter"",""1"",""3076""
","
","
","""event"",""trial"",""time""
""fullscreenenter"",""1"",""3076""
","
","","263.2400000002235","","","","real_trial","2021-03-31 02:48:42.804","img/card_backs/set1/red.gif","1","190","1","",""
"casino-fixation","122","400666","0.0-25.0-0.25","A109","false","img/card_backs/set1/yellow.gif","img/card_backs/set1/red.gif","img/card_backs/set1/purple.gif","img/card_backs/set1/green.gif","img/card_backs/set2/blue.gif","img/card_backs/set2/orange.gif","img/card_backs/set2/gray.gif","img/card_backs/set2/pink.gif","""event"",""trial"",""time""
""fullscreenenter"",""1"",""3076""
","
","
","""event"",""trial"",""time""
""fullscreenenter"",""1"",""3076""
","
","","null","","null","","fixation","2021-03-31 02:48:43.309","","","","","",""
"card-selection-trial","123","402930","0.0-25.0-1.25","A109","false","img/card_backs/set1/yellow.gif","img/card_backs/set1/red.gif","img/card_backs/set1/purple.gif","img/card_backs/set1/green.gif","img/card_backs/set2/blue.gif","img/card_backs/set2/orange.gif","img/card_backs/set2/gray.gif","img/card_backs/set2/pink.gif","""event"",""trial"",""time""
""fullscreenenter"",""1"",""3076""
","
","
","""event"",""trial"",""time""
""fullscreenenter"",""1"",""3076""
","
","","251.78000000596512","","","","real_trial","2021-03-31 02:48:45.573","img/card_backs/set1/yellow.gif","1","-230","1","",""
"casino-fixation","124","403435","0.0-25.0-0.26","A109","false","img/card_backs/set1/yellow.gif","img/card_backs/set1/red.gif","img/card_backs/set1/purple.gif","img/card_backs/set1/green.gif","img/card_backs/set2/blue.gif","img/card_backs/set2/orange.gif","img/card_backs/set2/gray.gif","img/card_backs/set2/pink.gif","""event"",""trial"",""time""
""fullscreenenter"",""1"",""3076""
","
","
","""event"",""trial"",""time""
""fullscreenenter"",""1"",""3076""
","
","","null","","null","","fixation","2021-03-31 02:48:46.078","","","","","",""
"card-selection-trial","125","405792","0.0-25.0-1.26","A109","false","img/card_backs/set1/yellow.gif","img/card_backs/set1/red.gif","img/card_backs/set1/purple.gif","img/card_backs/set1/green.gif","img/card_backs/set2/blue.gif","img/card_backs/set2/orange.gif","img/card_backs/set2/gray.gif","img/card_backs/set2/pink.gif","""event"",""trial"",""time""
""fullscreenenter"",""1"",""3076""
","
","
","""event"",""trial"",""time""
""fullscreenenter"",""1"",""3076""
","
","","345.4300000012154","","","","real_trial","2021-03-31 02:48:48.435","img/card_backs/set1/red.gif","2","190","1","",""
"casino-fixation","126","406297","0.0-25.0-0.27","A109","false","img/card_backs/set1/yellow.gif","img/card_backs/set1/red.gif","img/card_backs/set1/purple.gif","img/card_backs/set1/green.gif","img/card_backs/set2/blue.gif","img/card_backs/set2/orange.gif","img/card_backs/set2/gray.gif","img/card_backs/set2/pink.gif","""event"",""trial"",""time""
""fullscreenenter"",""1"",""3076""
","
","
","""event"",""trial"",""time""
""fullscreenenter"",""1"",""3076""
","
","","null","","null","","fixation","2021-03-31 02:48:48.940","","","","","",""
"card-selection-trial","127","408566","0.0-25.0-1.27","A109","false","img/card_backs/set1/yellow.gif","img/card_backs/set1/red.gif","img/card_backs/set1/purple.gif","img/card_backs/set1/green.gif","img/card_backs/set2/blue.gif","img/card_backs/set2/orange.gif","img/card_backs/set2/gray.gif","img/card_backs/set2/pink.gif","""event"",""trial"",""time""
""fullscreenenter"",""1"",""3076""
","
","
","""event"",""trial"",""time""
""fullscreenenter"",""1"",""3076""
","
","","257.644999990589","","","","real_trial","2021-03-31 02:48:51.209","img/card_backs/set1/yellow.gif","2","-250","1","",""
"casino-fixation","128","409073","0.0-25.0-0.28","A109","false","img/card_backs/set1/yellow.gif","img/card_backs/set1/red.gif","img/card_backs/set1/purple.gif","img/card_backs/set1/green.gif","img/card_backs/set2/blue.gif","img/card_backs/set2/orange.gif","img/card_backs/set2/gray.gif","img/card_backs/set2/pink.gif","""event"",""trial"",""time""
""fullscreenenter"",""1"",""3076""
","
","
","""event"",""trial"",""time""
""fullscreenenter"",""1"",""3076""
","
","","null","","null","","fixation","2021-03-31 02:48:51.716","","","","","",""
"card-selection-trial","129","411336","0.0-25.0-1.28","A109","false","img/card_backs/set1/yellow.gif","img/card_backs/set1/red.gif","img/card_backs/set1/purple.gif","img/card_backs/set1/green.gif","img/card_backs/set2/blue.gif","img/card_backs/set2/orange.gif","img/card_backs/set2/gray.gif","img/card_backs/set2/pink.gif","""event"",""trial"",""time""
""fullscreenenter"",""1"",""3076""
","
","
","""event"",""trial"",""time""
""fullscreenenter"",""1"",""3076""
","
","","255.5149999971036","","","","real_trial","2021-03-31 02:48:53.979","img/card_backs/set1/green.gif","0","120","1","",""
"casino-fixation","130","411840","0.0-25.0-0.29","A109","false","img/card_backs/set1/yellow.gif","img/card_backs/set1/red.gif","img/card_backs/set1/purple.gif","img/card_backs/set1/green.gif","img/card_backs/set2/blue.gif","img/card_backs/set2/orange.gif","img/card_backs/set2/gray.gif","img/card_backs/set2/pink.gif","""event"",""trial"",""time""
""fullscreenenter"",""1"",""3076""
","
","
","""event"",""trial"",""time""
""fullscreenenter"",""1"",""3076""
","
","","null","","null","","fixation","2021-03-31 02:48:54.483","","","","","",""
"card-selection-trial","131","414105","0.0-25.0-1.29","A109","false","img/card_backs/set1/yellow.gif","img/card_backs/set1/red.gif","img/card_backs/set1/purple.gif","img/card_backs/set1/green.gif","img/card_backs/set2/blue.gif","img/card_backs/set2/orange.gif","img/card_backs/set2/gray.gif","img/card_backs/set2/pink.gif","""event"",""trial"",""time""
""fullscreenenter"",""1"",""3076""
","
","
","""event"",""trial"",""time""
""fullscreenenter"",""1"",""3076""
","
","","256.4600000041537","","","","real_trial","2021-03-31 02:48:56.748","img/card_backs/set1/yellow.gif","0","180","1","",""
"casino-fixation","132","414611","0.0-25.0-0.30","A109","false","img/card_backs/set1/yellow.gif","img/card_backs/set1/red.gif","img/card_backs/set1/purple.gif","img/card_backs/set1/green.gif","img/card_backs/set2/blue.gif","img/card_backs/set2/orange.gif","img/card_backs/set2/gray.gif","img/card_backs/set2/pink.gif","""event"",""trial"",""time""
""fullscreenenter"",""1"",""3076""
","
","
","""event"",""trial"",""time""
""fullscreenenter"",""1"",""3076""
","
","","null","","null","","fixation","2021-03-31 02:48:57.254","","","","","",""
"card-selection-trial","133","416879","0.0-25.0-1.30","A109","false","img/card_backs/set1/yellow.gif","img/card_backs/set1/red.gif","img/card_backs/set1/purple.gif","img/card_backs/set1/green.gif","img/card_backs/set2/blue.gif","img/card_backs/set2/orange.gif","img/card_backs/set2/gray.gif","img/card_backs/set2/pink.gif","""event"",""trial"",""time""
""fullscreenenter"",""1"",""3076""
","
","
","""event"",""trial"",""time""
""fullscreenenter"",""1"",""3076""
","
","","259.11499999347143","","","","real_trial","2021-03-31 02:48:59.523","img/card_backs/set1/green.gif","0","110","1","",""
"casino-fixation","134","417384","0.0-25.0-0.31","A109","false","img/card_backs/set1/yellow.gif","img/card_backs/set1/red.gif","img/card_backs/set1/purple.gif","img/card_backs/set1/green.gif","img/card_backs/set2/blue.gif","img/card_backs/set2/orange.gif","img/card_backs/set2/gray.gif","img/card_backs/set2/pink.gif","""event"",""trial"",""time""
""fullscreenenter"",""1"",""3076""
","
","
","""event"",""trial"",""time""
""fullscreenenter"",""1"",""3076""
","
","","null","","null","","fixation","2021-03-31 02:49:00.027","","","","","",""
"card-selection-trial","135","419660","0.0-25.0-1.31","A109","false","img/card_backs/set1/yellow.gif","img/card_backs/set1/red.gif","img/card_backs/set1/purple.gif","img/card_backs/set1/green.gif","img/card_backs/set2/blue.gif","img/card_backs/set2/orange.gif","img/card_backs/set2/gray.gif","img/card_backs/set2/pink.gif","""event"",""trial"",""time""
""fullscreenenter"",""1"",""3076""
","
","
","""event"",""trial"",""time""
""fullscreenenter"",""1"",""3076""
","
","","267.3999999969965","","","","real_trial","2021-03-31 02:49:02.303","img/card_backs/set1/purple.gif","0","-60","1","",""
"casino-fixation","136","420165","0.0-25.0-0.32","A109","false","img/card_backs/set1/yellow.gif","img/card_backs/set1/red.gif","img/card_backs/set1/purple.gif","img/card_backs/set1/green.gif","img/card_backs/set2/blue.gif","img/card_backs/set2/orange.gif","img/card_backs/set2/gray.gif","img/card_backs/set2/pink.gif","""event"",""trial"",""time""
""fullscreenenter"",""1"",""3076""
","
","
","""event"",""trial"",""time""
""fullscreenenter"",""1"",""3076""
","
","","null","","null","","fixation","2021-03-31 02:49:02.808","","","","","",""
"card-selection-trial","137","422458","0.0-25.0-1.32","A109","false","img/card_backs/set1/yellow.gif","img/card_backs/set1/red.gif","img/card_backs/set1/purple.gif","img/card_backs/set1/green.gif","img/card_backs/set2/blue.gif","img/card_backs/set2/orange.gif","img/card_backs/set2/gray.gif","img/card_backs/set2/pink.gif","""event"",""trial"",""time""
""fullscreenenter"",""1"",""3076""
","
","
","""event"",""trial"",""time""
""fullscreenenter"",""1"",""3076""
","
","","285.62500000407454","","","","real_trial","2021-03-31 02:49:05.101","img/card_backs/set1/red.gif","0","-240","1","",""
"casino-fixation","138","422963","0.0-25.0-0.33","A109","false","img/card_backs/set1/yellow.gif","img/card_backs/set1/red.gif","img/card_backs/set1/purple.gif","img/card_backs/set1/green.gif","img/card_backs/set2/blue.gif","img/card_backs/set2/orange.gif","img/card_backs/set2/gray.gif","img/card_backs/set2/pink.gif","""event"",""trial"",""time""
""fullscreenenter"",""1"",""3076""
","
","
","""event"",""trial"",""time""
""fullscreenenter"",""1"",""3076""
","
","","null","","null","","fixation","2021-03-31 02:49:05.606","","","","","",""
"card-selection-trial","139","425198","0.0-25.0-1.33","A109","false","img/card_backs/set1/yellow.gif","img/card_backs/set1/red.gif","img/card_backs/set1/purple.gif","img/card_backs/set1/green.gif","img/card_backs/set2/blue.gif","img/card_backs/set2/orange.gif","img/card_backs/set2/gray.gif","img/card_backs/set2/pink.gif","""event"",""trial"",""time""
""fullscreenenter"",""1"",""3076""
","
","
","""event"",""trial"",""time""
""fullscreenenter"",""1"",""3076""
","
","","224.8000000108732","","","","real_trial","2021-03-31 02:49:07.841","img/card_backs/set1/yellow.gif","1","190","1","",""
"casino-fixation","140","425703","0.0-25.0-0.34","A109","false","img/card_backs/set1/yellow.gif","img/card_backs/set1/red.gif","img/card_backs/set1/purple.gif","img/card_backs/set1/green.gif","img/card_backs/set2/blue.gif","img/card_backs/set2/orange.gif","img/card_backs/set2/gray.gif","img/card_backs/set2/pink.gif","""event"",""trial"",""time""
""fullscreenenter"",""1"",""3076""
","
","
","""event"",""trial"",""time""
""fullscreenenter"",""1"",""3076""
","
","","null","","null","","fixation","2021-03-31 02:49:08.346","","","","","",""
"card-selection-trial","141","427927","0.0-25.0-1.34","A109","false","img/card_backs/set1/yellow.gif","img/card_backs/set1/red.gif","img/card_backs/set1/purple.gif","img/card_backs/set1/green.gif","img/card_backs/set2/blue.gif","img/card_backs/set2/orange.gif","img/card_backs/set2/gray.gif","img/card_backs/set2/pink.gif","""event"",""trial"",""time""
""fullscreenenter"",""1"",""3076""
","
","
","""event"",""trial"",""time""
""fullscreenenter"",""1"",""3076""
","
","","216.3799999980256","","","","real_trial","2021-03-31 02:49:10.570","img/card_backs/set1/red.gif","1","-250","1","",""
"casino-fixation","142","428431","0.0-25.0-0.35","A109","false","img/card_backs/set1/yellow.gif","img/card_backs/set1/red.gif","img/card_backs/set1/purple.gif","img/card_backs/set1/green.gif","img/card_backs/set2/blue.gif","img/card_backs/set2/orange.gif","img/card_backs/set2/gray.gif","img/card_backs/set2/pink.gif","""event"",""trial"",""time""
""fullscreenenter"",""1"",""3076""
","
","
","""event"",""trial"",""time""
""fullscreenenter"",""1"",""3076""
","
","","null","","null","","fixation","2021-03-31 02:49:11.075","","","","","",""
"card-selection-trial","143","430640","0.0-25.0-1.35","A109","false","img/card_backs/set1/yellow.gif","img/card_backs/set1/red.gif","img/card_backs/set1/purple.gif","img/card_backs/set1/green.gif","img/card_backs/set2/blue.gif","img/card_backs/set2/orange.gif","img/card_backs/set2/gray.gif","img/card_backs/set2/pink.gif","""event"",""trial"",""time""
""fullscreenenter"",""1"",""3076""
","
","
","""event"",""trial"",""time""
""fullscreenenter"",""1"",""3076""
","
","","195.95000000845175","","","","real_trial","2021-03-31 02:49:13.283","img/card_backs/set1/green.gif","3","110","1","",""
"casino-fixation","144","431142","0.0-25.0-0.36","A109","false","img/card_backs/set1/yellow.gif","img/card_backs/set1/red.gif","img/card_backs/set1/purple.gif","img/card_backs/set1/green.gif","img/card_backs/set2/blue.gif","img/card_backs/set2/orange.gif","img/card_backs/set2/gray.gif","img/card_backs/set2/pink.gif","""event"",""trial"",""time""
""fullscreenenter"",""1"",""3076""
","
","
","""event"",""trial"",""time""
""fullscreenenter"",""1"",""3076""
","
","","null","","null","","fixation","2021-03-31 02:49:13.786","","","","","",""
"card-selection-trial","145","433413","0.0-25.0-1.36","A109","false","img/card_backs/set1/yellow.gif","img/card_backs/set1/red.gif","img/card_backs/set1/purple.gif","img/card_backs/set1/green.gif","img/card_backs/set2/blue.gif","img/card_backs/set2/orange.gif","img/card_backs/set2/gray.gif","img/card_backs/set2/pink.gif","""event"",""trial"",""time""
""fullscreenenter"",""1"",""3076""
","
","
","""event"",""trial"",""time""
""fullscreenenter"",""1"",""3076""
","
","","259.98499999695923","","","","real_trial","2021-03-31 02:49:16.056","img/card_backs/set1/red.gif","3","-250","1","",""
"casino-fixation","146","433918","0.0-25.0-0.37","A109","false","img/card_backs/set1/yellow.gif","img/card_backs/set1/red.gif","img/card_backs/set1/purple.gif","img/card_backs/set1/green.gif","img/card_backs/set2/blue.gif","img/card_backs/set2/orange.gif","img/card_backs/set2/gray.gif","img/card_backs/set2/pink.gif","""event"",""trial"",""time""
""fullscreenenter"",""1"",""3076""
","
","
","""event"",""trial"",""time""
""fullscreenenter"",""1"",""3076""
","
","","null","","null","","fixation","2021-03-31 02:49:16.563","","","","","",""
"card-selection-trial","147","436247","0.0-25.0-1.37","A109","false","img/card_backs/set1/yellow.gif","img/card_backs/set1/red.gif","img/card_backs/set1/purple.gif","img/card_backs/set1/green.gif","img/card_backs/set2/blue.gif","img/card_backs/set2/orange.gif","img/card_backs/set2/gray.gif","img/card_backs/set2/pink.gif","""event"",""trial"",""time""
""fullscreenenter"",""1"",""3076""
","
","
","""event"",""trial"",""time""
""fullscreenenter"",""1"",""3076""
","
","","316.33999999030493","","","","real_trial","2021-03-31 02:49:18.890","img/card_backs/set1/red.gif","2","-230","1","",""
"casino-fixation","148","436753","0.0-25.0-0.38","A109","false","img/card_backs/set1/yellow.gif","img/card_backs/set1/red.gif","img/card_backs/set1/purple.gif","img/card_backs/set1/green.gif","img/card_backs/set2/blue.gif","img/card_backs/set2/orange.gif","img/card_backs/set2/gray.gif","img/card_backs/set2/pink.gif","""event"",""trial"",""time""
""fullscreenenter"",""1"",""3076""
","
","
","""event"",""trial"",""time""
""fullscreenenter"",""1"",""3076""
","
","","null","","null","","fixation","2021-03-31 02:49:19.396","","","","","",""
"card-selection-trial","149","439015","0.0-25.0-1.38","A109","false","img/card_backs/set1/yellow.gif","img/card_backs/set1/red.gif","img/card_backs/set1/purple.gif","img/card_backs/set1/green.gif","img/card_backs/set2/blue.gif","img/card_backs/set2/orange.gif","img/card_backs/set2/gray.gif","img/card_backs/set2/pink.gif","""event"",""trial"",""time""
""fullscreenenter"",""1"",""3076""
","
","
","""event"",""trial"",""time""
""fullscreenenter"",""1"",""3076""
","
","","250.87500001245644","","","","real_trial","2021-03-31 02:49:21.658","img/card_backs/set1/green.gif","1","100","1","",""
"casino-fixation","150","439519","0.0-25.0-0.39","A109","false","img/card_backs/set1/yellow.gif","img/card_backs/set1/red.gif","img/card_backs/set1/purple.gif","img/card_backs/set1/green.gif","img/card_backs/set2/blue.gif","img/card_backs/set2/orange.gif","img/card_backs/set2/gray.gif","img/card_backs/set2/pink.gif","""event"",""trial"",""time""
""fullscreenenter"",""1"",""3076""
","
","
","""event"",""trial"",""time""
""fullscreenenter"",""1"",""3076""
","
","","null","","null","","fixation","2021-03-31 02:49:22.162","","","","","",""
"card-selection-trial","151","442091","0.0-25.0-1.39","A109","false","img/card_backs/set1/yellow.gif","img/card_backs/set1/red.gif","img/card_backs/set1/purple.gif","img/card_backs/set1/green.gif","img/card_backs/set2/blue.gif","img/card_backs/set2/orange.gif","img/card_backs/set2/gray.gif","img/card_backs/set2/pink.gif","""event"",""trial"",""time""
""fullscreenenter"",""1"",""3076""
","
","
","""event"",""trial"",""time""
""fullscreenenter"",""1"",""3076""
","
","","561.665000001085","","","","real_trial","2021-03-31 02:49:24.734","img/card_backs/set1/red.gif","1","-240","1","",""
"casino-fixation","152","442596","0.0-25.0-0.40","A109","false","img/card_backs/set1/yellow.gif","img/card_backs/set1/red.gif","img/card_backs/set1/purple.gif","img/card_backs/set1/green.gif","img/card_backs/set2/blue.gif","img/card_backs/set2/orange.gif","img/card_backs/set2/gray.gif","img/card_backs/set2/pink.gif","""event"",""trial"",""time""
""fullscreenenter"",""1"",""3076""
","
","
","""event"",""trial"",""time""
""fullscreenenter"",""1"",""3076""
","
","","null","","null","","fixation","2021-03-31 02:49:25.239","","","","","",""
"card-selection-trial","153","444919","0.0-25.0-1.40","A109","false","img/card_backs/set1/yellow.gif","img/card_backs/set1/red.gif","img/card_backs/set1/purple.gif","img/card_backs/set1/green.gif","img/card_backs/set2/blue.gif","img/card_backs/set2/orange.gif","img/card_backs/set2/gray.gif","img/card_backs/set2/pink.gif","""event"",""trial"",""time""
""fullscreenenter"",""1"",""3076""
","
","
","""event"",""trial"",""time""
""fullscreenenter"",""1"",""3076""
","
","","315.0949999981094","","","","real_trial","2021-03-31 02:49:27.562","img/card_backs/set1/green.gif","0","110","1","",""
"casino-fixation","154","445423","0.0-25.0-0.41","A109","false","img/card_backs/set1/yellow.gif","img/card_backs/set1/red.gif","img/card_backs/set1/purple.gif","img/card_backs/set1/green.gif","img/card_backs/set2/blue.gif","img/card_backs/set2/orange.gif","img/card_backs/set2/gray.gif","img/card_backs/set2/pink.gif","""event"",""trial"",""time""
""fullscreenenter"",""1"",""3076""
","
","
","""event"",""trial"",""time""
""fullscreenenter"",""1"",""3076""
","
","","null","","null","","fixation","2021-03-31 02:49:28.066","","","","","",""
"card-selection-trial","155","447780","0.0-25.0-1.41","A109","false","img/card_backs/set1/yellow.gif","img/card_backs/set1/red.gif","img/card_backs/set1/purple.gif","img/card_backs/set1/green.gif","img/card_backs/set2/blue.gif","img/card_backs/set2/orange.gif","img/card_backs/set2/gray.gif","img/card_backs/set2/pink.gif","""event"",""trial"",""time""
""fullscreenenter"",""1"",""3076""
","
","
","""event"",""trial"",""time""
""fullscreenenter"",""1"",""3076""
","
","","349.0049999963958","","","","real_trial","2021-03-31 02:49:30.423","img/card_backs/set1/yellow.gif","0","190","1","",""
"casino-fixation","156","448285","0.0-25.0-0.42","A109","false","img/card_backs/set1/yellow.gif","img/card_backs/set1/red.gif","img/card_backs/set1/purple.gif","img/card_backs/set1/green.gif","img/card_backs/set2/blue.gif","img/card_backs/set2/orange.gif","img/card_backs/set2/gray.gif","img/card_backs/set2/pink.gif","""event"",""trial"",""time""
""fullscreenenter"",""1"",""3076""
","
","
","""event"",""trial"",""time""
""fullscreenenter"",""1"",""3076""
","
","","null","","null","","fixation","2021-03-31 02:49:30.928","","","","","",""
"card-selection-trial","157","450567","0.0-25.0-1.42","A109","false","img/card_backs/set1/yellow.gif","img/card_backs/set1/red.gif","img/card_backs/set1/purple.gif","img/card_backs/set1/green.gif","img/card_backs/set2/blue.gif","img/card_backs/set2/orange.gif","img/card_backs/set2/gray.gif","img/card_backs/set2/pink.gif","""event"",""trial"",""time""
""fullscreenenter"",""1"",""3076""
","
","
","""event"",""trial"",""time""
""fullscreenenter"",""1"",""3076""
","
","","271.0300000035204","","","","real_trial","2021-03-31 02:49:33.210","img/card_backs/set1/yellow.gif","0","180","1","",""
"casino-fixation","158","451071","0.0-25.0-0.43","A109","false","img/card_backs/set1/yellow.gif","img/card_backs/set1/red.gif","img/card_backs/set1/purple.gif","img/card_backs/set1/green.gif","img/card_backs/set2/blue.gif","img/card_backs/set2/orange.gif","img/card_backs/set2/gray.gif","img/card_backs/set2/pink.gif","""event"",""trial"",""time""
""fullscreenenter"",""1"",""3076""
","
","
","""event"",""trial"",""time""
""fullscreenenter"",""1"",""3076""
","
","","null","","null","","fixation","2021-03-31 02:49:33.715","","","","","",""
"card-selection-trial","159","453318","0.0-25.0-1.43","A109","false","img/card_backs/set1/yellow.gif","img/card_backs/set1/red.gif","img/card_backs/set1/purple.gif","img/card_backs/set1/green.gif","img/card_backs/set2/blue.gif","img/card_backs/set2/orange.gif","img/card_backs/set2/gray.gif","img/card_backs/set2/pink.gif","""event"",""trial"",""time""
""fullscreenenter"",""1"",""3076""
","
","
","""event"",""trial"",""time""
""fullscreenenter"",""1"",""3076""
","
","","237.9650000075344","","","","real_trial","2021-03-31 02:49:35.961","img/card_backs/set1/green.gif","0","-70","1","",""
"casino-fixation","160","453823","0.0-25.0-0.44","A109","false","img/card_backs/set1/yellow.gif","img/card_backs/set1/red.gif","img/card_backs/set1/purple.gif","img/card_backs/set1/green.gif","img/card_backs/set2/blue.gif","img/card_backs/set2/orange.gif","img/card_backs/set2/gray.gif","img/card_backs/set2/pink.gif","""event"",""trial"",""time""
""fullscreenenter"",""1"",""3076""
","
","
","""event"",""trial"",""time""
""fullscreenenter"",""1"",""3076""
","
","","null","","null","","fixation","2021-03-31 02:49:36.466","","","","","",""
"card-selection-trial","161","456087","0.0-25.0-1.44","A109","false","img/card_backs/set1/yellow.gif","img/card_backs/set1/red.gif","img/card_backs/set1/purple.gif","img/card_backs/set1/green.gif","img/card_backs/set2/blue.gif","img/card_backs/set2/orange.gif","img/card_backs/set2/gray.gif","img/card_backs/set2/pink.gif","""event"",""trial"",""time""
""fullscreenenter"",""1"",""3076""
","
","
","""event"",""trial"",""time""
""fullscreenenter"",""1"",""3076""
","
","","252.6450000004843","","","","real_trial","2021-03-31 02:49:38.730","img/card_backs/set1/red.gif","0","-230","1","",""
"casino-fixation","162","456592","0.0-25.0-0.45","A109","false","img/card_backs/set1/yellow.gif","img/card_backs/set1/red.gif","img/card_backs/set1/purple.gif","img/card_backs/set1/green.gif","img/card_backs/set2/blue.gif","img/card_backs/set2/orange.gif","img/card_backs/set2/gray.gif","img/card_backs/set2/pink.gif","""event"",""trial"",""time""
""fullscreenenter"",""1"",""3076""
","
","
","""event"",""trial"",""time""
""fullscreenenter"",""1"",""3076""
","
","","null","","null","","fixation","2021-03-31 02:49:39.235","","","","","",""
"card-selection-trial","163","458821","0.0-25.0-1.45","A109","false","img/card_backs/set1/yellow.gif","img/card_backs/set1/red.gif","img/card_backs/set1/purple.gif","img/card_backs/set1/green.gif","img/card_backs/set2/blue.gif","img/card_backs/set2/orange.gif","img/card_backs/set2/gray.gif","img/card_backs/set2/pink.gif","""event"",""trial"",""time""
""fullscreenenter"",""1"",""3076""
","
","
","""event"",""trial"",""time""
""fullscreenenter"",""1"",""3076""
","
","","221.66999999899417","","","","real_trial","2021-03-31 02:49:41.465","img/card_backs/set1/green.gif","0","100","1","",""
"casino-fixation","164","459326","0.0-25.0-0.46","A109","false","img/card_backs/set1/yellow.gif","img/card_backs/set1/red.gif","img/card_backs/set1/purple.gif","img/card_backs/set1/green.gif","img/card_backs/set2/blue.gif","img/card_backs/set2/orange.gif","img/card_backs/set2/gray.gif","img/card_backs/set2/pink.gif","""event"",""trial"",""time""
""fullscreenenter"",""1"",""3076""
","
","
","""event"",""trial"",""time""
""fullscreenenter"",""1"",""3076""
","
","","null","","null","","fixation","2021-03-31 02:49:41.969","","","","","",""
"card-selection-trial","165","461741","0.0-25.0-1.46","A109","false","img/card_backs/set1/yellow.gif","img/card_backs/set1/red.gif","img/card_backs/set1/purple.gif","img/card_backs/set1/green.gif","img/card_backs/set2/blue.gif","img/card_backs/set2/orange.gif","img/card_backs/set2/gray.gif","img/card_backs/set2/pink.gif","""event"",""trial"",""time""
""fullscreenenter"",""1"",""3076""
","
","
","""event"",""trial"",""time""
""fullscreenenter"",""1"",""3076""
","
","","404.1449999931501","","","","real_trial","2021-03-31 02:49:44.385","img/card_backs/set1/purple.gif","1","-60","1","",""
"casino-fixation","166","462246","0.0-25.0-0.47","A109","false","img/card_backs/set1/yellow.gif","img/card_backs/set1/red.gif","img/card_backs/set1/purple.gif","img/card_backs/set1/green.gif","img/card_backs/set2/blue.gif","img/card_backs/set2/orange.gif","img/card_backs/set2/gray.gif","img/card_backs/set2/pink.gif","""event"",""trial"",""time""
""fullscreenenter"",""1"",""3076""
","
","
","""event"",""trial"",""time""
""fullscreenenter"",""1"",""3076""
","
","","null","","null","","fixation","2021-03-31 02:49:44.889","","","","","",""
