"trial_type","trial_index","time_elapsed","internal_node_id","sub_id","risk_good_first","block1_A","block1_B","block1_C","block1_D","block2_A","block2_B","block2_C","block2_D","interactions","blur_events","focus_events","fullscreenenter_events","fullscreenexit_events","success","rt","stimulus","key_press","button_pressed","task_part","timestamp","card_choice","choice_position","points_earned","block","correct","response"
"pavlovia","0","4","0.0-0.0","A188","false","img/card_backs/set1/red.gif","img/card_backs/set1/green.gif","img/card_backs/set1/yellow.gif","img/card_backs/set1/purple.gif","img/card_backs/set2/orange.gif","img/card_backs/set2/gray.gif","img/card_backs/set2/blue.gif","img/card_backs/set2/pink.gif","""event"",""trial"",""time""
""fullscreenenter"",""1"",""8494""
","
","
","""event"",""trial"",""time""
""fullscreenenter"",""1"",""8494""
","
","","","","","","","","","","","","",""
"fullscreen","1","9467","0.0-1.0","A188","false","img/card_backs/set1/red.gif","img/card_backs/set1/green.gif","img/card_backs/set1/yellow.gif","img/card_backs/set1/purple.gif","img/card_backs/set2/orange.gif","img/card_backs/set2/gray.gif","img/card_backs/set2/blue.gif","img/card_backs/set2/pink.gif","""event"",""trial"",""time""
""fullscreenenter"",""1"",""8494""
","
","
","""event"",""trial"",""time""
""fullscreenenter"",""1"",""8494""
","
","true","","","","","","","","","","","",""
"audio-keyboard-response","2","12881","0.0-2.0","A188","false","img/card_backs/set1/red.gif","img/card_backs/set1/green.gif","img/card_backs/set1/yellow.gif","img/card_backs/set1/purple.gif","img/card_backs/set2/orange.gif","img/card_backs/set2/gray.gif","img/card_backs/set2/blue.gif","img/card_backs/set2/pink.gif","""event"",""trial"",""time""
""fullscreenenter"",""1"",""8494""
","
","
","""event"",""trial"",""time""
""fullscreenenter"",""1"",""8494""
","
","","3410","audio/beep_loop.wav","32","","","","","","","","",""
"audio-button-response","3","14657","0.0-3.0","A188","false","img/card_backs/set1/red.gif","img/card_backs/set1/green.gif","img/card_backs/set1/yellow.gif","img/card_backs/set1/purple.gif","img/card_backs/set2/orange.gif","img/card_backs/set2/gray.gif","img/card_backs/set2/blue.gif","img/card_backs/set2/pink.gif","""event"",""trial"",""time""
""fullscreenenter"",""1"",""8494""
","
","
","""event"",""trial"",""time""
""fullscreenenter"",""1"",""8494""
","
","","NaN","audio/turtle.mp3","","3","","","","","","","",""
"audio-button-response","4","17101","0.0-4.0","A188","false","img/card_backs/set1/red.gif","img/card_backs/set1/green.gif","img/card_backs/set1/yellow.gif","img/card_backs/set1/purple.gif","img/card_backs/set2/orange.gif","img/card_backs/set2/gray.gif","img/card_backs/set2/blue.gif","img/card_backs/set2/pink.gif","""event"",""trial"",""time""
""fullscreenenter"",""1"",""8494""
","
","
","""event"",""trial"",""time""
""fullscreenenter"",""1"",""8494""
","
","","NaN","audio/shark.mp3","","2","","","","","","","",""
"fullscreen","5","20189","0.0-5.0","A188","false","img/card_backs/set1/red.gif","img/card_backs/set1/green.gif","img/card_backs/set1/yellow.gif","img/card_backs/set1/purple.gif","img/card_backs/set2/orange.gif","img/card_backs/set2/gray.gif","img/card_backs/set2/blue.gif","img/card_backs/set2/pink.gif","""event"",""trial"",""time""
""fullscreenenter"",""1"",""8494""
","
","
","""event"",""trial"",""time""
""fullscreenenter"",""1"",""8494""
","
","true","","","","","","","","","","","",""
"casino-keyboard-response","6","23643","0.0-6.0-0.0","A188","false","img/card_backs/set1/red.gif","img/card_backs/set1/green.gif","img/card_backs/set1/yellow.gif","img/card_backs/set1/purple.gif","img/card_backs/set2/orange.gif","img/card_backs/set2/gray.gif","img/card_backs/set2/blue.gif","img/card_backs/set2/pink.gif","""event"",""trial"",""time""
""fullscreenenter"",""1"",""8494""
","
","
","""event"",""trial"",""time""
""fullscreenenter"",""1"",""8494""
","
","","3446.720000123605","Welcome to the casino!","71","","instructions","2021-04-05 15:45:55.659","","","","","",""
"casino-keyboard-response","7","33711","0.0-6.0-0.1","A188","false","img/card_backs/set1/red.gif","img/card_backs/set1/green.gif","img/card_backs/set1/yellow.gif","img/card_backs/set1/purple.gif","img/card_backs/set2/orange.gif","img/card_backs/set2/gray.gif","img/card_backs/set2/blue.gif","img/card_backs/set2/pink.gif","""event"",""trial"",""time""
""fullscreenenter"",""1"",""8494""
","
","
","""event"",""trial"",""time""
""fullscreenenter"",""1"",""8494""
","
","","10065.599999856204","Today you will be playing a game to earn tokens. </br> At the end of the experiment, you will be paid a bonus based on how many tokens you win. ","69","","instructions","2021-04-05 15:46:05.727","","","","","",""
"casino-keyboard-response","8","42327","0.0-6.0-0.2","A188","false","img/card_backs/set1/red.gif","img/card_backs/set1/green.gif","img/card_backs/set1/yellow.gif","img/card_backs/set1/purple.gif","img/card_backs/set2/orange.gif","img/card_backs/set2/gray.gif","img/card_backs/set2/blue.gif","img/card_backs/set2/pink.gif","""event"",""trial"",""time""
""fullscreenenter"",""1"",""8494""
","
","
","""event"",""trial"",""time""
""fullscreenenter"",""1"",""8494""
","
","","8613.54500008747","On every turn, you will be shown four different decks of cards. </br> You need to select a card from one of the four decks.  ","75","","instructions","2021-04-05 15:46:14.344","","","","","",""
"casino-keyboard-response","9","48132","0.0-6.0-0.3","A188","false","img/card_backs/set1/red.gif","img/card_backs/set1/green.gif","img/card_backs/set1/yellow.gif","img/card_backs/set1/purple.gif","img/card_backs/set2/orange.gif","img/card_backs/set2/gray.gif","img/card_backs/set2/blue.gif","img/card_backs/set2/pink.gif","""event"",""trial"",""time""
""fullscreenenter"",""1"",""8494""
","
","
","""event"",""trial"",""time""
""fullscreenenter"",""1"",""8494""
","
","","5797.5949998945","On the next screen, you will see what the decks will look like. ","66","","instructions","2021-04-05 15:46:20.148","","","","","",""
"card-selection-trial","10","52162","0.0-7.0-0.0","A188","false","img/card_backs/set1/red.gif","img/card_backs/set1/green.gif","img/card_backs/set1/yellow.gif","img/card_backs/set1/purple.gif","img/card_backs/set2/orange.gif","img/card_backs/set2/gray.gif","img/card_backs/set2/blue.gif","img/card_backs/set2/pink.gif","""event"",""trial"",""time""
""fullscreenenter"",""1"",""8494""
","
","
","""event"",""trial"",""time""
""fullscreenenter"",""1"",""8494""
","
","","null","","","","practice","2021-04-05 15:46:24.179","null","null","null","0","",""
"casino-keyboard-response","11","59414","0.0-8.0-0.0","A188","false","img/card_backs/set1/red.gif","img/card_backs/set1/green.gif","img/card_backs/set1/yellow.gif","img/card_backs/set1/purple.gif","img/card_backs/set2/orange.gif","img/card_backs/set2/gray.gif","img/card_backs/set2/blue.gif","img/card_backs/set2/pink.gif","""event"",""trial"",""time""
""fullscreenenter"",""1"",""8494""
","
","
","""event"",""trial"",""time""
""fullscreenenter"",""1"",""8494""
","
","","7248.819999862462","You should pick a card from a deck using the '2', '4', '6', and '8' keys at the top of the keyboard.","85","","instructions","2021-04-05 15:46:31.430","","","","","",""
"casino-keyboard-response","12","64683","0.0-8.0-0.1","A188","false","img/card_backs/set1/red.gif","img/card_backs/set1/green.gif","img/card_backs/set1/yellow.gif","img/card_backs/set1/purple.gif","img/card_backs/set2/orange.gif","img/card_backs/set2/gray.gif","img/card_backs/set2/blue.gif","img/card_backs/set2/pink.gif","""event"",""trial"",""time""
""fullscreenenter"",""1"",""8494""
","
","
","""event"",""trial"",""time""
""fullscreenenter"",""1"",""8494""
","
","","5264.089999953285","Once you select a card, it will turn over and you will see how many tokens you earned.","83","","instructions","2021-04-05 15:46:36.700","","","","","",""
"casino-keyboard-response","13","78442","0.0-8.0-0.2","A188","false","img/card_backs/set1/red.gif","img/card_backs/set1/green.gif","img/card_backs/set1/yellow.gif","img/card_backs/set1/purple.gif","img/card_backs/set2/orange.gif","img/card_backs/set2/gray.gif","img/card_backs/set2/blue.gif","img/card_backs/set2/pink.gif","""event"",""trial"",""time""
""fullscreenenter"",""1"",""8494""
","
","
","""event"",""trial"",""time""
""fullscreenenter"",""1"",""8494""
","
","","13754.68000001274","Let's try practicing that! </br> First, try to put your fingers over the '2', '4', '6', and '8' keys. </br>  You can use whatever fingers are most comfortable for you. Try to find a comfortable position now. ","50","","instructions","2021-04-05 15:46:50.458","","","","","",""
"casino-keyboard-response","14","84099","0.0-8.0-0.3","A188","false","img/card_backs/set1/red.gif","img/card_backs/set1/green.gif","img/card_backs/set1/yellow.gif","img/card_backs/set1/purple.gif","img/card_backs/set2/orange.gif","img/card_backs/set2/gray.gif","img/card_backs/set2/blue.gif","img/card_backs/set2/pink.gif","""event"",""trial"",""time""
""fullscreenenter"",""1"",""8494""
","
","
","""event"",""trial"",""time""
""fullscreenenter"",""1"",""8494""
","
","","5650.91499988921","Okay ready? </br> On the next screen, press '2' to select the left deck. ","50","","instructions","2021-04-05 15:46:56.115","","","","","",""
"card-selection-trial","15","87249","0.0-9.0-0.0","A188","false","img/card_backs/set1/red.gif","img/card_backs/set1/green.gif","img/card_backs/set1/yellow.gif","img/card_backs/set1/purple.gif","img/card_backs/set2/orange.gif","img/card_backs/set2/gray.gif","img/card_backs/set2/blue.gif","img/card_backs/set2/pink.gif","""event"",""trial"",""time""
""fullscreenenter"",""1"",""8494""
","
","
","""event"",""trial"",""time""
""fullscreenenter"",""1"",""8494""
","
","","1098.5399999190122","","","","practice_card_selection","2021-04-05 15:46:59.266","img/practice_cards/backs/dark_blue.gif","0","-200","","",""
"casino-keyboard-response","16","92963","0.0-10.0-0.0","A188","false","img/card_backs/set1/red.gif","img/card_backs/set1/green.gif","img/card_backs/set1/yellow.gif","img/card_backs/set1/purple.gif","img/card_backs/set2/orange.gif","img/card_backs/set2/gray.gif","img/card_backs/set2/blue.gif","img/card_backs/set2/pink.gif","""event"",""trial"",""time""
""fullscreenenter"",""1"",""8494""
","
","
","""event"",""trial"",""time""
""fullscreenenter"",""1"",""8494""
","
","","5707.600000081584","Great! Now on the next screen, try pressing '6' to select the third deck.","54","","instructions","2021-04-05 15:47:04.980","","","","","",""
"card-selection-trial","17","95713","0.0-11.0-0.0","A188","false","img/card_backs/set1/red.gif","img/card_backs/set1/green.gif","img/card_backs/set1/yellow.gif","img/card_backs/set1/purple.gif","img/card_backs/set2/orange.gif","img/card_backs/set2/gray.gif","img/card_backs/set2/blue.gif","img/card_backs/set2/pink.gif","""event"",""trial"",""time""
""fullscreenenter"",""1"",""8494""
","
","
","""event"",""trial"",""time""
""fullscreenenter"",""1"",""8494""
","
","","715.3600000310689","","","","practice_card_selection","2021-04-05 15:47:07.729","img/practice_cards/backs/brown.gif","2","-100","","",""
"casino-keyboard-response","18","100460","0.0-12.0-0.0","A188","false","img/card_backs/set1/red.gif","img/card_backs/set1/green.gif","img/card_backs/set1/yellow.gif","img/card_backs/set1/purple.gif","img/card_backs/set2/orange.gif","img/card_backs/set2/gray.gif","img/card_backs/set2/blue.gif","img/card_backs/set2/pink.gif","""event"",""trial"",""time""
""fullscreenenter"",""1"",""8494""
","
","
","""event"",""trial"",""time""
""fullscreenenter"",""1"",""8494""
","
","","4745.010000187904","Now on the next screen, try pressing '4' to select the second deck.","52","","instructions","2021-04-05 15:47:12.476","","","","","",""
"card-selection-trial","19","103318","0.0-13.0-0.0","A188","false","img/card_backs/set1/red.gif","img/card_backs/set1/green.gif","img/card_backs/set1/yellow.gif","img/card_backs/set1/purple.gif","img/card_backs/set2/orange.gif","img/card_backs/set2/gray.gif","img/card_backs/set2/blue.gif","img/card_backs/set2/pink.gif","""event"",""trial"",""time""
""fullscreenenter"",""1"",""8494""
","
","
","""event"",""trial"",""time""
""fullscreenenter"",""1"",""8494""
","
","","822.4899999331683","","","","practice_card_selection","2021-04-05 15:47:15.335","img/practice_cards/backs/dark_blue.gif","1","200","","",""
"casino-keyboard-response","20","108163","0.0-14.0-0.0","A188","false","img/card_backs/set1/red.gif","img/card_backs/set1/green.gif","img/card_backs/set1/yellow.gif","img/card_backs/set1/purple.gif","img/card_backs/set2/orange.gif","img/card_backs/set2/gray.gif","img/card_backs/set2/blue.gif","img/card_backs/set2/pink.gif","""event"",""trial"",""time""
""fullscreenenter"",""1"",""8494""
","
","
","""event"",""trial"",""time""
""fullscreenenter"",""1"",""8494""
","
","","4841.409999877214","Finally, try pressing '8' to select the deck all the way on the right.","56","","instructions","2021-04-05 15:47:20.180","","","","","",""
"card-selection-trial","21","110875","0.0-15.0-0.0","A188","false","img/card_backs/set1/red.gif","img/card_backs/set1/green.gif","img/card_backs/set1/yellow.gif","img/card_backs/set1/purple.gif","img/card_backs/set2/orange.gif","img/card_backs/set2/gray.gif","img/card_backs/set2/blue.gif","img/card_backs/set2/pink.gif","""event"",""trial"",""time""
""fullscreenenter"",""1"",""8494""
","
","
","""event"",""trial"",""time""
""fullscreenenter"",""1"",""8494""
","
","","681.9599999580532","","","","practice_card_selection","2021-04-05 15:47:22.891","img/practice_cards/backs/dark_blue.gif","3","-200","","",""
"casino-keyboard-response","22","115177","0.0-16.0-0.0","A188","false","img/card_backs/set1/red.gif","img/card_backs/set1/green.gif","img/card_backs/set1/yellow.gif","img/card_backs/set1/purple.gif","img/card_backs/set2/orange.gif","img/card_backs/set2/gray.gif","img/card_backs/set2/blue.gif","img/card_backs/set2/pink.gif","""event"",""trial"",""time""
""fullscreenenter"",""1"",""8494""
","
","
","""event"",""trial"",""time""
""fullscreenenter"",""1"",""8494""
","
","","4299.714999971911","Great! It seems like you are getting the hang of this.","80","","instructions","2021-04-05 15:47:27.193","","","","","",""
"casino-keyboard-response","23","122401","0.0-16.0-0.1","A188","false","img/card_backs/set1/red.gif","img/card_backs/set1/green.gif","img/card_backs/set1/yellow.gif","img/card_backs/set1/purple.gif","img/card_backs/set2/orange.gif","img/card_backs/set2/gray.gif","img/card_backs/set2/blue.gif","img/card_backs/set2/pink.gif","""event"",""trial"",""time""
""fullscreenenter"",""1"",""8494""
","
","
","""event"",""trial"",""time""
""fullscreenenter"",""1"",""8494""
","
","","7219.5449999999255","You may have noticed that some cards will cause you to <b> win </b> tokens while other cards will cause you to <b> lose </b>  tokens.","70","","instructions","2021-04-05 15:47:34.417","","","","","",""
"casino-keyboard-response","24","131282","0.0-16.0-0.2","A188","false","img/card_backs/set1/red.gif","img/card_backs/set1/green.gif","img/card_backs/set1/yellow.gif","img/card_backs/set1/purple.gif","img/card_backs/set2/orange.gif","img/card_backs/set2/gray.gif","img/card_backs/set2/blue.gif","img/card_backs/set2/pink.gif","""event"",""trial"",""time""
""fullscreenenter"",""1"",""8494""
","
","
","""event"",""trial"",""time""
""fullscreenenter"",""1"",""8494""
","
","","8874.974999809638","Each deck has a mix of cards that will cause you to win and lose tokens. </br> However, the cards in each colored deck are different.","73","","instructions","2021-04-05 15:47:43.299","","","","","",""
"casino-keyboard-response","25","139678","0.0-16.0-0.3","A188","false","img/card_backs/set1/red.gif","img/card_backs/set1/green.gif","img/card_backs/set1/yellow.gif","img/card_backs/set1/purple.gif","img/card_backs/set2/orange.gif","img/card_backs/set2/gray.gif","img/card_backs/set2/blue.gif","img/card_backs/set2/pink.gif","""event"",""trial"",""time""
""fullscreenenter"",""1"",""8494""
","
","
","""event"",""trial"",""time""
""fullscreenenter"",""1"",""8494""
","
","","8392.434999812394","Some colored decks are luckier than others. </br> If you choose the lucky decks, you will earn more tokens than if you choose the unlucky decks.","69","","instructions","2021-04-05 15:47:51.695","","","","","",""
"casino-keyboard-response","26","146899","0.0-16.0-0.4","A188","false","img/card_backs/set1/red.gif","img/card_backs/set1/green.gif","img/card_backs/set1/yellow.gif","img/card_backs/set1/purple.gif","img/card_backs/set2/orange.gif","img/card_backs/set2/gray.gif","img/card_backs/set2/blue.gif","img/card_backs/set2/pink.gif","""event"",""trial"",""time""
""fullscreenenter"",""1"",""8494""
","
","
","""event"",""trial"",""time""
""fullscreenenter"",""1"",""8494""
","
","","7216.924999840558","You should try to figure out which decks are lucky. </br> Then, try to choose the lucky decks so you can win the most tokens.","87","","instructions","2021-04-05 15:47:58.915","","","","","",""
"casino-keyboard-response","27","158907","0.0-16.0-0.5","A188","false","img/card_backs/set1/red.gif","img/card_backs/set1/green.gif","img/card_backs/set1/yellow.gif","img/card_backs/set1/purple.gif","img/card_backs/set2/orange.gif","img/card_backs/set2/gray.gif","img/card_backs/set2/blue.gif","img/card_backs/set2/pink.gif","""event"",""trial"",""time""
""fullscreenenter"",""1"",""8494""
","
","
","""event"",""trial"",""time""
""fullscreenenter"",""1"",""8494""
","
","","12003.510000184178","To make it trickier, the casino dealer will switch the locations of the decks on every turn. </br> The color of the deck determines how lucky it is. The location does not matter.","88","","instructions","2021-04-05 15:48:10.923","","","","","",""
"casino-keyboard-response","28","168516","0.0-16.0-0.6","A188","false","img/card_backs/set1/red.gif","img/card_backs/set1/green.gif","img/card_backs/set1/yellow.gif","img/card_backs/set1/purple.gif","img/card_backs/set2/orange.gif","img/card_backs/set2/gray.gif","img/card_backs/set2/blue.gif","img/card_backs/set2/pink.gif","""event"",""trial"",""time""
""fullscreenenter"",""1"",""8494""
","
","
","""event"",""trial"",""time""
""fullscreenenter"",""1"",""8494""
","
","","9605.58500001207","The mix of cards in each colored deck will stay the same throughout the game. </br> That means that a deck that is lucky early on will stay lucky.","79","","instructions","2021-04-05 15:48:20.532","","","","","",""
"casino-keyboard-response","29","176933","0.0-16.0-0.7","A188","false","img/card_backs/set1/red.gif","img/card_backs/set1/green.gif","img/card_backs/set1/yellow.gif","img/card_backs/set1/purple.gif","img/card_backs/set2/orange.gif","img/card_backs/set2/gray.gif","img/card_backs/set2/blue.gif","img/card_backs/set2/pink.gif","""event"",""trial"",""time""
""fullscreenenter"",""1"",""8494""
","
","
","""event"",""trial"",""time""
""fullscreenenter"",""1"",""8494""
","
","","8412.01000008732","Remember though, all the decks have a <b> mix </b> of both <b> good </b> and <b> bad </b> cards so it may take a couple of turns to figure out if a deck is lucky.","69","","instructions","2021-04-05 15:48:28.950","","","","","",""
"casino-keyboard-response","30","184925","0.0-16.0-0.8","A188","false","img/card_backs/set1/red.gif","img/card_backs/set1/green.gif","img/card_backs/set1/yellow.gif","img/card_backs/set1/purple.gif","img/card_backs/set2/orange.gif","img/card_backs/set2/gray.gif","img/card_backs/set2/blue.gif","img/card_backs/set2/pink.gif","""event"",""trial"",""time""
""fullscreenenter"",""1"",""8494""
","
","
","""event"",""trial"",""time""
""fullscreenenter"",""1"",""8494""
","
","","7985.7399999164045","At the end of the game, you will be paid bonus money based on how many tokens you win. </br> If you win more tokens, you will earn more money!","72","","instructions","2021-04-05 15:48:36.942","","","","","",""
"casino-keyboard-response","31","195502","0.0-16.0-0.9","A188","false","img/card_backs/set1/red.gif","img/card_backs/set1/green.gif","img/card_backs/set1/yellow.gif","img/card_backs/set1/purple.gif","img/card_backs/set2/orange.gif","img/card_backs/set2/gray.gif","img/card_backs/set2/blue.gif","img/card_backs/set2/pink.gif","""event"",""trial"",""time""
""fullscreenenter"",""1"",""8494""
","
","
","""event"",""trial"",""time""
""fullscreenenter"",""1"",""8494""
","
","","10571.0750001017","You will never <b> lose </b> money. </br> If you end up with fewer than 0 tokens, you will earn $0 of bonus money, but you will still be paid for playing the game.","83","","instructions","2021-04-05 15:48:47.518","","","","","",""
"casino-keyboard-response","32","199725","0.0-16.0-0.10","A188","false","img/card_backs/set1/red.gif","img/card_backs/set1/green.gif","img/card_backs/set1/yellow.gif","img/card_backs/set1/purple.gif","img/card_backs/set2/orange.gif","img/card_backs/set2/gray.gif","img/card_backs/set2/blue.gif","img/card_backs/set2/pink.gif","""event"",""trial"",""time""
""fullscreenenter"",""1"",""8494""
","
","
","""event"",""trial"",""time""
""fullscreenenter"",""1"",""8494""
","
","","4219.030000036582","You will have 10 seconds to make each choice.","82","","instructions","2021-04-05 15:48:51.741","","","","","",""
"casino-keyboard-response","33","207949","0.0-16.0-0.11","A188","false","img/card_backs/set1/red.gif","img/card_backs/set1/green.gif","img/card_backs/set1/yellow.gif","img/card_backs/set1/purple.gif","img/card_backs/set2/orange.gif","img/card_backs/set2/gray.gif","img/card_backs/set2/blue.gif","img/card_backs/set2/pink.gif","""event"",""trial"",""time""
""fullscreenenter"",""1"",""8494""
","
","
","""event"",""trial"",""time""
""fullscreenenter"",""1"",""8494""
","
","","8220.229999860749","Before you play the game for real, you will play with practice decks. </br> The tokens you earn during practice won't count toward your total.","86","","instructions","2021-04-05 15:48:59.965","","","","","",""
"casino-keyboard-response","34","219820","0.0-16.0-0.12","A188","false","img/card_backs/set1/red.gif","img/card_backs/set1/green.gif","img/card_backs/set1/yellow.gif","img/card_backs/set1/purple.gif","img/card_backs/set2/orange.gif","img/card_backs/set2/gray.gif","img/card_backs/set2/blue.gif","img/card_backs/set2/pink.gif","""event"",""trial"",""time""
""fullscreenenter"",""1"",""8494""
","
","
","""event"",""trial"",""time""
""fullscreenenter"",""1"",""8494""
","
","","11865.994999883696","Ready? Remember, use the '2', '4', '6', and '8' keys to select the decks. </br> Put your fingers on those keys now and then press '2' to begin.","50","","instructions","2021-04-05 15:49:11.836","","","","","",""
"casino-fixation","35","220336","0.0-17.0-0.0","A188","false","img/card_backs/set1/red.gif","img/card_backs/set1/green.gif","img/card_backs/set1/yellow.gif","img/card_backs/set1/purple.gif","img/card_backs/set2/orange.gif","img/card_backs/set2/gray.gif","img/card_backs/set2/blue.gif","img/card_backs/set2/pink.gif","""event"",""trial"",""time""
""fullscreenenter"",""1"",""8494""
","
","
","""event"",""trial"",""time""
""fullscreenenter"",""1"",""8494""
","
","","null","","null","","fixation","2021-04-05 15:49:12.352","","","","","",""
"card-selection-trial","36","224195","0.0-17.0-1.0","A188","false","img/card_backs/set1/red.gif","img/card_backs/set1/green.gif","img/card_backs/set1/yellow.gif","img/card_backs/set1/purple.gif","img/card_backs/set2/orange.gif","img/card_backs/set2/gray.gif","img/card_backs/set2/blue.gif","img/card_backs/set2/pink.gif","""event"",""trial"",""time""
""fullscreenenter"",""1"",""8494""
","
","
","""event"",""trial"",""time""
""fullscreenenter"",""1"",""8494""
","
","","1834.2999999877065","","","","practice","2021-04-05 15:49:16.212","img/practice_cards/backs/dark_blue.gif","1","-200","0","",""
"casino-fixation","37","224706","0.0-17.0-0.1","A188","false","img/card_backs/set1/red.gif","img/card_backs/set1/green.gif","img/card_backs/set1/yellow.gif","img/card_backs/set1/purple.gif","img/card_backs/set2/orange.gif","img/card_backs/set2/gray.gif","img/card_backs/set2/blue.gif","img/card_backs/set2/pink.gif","""event"",""trial"",""time""
""fullscreenenter"",""1"",""8494""
","
","
","""event"",""trial"",""time""
""fullscreenenter"",""1"",""8494""
","
","","null","","null","","fixation","2021-04-05 15:49:16.722","","","","","",""
"card-selection-trial","38","228429","0.0-17.0-1.1","A188","false","img/card_backs/set1/red.gif","img/card_backs/set1/green.gif","img/card_backs/set1/yellow.gif","img/card_backs/set1/purple.gif","img/card_backs/set2/orange.gif","img/card_backs/set2/gray.gif","img/card_backs/set2/blue.gif","img/card_backs/set2/pink.gif","""event"",""trial"",""time""
""fullscreenenter"",""1"",""8494""
","
","
","""event"",""trial"",""time""
""fullscreenenter"",""1"",""8494""
","
","","1707.6850000303239","","","","practice","2021-04-05 15:49:20.445","img/practice_cards/backs/dark_blue.gif","0","200","0","",""
"casino-fixation","39","228934","0.0-17.0-0.2","A188","false","img/card_backs/set1/red.gif","img/card_backs/set1/green.gif","img/card_backs/set1/yellow.gif","img/card_backs/set1/purple.gif","img/card_backs/set2/orange.gif","img/card_backs/set2/gray.gif","img/card_backs/set2/blue.gif","img/card_backs/set2/pink.gif","""event"",""trial"",""time""
""fullscreenenter"",""1"",""8494""
","
","
","""event"",""trial"",""time""
""fullscreenenter"",""1"",""8494""
","
","","null","","null","","fixation","2021-04-05 15:49:20.950","","","","","",""
"card-selection-trial","40","231830","0.0-17.0-1.2","A188","false","img/card_backs/set1/red.gif","img/card_backs/set1/green.gif","img/card_backs/set1/yellow.gif","img/card_backs/set1/purple.gif","img/card_backs/set2/orange.gif","img/card_backs/set2/gray.gif","img/card_backs/set2/blue.gif","img/card_backs/set2/pink.gif","""event"",""trial"",""time""
""fullscreenenter"",""1"",""8494""
","
","
","""event"",""trial"",""time""
""fullscreenenter"",""1"",""8494""
","
","","865.650000050664","","","","practice","2021-04-05 15:49:23.846","img/practice_cards/backs/dark_blue.gif","1","-200","0","",""
"casino-fixation","41","232334","0.0-17.0-0.3","A188","false","img/card_backs/set1/red.gif","img/card_backs/set1/green.gif","img/card_backs/set1/yellow.gif","img/card_backs/set1/purple.gif","img/card_backs/set2/orange.gif","img/card_backs/set2/gray.gif","img/card_backs/set2/blue.gif","img/card_backs/set2/pink.gif","""event"",""trial"",""time""
""fullscreenenter"",""1"",""8494""
","
","
","""event"",""trial"",""time""
""fullscreenenter"",""1"",""8494""
","
","","null","","null","","fixation","2021-04-05 15:49:24.350","","","","","",""
"card-selection-trial","42","235601","0.0-17.0-1.3","A188","false","img/card_backs/set1/red.gif","img/card_backs/set1/green.gif","img/card_backs/set1/yellow.gif","img/card_backs/set1/purple.gif","img/card_backs/set2/orange.gif","img/card_backs/set2/gray.gif","img/card_backs/set2/blue.gif","img/card_backs/set2/pink.gif","""event"",""trial"",""time""
""fullscreenenter"",""1"",""8494""
","
","
","""event"",""trial"",""time""
""fullscreenenter"",""1"",""8494""
","
","","1246.3449998758733","","","","practice","2021-04-05 15:49:27.618","img/practice_cards/backs/dark_green.gif","0","-200","0","",""
"casino-fixation","43","236113","0.0-17.0-0.4","A188","false","img/card_backs/set1/red.gif","img/card_backs/set1/green.gif","img/card_backs/set1/yellow.gif","img/card_backs/set1/purple.gif","img/card_backs/set2/orange.gif","img/card_backs/set2/gray.gif","img/card_backs/set2/blue.gif","img/card_backs/set2/pink.gif","""event"",""trial"",""time""
""fullscreenenter"",""1"",""8494""
","
","
","""event"",""trial"",""time""
""fullscreenenter"",""1"",""8494""
","
","","null","","null","","fixation","2021-04-05 15:49:28.130","","","","","",""
"card-selection-trial","44","238620","0.0-17.0-1.4","A188","false","img/card_backs/set1/red.gif","img/card_backs/set1/green.gif","img/card_backs/set1/yellow.gif","img/card_backs/set1/purple.gif","img/card_backs/set2/orange.gif","img/card_backs/set2/gray.gif","img/card_backs/set2/blue.gif","img/card_backs/set2/pink.gif","""event"",""trial"",""time""
""fullscreenenter"",""1"",""8494""
","
","
","""event"",""trial"",""time""
""fullscreenenter"",""1"",""8494""
","
","","485.4150000028312","","","","practice","2021-04-05 15:49:30.636","img/practice_cards/backs/dark_green.gif","0","200","0","",""
"casino-fixation","45","239133","0.0-17.0-0.5","A188","false","img/card_backs/set1/red.gif","img/card_backs/set1/green.gif","img/card_backs/set1/yellow.gif","img/card_backs/set1/purple.gif","img/card_backs/set2/orange.gif","img/card_backs/set2/gray.gif","img/card_backs/set2/blue.gif","img/card_backs/set2/pink.gif","""event"",""trial"",""time""
""fullscreenenter"",""1"",""8494""
","
","
","""event"",""trial"",""time""
""fullscreenenter"",""1"",""8494""
","
","","null","","null","","fixation","2021-04-05 15:49:31.149","","","","","",""
"card-selection-trial","46","241566","0.0-17.0-1.5","A188","false","img/card_backs/set1/red.gif","img/card_backs/set1/green.gif","img/card_backs/set1/yellow.gif","img/card_backs/set1/purple.gif","img/card_backs/set2/orange.gif","img/card_backs/set2/gray.gif","img/card_backs/set2/blue.gif","img/card_backs/set2/pink.gif","""event"",""trial"",""time""
""fullscreenenter"",""1"",""8494""
","
","
","""event"",""trial"",""time""
""fullscreenenter"",""1"",""8494""
","
","","406.0599999502301","","","","practice","2021-04-05 15:49:33.582","img/practice_cards/backs/dark_green.gif","0","200","0","",""
"casino-fixation","47","242079","0.0-17.0-0.6","A188","false","img/card_backs/set1/red.gif","img/card_backs/set1/green.gif","img/card_backs/set1/yellow.gif","img/card_backs/set1/purple.gif","img/card_backs/set2/orange.gif","img/card_backs/set2/gray.gif","img/card_backs/set2/blue.gif","img/card_backs/set2/pink.gif","""event"",""trial"",""time""
""fullscreenenter"",""1"",""8494""
","
","
","""event"",""trial"",""time""
""fullscreenenter"",""1"",""8494""
","
","","null","","null","","fixation","2021-04-05 15:49:34.095","","","","","",""
"card-selection-trial","48","245153","0.0-17.0-1.6","A188","false","img/card_backs/set1/red.gif","img/card_backs/set1/green.gif","img/card_backs/set1/yellow.gif","img/card_backs/set1/purple.gif","img/card_backs/set2/orange.gif","img/card_backs/set2/gray.gif","img/card_backs/set2/blue.gif","img/card_backs/set2/pink.gif","""event"",""trial"",""time""
""fullscreenenter"",""1"",""8494""
","
","
","""event"",""trial"",""time""
""fullscreenenter"",""1"",""8494""
","
","","1051.1750001460314","","","","practice","2021-04-05 15:49:37.170","img/practice_cards/backs/black.gif","0","100","0","",""
"casino-fixation","49","245665","0.0-17.0-0.7","A188","false","img/card_backs/set1/red.gif","img/card_backs/set1/green.gif","img/card_backs/set1/yellow.gif","img/card_backs/set1/purple.gif","img/card_backs/set2/orange.gif","img/card_backs/set2/gray.gif","img/card_backs/set2/blue.gif","img/card_backs/set2/pink.gif","""event"",""trial"",""time""
""fullscreenenter"",""1"",""8494""
","
","
","""event"",""trial"",""time""
""fullscreenenter"",""1"",""8494""
","
","","null","","null","","fixation","2021-04-05 15:49:37.681","","","","","",""
"card-selection-trial","50","248193","0.0-17.0-1.7","A188","false","img/card_backs/set1/red.gif","img/card_backs/set1/green.gif","img/card_backs/set1/yellow.gif","img/card_backs/set1/purple.gif","img/card_backs/set2/orange.gif","img/card_backs/set2/gray.gif","img/card_backs/set2/blue.gif","img/card_backs/set2/pink.gif","""event"",""trial"",""time""
""fullscreenenter"",""1"",""8494""
","
","
","""event"",""trial"",""time""
""fullscreenenter"",""1"",""8494""
","
","","505.98499993793666","","","","practice","2021-04-05 15:49:40.210","img/practice_cards/backs/black.gif","0","100","0","",""
"casino-fixation","51","248704","0.0-17.0-0.8","A188","false","img/card_backs/set1/red.gif","img/card_backs/set1/green.gif","img/card_backs/set1/yellow.gif","img/card_backs/set1/purple.gif","img/card_backs/set2/orange.gif","img/card_backs/set2/gray.gif","img/card_backs/set2/blue.gif","img/card_backs/set2/pink.gif","""event"",""trial"",""time""
""fullscreenenter"",""1"",""8494""
","
","
","""event"",""trial"",""time""
""fullscreenenter"",""1"",""8494""
","
","","null","","null","","fixation","2021-04-05 15:49:40.720","","","","","",""
"card-selection-trial","52","251781","0.0-17.0-1.8","A188","false","img/card_backs/set1/red.gif","img/card_backs/set1/green.gif","img/card_backs/set1/yellow.gif","img/card_backs/set1/purple.gif","img/card_backs/set2/orange.gif","img/card_backs/set2/gray.gif","img/card_backs/set2/blue.gif","img/card_backs/set2/pink.gif","""event"",""trial"",""time""
""fullscreenenter"",""1"",""8494""
","
","
","""event"",""trial"",""time""
""fullscreenenter"",""1"",""8494""
","
","","1068.0350000038743","","","","practice","2021-04-05 15:49:43.797","img/practice_cards/backs/black.gif","1","100","0","",""
"casino-fixation","53","252284","0.0-17.0-0.9","A188","false","img/card_backs/set1/red.gif","img/card_backs/set1/green.gif","img/card_backs/set1/yellow.gif","img/card_backs/set1/purple.gif","img/card_backs/set2/orange.gif","img/card_backs/set2/gray.gif","img/card_backs/set2/blue.gif","img/card_backs/set2/pink.gif","""event"",""trial"",""time""
""fullscreenenter"",""1"",""8494""
","
","
","""event"",""trial"",""time""
""fullscreenenter"",""1"",""8494""
","
","","null","","null","","fixation","2021-04-05 15:49:44.300","","","","","",""
"card-selection-trial","54","256290","0.0-17.0-1.9","A188","false","img/card_backs/set1/red.gif","img/card_backs/set1/green.gif","img/card_backs/set1/yellow.gif","img/card_backs/set1/purple.gif","img/card_backs/set2/orange.gif","img/card_backs/set2/gray.gif","img/card_backs/set2/blue.gif","img/card_backs/set2/pink.gif","""event"",""trial"",""time""
""fullscreenenter"",""1"",""8494""
","
","
","""event"",""trial"",""time""
""fullscreenenter"",""1"",""8494""
","
","","1991.344999987632","","","","practice","2021-04-05 15:49:48.306","img/practice_cards/backs/dark_blue.gif","3","200","0","",""
"casino-keyboard-response","55","259345","0.0-18.0","A188","false","img/card_backs/set1/red.gif","img/card_backs/set1/green.gif","img/card_backs/set1/yellow.gif","img/card_backs/set1/purple.gif","img/card_backs/set2/orange.gif","img/card_backs/set2/gray.gif","img/card_backs/set2/blue.gif","img/card_backs/set2/pink.gif","""event"",""trial"",""time""
""fullscreenenter"",""1"",""8494""
","
","
","""event"",""trial"",""time""
""fullscreenenter"",""1"",""8494""
","
","","3052.5050000287592","You earned 500 tokens during the practice round!","82","","","2021-04-05 15:49:51.361","","","","","",""
"casino-keyboard-response","56","263719","0.0-19.0-0.0","A188","false","img/card_backs/set1/red.gif","img/card_backs/set1/green.gif","img/card_backs/set1/yellow.gif","img/card_backs/set1/purple.gif","img/card_backs/set2/orange.gif","img/card_backs/set2/gray.gif","img/card_backs/set2/blue.gif","img/card_backs/set2/pink.gif","""event"",""trial"",""time""
""fullscreenenter"",""1"",""8494""
","
","
","""event"",""trial"",""time""
""fullscreenenter"",""1"",""8494""
","
","","4371.574999997392","Nice job! You are almost ready to play the real game.","86","","instructions","2021-04-05 15:49:55.735","","","","","",""
"casino-keyboard-response","57","270361","0.0-19.0-0.1","A188","false","img/card_backs/set1/red.gif","img/card_backs/set1/green.gif","img/card_backs/set1/yellow.gif","img/card_backs/set1/purple.gif","img/card_backs/set2/orange.gif","img/card_backs/set2/gray.gif","img/card_backs/set2/blue.gif","img/card_backs/set2/pink.gif","""event"",""trial"",""time""
""fullscreenenter"",""1"",""8494""
","
","
","""event"",""trial"",""time""
""fullscreenenter"",""1"",""8494""
","
","","6640.164999989793","You will play two rounds of the real game. In each round, you will pick 100 cards in total.","73","","instructions","2021-04-05 15:50:02.378","","","","","",""
"casino-keyboard-response","58","274362","0.0-19.0-0.2","A188","false","img/card_backs/set1/red.gif","img/card_backs/set1/green.gif","img/card_backs/set1/yellow.gif","img/card_backs/set1/purple.gif","img/card_backs/set2/orange.gif","img/card_backs/set2/gray.gif","img/card_backs/set2/blue.gif","img/card_backs/set2/pink.gif","""event"",""trial"",""time""
""fullscreenenter"",""1"",""8494""
","
","
","""event"",""trial"",""time""
""fullscreenenter"",""1"",""8494""
","
","","3995.6850002054125","We are now going to ask you some questions about how the game works.","66","","instructions","2021-04-05 15:50:06.378","","","","","",""
"casino-keyboard-response","59","280332","0.0-19.0-0.3","A188","false","img/card_backs/set1/red.gif","img/card_backs/set1/green.gif","img/card_backs/set1/yellow.gif","img/card_backs/set1/purple.gif","img/card_backs/set2/orange.gif","img/card_backs/set2/gray.gif","img/card_backs/set2/blue.gif","img/card_backs/set2/pink.gif","""event"",""trial"",""time""
""fullscreenenter"",""1"",""8494""
","
","
","""event"",""trial"",""time""
""fullscreenenter"",""1"",""8494""
","
","","5967.020000098273","Answer carefully. You will not be able to begin the game until you answer them correctly.","67","","instructions","2021-04-05 15:50:12.348","","","","","",""
"casino-comp_q","60","287440","0.0-20.0-0.0","A188","false","img/card_backs/set1/red.gif","img/card_backs/set1/green.gif","img/card_backs/set1/yellow.gif","img/card_backs/set1/purple.gif","img/card_backs/set2/orange.gif","img/card_backs/set2/gray.gif","img/card_backs/set2/blue.gif","img/card_backs/set2/pink.gif","""event"",""trial"",""time""
""fullscreenenter"",""1"",""8494""
","
","
","""event"",""trial"",""time""
""fullscreenenter"",""1"",""8494""
","
","","7103.48999989219","True or False: All the decks have some cards that cause you to win tokens and some cards that cause you to lose tokens.","84","","","2021-04-05 15:50:19.457","","","","","",""
"casino-keyboard-response","61","292173","0.0-20.0-1.0","A188","false","img/card_backs/set1/red.gif","img/card_backs/set1/green.gif","img/card_backs/set1/yellow.gif","img/card_backs/set1/purple.gif","img/card_backs/set2/orange.gif","img/card_backs/set2/gray.gif","img/card_backs/set2/blue.gif","img/card_backs/set2/pink.gif","""event"",""trial"",""time""
""fullscreenenter"",""1"",""8494""
","
","
","""event"",""trial"",""time""
""fullscreenenter"",""1"",""8494""
","
","","4723.695000167936","True is correct! All the decks have a mix of winning and losing cards.","77","","","2021-04-05 15:50:24.190","","","","","true",""
"casino-comp_q","62","295456","0.0-21.0-0.0","A188","false","img/card_backs/set1/red.gif","img/card_backs/set1/green.gif","img/card_backs/set1/yellow.gif","img/card_backs/set1/purple.gif","img/card_backs/set2/orange.gif","img/card_backs/set2/gray.gif","img/card_backs/set2/blue.gif","img/card_backs/set2/pink.gif","""event"",""trial"",""time""
""fullscreenenter"",""1"",""8494""
","
","
","""event"",""trial"",""time""
""fullscreenenter"",""1"",""8494""
","
","","3268.6150001827627","True or False: You will have as much time as you want to make your response.","70","","","2021-04-05 15:50:27.472","","","","","",""
"casino-keyboard-response","63","298281","0.0-21.0-1.0","A188","false","img/card_backs/set1/red.gif","img/card_backs/set1/green.gif","img/card_backs/set1/yellow.gif","img/card_backs/set1/purple.gif","img/card_backs/set2/orange.gif","img/card_backs/set2/gray.gif","img/card_backs/set2/blue.gif","img/card_backs/set2/pink.gif","""event"",""trial"",""time""
""fullscreenenter"",""1"",""8494""
","
","
","""event"",""trial"",""time""
""fullscreenenter"",""1"",""8494""
","
","","2821.6000001411885","False is correct! You will only have 10 seconds to make each choice.","75","","","2021-04-05 15:50:30.297","","","","","true",""
"casino-comp_q","64","301093","0.0-22.0-0.0","A188","false","img/card_backs/set1/red.gif","img/card_backs/set1/green.gif","img/card_backs/set1/yellow.gif","img/card_backs/set1/purple.gif","img/card_backs/set2/orange.gif","img/card_backs/set2/gray.gif","img/card_backs/set2/blue.gif","img/card_backs/set2/pink.gif","""event"",""trial"",""time""
""fullscreenenter"",""1"",""8494""
","
","
","""event"",""trial"",""time""
""fullscreenenter"",""1"",""8494""
","
","","2806.9799998775125","True or False: The location of the deck determines how lucky it is.","70","","","2021-04-05 15:50:33.109","","","","","",""
"casino-keyboard-response","65","304145","0.0-22.0-1.0","A188","false","img/card_backs/set1/red.gif","img/card_backs/set1/green.gif","img/card_backs/set1/yellow.gif","img/card_backs/set1/purple.gif","img/card_backs/set2/orange.gif","img/card_backs/set2/gray.gif","img/card_backs/set2/blue.gif","img/card_backs/set2/pink.gif","""event"",""trial"",""time""
""fullscreenenter"",""1"",""8494""
","
","
","""event"",""trial"",""time""
""fullscreenenter"",""1"",""8494""
","
","","3048.3949999324977","False is correct! The <i>color</i>  of the deck determines how lucky or unlucky it is.","68","","","2021-04-05 15:50:36.161","","","","","true",""
"casino-keyboard-response","66","308297","0.0-23.0-0.0","A188","false","img/card_backs/set1/red.gif","img/card_backs/set1/green.gif","img/card_backs/set1/yellow.gif","img/card_backs/set1/purple.gif","img/card_backs/set2/orange.gif","img/card_backs/set2/gray.gif","img/card_backs/set2/blue.gif","img/card_backs/set2/pink.gif","""event"",""trial"",""time""
""fullscreenenter"",""1"",""8494""
","
","
","""event"",""trial"",""time""
""fullscreenenter"",""1"",""8494""
","
","","4149.535000091419","Great job! Now it's time to start the real game.","82","","instructions","2021-04-05 15:50:40.313","","","","","",""
"casino-keyboard-response","67","313639","0.0-23.0-0.1","A188","false","img/card_backs/set1/red.gif","img/card_backs/set1/green.gif","img/card_backs/set1/yellow.gif","img/card_backs/set1/purple.gif","img/card_backs/set2/orange.gif","img/card_backs/set2/gray.gif","img/card_backs/set2/blue.gif","img/card_backs/set2/pink.gif","""event"",""trial"",""time""
""fullscreenenter"",""1"",""8494""
","
","
","""event"",""trial"",""time""
""fullscreenenter"",""1"",""8494""
","
","","5339.5200001541525","Before we start, we're going to head into a new room of the casino.","86","","instructions","2021-04-05 15:50:45.655","","","","","",""
"casino-keyboard-response","68","319852","0.0-24.0-0.0","A188","false","img/card_backs/set1/red.gif","img/card_backs/set1/green.gif","img/card_backs/set1/yellow.gif","img/card_backs/set1/purple.gif","img/card_backs/set2/orange.gif","img/card_backs/set2/gray.gif","img/card_backs/set2/blue.gif","img/card_backs/set2/pink.gif","""event"",""trial"",""time""
""fullscreenenter"",""1"",""8494""
","
","
","""event"",""trial"",""time""
""fullscreenenter"",""1"",""8494""
","
","","6209.174999967217","Here we are! The real game will use different cards, but the rules will be the same.","71","","instructions","2021-04-05 15:50:51.868","","","","","",""
"casino-keyboard-response","69","324087","0.0-24.0-0.1","A188","false","img/card_backs/set1/red.gif","img/card_backs/set1/green.gif","img/card_backs/set1/yellow.gif","img/card_backs/set1/purple.gif","img/card_backs/set2/orange.gif","img/card_backs/set2/gray.gif","img/card_backs/set2/blue.gif","img/card_backs/set2/pink.gif","""event"",""trial"",""time""
""fullscreenenter"",""1"",""8494""
","
","
","""event"",""trial"",""time""
""fullscreenenter"",""1"",""8494""
","
","","4229.784999974072","Ready? Put your fingers over the '2', '4', 6', and '8' keys so you are ready to play the game. </br> Then press 2 to start.","50","","instructions","2021-04-05 15:50:56.103","","","","","",""
"casino-fixation","70","324594","0.0-25.0-0.0","A188","false","img/card_backs/set1/red.gif","img/card_backs/set1/green.gif","img/card_backs/set1/yellow.gif","img/card_backs/set1/purple.gif","img/card_backs/set2/orange.gif","img/card_backs/set2/gray.gif","img/card_backs/set2/blue.gif","img/card_backs/set2/pink.gif","""event"",""trial"",""time""
""fullscreenenter"",""1"",""8494""
","
","
","""event"",""trial"",""time""
""fullscreenenter"",""1"",""8494""
","
","","null","","null","","fixation","2021-04-05 15:50:56.611","","","","","",""
"card-selection-trial","71","328723","0.0-25.0-1.0","A188","false","img/card_backs/set1/red.gif","img/card_backs/set1/green.gif","img/card_backs/set1/yellow.gif","img/card_backs/set1/purple.gif","img/card_backs/set2/orange.gif","img/card_backs/set2/gray.gif","img/card_backs/set2/blue.gif","img/card_backs/set2/pink.gif","""event"",""trial"",""time""
""fullscreenenter"",""1"",""8494""
","
","
","""event"",""trial"",""time""
""fullscreenenter"",""1"",""8494""
","
","","2110.00999994576","","","","real_trial","2021-04-05 15:51:00.739","img/card_backs/set1/purple.gif","2","-70","1","",""
"casino-fixation","72","329237","0.0-25.0-0.1","A188","false","img/card_backs/set1/red.gif","img/card_backs/set1/green.gif","img/card_backs/set1/yellow.gif","img/card_backs/set1/purple.gif","img/card_backs/set2/orange.gif","img/card_backs/set2/gray.gif","img/card_backs/set2/blue.gif","img/card_backs/set2/pink.gif","""event"",""trial"",""time""
""fullscreenenter"",""1"",""8494""
","
","
","""event"",""trial"",""time""
""fullscreenenter"",""1"",""8494""
","
","","null","","null","","fixation","2021-04-05 15:51:01.253","","","","","",""
"card-selection-trial","73","332911","0.0-25.0-1.1","A188","false","img/card_backs/set1/red.gif","img/card_backs/set1/green.gif","img/card_backs/set1/yellow.gif","img/card_backs/set1/purple.gif","img/card_backs/set2/orange.gif","img/card_backs/set2/gray.gif","img/card_backs/set2/blue.gif","img/card_backs/set2/pink.gif","""event"",""trial"",""time""
""fullscreenenter"",""1"",""8494""
","
","
","""event"",""trial"",""time""
""fullscreenenter"",""1"",""8494""
","
","","1655.5250000674278","","","","real_trial","2021-04-05 15:51:04.928","img/card_backs/set1/yellow.gif","2","-60","1","",""
"casino-fixation","74","333424","0.0-25.0-0.2","A188","false","img/card_backs/set1/red.gif","img/card_backs/set1/green.gif","img/card_backs/set1/yellow.gif","img/card_backs/set1/purple.gif","img/card_backs/set2/orange.gif","img/card_backs/set2/gray.gif","img/card_backs/set2/blue.gif","img/card_backs/set2/pink.gif","""event"",""trial"",""time""
""fullscreenenter"",""1"",""8494""
","
","
","""event"",""trial"",""time""
""fullscreenenter"",""1"",""8494""
","
","","null","","null","","fixation","2021-04-05 15:51:05.440","","","","","",""
"card-selection-trial","75","336809","0.0-25.0-1.2","A188","false","img/card_backs/set1/red.gif","img/card_backs/set1/green.gif","img/card_backs/set1/yellow.gif","img/card_backs/set1/purple.gif","img/card_backs/set2/orange.gif","img/card_backs/set2/gray.gif","img/card_backs/set2/blue.gif","img/card_backs/set2/pink.gif","""event"",""trial"",""time""
""fullscreenenter"",""1"",""8494""
","
","
","""event"",""trial"",""time""
""fullscreenenter"",""1"",""8494""
","
","","1364.240000024438","","","","real_trial","2021-04-05 15:51:08.825","img/card_backs/set1/purple.gif","0","-70","1","",""
"casino-fixation","76","337314","0.0-25.0-0.3","A188","false","img/card_backs/set1/red.gif","img/card_backs/set1/green.gif","img/card_backs/set1/yellow.gif","img/card_backs/set1/purple.gif","img/card_backs/set2/orange.gif","img/card_backs/set2/gray.gif","img/card_backs/set2/blue.gif","img/card_backs/set2/pink.gif","""event"",""trial"",""time""
""fullscreenenter"",""1"",""8494""
","
","
","""event"",""trial"",""time""
""fullscreenenter"",""1"",""8494""
","
","","null","","null","","fixation","2021-04-05 15:51:09.330","","","","","",""
"card-selection-trial","77","340651","0.0-25.0-1.3","A188","false","img/card_backs/set1/red.gif","img/card_backs/set1/green.gif","img/card_backs/set1/yellow.gif","img/card_backs/set1/purple.gif","img/card_backs/set2/orange.gif","img/card_backs/set2/gray.gif","img/card_backs/set2/blue.gif","img/card_backs/set2/pink.gif","""event"",""trial"",""time""
""fullscreenenter"",""1"",""8494""
","
","
","""event"",""trial"",""time""
""fullscreenenter"",""1"",""8494""
","
","","1325.080000096932","","","","real_trial","2021-04-05 15:51:12.667","img/card_backs/set1/yellow.gif","3","120","1","",""
"casino-fixation","78","341163","0.0-25.0-0.4","A188","false","img/card_backs/set1/red.gif","img/card_backs/set1/green.gif","img/card_backs/set1/yellow.gif","img/card_backs/set1/purple.gif","img/card_backs/set2/orange.gif","img/card_backs/set2/gray.gif","img/card_backs/set2/blue.gif","img/card_backs/set2/pink.gif","""event"",""trial"",""time""
""fullscreenenter"",""1"",""8494""
","
","
","""event"",""trial"",""time""
""fullscreenenter"",""1"",""8494""
","
","","null","","null","","fixation","2021-04-05 15:51:13.179","","","","","",""
"card-selection-trial","79","343661","0.0-25.0-1.4","A188","false","img/card_backs/set1/red.gif","img/card_backs/set1/green.gif","img/card_backs/set1/yellow.gif","img/card_backs/set1/purple.gif","img/card_backs/set2/orange.gif","img/card_backs/set2/gray.gif","img/card_backs/set2/blue.gif","img/card_backs/set2/pink.gif","""event"",""trial"",""time""
""fullscreenenter"",""1"",""8494""
","
","
","""event"",""trial"",""time""
""fullscreenenter"",""1"",""8494""
","
","","475.9100000374019","","","","real_trial","2021-04-05 15:51:15.677","img/card_backs/set1/yellow.gif","3","100","1","",""
"casino-fixation","80","344172","0.0-25.0-0.5","A188","false","img/card_backs/set1/red.gif","img/card_backs/set1/green.gif","img/card_backs/set1/yellow.gif","img/card_backs/set1/purple.gif","img/card_backs/set2/orange.gif","img/card_backs/set2/gray.gif","img/card_backs/set2/blue.gif","img/card_backs/set2/pink.gif","""event"",""trial"",""time""
""fullscreenenter"",""1"",""8494""
","
","
","""event"",""trial"",""time""
""fullscreenenter"",""1"",""8494""
","
","","null","","null","","fixation","2021-04-05 15:51:16.188","","","","","",""
"card-selection-trial","81","347433","0.0-25.0-1.5","A188","false","img/card_backs/set1/red.gif","img/card_backs/set1/green.gif","img/card_backs/set1/yellow.gif","img/card_backs/set1/purple.gif","img/card_backs/set2/orange.gif","img/card_backs/set2/gray.gif","img/card_backs/set2/blue.gif","img/card_backs/set2/pink.gif","""event"",""trial"",""time""
""fullscreenenter"",""1"",""8494""
","
","
","""event"",""trial"",""time""
""fullscreenenter"",""1"",""8494""
","
","","1249.4250000454485","","","","real_trial","2021-04-05 15:51:19.449","img/card_backs/set1/yellow.gif","1","110","1","",""
"casino-fixation","82","347939","0.0-25.0-0.6","A188","false","img/card_backs/set1/red.gif","img/card_backs/set1/green.gif","img/card_backs/set1/yellow.gif","img/card_backs/set1/purple.gif","img/card_backs/set2/orange.gif","img/card_backs/set2/gray.gif","img/card_backs/set2/blue.gif","img/card_backs/set2/pink.gif","""event"",""trial"",""time""
""fullscreenenter"",""1"",""8494""
","
","
","""event"",""trial"",""time""
""fullscreenenter"",""1"",""8494""
","
","","null","","null","","fixation","2021-04-05 15:51:19.955","","","","","",""
"card-selection-trial","83","351807","0.0-25.0-1.6","A188","false","img/card_backs/set1/red.gif","img/card_backs/set1/green.gif","img/card_backs/set1/yellow.gif","img/card_backs/set1/purple.gif","img/card_backs/set2/orange.gif","img/card_backs/set2/gray.gif","img/card_backs/set2/blue.gif","img/card_backs/set2/pink.gif","""event"",""trial"",""time""
""fullscreenenter"",""1"",""8494""
","
","
","""event"",""trial"",""time""
""fullscreenenter"",""1"",""8494""
","
","","1833.4399999585003","","","","real_trial","2021-04-05 15:51:23.824","img/card_backs/set1/red.gif","2","-230","1","",""
"casino-fixation","84","352321","0.0-25.0-0.7","A188","false","img/card_backs/set1/red.gif","img/card_backs/set1/green.gif","img/card_backs/set1/yellow.gif","img/card_backs/set1/purple.gif","img/card_backs/set2/orange.gif","img/card_backs/set2/gray.gif","img/card_backs/set2/blue.gif","img/card_backs/set2/pink.gif","""event"",""trial"",""time""
""fullscreenenter"",""1"",""8494""
","
","
","""event"",""trial"",""time""
""fullscreenenter"",""1"",""8494""
","
","","null","","null","","fixation","2021-04-05 15:51:24.338","","","","","",""
"card-selection-trial","85","355337","0.0-25.0-1.7","A188","false","img/card_backs/set1/red.gif","img/card_backs/set1/green.gif","img/card_backs/set1/yellow.gif","img/card_backs/set1/purple.gif","img/card_backs/set2/orange.gif","img/card_backs/set2/gray.gif","img/card_backs/set2/blue.gif","img/card_backs/set2/pink.gif","""event"",""trial"",""time""
""fullscreenenter"",""1"",""8494""
","
","
","""event"",""trial"",""time""
""fullscreenenter"",""1"",""8494""
","
","","998.9950000308454","","","","real_trial","2021-04-05 15:51:27.353","img/card_backs/set1/yellow.gif","3","110","1","",""
"casino-fixation","86","355838","0.0-25.0-0.8","A188","false","img/card_backs/set1/red.gif","img/card_backs/set1/green.gif","img/card_backs/set1/yellow.gif","img/card_backs/set1/purple.gif","img/card_backs/set2/orange.gif","img/card_backs/set2/gray.gif","img/card_backs/set2/blue.gif","img/card_backs/set2/pink.gif","""event"",""trial"",""time""
""fullscreenenter"",""1"",""8494""
","
","
","""event"",""trial"",""time""
""fullscreenenter"",""1"",""8494""
","
","","null","","null","","fixation","2021-04-05 15:51:27.854","","","","","",""
"card-selection-trial","87","359490","0.0-25.0-1.8","A188","false","img/card_backs/set1/red.gif","img/card_backs/set1/green.gif","img/card_backs/set1/yellow.gif","img/card_backs/set1/purple.gif","img/card_backs/set2/orange.gif","img/card_backs/set2/gray.gif","img/card_backs/set2/blue.gif","img/card_backs/set2/pink.gif","""event"",""trial"",""time""
""fullscreenenter"",""1"",""8494""
","
","
","""event"",""trial"",""time""
""fullscreenenter"",""1"",""8494""
","
","","1637.6450001262128","","","","real_trial","2021-04-05 15:51:31.506","img/card_backs/set1/green.gif","2","-230","1","",""
"casino-fixation","88","359995","0.0-25.0-0.9","A188","false","img/card_backs/set1/red.gif","img/card_backs/set1/green.gif","img/card_backs/set1/yellow.gif","img/card_backs/set1/purple.gif","img/card_backs/set2/orange.gif","img/card_backs/set2/gray.gif","img/card_backs/set2/blue.gif","img/card_backs/set2/pink.gif","""event"",""trial"",""time""
""fullscreenenter"",""1"",""8494""
","
","
","""event"",""trial"",""time""
""fullscreenenter"",""1"",""8494""
","
","","null","","null","","fixation","2021-04-05 15:51:32.011","","","","","",""
"card-selection-trial","89","363461","0.0-25.0-1.9","A188","false","img/card_backs/set1/red.gif","img/card_backs/set1/green.gif","img/card_backs/set1/yellow.gif","img/card_backs/set1/purple.gif","img/card_backs/set2/orange.gif","img/card_backs/set2/gray.gif","img/card_backs/set2/blue.gif","img/card_backs/set2/pink.gif","""event"",""trial"",""time""
""fullscreenenter"",""1"",""8494""
","
","
","""event"",""trial"",""time""
""fullscreenenter"",""1"",""8494""
","
","","1455.1800000481308","","","","real_trial","2021-04-05 15:51:35.477","img/card_backs/set1/yellow.gif","2","-60","1","",""
"casino-fixation","90","363966","0.0-25.0-0.10","A188","false","img/card_backs/set1/red.gif","img/card_backs/set1/green.gif","img/card_backs/set1/yellow.gif","img/card_backs/set1/purple.gif","img/card_backs/set2/orange.gif","img/card_backs/set2/gray.gif","img/card_backs/set2/blue.gif","img/card_backs/set2/pink.gif","""event"",""trial"",""time""
""fullscreenenter"",""1"",""8494""
","
","
","""event"",""trial"",""time""
""fullscreenenter"",""1"",""8494""
","
","","null","","null","","fixation","2021-04-05 15:51:35.982","","","","","",""
"card-selection-trial","91","367431","0.0-25.0-1.10","A188","false","img/card_backs/set1/red.gif","img/card_backs/set1/green.gif","img/card_backs/set1/yellow.gif","img/card_backs/set1/purple.gif","img/card_backs/set2/orange.gif","img/card_backs/set2/gray.gif","img/card_backs/set2/blue.gif","img/card_backs/set2/pink.gif","""event"",""trial"",""time""
""fullscreenenter"",""1"",""8494""
","
","
","""event"",""trial"",""time""
""fullscreenenter"",""1"",""8494""
","
","","1452.5299998931587","","","","real_trial","2021-04-05 15:51:39.447","img/card_backs/set1/green.gif","0","200","1","",""
"casino-fixation","92","367935","0.0-25.0-0.11","A188","false","img/card_backs/set1/red.gif","img/card_backs/set1/green.gif","img/card_backs/set1/yellow.gif","img/card_backs/set1/purple.gif","img/card_backs/set2/orange.gif","img/card_backs/set2/gray.gif","img/card_backs/set2/blue.gif","img/card_backs/set2/pink.gif","""event"",""trial"",""time""
""fullscreenenter"",""1"",""8494""
","
","
","""event"",""trial"",""time""
""fullscreenenter"",""1"",""8494""
","
","","null","","null","","fixation","2021-04-05 15:51:39.951","","","","","",""
"card-selection-trial","93","371247","0.0-25.0-1.11","A188","false","img/card_backs/set1/red.gif","img/card_backs/set1/green.gif","img/card_backs/set1/yellow.gif","img/card_backs/set1/purple.gif","img/card_backs/set2/orange.gif","img/card_backs/set2/gray.gif","img/card_backs/set2/blue.gif","img/card_backs/set2/pink.gif","""event"",""trial"",""time""
""fullscreenenter"",""1"",""8494""
","
","
","""event"",""trial"",""time""
""fullscreenenter"",""1"",""8494""
","
","","1292.9350000340492","","","","real_trial","2021-04-05 15:51:43.263","img/card_backs/set1/purple.gif","2","120","1","",""
"casino-fixation","94","371750","0.0-25.0-0.12","A188","false","img/card_backs/set1/red.gif","img/card_backs/set1/green.gif","img/card_backs/set1/yellow.gif","img/card_backs/set1/purple.gif","img/card_backs/set2/orange.gif","img/card_backs/set2/gray.gif","img/card_backs/set2/blue.gif","img/card_backs/set2/pink.gif","""event"",""trial"",""time""
""fullscreenenter"",""1"",""8494""
","
","
","""event"",""trial"",""time""
""fullscreenenter"",""1"",""8494""
","
","","null","","null","","fixation","2021-04-05 15:51:43.767","","","","","",""
"card-selection-trial","95","374199","0.0-25.0-1.12","A188","false","img/card_backs/set1/red.gif","img/card_backs/set1/green.gif","img/card_backs/set1/yellow.gif","img/card_backs/set1/purple.gif","img/card_backs/set2/orange.gif","img/card_backs/set2/gray.gif","img/card_backs/set2/blue.gif","img/card_backs/set2/pink.gif","""event"",""trial"",""time""
""fullscreenenter"",""1"",""8494""
","
","
","""event"",""trial"",""time""
""fullscreenenter"",""1"",""8494""
","
","","430.835000006482","","","","real_trial","2021-04-05 15:51:46.215","img/card_backs/set1/red.gif","3","-230","1","",""
"casino-fixation","96","374703","0.0-25.0-0.13","A188","false","img/card_backs/set1/red.gif","img/card_backs/set1/green.gif","img/card_backs/set1/yellow.gif","img/card_backs/set1/purple.gif","img/card_backs/set2/orange.gif","img/card_backs/set2/gray.gif","img/card_backs/set2/blue.gif","img/card_backs/set2/pink.gif","""event"",""trial"",""time""
""fullscreenenter"",""1"",""8494""
","
","
","""event"",""trial"",""time""
""fullscreenenter"",""1"",""8494""
","
","","null","","null","","fixation","2021-04-05 15:51:46.719","","","","","",""
"card-selection-trial","97","377180","0.0-25.0-1.13","A188","false","img/card_backs/set1/red.gif","img/card_backs/set1/green.gif","img/card_backs/set1/yellow.gif","img/card_backs/set1/purple.gif","img/card_backs/set2/orange.gif","img/card_backs/set2/gray.gif","img/card_backs/set2/blue.gif","img/card_backs/set2/pink.gif","""event"",""trial"",""time""
""fullscreenenter"",""1"",""8494""
","
","
","""event"",""trial"",""time""
""fullscreenenter"",""1"",""8494""
","
","","469.3750001024455","","","","real_trial","2021-04-05 15:51:49.197","img/card_backs/set1/red.gif","3","190","1","",""
"casino-fixation","98","377683","0.0-25.0-0.14","A188","false","img/card_backs/set1/red.gif","img/card_backs/set1/green.gif","img/card_backs/set1/yellow.gif","img/card_backs/set1/purple.gif","img/card_backs/set2/orange.gif","img/card_backs/set2/gray.gif","img/card_backs/set2/blue.gif","img/card_backs/set2/pink.gif","""event"",""trial"",""time""
""fullscreenenter"",""1"",""8494""
","
","
","""event"",""trial"",""time""
""fullscreenenter"",""1"",""8494""
","
","","null","","null","","fixation","2021-04-05 15:51:49.700","","","","","",""
"card-selection-trial","99","380953","0.0-25.0-1.14","A188","false","img/card_backs/set1/red.gif","img/card_backs/set1/green.gif","img/card_backs/set1/yellow.gif","img/card_backs/set1/purple.gif","img/card_backs/set2/orange.gif","img/card_backs/set2/gray.gif","img/card_backs/set2/blue.gif","img/card_backs/set2/pink.gif","""event"",""trial"",""time""
""fullscreenenter"",""1"",""8494""
","
","
","""event"",""trial"",""time""
""fullscreenenter"",""1"",""8494""
","
","","1248.5750000923872","","","","real_trial","2021-04-05 15:51:52.969","img/card_backs/set1/purple.gif","0","-50","1","",""
"casino-fixation","100","381459","0.0-25.0-0.15","A188","false","img/card_backs/set1/red.gif","img/card_backs/set1/green.gif","img/card_backs/set1/yellow.gif","img/card_backs/set1/purple.gif","img/card_backs/set2/orange.gif","img/card_backs/set2/gray.gif","img/card_backs/set2/blue.gif","img/card_backs/set2/pink.gif","""event"",""trial"",""time""
""fullscreenenter"",""1"",""8494""
","
","
","""event"",""trial"",""time""
""fullscreenenter"",""1"",""8494""
","
","","null","","null","","fixation","2021-04-05 15:51:53.475","","","","","",""
"card-selection-trial","101","384135","0.0-25.0-1.15","A188","false","img/card_backs/set1/red.gif","img/card_backs/set1/green.gif","img/card_backs/set1/yellow.gif","img/card_backs/set1/purple.gif","img/card_backs/set2/orange.gif","img/card_backs/set2/gray.gif","img/card_backs/set2/blue.gif","img/card_backs/set2/pink.gif","""event"",""trial"",""time""
""fullscreenenter"",""1"",""8494""
","
","
","""event"",""trial"",""time""
""fullscreenenter"",""1"",""8494""
","
","","664.7899998351932","","","","real_trial","2021-04-05 15:51:56.151","img/card_backs/set1/yellow.gif","0","110","1","",""
"casino-fixation","102","384637","0.0-25.0-0.16","A188","false","img/card_backs/set1/red.gif","img/card_backs/set1/green.gif","img/card_backs/set1/yellow.gif","img/card_backs/set1/purple.gif","img/card_backs/set2/orange.gif","img/card_backs/set2/gray.gif","img/card_backs/set2/blue.gif","img/card_backs/set2/pink.gif","""event"",""trial"",""time""
""fullscreenenter"",""1"",""8494""
","
","
","""event"",""trial"",""time""
""fullscreenenter"",""1"",""8494""
","
","","null","","null","","fixation","2021-04-05 15:51:56.653","","","","","",""
"card-selection-trial","103","387225","0.0-25.0-1.16","A188","false","img/card_backs/set1/red.gif","img/card_backs/set1/green.gif","img/card_backs/set1/yellow.gif","img/card_backs/set1/purple.gif","img/card_backs/set2/orange.gif","img/card_backs/set2/gray.gif","img/card_backs/set2/blue.gif","img/card_backs/set2/pink.gif","""event"",""trial"",""time""
""fullscreenenter"",""1"",""8494""
","
","
","""event"",""trial"",""time""
""fullscreenenter"",""1"",""8494""
","
","","569.9550001882017","","","","real_trial","2021-04-05 15:51:59.241","img/card_backs/set1/yellow.gif","2","-50","1","",""
"casino-fixation","104","387727","0.0-25.0-0.17","A188","false","img/card_backs/set1/red.gif","img/card_backs/set1/green.gif","img/card_backs/set1/yellow.gif","img/card_backs/set1/purple.gif","img/card_backs/set2/orange.gif","img/card_backs/set2/gray.gif","img/card_backs/set2/blue.gif","img/card_backs/set2/pink.gif","""event"",""trial"",""time""
""fullscreenenter"",""1"",""8494""
","
","
","""event"",""trial"",""time""
""fullscreenenter"",""1"",""8494""
","
","","null","","null","","fixation","2021-04-05 15:51:59.744","","","","","",""
"card-selection-trial","105","390195","0.0-25.0-1.17","A188","false","img/card_backs/set1/red.gif","img/card_backs/set1/green.gif","img/card_backs/set1/yellow.gif","img/card_backs/set1/purple.gif","img/card_backs/set2/orange.gif","img/card_backs/set2/gray.gif","img/card_backs/set2/blue.gif","img/card_backs/set2/pink.gif","""event"",""trial"",""time""
""fullscreenenter"",""1"",""8494""
","
","
","""event"",""trial"",""time""
""fullscreenenter"",""1"",""8494""
","
","","452.070000115782","","","","real_trial","2021-04-05 15:52:02.211","img/card_backs/set1/red.gif","3","180","1","",""
"casino-fixation","106","390700","0.0-25.0-0.18","A188","false","img/card_backs/set1/red.gif","img/card_backs/set1/green.gif","img/card_backs/set1/yellow.gif","img/card_backs/set1/purple.gif","img/card_backs/set2/orange.gif","img/card_backs/set2/gray.gif","img/card_backs/set2/blue.gif","img/card_backs/set2/pink.gif","""event"",""trial"",""time""
""fullscreenenter"",""1"",""8494""
","
","
","""event"",""trial"",""time""
""fullscreenenter"",""1"",""8494""
","
","","null","","null","","fixation","2021-04-05 15:52:02.716","","","","","",""
"card-selection-trial","107","393726","0.0-25.0-1.18","A188","false","img/card_backs/set1/red.gif","img/card_backs/set1/green.gif","img/card_backs/set1/yellow.gif","img/card_backs/set1/purple.gif","img/card_backs/set2/orange.gif","img/card_backs/set2/gray.gif","img/card_backs/set2/blue.gif","img/card_backs/set2/pink.gif","""event"",""trial"",""time""
""fullscreenenter"",""1"",""8494""
","
","
","""event"",""trial"",""time""
""fullscreenenter"",""1"",""8494""
","
","","1010.2550000883639","","","","real_trial","2021-04-05 15:52:05.742","img/card_backs/set1/purple.gif","1","-60","1","",""
"casino-fixation","108","394227","0.0-25.0-0.19","A188","false","img/card_backs/set1/red.gif","img/card_backs/set1/green.gif","img/card_backs/set1/yellow.gif","img/card_backs/set1/purple.gif","img/card_backs/set2/orange.gif","img/card_backs/set2/gray.gif","img/card_backs/set2/blue.gif","img/card_backs/set2/pink.gif","""event"",""trial"",""time""
""fullscreenenter"",""1"",""8494""
","
","
","""event"",""trial"",""time""
""fullscreenenter"",""1"",""8494""
","
","","null","","null","","fixation","2021-04-05 15:52:06.243","","","","","",""
"card-selection-trial","109","397384","0.0-25.0-1.19","A188","false","img/card_backs/set1/red.gif","img/card_backs/set1/green.gif","img/card_backs/set1/yellow.gif","img/card_backs/set1/purple.gif","img/card_backs/set2/orange.gif","img/card_backs/set2/gray.gif","img/card_backs/set2/blue.gif","img/card_backs/set2/pink.gif","""event"",""trial"",""time""
""fullscreenenter"",""1"",""8494""
","
","
","""event"",""trial"",""time""
""fullscreenenter"",""1"",""8494""
","
","","1148.2900001574308","","","","real_trial","2021-04-05 15:52:09.400","img/card_backs/set1/red.gif","3","190","1","",""
"casino-fixation","110","397888","0.0-25.0-0.20","A188","false","img/card_backs/set1/red.gif","img/card_backs/set1/green.gif","img/card_backs/set1/yellow.gif","img/card_backs/set1/purple.gif","img/card_backs/set2/orange.gif","img/card_backs/set2/gray.gif","img/card_backs/set2/blue.gif","img/card_backs/set2/pink.gif","""event"",""trial"",""time""
""fullscreenenter"",""1"",""8494""
","
","
","""event"",""trial"",""time""
""fullscreenenter"",""1"",""8494""
","
","","null","","null","","fixation","2021-04-05 15:52:09.904","","","","","",""
"card-selection-trial","111","401079","0.0-25.0-1.20","A188","false","img/card_backs/set1/red.gif","img/card_backs/set1/green.gif","img/card_backs/set1/yellow.gif","img/card_backs/set1/purple.gif","img/card_backs/set2/orange.gif","img/card_backs/set2/gray.gif","img/card_backs/set2/blue.gif","img/card_backs/set2/pink.gif","""event"",""trial"",""time""
""fullscreenenter"",""1"",""8494""
","
","
","""event"",""trial"",""time""
""fullscreenenter"",""1"",""8494""
","
","","1179.4950000476092","","","","real_trial","2021-04-05 15:52:13.095","img/card_backs/set1/yellow.gif","2","-50","1","",""
"casino-fixation","112","401582","0.0-25.0-0.21","A188","false","img/card_backs/set1/red.gif","img/card_backs/set1/green.gif","img/card_backs/set1/yellow.gif","img/card_backs/set1/purple.gif","img/card_backs/set2/orange.gif","img/card_backs/set2/gray.gif","img/card_backs/set2/blue.gif","img/card_backs/set2/pink.gif","""event"",""trial"",""time""
""fullscreenenter"",""1"",""8494""
","
","
","""event"",""trial"",""time""
""fullscreenenter"",""1"",""8494""
","
","","null","","null","","fixation","2021-04-05 15:52:13.598","","","","","",""
"card-selection-trial","113","404942","0.0-25.0-1.21","A188","false","img/card_backs/set1/red.gif","img/card_backs/set1/green.gif","img/card_backs/set1/yellow.gif","img/card_backs/set1/purple.gif","img/card_backs/set2/orange.gif","img/card_backs/set2/gray.gif","img/card_backs/set2/blue.gif","img/card_backs/set2/pink.gif","""event"",""trial"",""time""
""fullscreenenter"",""1"",""8494""
","
","
","""event"",""trial"",""time""
""fullscreenenter"",""1"",""8494""
","
","","1344.529999885708","","","","real_trial","2021-04-05 15:52:16.958","img/card_backs/set1/green.gif","1","-230","1","",""
"casino-fixation","114","405444","0.0-25.0-0.22","A188","false","img/card_backs/set1/red.gif","img/card_backs/set1/green.gif","img/card_backs/set1/yellow.gif","img/card_backs/set1/purple.gif","img/card_backs/set2/orange.gif","img/card_backs/set2/gray.gif","img/card_backs/set2/blue.gif","img/card_backs/set2/pink.gif","""event"",""trial"",""time""
""fullscreenenter"",""1"",""8494""
","
","
","""event"",""trial"",""time""
""fullscreenenter"",""1"",""8494""
","
","","null","","null","","fixation","2021-04-05 15:52:17.461","","","","","",""
"card-selection-trial","115","408026","0.0-25.0-1.22","A188","false","img/card_backs/set1/red.gif","img/card_backs/set1/green.gif","img/card_backs/set1/yellow.gif","img/card_backs/set1/purple.gif","img/card_backs/set2/orange.gif","img/card_backs/set2/gray.gif","img/card_backs/set2/blue.gif","img/card_backs/set2/pink.gif","""event"",""trial"",""time""
""fullscreenenter"",""1"",""8494""
","
","
","""event"",""trial"",""time""
""fullscreenenter"",""1"",""8494""
","
","","567.2349999658763","","","","real_trial","2021-04-05 15:52:20.042","img/card_backs/set1/yellow.gif","0","-70","1","",""
"casino-fixation","116","408529","0.0-25.0-0.23","A188","false","img/card_backs/set1/red.gif","img/card_backs/set1/green.gif","img/card_backs/set1/yellow.gif","img/card_backs/set1/purple.gif","img/card_backs/set2/orange.gif","img/card_backs/set2/gray.gif","img/card_backs/set2/blue.gif","img/card_backs/set2/pink.gif","""event"",""trial"",""time""
""fullscreenenter"",""1"",""8494""
","
","
","""event"",""trial"",""time""
""fullscreenenter"",""1"",""8494""
","
","","null","","null","","fixation","2021-04-05 15:52:20.546","","","","","",""
"card-selection-trial","117","410930","0.0-25.0-1.23","A188","false","img/card_backs/set1/red.gif","img/card_backs/set1/green.gif","img/card_backs/set1/yellow.gif","img/card_backs/set1/purple.gif","img/card_backs/set2/orange.gif","img/card_backs/set2/gray.gif","img/card_backs/set2/blue.gif","img/card_backs/set2/pink.gif","""event"",""trial"",""time""
""fullscreenenter"",""1"",""8494""
","
","
","""event"",""trial"",""time""
""fullscreenenter"",""1"",""8494""
","
","","388.3650000207126","","","","real_trial","2021-04-05 15:52:22.946","img/card_backs/set1/purple.gif","3","100","1","",""
"casino-fixation","118","411432","0.0-25.0-0.24","A188","false","img/card_backs/set1/red.gif","img/card_backs/set1/green.gif","img/card_backs/set1/yellow.gif","img/card_backs/set1/purple.gif","img/card_backs/set2/orange.gif","img/card_backs/set2/gray.gif","img/card_backs/set2/blue.gif","img/card_backs/set2/pink.gif","""event"",""trial"",""time""
""fullscreenenter"",""1"",""8494""
","
","
","""event"",""trial"",""time""
""fullscreenenter"",""1"",""8494""
","
","","null","","null","","fixation","2021-04-05 15:52:23.448","","","","","",""
"card-selection-trial","119","414046","0.0-25.0-1.24","A188","false","img/card_backs/set1/red.gif","img/card_backs/set1/green.gif","img/card_backs/set1/yellow.gif","img/card_backs/set1/purple.gif","img/card_backs/set2/orange.gif","img/card_backs/set2/gray.gif","img/card_backs/set2/blue.gif","img/card_backs/set2/pink.gif","""event"",""trial"",""time""
""fullscreenenter"",""1"",""8494""
","
","
","""event"",""trial"",""time""
""fullscreenenter"",""1"",""8494""
","
","","603.7649998907","","","","real_trial","2021-04-05 15:52:26.062","img/card_backs/set1/purple.gif","0","-60","1","",""
"casino-fixation","120","414549","0.0-25.0-0.25","A188","false","img/card_backs/set1/red.gif","img/card_backs/set1/green.gif","img/card_backs/set1/yellow.gif","img/card_backs/set1/purple.gif","img/card_backs/set2/orange.gif","img/card_backs/set2/gray.gif","img/card_backs/set2/blue.gif","img/card_backs/set2/pink.gif","""event"",""trial"",""time""
""fullscreenenter"",""1"",""8494""
","
","
","""event"",""trial"",""time""
""fullscreenenter"",""1"",""8494""
","
","","null","","null","","fixation","2021-04-05 15:52:26.565","","","","","",""
"card-selection-trial","121","416967","0.0-25.0-1.25","A188","false","img/card_backs/set1/red.gif","img/card_backs/set1/green.gif","img/card_backs/set1/yellow.gif","img/card_backs/set1/purple.gif","img/card_backs/set2/orange.gif","img/card_backs/set2/gray.gif","img/card_backs/set2/blue.gif","img/card_backs/set2/pink.gif","""event"",""trial"",""time""
""fullscreenenter"",""1"",""8494""
","
","
","""event"",""trial"",""time""
""fullscreenenter"",""1"",""8494""
","
","","399.2749999742955","","","","real_trial","2021-04-05 15:52:28.983","img/card_backs/set1/yellow.gif","3","120","1","",""
"casino-fixation","122","417470","0.0-25.0-0.26","A188","false","img/card_backs/set1/red.gif","img/card_backs/set1/green.gif","img/card_backs/set1/yellow.gif","img/card_backs/set1/purple.gif","img/card_backs/set2/orange.gif","img/card_backs/set2/gray.gif","img/card_backs/set2/blue.gif","img/card_backs/set2/pink.gif","""event"",""trial"",""time""
""fullscreenenter"",""1"",""8494""
","
","
","""event"",""trial"",""time""
""fullscreenenter"",""1"",""8494""
","
","","null","","null","","fixation","2021-04-05 15:52:29.486","","","","","",""
"card-selection-trial","123","419813","0.0-25.0-1.26","A188","false","img/card_backs/set1/red.gif","img/card_backs/set1/green.gif","img/card_backs/set1/yellow.gif","img/card_backs/set1/purple.gif","img/card_backs/set2/orange.gif","img/card_backs/set2/gray.gif","img/card_backs/set2/blue.gif","img/card_backs/set2/pink.gif","""event"",""trial"",""time""
""fullscreenenter"",""1"",""8494""
","
","
","""event"",""trial"",""time""
""fullscreenenter"",""1"",""8494""
","
","","327.19999994151294","","","","real_trial","2021-04-05 15:52:31.829","img/card_backs/set1/red.gif","1","200","1","",""
"casino-fixation","124","420314","0.0-25.0-0.27","A188","false","img/card_backs/set1/red.gif","img/card_backs/set1/green.gif","img/card_backs/set1/yellow.gif","img/card_backs/set1/purple.gif","img/card_backs/set2/orange.gif","img/card_backs/set2/gray.gif","img/card_backs/set2/blue.gif","img/card_backs/set2/pink.gif","""event"",""trial"",""time""
""fullscreenenter"",""1"",""8494""
","
","
","""event"",""trial"",""time""
""fullscreenenter"",""1"",""8494""
","
","","null","","null","","fixation","2021-04-05 15:52:32.330","","","","","",""
"card-selection-trial","125","422599","0.0-25.0-1.27","A188","false","img/card_backs/set1/red.gif","img/card_backs/set1/green.gif","img/card_backs/set1/yellow.gif","img/card_backs/set1/purple.gif","img/card_backs/set2/orange.gif","img/card_backs/set2/gray.gif","img/card_backs/set2/blue.gif","img/card_backs/set2/pink.gif","""event"",""trial"",""time""
""fullscreenenter"",""1"",""8494""
","
","
","""event"",""trial"",""time""
""fullscreenenter"",""1"",""8494""
","
","","269.46499990299344","","","","real_trial","2021-04-05 15:52:34.615","img/card_backs/set1/purple.gif","3","110","1","",""
"casino-fixation","126","423101","0.0-25.0-0.28","A188","false","img/card_backs/set1/red.gif","img/card_backs/set1/green.gif","img/card_backs/set1/yellow.gif","img/card_backs/set1/purple.gif","img/card_backs/set2/orange.gif","img/card_backs/set2/gray.gif","img/card_backs/set2/blue.gif","img/card_backs/set2/pink.gif","""event"",""trial"",""time""
""fullscreenenter"",""1"",""8494""
","
","
","""event"",""trial"",""time""
""fullscreenenter"",""1"",""8494""
","
","","null","","null","","fixation","2021-04-05 15:52:35.118","","","","","",""
"card-selection-trial","127","425386","0.0-25.0-1.28","A188","false","img/card_backs/set1/red.gif","img/card_backs/set1/green.gif","img/card_backs/set1/yellow.gif","img/card_backs/set1/purple.gif","img/card_backs/set2/orange.gif","img/card_backs/set2/gray.gif","img/card_backs/set2/blue.gif","img/card_backs/set2/pink.gif","""event"",""trial"",""time""
""fullscreenenter"",""1"",""8494""
","
","
","""event"",""trial"",""time""
""fullscreenenter"",""1"",""8494""
","
","","268.41000001877546","","","","real_trial","2021-04-05 15:52:37.402","img/card_backs/set1/yellow.gif","0","110","1","",""
"casino-fixation","128","425888","0.0-25.0-0.29","A188","false","img/card_backs/set1/red.gif","img/card_backs/set1/green.gif","img/card_backs/set1/yellow.gif","img/card_backs/set1/purple.gif","img/card_backs/set2/orange.gif","img/card_backs/set2/gray.gif","img/card_backs/set2/blue.gif","img/card_backs/set2/pink.gif","""event"",""trial"",""time""
""fullscreenenter"",""1"",""8494""
","
","
","""event"",""trial"",""time""
""fullscreenenter"",""1"",""8494""
","
","","null","","null","","fixation","2021-04-05 15:52:37.904","","","","","",""
"card-selection-trial","129","428191","0.0-25.0-1.29","A188","false","img/card_backs/set1/red.gif","img/card_backs/set1/green.gif","img/card_backs/set1/yellow.gif","img/card_backs/set1/purple.gif","img/card_backs/set2/orange.gif","img/card_backs/set2/gray.gif","img/card_backs/set2/blue.gif","img/card_backs/set2/pink.gif","""event"",""trial"",""time""
""fullscreenenter"",""1"",""8494""
","
","
","""event"",""trial"",""time""
""fullscreenenter"",""1"",""8494""
","
","","287.7800001297146","","","","real_trial","2021-04-05 15:52:40.207","img/card_backs/set1/red.gif","3","-240","1","",""
"casino-fixation","130","428695","0.0-25.0-0.30","A188","false","img/card_backs/set1/red.gif","img/card_backs/set1/green.gif","img/card_backs/set1/yellow.gif","img/card_backs/set1/purple.gif","img/card_backs/set2/orange.gif","img/card_backs/set2/gray.gif","img/card_backs/set2/blue.gif","img/card_backs/set2/pink.gif","""event"",""trial"",""time""
""fullscreenenter"",""1"",""8494""
","
","
","""event"",""trial"",""time""
""fullscreenenter"",""1"",""8494""
","
","","null","","null","","fixation","2021-04-05 15:52:40.711","","","","","",""
"card-selection-trial","131","430990","0.0-25.0-1.30","A188","false","img/card_backs/set1/red.gif","img/card_backs/set1/green.gif","img/card_backs/set1/yellow.gif","img/card_backs/set1/purple.gif","img/card_backs/set2/orange.gif","img/card_backs/set2/gray.gif","img/card_backs/set2/blue.gif","img/card_backs/set2/pink.gif","""event"",""trial"",""time""
""fullscreenenter"",""1"",""8494""
","
","
","""event"",""trial"",""time""
""fullscreenenter"",""1"",""8494""
","
","","283.44999998807907","","","","real_trial","2021-04-05 15:52:43.006","img/card_backs/set1/purple.gif","1","-70","1","",""
"casino-fixation","132","431492","0.0-25.0-0.31","A188","false","img/card_backs/set1/red.gif","img/card_backs/set1/green.gif","img/card_backs/set1/yellow.gif","img/card_backs/set1/purple.gif","img/card_backs/set2/orange.gif","img/card_backs/set2/gray.gif","img/card_backs/set2/blue.gif","img/card_backs/set2/pink.gif","""event"",""trial"",""time""
""fullscreenenter"",""1"",""8494""
","
","
","""event"",""trial"",""time""
""fullscreenenter"",""1"",""8494""
","
","","null","","null","","fixation","2021-04-05 15:52:43.509","","","","","",""
"card-selection-trial","133","433785","0.0-25.0-1.31","A188","false","img/card_backs/set1/red.gif","img/card_backs/set1/green.gif","img/card_backs/set1/yellow.gif","img/card_backs/set1/purple.gif","img/card_backs/set2/orange.gif","img/card_backs/set2/gray.gif","img/card_backs/set2/blue.gif","img/card_backs/set2/pink.gif","""event"",""trial"",""time""
""fullscreenenter"",""1"",""8494""
","
","
","""event"",""trial"",""time""
""fullscreenenter"",""1"",""8494""
","
","","271.9149999320507","","","","real_trial","2021-04-05 15:52:45.801","img/card_backs/set1/purple.gif","2","110","1","",""
"casino-fixation","134","434288","0.0-25.0-0.32","A188","false","img/card_backs/set1/red.gif","img/card_backs/set1/green.gif","img/card_backs/set1/yellow.gif","img/card_backs/set1/purple.gif","img/card_backs/set2/orange.gif","img/card_backs/set2/gray.gif","img/card_backs/set2/blue.gif","img/card_backs/set2/pink.gif","""event"",""trial"",""time""
""fullscreenenter"",""1"",""8494""
","
","
","""event"",""trial"",""time""
""fullscreenenter"",""1"",""8494""
","
","","null","","null","","fixation","2021-04-05 15:52:46.305","","","","","",""
"card-selection-trial","135","436502","0.0-25.0-1.32","A188","false","img/card_backs/set1/red.gif","img/card_backs/set1/green.gif","img/card_backs/set1/yellow.gif","img/card_backs/set1/purple.gif","img/card_backs/set2/orange.gif","img/card_backs/set2/gray.gif","img/card_backs/set2/blue.gif","img/card_backs/set2/pink.gif","""event"",""trial"",""time""
""fullscreenenter"",""1"",""8494""
","
","
","""event"",""trial"",""time""
""fullscreenenter"",""1"",""8494""
","
","","196.27000018954277","","","","real_trial","2021-04-05 15:52:48.519","img/card_backs/set1/yellow.gif","3","100","1","",""
"casino-fixation","136","437005","0.0-25.0-0.33","A188","false","img/card_backs/set1/red.gif","img/card_backs/set1/green.gif","img/card_backs/set1/yellow.gif","img/card_backs/set1/purple.gif","img/card_backs/set2/orange.gif","img/card_backs/set2/gray.gif","img/card_backs/set2/blue.gif","img/card_backs/set2/pink.gif","""event"",""trial"",""time""
""fullscreenenter"",""1"",""8494""
","
","
","""event"",""trial"",""time""
""fullscreenenter"",""1"",""8494""
","
","","null","","null","","fixation","2021-04-05 15:52:49.022","","","","","",""
"card-selection-trial","137","439043","0.0-25.0-1.33","A188","false","img/card_backs/set1/red.gif","img/card_backs/set1/green.gif","img/card_backs/set1/yellow.gif","img/card_backs/set1/purple.gif","img/card_backs/set2/orange.gif","img/card_backs/set2/gray.gif","img/card_backs/set2/blue.gif","img/card_backs/set2/pink.gif","""event"",""trial"",""time""
""fullscreenenter"",""1"",""8494""
","
","
","""event"",""trial"",""time""
""fullscreenenter"",""1"",""8494""
","
","","21.084999898448586","","","","real_trial","2021-04-05 15:52:51.059","img/card_backs/set1/red.gif","0","200","1","",""
"casino-fixation","138","439545","0.0-25.0-0.34","A188","false","img/card_backs/set1/red.gif","img/card_backs/set1/green.gif","img/card_backs/set1/yellow.gif","img/card_backs/set1/purple.gif","img/card_backs/set2/orange.gif","img/card_backs/set2/gray.gif","img/card_backs/set2/blue.gif","img/card_backs/set2/pink.gif","""event"",""trial"",""time""
""fullscreenenter"",""1"",""8494""
","
","
","""event"",""trial"",""time""
""fullscreenenter"",""1"",""8494""
","
","","null","","null","","fixation","2021-04-05 15:52:51.562","","","","","",""
"card-selection-trial","139","442268","0.0-25.0-1.34","A188","false","img/card_backs/set1/red.gif","img/card_backs/set1/green.gif","img/card_backs/set1/yellow.gif","img/card_backs/set1/purple.gif","img/card_backs/set2/orange.gif","img/card_backs/set2/gray.gif","img/card_backs/set2/blue.gif","img/card_backs/set2/pink.gif","""event"",""trial"",""time""
""fullscreenenter"",""1"",""8494""
","
","
","""event"",""trial"",""time""
""fullscreenenter"",""1"",""8494""
","
","","703.1849999912083","","","","real_trial","2021-04-05 15:52:54.284","img/card_backs/set1/green.gif","1","200","1","",""
"casino-fixation","140","442772","0.0-25.0-0.35","A188","false","img/card_backs/set1/red.gif","img/card_backs/set1/green.gif","img/card_backs/set1/yellow.gif","img/card_backs/set1/purple.gif","img/card_backs/set2/orange.gif","img/card_backs/set2/gray.gif","img/card_backs/set2/blue.gif","img/card_backs/set2/pink.gif","""event"",""trial"",""time""
""fullscreenenter"",""1"",""8494""
","
","
","""event"",""trial"",""time""
""fullscreenenter"",""1"",""8494""
","
","","null","","null","","fixation","2021-04-05 15:52:54.788","","","","","",""
"card-selection-trial","141","445305","0.0-25.0-1.35","A188","false","img/card_backs/set1/red.gif","img/card_backs/set1/green.gif","img/card_backs/set1/yellow.gif","img/card_backs/set1/purple.gif","img/card_backs/set2/orange.gif","img/card_backs/set2/gray.gif","img/card_backs/set2/blue.gif","img/card_backs/set2/pink.gif","""event"",""trial"",""time""
""fullscreenenter"",""1"",""8494""
","
","
","""event"",""trial"",""time""
""fullscreenenter"",""1"",""8494""
","
","","521.8500001356006","","","","real_trial","2021-04-05 15:52:57.321","img/card_backs/set1/green.gif","3","180","1","",""
"casino-fixation","142","445807","0.0-25.0-0.36","A188","false","img/card_backs/set1/red.gif","img/card_backs/set1/green.gif","img/card_backs/set1/yellow.gif","img/card_backs/set1/purple.gif","img/card_backs/set2/orange.gif","img/card_backs/set2/gray.gif","img/card_backs/set2/blue.gif","img/card_backs/set2/pink.gif","""event"",""trial"",""time""
""fullscreenenter"",""1"",""8494""
","
","
","""event"",""trial"",""time""
""fullscreenenter"",""1"",""8494""
","
","","null","","null","","fixation","2021-04-05 15:52:57.823","","","","","",""
"card-selection-trial","143","448310","0.0-25.0-1.36","A188","false","img/card_backs/set1/red.gif","img/card_backs/set1/green.gif","img/card_backs/set1/yellow.gif","img/card_backs/set1/purple.gif","img/card_backs/set2/orange.gif","img/card_backs/set2/gray.gif","img/card_backs/set2/blue.gif","img/card_backs/set2/pink.gif","""event"",""trial"",""time""
""fullscreenenter"",""1"",""8494""
","
","
","""event"",""trial"",""time""
""fullscreenenter"",""1"",""8494""
","
","","489.47999998927116","","","","real_trial","2021-04-05 15:53:00.326","img/card_backs/set1/green.gif","1","-250","1","",""
"casino-fixation","144","448813","0.0-25.0-0.37","A188","false","img/card_backs/set1/red.gif","img/card_backs/set1/green.gif","img/card_backs/set1/yellow.gif","img/card_backs/set1/purple.gif","img/card_backs/set2/orange.gif","img/card_backs/set2/gray.gif","img/card_backs/set2/blue.gif","img/card_backs/set2/pink.gif","""event"",""trial"",""time""
""fullscreenenter"",""1"",""8494""
","
","
","""event"",""trial"",""time""
""fullscreenenter"",""1"",""8494""
","
","","null","","null","","fixation","2021-04-05 15:53:00.829","","","","","",""
"card-selection-trial","145","451129","0.0-25.0-1.37","A188","false","img/card_backs/set1/red.gif","img/card_backs/set1/green.gif","img/card_backs/set1/yellow.gif","img/card_backs/set1/purple.gif","img/card_backs/set2/orange.gif","img/card_backs/set2/gray.gif","img/card_backs/set2/blue.gif","img/card_backs/set2/pink.gif","""event"",""trial"",""time""
""fullscreenenter"",""1"",""8494""
","
","
","""event"",""trial"",""time""
""fullscreenenter"",""1"",""8494""
","
","","302.3850000463426","","","","real_trial","2021-04-05 15:53:03.145","img/card_backs/set1/green.gif","2","-250","1","",""
"casino-fixation","146","451637","0.0-25.0-0.38","A188","false","img/card_backs/set1/red.gif","img/card_backs/set1/green.gif","img/card_backs/set1/yellow.gif","img/card_backs/set1/purple.gif","img/card_backs/set2/orange.gif","img/card_backs/set2/gray.gif","img/card_backs/set2/blue.gif","img/card_backs/set2/pink.gif","""event"",""trial"",""time""
""fullscreenenter"",""1"",""8494""
","
","
","""event"",""trial"",""time""
""fullscreenenter"",""1"",""8494""
","
","","null","","null","","fixation","2021-04-05 15:53:03.653","","","","","",""
"card-selection-trial","147","453934","0.0-25.0-1.38","A188","false","img/card_backs/set1/red.gif","img/card_backs/set1/green.gif","img/card_backs/set1/yellow.gif","img/card_backs/set1/purple.gif","img/card_backs/set2/orange.gif","img/card_backs/set2/gray.gif","img/card_backs/set2/blue.gif","img/card_backs/set2/pink.gif","""event"",""trial"",""time""
""fullscreenenter"",""1"",""8494""
","
","
","""event"",""trial"",""time""
""fullscreenenter"",""1"",""8494""
","
","","278.71500002220273","","","","real_trial","2021-04-05 15:53:05.950","img/card_backs/set1/yellow.gif","3","110","1","",""
"casino-fixation","148","454438","0.0-25.0-0.39","A188","false","img/card_backs/set1/red.gif","img/card_backs/set1/green.gif","img/card_backs/set1/yellow.gif","img/card_backs/set1/purple.gif","img/card_backs/set2/orange.gif","img/card_backs/set2/gray.gif","img/card_backs/set2/blue.gif","img/card_backs/set2/pink.gif","""event"",""trial"",""time""
""fullscreenenter"",""1"",""8494""
","
","
","""event"",""trial"",""time""
""fullscreenenter"",""1"",""8494""
","
","","null","","null","","fixation","2021-04-05 15:53:06.455","","","","","",""
"card-selection-trial","149","456812","0.0-25.0-1.39","A188","false","img/card_backs/set1/red.gif","img/card_backs/set1/green.gif","img/card_backs/set1/yellow.gif","img/card_backs/set1/purple.gif","img/card_backs/set2/orange.gif","img/card_backs/set2/gray.gif","img/card_backs/set2/blue.gif","img/card_backs/set2/pink.gif","""event"",""trial"",""time""
""fullscreenenter"",""1"",""8494""
","
","
","""event"",""trial"",""time""
""fullscreenenter"",""1"",""8494""
","
","","360.4300001170486","","","","real_trial","2021-04-05 15:53:08.829","img/card_backs/set1/green.gif","0","-230","1","",""
"casino-fixation","150","457315","0.0-25.0-0.40","A188","false","img/card_backs/set1/red.gif","img/card_backs/set1/green.gif","img/card_backs/set1/yellow.gif","img/card_backs/set1/purple.gif","img/card_backs/set2/orange.gif","img/card_backs/set2/gray.gif","img/card_backs/set2/blue.gif","img/card_backs/set2/pink.gif","""event"",""trial"",""time""
""fullscreenenter"",""1"",""8494""
","
","
","""event"",""trial"",""time""
""fullscreenenter"",""1"",""8494""
","
","","null","","null","","fixation","2021-04-05 15:53:09.331","","","","","",""
"card-selection-trial","151","459629","0.0-25.0-1.40","A188","false","img/card_backs/set1/red.gif","img/card_backs/set1/green.gif","img/card_backs/set1/yellow.gif","img/card_backs/set1/purple.gif","img/card_backs/set2/orange.gif","img/card_backs/set2/gray.gif","img/card_backs/set2/blue.gif","img/card_backs/set2/pink.gif","""event"",""trial"",""time""
""fullscreenenter"",""1"",""8494""
","
","
","""event"",""trial"",""time""
""fullscreenenter"",""1"",""8494""
","
","","296.65499995462596","","","","real_trial","2021-04-05 15:53:11.645","img/card_backs/set1/purple.gif","2","110","1","",""
"casino-fixation","152","460132","0.0-25.0-0.41","A188","false","img/card_backs/set1/red.gif","img/card_backs/set1/green.gif","img/card_backs/set1/yellow.gif","img/card_backs/set1/purple.gif","img/card_backs/set2/orange.gif","img/card_backs/set2/gray.gif","img/card_backs/set2/blue.gif","img/card_backs/set2/pink.gif","""event"",""trial"",""time""
""fullscreenenter"",""1"",""8494""
","
","
","""event"",""trial"",""time""
""fullscreenenter"",""1"",""8494""
","
","","null","","null","","fixation","2021-04-05 15:53:12.149","","","","","",""
"card-selection-trial","153","462592","0.0-25.0-1.41","A188","false","img/card_backs/set1/red.gif","img/card_backs/set1/green.gif","img/card_backs/set1/yellow.gif","img/card_backs/set1/purple.gif","img/card_backs/set2/orange.gif","img/card_backs/set2/gray.gif","img/card_backs/set2/blue.gif","img/card_backs/set2/pink.gif","""event"",""trial"",""time""
""fullscreenenter"",""1"",""8494""
","
","
","""event"",""trial"",""time""
""fullscreenenter"",""1"",""8494""
","
","","444.2149999085814","","","","real_trial","2021-04-05 15:53:14.608","img/card_backs/set1/purple.gif","1","-60","1","",""
"casino-fixation","154","463096","0.0-25.0-0.42","A188","false","img/card_backs/set1/red.gif","img/card_backs/set1/green.gif","img/card_backs/set1/yellow.gif","img/card_backs/set1/purple.gif","img/card_backs/set2/orange.gif","img/card_backs/set2/gray.gif","img/card_backs/set2/blue.gif","img/card_backs/set2/pink.gif","""event"",""trial"",""time""
""fullscreenenter"",""1"",""8494""
","
","
","""event"",""trial"",""time""
""fullscreenenter"",""1"",""8494""
","
","","null","","null","","fixation","2021-04-05 15:53:15.113","","","","","",""
"card-selection-trial","155","465364","0.0-25.0-1.42","A188","false","img/card_backs/set1/red.gif","img/card_backs/set1/green.gif","img/card_backs/set1/yellow.gif","img/card_backs/set1/purple.gif","img/card_backs/set2/orange.gif","img/card_backs/set2/gray.gif","img/card_backs/set2/blue.gif","img/card_backs/set2/pink.gif","""event"",""trial"",""time""
""fullscreenenter"",""1"",""8494""
","
","
","""event"",""trial"",""time""
""fullscreenenter"",""1"",""8494""
","
","","246.85999983921647","","","","real_trial","2021-04-05 15:53:17.380","img/card_backs/set1/green.gif","3","180","1","",""
"casino-fixation","156","465866","0.0-25.0-0.43","A188","false","img/card_backs/set1/red.gif","img/card_backs/set1/green.gif","img/card_backs/set1/yellow.gif","img/card_backs/set1/purple.gif","img/card_backs/set2/orange.gif","img/card_backs/set2/gray.gif","img/card_backs/set2/blue.gif","img/card_backs/set2/pink.gif","""event"",""trial"",""time""
""fullscreenenter"",""1"",""8494""
","
","
","""event"",""trial"",""time""
""fullscreenenter"",""1"",""8494""
","
","","null","","null","","fixation","2021-04-05 15:53:17.882","","","","","",""
"card-selection-trial","157","468206","0.0-25.0-1.43","A188","false","img/card_backs/set1/red.gif","img/card_backs/set1/green.gif","img/card_backs/set1/yellow.gif","img/card_backs/set1/purple.gif","img/card_backs/set2/orange.gif","img/card_backs/set2/gray.gif","img/card_backs/set2/blue.gif","img/card_backs/set2/pink.gif","""event"",""trial"",""time""
""fullscreenenter"",""1"",""8494""
","
","
","""event"",""trial"",""time""
""fullscreenenter"",""1"",""8494""
","
","","329.8300001770258","","","","real_trial","2021-04-05 15:53:20.222","img/card_backs/set1/yellow.gif","0","-70","1","",""
"casino-fixation","158","468711","0.0-25.0-0.44","A188","false","img/card_backs/set1/red.gif","img/card_backs/set1/green.gif","img/card_backs/set1/yellow.gif","img/card_backs/set1/purple.gif","img/card_backs/set2/orange.gif","img/card_backs/set2/gray.gif","img/card_backs/set2/blue.gif","img/card_backs/set2/pink.gif","""event"",""trial"",""time""
""fullscreenenter"",""1"",""8494""
","
","
","""event"",""trial"",""time""
""fullscreenenter"",""1"",""8494""
","
","","null","","null","","fixation","2021-04-05 15:53:20.727","","","","","",""
"card-selection-trial","159","471032","0.0-25.0-1.44","A188","false","img/card_backs/set1/red.gif","img/card_backs/set1/green.gif","img/card_backs/set1/yellow.gif","img/card_backs/set1/purple.gif","img/card_backs/set2/orange.gif","img/card_backs/set2/gray.gif","img/card_backs/set2/blue.gif","img/card_backs/set2/pink.gif","""event"",""trial"",""time""
""fullscreenenter"",""1"",""8494""
","
","
","""event"",""trial"",""time""
""fullscreenenter"",""1"",""8494""
","
","","295.6099999137223","","","","real_trial","2021-04-05 15:53:23.049","img/card_backs/set1/yellow.gif","2","-50","1","",""
"casino-fixation","160","471536","0.0-25.0-0.45","A188","false","img/card_backs/set1/red.gif","img/card_backs/set1/green.gif","img/card_backs/set1/yellow.gif","img/card_backs/set1/purple.gif","img/card_backs/set2/orange.gif","img/card_backs/set2/gray.gif","img/card_backs/set2/blue.gif","img/card_backs/set2/pink.gif","""event"",""trial"",""time""
""fullscreenenter"",""1"",""8494""
","
","
","""event"",""trial"",""time""
""fullscreenenter"",""1"",""8494""
","
","","null","","null","","fixation","2021-04-05 15:53:23.552","","","","","",""
"card-selection-trial","161","473813","0.0-25.0-1.45","A188","false","img/card_backs/set1/red.gif","img/card_backs/set1/green.gif","img/card_backs/set1/yellow.gif","img/card_backs/set1/purple.gif","img/card_backs/set2/orange.gif","img/card_backs/set2/gray.gif","img/card_backs/set2/blue.gif","img/card_backs/set2/pink.gif","""event"",""trial"",""time""
""fullscreenenter"",""1"",""8494""
","
","
","""event"",""trial"",""time""
""fullscreenenter"",""1"",""8494""
","
","","263.4100001305342","","","","real_trial","2021-04-05 15:53:25.829","img/card_backs/set1/green.gif","3","-230","1","",""
"casino-fixation","162","474317","0.0-25.0-0.46","A188","false","img/card_backs/set1/red.gif","img/card_backs/set1/green.gif","img/card_backs/set1/yellow.gif","img/card_backs/set1/purple.gif","img/card_backs/set2/orange.gif","img/card_backs/set2/gray.gif","img/card_backs/set2/blue.gif","img/card_backs/set2/pink.gif","""event"",""trial"",""time""
""fullscreenenter"",""1"",""8494""
","
","
","""event"",""trial"",""time""
""fullscreenenter"",""1"",""8494""
","
","","null","","null","","fixation","2021-04-05 15:53:26.333","","","","","",""
"card-selection-trial","163","476562","0.0-25.0-1.46","A188","false","img/card_backs/set1/red.gif","img/card_backs/set1/green.gif","img/card_backs/set1/yellow.gif","img/card_backs/set1/purple.gif","img/card_backs/set2/orange.gif","img/card_backs/set2/gray.gif","img/card_backs/set2/blue.gif","img/card_backs/set2/pink.gif","""event"",""trial"",""time""
""fullscreenenter"",""1"",""8494""
","
","
","""event"",""trial"",""time""
""fullscreenenter"",""1"",""8494""
","
","","232.32499998994172","","","","real_trial","2021-04-05 15:53:28.579","img/card_backs/set1/purple.gif","1","-50","1","",""
"casino-fixation","164","477074","0.0-25.0-0.47","A188","false","img/card_backs/set1/red.gif","img/card_backs/set1/green.gif","img/card_backs/set1/yellow.gif","img/card_backs/set1/purple.gif","img/card_backs/set2/orange.gif","img/card_backs/set2/gray.gif","img/card_backs/set2/blue.gif","img/card_backs/set2/pink.gif","""event"",""trial"",""time""
""fullscreenenter"",""1"",""8494""
","
","
","""event"",""trial"",""time""
""fullscreenenter"",""1"",""8494""
","
","","null","","null","","fixation","2021-04-05 15:53:29.090","","","","","",""
"card-selection-trial","165","479976","0.0-25.0-1.47","A188","false","img/card_backs/set1/red.gif","img/card_backs/set1/green.gif","img/card_backs/set1/yellow.gif","img/card_backs/set1/purple.gif","img/card_backs/set2/orange.gif","img/card_backs/set2/gray.gif","img/card_backs/set2/blue.gif","img/card_backs/set2/pink.gif","""event"",""trial"",""time""
""fullscreenenter"",""1"",""8494""
","
","
","""event"",""trial"",""time""
""fullscreenenter"",""1"",""8494""
","
","","883.8700000196695","","","","real_trial","2021-04-05 15:53:31.992","img/card_backs/set1/purple.gif","0","-70","1","",""
"casino-fixation","166","480488","0.0-25.0-0.48","A188","false","img/card_backs/set1/red.gif","img/card_backs/set1/green.gif","img/card_backs/set1/yellow.gif","img/card_backs/set1/purple.gif","img/card_backs/set2/orange.gif","img/card_backs/set2/gray.gif","img/card_backs/set2/blue.gif","img/card_backs/set2/pink.gif","""event"",""trial"",""time""
""fullscreenenter"",""1"",""8494""
","
","
","""event"",""trial"",""time""
""fullscreenenter"",""1"",""8494""
","
","","null","","null","","fixation","2021-04-05 15:53:32.504","","","","","",""
