"trial_type","trial_index","time_elapsed","internal_node_id","sub_id","risk_good_first","block1_A","block1_B","block1_C","block1_D","block2_A","block2_B","block2_C","block2_D","interactions","blur_events","focus_events","fullscreenenter_events","fullscreenexit_events","success","rt","stimulus","key_press","button_pressed","task_part","timestamp","card_choice","choice_position","points_earned","block","correct","response"
"pavlovia","0","3","0.0-0.0","595","true","img/card_backs/set1/green.gif","img/card_backs/set1/yellow.gif","img/card_backs/set1/red.gif","img/card_backs/set1/purple.gif","img/card_backs/set2/orange.gif","img/card_backs/set2/pink.gif","img/card_backs/set2/blue.gif","img/card_backs/set2/gray.gif","""event"",""trial"",""time""
""fullscreenenter"",""1"",""3818""
","
","
","""event"",""trial"",""time""
""fullscreenenter"",""1"",""3818""
","
","","","","","","","","","","","","",""
"fullscreen","1","4771","0.0-1.0","595","true","img/card_backs/set1/green.gif","img/card_backs/set1/yellow.gif","img/card_backs/set1/red.gif","img/card_backs/set1/purple.gif","img/card_backs/set2/orange.gif","img/card_backs/set2/pink.gif","img/card_backs/set2/blue.gif","img/card_backs/set2/gray.gif","""event"",""trial"",""time""
""fullscreenenter"",""1"",""3818""
","
","
","""event"",""trial"",""time""
""fullscreenenter"",""1"",""3818""
","
","true","","","","","","","","","","","",""
"audio-keyboard-response","2","8337","0.0-2.0","595","true","img/card_backs/set1/green.gif","img/card_backs/set1/yellow.gif","img/card_backs/set1/red.gif","img/card_backs/set1/purple.gif","img/card_backs/set2/orange.gif","img/card_backs/set2/pink.gif","img/card_backs/set2/blue.gif","img/card_backs/set2/gray.gif","""event"",""trial"",""time""
""fullscreenenter"",""1"",""3818""
","
","
","""event"",""trial"",""time""
""fullscreenenter"",""1"",""3818""
","
","","3493","audio/beep_loop.wav","32","","","","","","","","",""
"audio-button-response","3","9823","0.0-3.0","595","true","img/card_backs/set1/green.gif","img/card_backs/set1/yellow.gif","img/card_backs/set1/red.gif","img/card_backs/set1/purple.gif","img/card_backs/set2/orange.gif","img/card_backs/set2/pink.gif","img/card_backs/set2/blue.gif","img/card_backs/set2/gray.gif","""event"",""trial"",""time""
""fullscreenenter"",""1"",""3818""
","
","
","""event"",""trial"",""time""
""fullscreenenter"",""1"",""3818""
","
","","NaN","audio/turtle.mp3","","3","","","","","","","",""
"audio-button-response","4","11658","0.0-4.0","595","true","img/card_backs/set1/green.gif","img/card_backs/set1/yellow.gif","img/card_backs/set1/red.gif","img/card_backs/set1/purple.gif","img/card_backs/set2/orange.gif","img/card_backs/set2/pink.gif","img/card_backs/set2/blue.gif","img/card_backs/set2/gray.gif","""event"",""trial"",""time""
""fullscreenenter"",""1"",""3818""
","
","
","""event"",""trial"",""time""
""fullscreenenter"",""1"",""3818""
","
","","NaN","audio/shark.mp3","","2","","","","","","","",""
"fullscreen","5","15207","0.0-5.0","595","true","img/card_backs/set1/green.gif","img/card_backs/set1/yellow.gif","img/card_backs/set1/red.gif","img/card_backs/set1/purple.gif","img/card_backs/set2/orange.gif","img/card_backs/set2/pink.gif","img/card_backs/set2/blue.gif","img/card_backs/set2/gray.gif","""event"",""trial"",""time""
""fullscreenenter"",""1"",""3818""
","
","
","""event"",""trial"",""time""
""fullscreenenter"",""1"",""3818""
","
","true","","","","","","","","","","","",""
"casino-keyboard-response","6","18270","0.0-6.0-0.0","595","true","img/card_backs/set1/green.gif","img/card_backs/set1/yellow.gif","img/card_backs/set1/red.gif","img/card_backs/set1/purple.gif","img/card_backs/set2/orange.gif","img/card_backs/set2/pink.gif","img/card_backs/set2/blue.gif","img/card_backs/set2/gray.gif","""event"",""trial"",""time""
""fullscreenenter"",""1"",""3818""
","
","
","""event"",""trial"",""time""
""fullscreenenter"",""1"",""3818""
","
","","3058.5","Welcome to the casino!","71","","instructions","2021-08-18 09:31:10.312","","","","","",""
"casino-keyboard-response","7","27600","0.0-6.0-0.1","595","true","img/card_backs/set1/green.gif","img/card_backs/set1/yellow.gif","img/card_backs/set1/red.gif","img/card_backs/set1/purple.gif","img/card_backs/set2/orange.gif","img/card_backs/set2/pink.gif","img/card_backs/set2/blue.gif","img/card_backs/set2/gray.gif","""event"",""trial"",""time""
""fullscreenenter"",""1"",""3818""
","
","
","""event"",""trial"",""time""
""fullscreenenter"",""1"",""3818""
","
","","9328.5","Today you will be playing a game to earn tokens. </br> At the end of the experiment, you will be paid a bonus based on how many tokens you win. ","69","","instructions","2021-08-18 09:31:19.642","","","","","",""
"casino-keyboard-response","8","35256","0.0-6.0-0.2","595","true","img/card_backs/set1/green.gif","img/card_backs/set1/yellow.gif","img/card_backs/set1/red.gif","img/card_backs/set1/purple.gif","img/card_backs/set2/orange.gif","img/card_backs/set2/pink.gif","img/card_backs/set2/blue.gif","img/card_backs/set2/gray.gif","""event"",""trial"",""time""
""fullscreenenter"",""1"",""3818""
","
","
","""event"",""trial"",""time""
""fullscreenenter"",""1"",""3818""
","
","","7654.30000000447","On every turn, you will be shown four different decks of cards. </br> You need to select a card from one of the four decks.  ","75","","instructions","2021-08-18 09:31:27.298","","","","","",""
"casino-keyboard-response","9","39987","0.0-6.0-0.3","595","true","img/card_backs/set1/green.gif","img/card_backs/set1/yellow.gif","img/card_backs/set1/red.gif","img/card_backs/set1/purple.gif","img/card_backs/set2/orange.gif","img/card_backs/set2/pink.gif","img/card_backs/set2/blue.gif","img/card_backs/set2/gray.gif","""event"",""trial"",""time""
""fullscreenenter"",""1"",""3818""
","
","
","""event"",""trial"",""time""
""fullscreenenter"",""1"",""3818""
","
","","4729.60000000149","On the next screen, you will see what the decks will look like. ","66","","instructions","2021-08-18 09:31:32.029","","","","","",""
"card-selection-trial","10","43992","0.0-7.0-0.0","595","true","img/card_backs/set1/green.gif","img/card_backs/set1/yellow.gif","img/card_backs/set1/red.gif","img/card_backs/set1/purple.gif","img/card_backs/set2/orange.gif","img/card_backs/set2/pink.gif","img/card_backs/set2/blue.gif","img/card_backs/set2/gray.gif","""event"",""trial"",""time""
""fullscreenenter"",""1"",""3818""
","
","
","""event"",""trial"",""time""
""fullscreenenter"",""1"",""3818""
","
","","null","","","","practice","2021-08-18 09:31:36.035","null","null","null","0","",""
"casino-keyboard-response","11","51205","0.0-8.0-0.0","595","true","img/card_backs/set1/green.gif","img/card_backs/set1/yellow.gif","img/card_backs/set1/red.gif","img/card_backs/set1/purple.gif","img/card_backs/set2/orange.gif","img/card_backs/set2/pink.gif","img/card_backs/set2/blue.gif","img/card_backs/set2/gray.gif","""event"",""trial"",""time""
""fullscreenenter"",""1"",""3818""
","
","
","""event"",""trial"",""time""
""fullscreenenter"",""1"",""3818""
","
","","7210.60000000149","You should pick a card from a deck using the '2', '4', '6', and '8' keys at the top of the keyboard.","85","","instructions","2021-08-18 09:31:43.247","","","","","",""
"casino-keyboard-response","12","56462","0.0-8.0-0.1","595","true","img/card_backs/set1/green.gif","img/card_backs/set1/yellow.gif","img/card_backs/set1/red.gif","img/card_backs/set1/purple.gif","img/card_backs/set2/orange.gif","img/card_backs/set2/pink.gif","img/card_backs/set2/blue.gif","img/card_backs/set2/gray.gif","""event"",""trial"",""time""
""fullscreenenter"",""1"",""3818""
","
","
","""event"",""trial"",""time""
""fullscreenenter"",""1"",""3818""
","
","","5255.19999999553","Once you select a card, it will turn over and you will see how many tokens you earned.","83","","instructions","2021-08-18 09:31:48.504","","","","","",""
"casino-keyboard-response","13","70387","0.0-8.0-0.2","595","true","img/card_backs/set1/green.gif","img/card_backs/set1/yellow.gif","img/card_backs/set1/red.gif","img/card_backs/set1/purple.gif","img/card_backs/set2/orange.gif","img/card_backs/set2/pink.gif","img/card_backs/set2/blue.gif","img/card_backs/set2/gray.gif","""event"",""trial"",""time""
""fullscreenenter"",""1"",""3818""
","
","
","""event"",""trial"",""time""
""fullscreenenter"",""1"",""3818""
","
","","13923.79999999702","Let's try practicing that! </br> First, try to put your fingers over the '2', '4', '6', and '8' keys. </br>  You can use whatever fingers are most comfortable for you. Try to find a comfortable position now. ","50","","instructions","2021-08-18 09:32:02.429","","","","","",""
"casino-keyboard-response","14","76184","0.0-8.0-0.3","595","true","img/card_backs/set1/green.gif","img/card_backs/set1/yellow.gif","img/card_backs/set1/red.gif","img/card_backs/set1/purple.gif","img/card_backs/set2/orange.gif","img/card_backs/set2/pink.gif","img/card_backs/set2/blue.gif","img/card_backs/set2/gray.gif","""event"",""trial"",""time""
""fullscreenenter"",""1"",""3818""
","
","
","""event"",""trial"",""time""
""fullscreenenter"",""1"",""3818""
","
","","5795.39999999851","Okay ready? </br> On the next screen, press '2' to select the left deck. ","50","","instructions","2021-08-18 09:32:08.226","","","","","",""
"card-selection-trial","15","79758","0.0-9.0-0.0","595","true","img/card_backs/set1/green.gif","img/card_backs/set1/yellow.gif","img/card_backs/set1/red.gif","img/card_backs/set1/purple.gif","img/card_backs/set2/orange.gif","img/card_backs/set2/pink.gif","img/card_backs/set2/blue.gif","img/card_backs/set2/gray.gif","""event"",""trial"",""time""
""fullscreenenter"",""1"",""3818""
","
","
","""event"",""trial"",""time""
""fullscreenenter"",""1"",""3818""
","
","","1560.8999999985099","","","","practice_card_selection","2021-08-18 09:32:11.800","img/practice_cards/backs/black.gif","0","100","","",""
"casino-keyboard-response","16","85485","0.0-10.0-0.0","595","true","img/card_backs/set1/green.gif","img/card_backs/set1/yellow.gif","img/card_backs/set1/red.gif","img/card_backs/set1/purple.gif","img/card_backs/set2/orange.gif","img/card_backs/set2/pink.gif","img/card_backs/set2/blue.gif","img/card_backs/set2/gray.gif","""event"",""trial"",""time""
""fullscreenenter"",""1"",""3818""
","
","
","""event"",""trial"",""time""
""fullscreenenter"",""1"",""3818""
","
","","5724.79999999702","Great! Now on the next screen, try pressing '6' to select the third deck.","54","","instructions","2021-08-18 09:32:17.527","","","","","",""
"card-selection-trial","17","88379","0.0-11.0-0.0","595","true","img/card_backs/set1/green.gif","img/card_backs/set1/yellow.gif","img/card_backs/set1/red.gif","img/card_backs/set1/purple.gif","img/card_backs/set2/orange.gif","img/card_backs/set2/pink.gif","img/card_backs/set2/blue.gif","img/card_backs/set2/gray.gif","""event"",""trial"",""time""
""fullscreenenter"",""1"",""3818""
","
","
","""event"",""trial"",""time""
""fullscreenenter"",""1"",""3818""
","
","","884.6999999955297","","","","practice_card_selection","2021-08-18 09:32:20.421","img/practice_cards/backs/black.gif","2","-100","","",""
"casino-keyboard-response","18","93057","0.0-12.0-0.0","595","true","img/card_backs/set1/green.gif","img/card_backs/set1/yellow.gif","img/card_backs/set1/red.gif","img/card_backs/set1/purple.gif","img/card_backs/set2/orange.gif","img/card_backs/set2/pink.gif","img/card_backs/set2/blue.gif","img/card_backs/set2/gray.gif","""event"",""trial"",""time""
""fullscreenenter"",""1"",""3818""
","
","
","""event"",""trial"",""time""
""fullscreenenter"",""1"",""3818""
","
","","4676.89999999851","Now on the next screen, try pressing '4' to select the second deck.","52","","instructions","2021-08-18 09:32:25.099","","","","","",""
"card-selection-trial","19","95810","0.0-13.0-0.0","595","true","img/card_backs/set1/green.gif","img/card_backs/set1/yellow.gif","img/card_backs/set1/red.gif","img/card_backs/set1/purple.gif","img/card_backs/set2/orange.gif","img/card_backs/set2/pink.gif","img/card_backs/set2/blue.gif","img/card_backs/set2/gray.gif","""event"",""trial"",""time""
""fullscreenenter"",""1"",""3818""
","
","
","""event"",""trial"",""time""
""fullscreenenter"",""1"",""3818""
","
","","742.5","","","","practice_card_selection","2021-08-18 09:32:27.852","img/practice_cards/backs/black.gif","1","100","","",""
"casino-keyboard-response","20","100517","0.0-14.0-0.0","595","true","img/card_backs/set1/green.gif","img/card_backs/set1/yellow.gif","img/card_backs/set1/red.gif","img/card_backs/set1/purple.gif","img/card_backs/set2/orange.gif","img/card_backs/set2/pink.gif","img/card_backs/set2/blue.gif","img/card_backs/set2/gray.gif","""event"",""trial"",""time""
""fullscreenenter"",""1"",""3818""
","
","
","""event"",""trial"",""time""
""fullscreenenter"",""1"",""3818""
","
","","4705.5999999940395","Finally, try pressing '8' to select the deck all the way on the right.","56","","instructions","2021-08-18 09:32:32.559","","","","","",""
"card-selection-trial","21","103239","0.0-15.0-0.0","595","true","img/card_backs/set1/green.gif","img/card_backs/set1/yellow.gif","img/card_backs/set1/red.gif","img/card_backs/set1/purple.gif","img/card_backs/set2/orange.gif","img/card_backs/set2/pink.gif","img/card_backs/set2/blue.gif","img/card_backs/set2/gray.gif","""event"",""trial"",""time""
""fullscreenenter"",""1"",""3818""
","
","
","""event"",""trial"",""time""
""fullscreenenter"",""1"",""3818""
","
","","716.6999999955297","","","","practice_card_selection","2021-08-18 09:32:35.281","img/practice_cards/backs/dark_green.gif","3","200","","",""
"casino-keyboard-response","22","107007","0.0-16.0-0.0","595","true","img/card_backs/set1/green.gif","img/card_backs/set1/yellow.gif","img/card_backs/set1/red.gif","img/card_backs/set1/purple.gif","img/card_backs/set2/orange.gif","img/card_backs/set2/pink.gif","img/card_backs/set2/blue.gif","img/card_backs/set2/gray.gif","""event"",""trial"",""time""
""fullscreenenter"",""1"",""3818""
","
","
","""event"",""trial"",""time""
""fullscreenenter"",""1"",""3818""
","
","","3766.1999999955297","Great! It seems like you are getting the hang of this.","80","","instructions","2021-08-18 09:32:39.049","","","","","",""
"casino-keyboard-response","23","114703","0.0-16.0-0.1","595","true","img/card_backs/set1/green.gif","img/card_backs/set1/yellow.gif","img/card_backs/set1/red.gif","img/card_backs/set1/purple.gif","img/card_backs/set2/orange.gif","img/card_backs/set2/pink.gif","img/card_backs/set2/blue.gif","img/card_backs/set2/gray.gif","""event"",""trial"",""time""
""fullscreenenter"",""1"",""3818""
","
","
","""event"",""trial"",""time""
""fullscreenenter"",""1"",""3818""
","
","","7694.4000000059605","You may have noticed that some cards will cause you to <b> win </b> tokens while other cards will cause you to <b> lose </b>  tokens.","70","","instructions","2021-08-18 09:32:46.745","","","","","",""
"casino-keyboard-response","24","123174","0.0-16.0-0.2","595","true","img/card_backs/set1/green.gif","img/card_backs/set1/yellow.gif","img/card_backs/set1/red.gif","img/card_backs/set1/purple.gif","img/card_backs/set2/orange.gif","img/card_backs/set2/pink.gif","img/card_backs/set2/blue.gif","img/card_backs/set2/gray.gif","""event"",""trial"",""time""
""fullscreenenter"",""1"",""3818""
","
","
","""event"",""trial"",""time""
""fullscreenenter"",""1"",""3818""
","
","","8470.39999999851","Each deck has a mix of cards that will cause you to win and lose tokens. </br> However, the cards in each colored deck are different.","73","","instructions","2021-08-18 09:32:55.216","","","","","",""
"casino-keyboard-response","25","131807","0.0-16.0-0.3","595","true","img/card_backs/set1/green.gif","img/card_backs/set1/yellow.gif","img/card_backs/set1/red.gif","img/card_backs/set1/purple.gif","img/card_backs/set2/orange.gif","img/card_backs/set2/pink.gif","img/card_backs/set2/blue.gif","img/card_backs/set2/gray.gif","""event"",""trial"",""time""
""fullscreenenter"",""1"",""3818""
","
","
","""event"",""trial"",""time""
""fullscreenenter"",""1"",""3818""
","
","","8631.79999999702","Some colored decks are luckier than others. </br> If you choose the lucky decks, you will earn more tokens than if you choose the unlucky decks.","69","","instructions","2021-08-18 09:33:03.850","","","","","",""
"casino-keyboard-response","26","139078","0.0-16.0-0.4","595","true","img/card_backs/set1/green.gif","img/card_backs/set1/yellow.gif","img/card_backs/set1/red.gif","img/card_backs/set1/purple.gif","img/card_backs/set2/orange.gif","img/card_backs/set2/pink.gif","img/card_backs/set2/blue.gif","img/card_backs/set2/gray.gif","""event"",""trial"",""time""
""fullscreenenter"",""1"",""3818""
","
","
","""event"",""trial"",""time""
""fullscreenenter"",""1"",""3818""
","
","","7269.10000000149","You should try to figure out which decks are lucky. </br> Then, try to choose the lucky decks so you can win the most tokens.","87","","instructions","2021-08-18 09:33:11.120","","","","","",""
"casino-keyboard-response","27","150885","0.0-16.0-0.5","595","true","img/card_backs/set1/green.gif","img/card_backs/set1/yellow.gif","img/card_backs/set1/red.gif","img/card_backs/set1/purple.gif","img/card_backs/set2/orange.gif","img/card_backs/set2/pink.gif","img/card_backs/set2/blue.gif","img/card_backs/set2/gray.gif","""event"",""trial"",""time""
""fullscreenenter"",""1"",""3818""
","
","
","""event"",""trial"",""time""
""fullscreenenter"",""1"",""3818""
","
","","11805.69999999553","To make it trickier, the casino dealer will switch the locations of the decks on every turn. </br> The color of the deck determines how lucky it is. The location does not matter.","88","","instructions","2021-08-18 09:33:22.928","","","","","",""
"casino-keyboard-response","28","160041","0.0-16.0-0.6","595","true","img/card_backs/set1/green.gif","img/card_backs/set1/yellow.gif","img/card_backs/set1/red.gif","img/card_backs/set1/purple.gif","img/card_backs/set2/orange.gif","img/card_backs/set2/pink.gif","img/card_backs/set2/blue.gif","img/card_backs/set2/gray.gif","""event"",""trial"",""time""
""fullscreenenter"",""1"",""3818""
","
","
","""event"",""trial"",""time""
""fullscreenenter"",""1"",""3818""
","
","","9153.89999999851","The mix of cards in each colored deck will stay the same throughout the game. </br> That means that a deck that is lucky early on will stay lucky.","79","","instructions","2021-08-18 09:33:32.083","","","","","",""
"casino-keyboard-response","29","168333","0.0-16.0-0.7","595","true","img/card_backs/set1/green.gif","img/card_backs/set1/yellow.gif","img/card_backs/set1/red.gif","img/card_backs/set1/purple.gif","img/card_backs/set2/orange.gif","img/card_backs/set2/pink.gif","img/card_backs/set2/blue.gif","img/card_backs/set2/gray.gif","""event"",""trial"",""time""
""fullscreenenter"",""1"",""3818""
","
","
","""event"",""trial"",""time""
""fullscreenenter"",""1"",""3818""
","
","","8289.89999999851","Remember though, all the decks have a <b> mix </b> of both <b> good </b> and <b> bad </b> cards so it may take a couple of turns to figure out if a deck is lucky.","69","","instructions","2021-08-18 09:33:40.375","","","","","",""
"casino-keyboard-response","30","176456","0.0-16.0-0.8","595","true","img/card_backs/set1/green.gif","img/card_backs/set1/yellow.gif","img/card_backs/set1/red.gif","img/card_backs/set1/purple.gif","img/card_backs/set2/orange.gif","img/card_backs/set2/pink.gif","img/card_backs/set2/blue.gif","img/card_backs/set2/gray.gif","""event"",""trial"",""time""
""fullscreenenter"",""1"",""3818""
","
","
","""event"",""trial"",""time""
""fullscreenenter"",""1"",""3818""
","
","","8121.79999999702","At the end of the game, you will be paid bonus money based on how many tokens you win. </br> If you win more tokens, you will earn more money!","72","","instructions","2021-08-18 09:33:48.498","","","","","",""
"casino-keyboard-response","31","186673","0.0-16.0-0.9","595","true","img/card_backs/set1/green.gif","img/card_backs/set1/yellow.gif","img/card_backs/set1/red.gif","img/card_backs/set1/purple.gif","img/card_backs/set2/orange.gif","img/card_backs/set2/pink.gif","img/card_backs/set2/blue.gif","img/card_backs/set2/gray.gif","""event"",""trial"",""time""
""fullscreenenter"",""1"",""3818""
","
","
","""event"",""trial"",""time""
""fullscreenenter"",""1"",""3818""
","
","","10215.30000000447","You will never <b> lose </b> money. </br> If you end up with fewer than 0 tokens, you will earn $0 of bonus money, but you will still be paid for playing the game.","83","","instructions","2021-08-18 09:33:58.715","","","","","",""
"casino-keyboard-response","32","190749","0.0-16.0-0.10","595","true","img/card_backs/set1/green.gif","img/card_backs/set1/yellow.gif","img/card_backs/set1/red.gif","img/card_backs/set1/purple.gif","img/card_backs/set2/orange.gif","img/card_backs/set2/pink.gif","img/card_backs/set2/blue.gif","img/card_backs/set2/gray.gif","""event"",""trial"",""time""
""fullscreenenter"",""1"",""3818""
","
","
","""event"",""trial"",""time""
""fullscreenenter"",""1"",""3818""
","
","","4074.89999999851","You will have 10 seconds to make each choice.","82","","instructions","2021-08-18 09:34:02.791","","","","","",""
"casino-keyboard-response","33","198870","0.0-16.0-0.11","595","true","img/card_backs/set1/green.gif","img/card_backs/set1/yellow.gif","img/card_backs/set1/red.gif","img/card_backs/set1/purple.gif","img/card_backs/set2/orange.gif","img/card_backs/set2/pink.gif","img/card_backs/set2/blue.gif","img/card_backs/set2/gray.gif","""event"",""trial"",""time""
""fullscreenenter"",""1"",""3818""
","
","
","""event"",""trial"",""time""
""fullscreenenter"",""1"",""3818""
","
","","8118.20000000298","Before you play the game for real, you will play with practice decks. </br> The tokens you earn during practice won't count toward your total.","86","","instructions","2021-08-18 09:34:10.912","","","","","",""
"casino-keyboard-response","34","210576","0.0-16.0-0.12","595","true","img/card_backs/set1/green.gif","img/card_backs/set1/yellow.gif","img/card_backs/set1/red.gif","img/card_backs/set1/purple.gif","img/card_backs/set2/orange.gif","img/card_backs/set2/pink.gif","img/card_backs/set2/blue.gif","img/card_backs/set2/gray.gif","""event"",""trial"",""time""
""fullscreenenter"",""1"",""3818""
","
","
","""event"",""trial"",""time""
""fullscreenenter"",""1"",""3818""
","
","","11704.20000000298","Ready? Remember, use the '2', '4', '6', and '8' keys to select the decks. </br> Put your fingers on those keys now and then press '2' to begin.","50","","instructions","2021-08-18 09:34:22.618","","","","","",""
"casino-fixation","35","211078","0.0-17.0-0.0","595","true","img/card_backs/set1/green.gif","img/card_backs/set1/yellow.gif","img/card_backs/set1/red.gif","img/card_backs/set1/purple.gif","img/card_backs/set2/orange.gif","img/card_backs/set2/pink.gif","img/card_backs/set2/blue.gif","img/card_backs/set2/gray.gif","""event"",""trial"",""time""
""fullscreenenter"",""1"",""3818""
","
","
","""event"",""trial"",""time""
""fullscreenenter"",""1"",""3818""
","
","","null","","null","","fixation","2021-08-18 09:34:23.120","","","","","",""
"card-selection-trial","36","214698","0.0-17.0-1.0","595","true","img/card_backs/set1/green.gif","img/card_backs/set1/yellow.gif","img/card_backs/set1/red.gif","img/card_backs/set1/purple.gif","img/card_backs/set2/orange.gif","img/card_backs/set2/pink.gif","img/card_backs/set2/blue.gif","img/card_backs/set2/gray.gif","""event"",""trial"",""time""
""fullscreenenter"",""1"",""3818""
","
","
","""event"",""trial"",""time""
""fullscreenenter"",""1"",""3818""
","
","","1610.4000000059605","","","","practice","2021-08-18 09:34:26.740","img/practice_cards/backs/black.gif","3","-100","0","",""
"casino-fixation","37","215204","0.0-17.0-0.1","595","true","img/card_backs/set1/green.gif","img/card_backs/set1/yellow.gif","img/card_backs/set1/red.gif","img/card_backs/set1/purple.gif","img/card_backs/set2/orange.gif","img/card_backs/set2/pink.gif","img/card_backs/set2/blue.gif","img/card_backs/set2/gray.gif","""event"",""trial"",""time""
""fullscreenenter"",""1"",""3818""
","
","
","""event"",""trial"",""time""
""fullscreenenter"",""1"",""3818""
","
","","null","","null","","fixation","2021-08-18 09:34:27.246","","","","","",""
"card-selection-trial","38","219028","0.0-17.0-1.1","595","true","img/card_backs/set1/green.gif","img/card_backs/set1/yellow.gif","img/card_backs/set1/red.gif","img/card_backs/set1/purple.gif","img/card_backs/set2/orange.gif","img/card_backs/set2/pink.gif","img/card_backs/set2/blue.gif","img/card_backs/set2/gray.gif","""event"",""trial"",""time""
""fullscreenenter"",""1"",""3818""
","
","
","""event"",""trial"",""time""
""fullscreenenter"",""1"",""3818""
","
","","1815.5","","","","practice","2021-08-18 09:34:31.071","img/practice_cards/backs/brown.gif","0","-100","0","",""
"casino-fixation","39","219535","0.0-17.0-0.2","595","true","img/card_backs/set1/green.gif","img/card_backs/set1/yellow.gif","img/card_backs/set1/red.gif","img/card_backs/set1/purple.gif","img/card_backs/set2/orange.gif","img/card_backs/set2/pink.gif","img/card_backs/set2/blue.gif","img/card_backs/set2/gray.gif","""event"",""trial"",""time""
""fullscreenenter"",""1"",""3818""
","
","
","""event"",""trial"",""time""
""fullscreenenter"",""1"",""3818""
","
","","null","","null","","fixation","2021-08-18 09:34:31.577","","","","","",""
"card-selection-trial","40","222570","0.0-17.0-1.2","595","true","img/card_backs/set1/green.gif","img/card_backs/set1/yellow.gif","img/card_backs/set1/red.gif","img/card_backs/set1/purple.gif","img/card_backs/set2/orange.gif","img/card_backs/set2/pink.gif","img/card_backs/set2/blue.gif","img/card_backs/set2/gray.gif","""event"",""trial"",""time""
""fullscreenenter"",""1"",""3818""
","
","
","""event"",""trial"",""time""
""fullscreenenter"",""1"",""3818""
","
","","1023.5999999940395","","","","practice","2021-08-18 09:34:34.612","img/practice_cards/backs/dark_blue.gif","2","-200","0","",""
"casino-fixation","41","223071","0.0-17.0-0.3","595","true","img/card_backs/set1/green.gif","img/card_backs/set1/yellow.gif","img/card_backs/set1/red.gif","img/card_backs/set1/purple.gif","img/card_backs/set2/orange.gif","img/card_backs/set2/pink.gif","img/card_backs/set2/blue.gif","img/card_backs/set2/gray.gif","""event"",""trial"",""time""
""fullscreenenter"",""1"",""3818""
","
","
","""event"",""trial"",""time""
""fullscreenenter"",""1"",""3818""
","
","","null","","null","","fixation","2021-08-18 09:34:35.113","","","","","",""
"card-selection-trial","42","225799","0.0-17.0-1.3","595","true","img/card_backs/set1/green.gif","img/card_backs/set1/yellow.gif","img/card_backs/set1/red.gif","img/card_backs/set1/purple.gif","img/card_backs/set2/orange.gif","img/card_backs/set2/pink.gif","img/card_backs/set2/blue.gif","img/card_backs/set2/gray.gif","""event"",""trial"",""time""
""fullscreenenter"",""1"",""3818""
","
","
","""event"",""trial"",""time""
""fullscreenenter"",""1"",""3818""
","
","","717.5","","","","practice","2021-08-18 09:34:37.842","img/practice_cards/backs/dark_green.gif","2","-200","0","",""
"casino-fixation","43","226303","0.0-17.0-0.4","595","true","img/card_backs/set1/green.gif","img/card_backs/set1/yellow.gif","img/card_backs/set1/red.gif","img/card_backs/set1/purple.gif","img/card_backs/set2/orange.gif","img/card_backs/set2/pink.gif","img/card_backs/set2/blue.gif","img/card_backs/set2/gray.gif","""event"",""trial"",""time""
""fullscreenenter"",""1"",""3818""
","
","
","""event"",""trial"",""time""
""fullscreenenter"",""1"",""3818""
","
","","null","","null","","fixation","2021-08-18 09:34:38.345","","","","","",""
"card-selection-trial","44","228696","0.0-17.0-1.4","595","true","img/card_backs/set1/green.gif","img/card_backs/set1/yellow.gif","img/card_backs/set1/red.gif","img/card_backs/set1/purple.gif","img/card_backs/set2/orange.gif","img/card_backs/set2/pink.gif","img/card_backs/set2/blue.gif","img/card_backs/set2/gray.gif","""event"",""trial"",""time""
""fullscreenenter"",""1"",""3818""
","
","
","""event"",""trial"",""time""
""fullscreenenter"",""1"",""3818""
","
","","385.1000000014901","","","","practice","2021-08-18 09:34:40.738","img/practice_cards/backs/black.gif","3","-100","0","",""
"casino-fixation","45","229201","0.0-17.0-0.5","595","true","img/card_backs/set1/green.gif","img/card_backs/set1/yellow.gif","img/card_backs/set1/red.gif","img/card_backs/set1/purple.gif","img/card_backs/set2/orange.gif","img/card_backs/set2/pink.gif","img/card_backs/set2/blue.gif","img/card_backs/set2/gray.gif","""event"",""trial"",""time""
""fullscreenenter"",""1"",""3818""
","
","
","""event"",""trial"",""time""
""fullscreenenter"",""1"",""3818""
","
","","null","","null","","fixation","2021-08-18 09:34:41.243","","","","","",""
"card-selection-trial","46","231567","0.0-17.0-1.5","595","true","img/card_backs/set1/green.gif","img/card_backs/set1/yellow.gif","img/card_backs/set1/red.gif","img/card_backs/set1/purple.gif","img/card_backs/set2/orange.gif","img/card_backs/set2/pink.gif","img/card_backs/set2/blue.gif","img/card_backs/set2/gray.gif","""event"",""trial"",""time""
""fullscreenenter"",""1"",""3818""
","
","
","""event"",""trial"",""time""
""fullscreenenter"",""1"",""3818""
","
","","359","","","","practice","2021-08-18 09:34:43.609","img/practice_cards/backs/black.gif","1","-100","0","",""
"casino-fixation","47","232070","0.0-17.0-0.6","595","true","img/card_backs/set1/green.gif","img/card_backs/set1/yellow.gif","img/card_backs/set1/red.gif","img/card_backs/set1/purple.gif","img/card_backs/set2/orange.gif","img/card_backs/set2/pink.gif","img/card_backs/set2/blue.gif","img/card_backs/set2/gray.gif","""event"",""trial"",""time""
""fullscreenenter"",""1"",""3818""
","
","
","""event"",""trial"",""time""
""fullscreenenter"",""1"",""3818""
","
","","null","","null","","fixation","2021-08-18 09:34:44.112","","","","","",""
"card-selection-trial","48","234580","0.0-17.0-1.6","595","true","img/card_backs/set1/green.gif","img/card_backs/set1/yellow.gif","img/card_backs/set1/red.gif","img/card_backs/set1/purple.gif","img/card_backs/set2/orange.gif","img/card_backs/set2/pink.gif","img/card_backs/set2/blue.gif","img/card_backs/set2/gray.gif","""event"",""trial"",""time""
""fullscreenenter"",""1"",""3818""
","
","
","""event"",""trial"",""time""
""fullscreenenter"",""1"",""3818""
","
","","501.6000000014901","","","","practice","2021-08-18 09:34:46.622","img/practice_cards/backs/dark_green.gif","0","200","0","",""
"casino-fixation","49","235083","0.0-17.0-0.7","595","true","img/card_backs/set1/green.gif","img/card_backs/set1/yellow.gif","img/card_backs/set1/red.gif","img/card_backs/set1/purple.gif","img/card_backs/set2/orange.gif","img/card_backs/set2/pink.gif","img/card_backs/set2/blue.gif","img/card_backs/set2/gray.gif","""event"",""trial"",""time""
""fullscreenenter"",""1"",""3818""
","
","
","""event"",""trial"",""time""
""fullscreenenter"",""1"",""3818""
","
","","null","","null","","fixation","2021-08-18 09:34:47.125","","","","","",""
"card-selection-trial","50","240410","0.0-17.0-1.7","595","true","img/card_backs/set1/green.gif","img/card_backs/set1/yellow.gif","img/card_backs/set1/red.gif","img/card_backs/set1/purple.gif","img/card_backs/set2/orange.gif","img/card_backs/set2/pink.gif","img/card_backs/set2/blue.gif","img/card_backs/set2/gray.gif","""event"",""trial"",""time""
""fullscreenenter"",""1"",""3818""
","
","
","""event"",""trial"",""time""
""fullscreenenter"",""1"",""3818""
","
","","3319.39999999851","","","","practice","2021-08-18 09:34:52.453","img/practice_cards/backs/dark_green.gif","3","-200","0","",""
"casino-fixation","51","240917","0.0-17.0-0.8","595","true","img/card_backs/set1/green.gif","img/card_backs/set1/yellow.gif","img/card_backs/set1/red.gif","img/card_backs/set1/purple.gif","img/card_backs/set2/orange.gif","img/card_backs/set2/pink.gif","img/card_backs/set2/blue.gif","img/card_backs/set2/gray.gif","""event"",""trial"",""time""
""fullscreenenter"",""1"",""3818""
","
","
","""event"",""trial"",""time""
""fullscreenenter"",""1"",""3818""
","
","","null","","null","","fixation","2021-08-18 09:34:52.959","","","","","",""
"card-selection-trial","52","243344","0.0-17.0-1.8","595","true","img/card_backs/set1/green.gif","img/card_backs/set1/yellow.gif","img/card_backs/set1/red.gif","img/card_backs/set1/purple.gif","img/card_backs/set2/orange.gif","img/card_backs/set2/pink.gif","img/card_backs/set2/blue.gif","img/card_backs/set2/gray.gif","""event"",""trial"",""time""
""fullscreenenter"",""1"",""3818""
","
","
","""event"",""trial"",""time""
""fullscreenenter"",""1"",""3818""
","
","","421.1000000014901","","","","practice","2021-08-18 09:34:55.386","img/practice_cards/backs/brown.gif","0","100","0","",""
"casino-fixation","53","243850","0.0-17.0-0.9","595","true","img/card_backs/set1/green.gif","img/card_backs/set1/yellow.gif","img/card_backs/set1/red.gif","img/card_backs/set1/purple.gif","img/card_backs/set2/orange.gif","img/card_backs/set2/pink.gif","img/card_backs/set2/blue.gif","img/card_backs/set2/gray.gif","""event"",""trial"",""time""
""fullscreenenter"",""1"",""3818""
","
","
","""event"",""trial"",""time""
""fullscreenenter"",""1"",""3818""
","
","","null","","null","","fixation","2021-08-18 09:34:55.892","","","","","",""
"card-selection-trial","54","246336","0.0-17.0-1.9","595","true","img/card_backs/set1/green.gif","img/card_backs/set1/yellow.gif","img/card_backs/set1/red.gif","img/card_backs/set1/purple.gif","img/card_backs/set2/orange.gif","img/card_backs/set2/pink.gif","img/card_backs/set2/blue.gif","img/card_backs/set2/gray.gif","""event"",""trial"",""time""
""fullscreenenter"",""1"",""3818""
","
","
","""event"",""trial"",""time""
""fullscreenenter"",""1"",""3818""
","
","","479.6000000014901","","","","practice","2021-08-18 09:34:58.378","img/practice_cards/backs/dark_blue.gif","0","-200","0","",""
"casino-keyboard-response","55","249129","0.0-18.0","595","true","img/card_backs/set1/green.gif","img/card_backs/set1/yellow.gif","img/card_backs/set1/red.gif","img/card_backs/set1/purple.gif","img/card_backs/set2/orange.gif","img/card_backs/set2/pink.gif","img/card_backs/set2/blue.gif","img/card_backs/set2/gray.gif","""event"",""trial"",""time""
""fullscreenenter"",""1"",""3818""
","
","
","""event"",""trial"",""time""
""fullscreenenter"",""1"",""3818""
","
","","2791.2000000029802","You earned -900 tokens during the practice round!","82","","","2021-08-18 09:35:01.171","","","","","",""
"casino-keyboard-response","56","254417","0.0-19.0-0.0","595","true","img/card_backs/set1/green.gif","img/card_backs/set1/yellow.gif","img/card_backs/set1/red.gif","img/card_backs/set1/purple.gif","img/card_backs/set2/orange.gif","img/card_backs/set2/pink.gif","img/card_backs/set2/blue.gif","img/card_backs/set2/gray.gif","""event"",""trial"",""time""
""fullscreenenter"",""1"",""3818""
","
","
","""event"",""trial"",""time""
""fullscreenenter"",""1"",""3818""
","
","","5287","Nice job! You are almost ready to play the real game.","86","","instructions","2021-08-18 09:35:06.459","","","","","",""
"casino-keyboard-response","57","260641","0.0-19.0-0.1","595","true","img/card_backs/set1/green.gif","img/card_backs/set1/yellow.gif","img/card_backs/set1/red.gif","img/card_backs/set1/purple.gif","img/card_backs/set2/orange.gif","img/card_backs/set2/pink.gif","img/card_backs/set2/blue.gif","img/card_backs/set2/gray.gif","""event"",""trial"",""time""
""fullscreenenter"",""1"",""3818""
","
","
","""event"",""trial"",""time""
""fullscreenenter"",""1"",""3818""
","
","","6221.79999999702","You will play two rounds of the real game. In each round, you will pick 100 cards in total.","73","","instructions","2021-08-18 09:35:12.683","","","","","",""
"casino-keyboard-response","58","264618","0.0-19.0-0.2","595","true","img/card_backs/set1/green.gif","img/card_backs/set1/yellow.gif","img/card_backs/set1/red.gif","img/card_backs/set1/purple.gif","img/card_backs/set2/orange.gif","img/card_backs/set2/pink.gif","img/card_backs/set2/blue.gif","img/card_backs/set2/gray.gif","""event"",""trial"",""time""
""fullscreenenter"",""1"",""3818""
","
","
","""event"",""trial"",""time""
""fullscreenenter"",""1"",""3818""
","
","","3975.7000000029802","We are now going to ask you some questions about how the game works.","66","","instructions","2021-08-18 09:35:16.660","","","","","",""
"casino-keyboard-response","59","270598","0.0-19.0-0.3","595","true","img/card_backs/set1/green.gif","img/card_backs/set1/yellow.gif","img/card_backs/set1/red.gif","img/card_backs/set1/purple.gif","img/card_backs/set2/orange.gif","img/card_backs/set2/pink.gif","img/card_backs/set2/blue.gif","img/card_backs/set2/gray.gif","""event"",""trial"",""time""
""fullscreenenter"",""1"",""3818""
","
","
","""event"",""trial"",""time""
""fullscreenenter"",""1"",""3818""
","
","","5978.70000000298","Answer carefully. You will not be able to begin the game until you answer them correctly.","67","","instructions","2021-08-18 09:35:22.640","","","","","",""
"casino-comp_q","60","277362","0.0-20.0-0.0","595","true","img/card_backs/set1/green.gif","img/card_backs/set1/yellow.gif","img/card_backs/set1/red.gif","img/card_backs/set1/purple.gif","img/card_backs/set2/orange.gif","img/card_backs/set2/pink.gif","img/card_backs/set2/blue.gif","img/card_backs/set2/gray.gif","""event"",""trial"",""time""
""fullscreenenter"",""1"",""3818""
","
","
","""event"",""trial"",""time""
""fullscreenenter"",""1"",""3818""
","
","","6762.30000000447","True or False: All the decks have some cards that cause you to win tokens and some cards that cause you to lose tokens.","84","","","2021-08-18 09:35:29.405","","","","","",""
"casino-keyboard-response","61","280886","0.0-20.0-1.0","595","true","img/card_backs/set1/green.gif","img/card_backs/set1/yellow.gif","img/card_backs/set1/red.gif","img/card_backs/set1/purple.gif","img/card_backs/set2/orange.gif","img/card_backs/set2/pink.gif","img/card_backs/set2/blue.gif","img/card_backs/set2/gray.gif","""event"",""trial"",""time""
""fullscreenenter"",""1"",""3818""
","
","
","""event"",""trial"",""time""
""fullscreenenter"",""1"",""3818""
","
","","3522","True is correct! All the decks have a mix of winning and losing cards.","77","","","2021-08-18 09:35:32.928","","","","","true",""
"casino-comp_q","62","284700","0.0-21.0-0.0","595","true","img/card_backs/set1/green.gif","img/card_backs/set1/yellow.gif","img/card_backs/set1/red.gif","img/card_backs/set1/purple.gif","img/card_backs/set2/orange.gif","img/card_backs/set2/pink.gif","img/card_backs/set2/blue.gif","img/card_backs/set2/gray.gif","""event"",""trial"",""time""
""fullscreenenter"",""1"",""3818""
","
","
","""event"",""trial"",""time""
""fullscreenenter"",""1"",""3818""
","
","","3811.89999999851","True or False: You will have as much time as you want to make your response.","70","","","2021-08-18 09:35:36.743","","","","","",""
"casino-keyboard-response","63","287457","0.0-21.0-1.0","595","true","img/card_backs/set1/green.gif","img/card_backs/set1/yellow.gif","img/card_backs/set1/red.gif","img/card_backs/set1/purple.gif","img/card_backs/set2/orange.gif","img/card_backs/set2/pink.gif","img/card_backs/set2/blue.gif","img/card_backs/set2/gray.gif","""event"",""trial"",""time""
""fullscreenenter"",""1"",""3818""
","
","
","""event"",""trial"",""time""
""fullscreenenter"",""1"",""3818""
","
","","2753.1999999955297","False is correct! You will only have 10 seconds to make each choice.","75","","","2021-08-18 09:35:39.499","","","","","true",""
"casino-comp_q","64","292390","0.0-22.0-0.0","595","true","img/card_backs/set1/green.gif","img/card_backs/set1/yellow.gif","img/card_backs/set1/red.gif","img/card_backs/set1/purple.gif","img/card_backs/set2/orange.gif","img/card_backs/set2/pink.gif","img/card_backs/set2/blue.gif","img/card_backs/set2/gray.gif","""event"",""trial"",""time""
""fullscreenenter"",""1"",""3818""
","
","
","""event"",""trial"",""time""
""fullscreenenter"",""1"",""3818""
","
","","4931.39999999851","True or False: The location of the deck determines how lucky it is.","70","","","2021-08-18 09:35:44.432","","","","","",""
"casino-keyboard-response","65","295449","0.0-22.0-1.0","595","true","img/card_backs/set1/green.gif","img/card_backs/set1/yellow.gif","img/card_backs/set1/red.gif","img/card_backs/set1/purple.gif","img/card_backs/set2/orange.gif","img/card_backs/set2/pink.gif","img/card_backs/set2/blue.gif","img/card_backs/set2/gray.gif","""event"",""trial"",""time""
""fullscreenenter"",""1"",""3818""
","
","
","""event"",""trial"",""time""
""fullscreenenter"",""1"",""3818""
","
","","3057.4000000059605","False is correct! The <i>color</i>  of the deck determines how lucky or unlucky it is.","68","","","2021-08-18 09:35:47.491","","","","","true",""
"casino-keyboard-response","66","299564","0.0-23.0-0.0","595","true","img/card_backs/set1/green.gif","img/card_backs/set1/yellow.gif","img/card_backs/set1/red.gif","img/card_backs/set1/purple.gif","img/card_backs/set2/orange.gif","img/card_backs/set2/pink.gif","img/card_backs/set2/blue.gif","img/card_backs/set2/gray.gif","""event"",""trial"",""time""
""fullscreenenter"",""1"",""3818""
","
","
","""event"",""trial"",""time""
""fullscreenenter"",""1"",""3818""
","
","","4114.10000000149","Great job! Now it's time to start the real game.","82","","instructions","2021-08-18 09:35:51.606","","","","","",""
"casino-keyboard-response","67","304519","0.0-23.0-0.1","595","true","img/card_backs/set1/green.gif","img/card_backs/set1/yellow.gif","img/card_backs/set1/red.gif","img/card_backs/set1/purple.gif","img/card_backs/set2/orange.gif","img/card_backs/set2/pink.gif","img/card_backs/set2/blue.gif","img/card_backs/set2/gray.gif","""event"",""trial"",""time""
""fullscreenenter"",""1"",""3818""
","
","
","""event"",""trial"",""time""
""fullscreenenter"",""1"",""3818""
","
","","4952.69999999553","Before we start, we're going to head into a new room of the casino.","86","","instructions","2021-08-18 09:35:56.561","","","","","",""
"casino-keyboard-response","68","310572","0.0-24.0-0.0","595","true","img/card_backs/set1/green.gif","img/card_backs/set1/yellow.gif","img/card_backs/set1/red.gif","img/card_backs/set1/purple.gif","img/card_backs/set2/orange.gif","img/card_backs/set2/pink.gif","img/card_backs/set2/blue.gif","img/card_backs/set2/gray.gif","""event"",""trial"",""time""
""fullscreenenter"",""1"",""3818""
","
","
","""event"",""trial"",""time""
""fullscreenenter"",""1"",""3818""
","
","","6051.4000000059605","Here we are! The real game will use different cards, but the rules will be the same.","71","","instructions","2021-08-18 09:36:02.614","","","","","",""
"casino-keyboard-response","69","320017","0.0-24.0-0.1","595","true","img/card_backs/set1/green.gif","img/card_backs/set1/yellow.gif","img/card_backs/set1/red.gif","img/card_backs/set1/purple.gif","img/card_backs/set2/orange.gif","img/card_backs/set2/pink.gif","img/card_backs/set2/blue.gif","img/card_backs/set2/gray.gif","""event"",""trial"",""time""
""fullscreenenter"",""1"",""3818""
","
","
","""event"",""trial"",""time""
""fullscreenenter"",""1"",""3818""
","
","","9443.20000000298","Ready? Put your fingers over the '2', '4', 6', and '8' keys so you are ready to play the game. </br> Then press 2 to start.","50","","instructions","2021-08-18 09:36:12.059","","","","","",""
"casino-fixation","70","320520","0.0-25.0-0.0","595","true","img/card_backs/set1/green.gif","img/card_backs/set1/yellow.gif","img/card_backs/set1/red.gif","img/card_backs/set1/purple.gif","img/card_backs/set2/orange.gif","img/card_backs/set2/pink.gif","img/card_backs/set2/blue.gif","img/card_backs/set2/gray.gif","""event"",""trial"",""time""
""fullscreenenter"",""1"",""3818""
","
","
","""event"",""trial"",""time""
""fullscreenenter"",""1"",""3818""
","
","","null","","null","","fixation","2021-08-18 09:36:12.562","","","","","",""
"card-selection-trial","71","327272","0.0-25.0-1.0","595","true","img/card_backs/set1/green.gif","img/card_backs/set1/yellow.gif","img/card_backs/set1/red.gif","img/card_backs/set1/purple.gif","img/card_backs/set2/orange.gif","img/card_backs/set2/pink.gif","img/card_backs/set2/blue.gif","img/card_backs/set2/gray.gif","""event"",""trial"",""time""
""fullscreenenter"",""1"",""3818""
","
","
","""event"",""trial"",""time""
""fullscreenenter"",""1"",""3818""
","
","","4740.60000000149","","","","real_trial","2021-08-18 09:36:19.314","img/card_backs/set1/yellow.gif","2","-210","1","",""
"casino-fixation","72","327778","0.0-25.0-0.1","595","true","img/card_backs/set1/green.gif","img/card_backs/set1/yellow.gif","img/card_backs/set1/red.gif","img/card_backs/set1/purple.gif","img/card_backs/set2/orange.gif","img/card_backs/set2/pink.gif","img/card_backs/set2/blue.gif","img/card_backs/set2/gray.gif","""event"",""trial"",""time""
""fullscreenenter"",""1"",""3818""
","
","
","""event"",""trial"",""time""
""fullscreenenter"",""1"",""3818""
","
","","null","","null","","fixation","2021-08-18 09:36:19.820","","","","","",""
"card-selection-trial","73","330523","0.0-25.0-1.1","595","true","img/card_backs/set1/green.gif","img/card_backs/set1/yellow.gif","img/card_backs/set1/red.gif","img/card_backs/set1/purple.gif","img/card_backs/set2/orange.gif","img/card_backs/set2/pink.gif","img/card_backs/set2/blue.gif","img/card_backs/set2/gray.gif","""event"",""trial"",""time""
""fullscreenenter"",""1"",""3818""
","
","
","""event"",""trial"",""time""
""fullscreenenter"",""1"",""3818""
","
","","733.7000000029802","","","","real_trial","2021-08-18 09:36:22.565","img/card_backs/set1/red.gif","0","50","1","",""
"casino-fixation","74","331030","0.0-25.0-0.2","595","true","img/card_backs/set1/green.gif","img/card_backs/set1/yellow.gif","img/card_backs/set1/red.gif","img/card_backs/set1/purple.gif","img/card_backs/set2/orange.gif","img/card_backs/set2/pink.gif","img/card_backs/set2/blue.gif","img/card_backs/set2/gray.gif","""event"",""trial"",""time""
""fullscreenenter"",""1"",""3818""
","
","
","""event"",""trial"",""time""
""fullscreenenter"",""1"",""3818""
","
","","null","","null","","fixation","2021-08-18 09:36:23.072","","","","","",""
"card-selection-trial","75","333967","0.0-25.0-1.2","595","true","img/card_backs/set1/green.gif","img/card_backs/set1/yellow.gif","img/card_backs/set1/red.gif","img/card_backs/set1/purple.gif","img/card_backs/set2/orange.gif","img/card_backs/set2/pink.gif","img/card_backs/set2/blue.gif","img/card_backs/set2/gray.gif","""event"",""trial"",""time""
""fullscreenenter"",""1"",""3818""
","
","
","""event"",""trial"",""time""
""fullscreenenter"",""1"",""3818""
","
","","926.8999999985099","","","","real_trial","2021-08-18 09:36:26.009","img/card_backs/set1/yellow.gif","1","-190","1","",""
"casino-fixation","76","334472","0.0-25.0-0.3","595","true","img/card_backs/set1/green.gif","img/card_backs/set1/yellow.gif","img/card_backs/set1/red.gif","img/card_backs/set1/purple.gif","img/card_backs/set2/orange.gif","img/card_backs/set2/pink.gif","img/card_backs/set2/blue.gif","img/card_backs/set2/gray.gif","""event"",""trial"",""time""
""fullscreenenter"",""1"",""3818""
","
","
","""event"",""trial"",""time""
""fullscreenenter"",""1"",""3818""
","
","","null","","null","","fixation","2021-08-18 09:36:26.514","","","","","",""
"card-selection-trial","77","338408","0.0-25.0-1.3","595","true","img/card_backs/set1/green.gif","img/card_backs/set1/yellow.gif","img/card_backs/set1/red.gif","img/card_backs/set1/purple.gif","img/card_backs/set2/orange.gif","img/card_backs/set2/pink.gif","img/card_backs/set2/blue.gif","img/card_backs/set2/gray.gif","""event"",""trial"",""time""
""fullscreenenter"",""1"",""3818""
","
","
","""event"",""trial"",""time""
""fullscreenenter"",""1"",""3818""
","
","","1925.5","","","","real_trial","2021-08-18 09:36:30.450","img/card_backs/set1/green.gif","0","-200","1","",""
"casino-fixation","78","338913","0.0-25.0-0.4","595","true","img/card_backs/set1/green.gif","img/card_backs/set1/yellow.gif","img/card_backs/set1/red.gif","img/card_backs/set1/purple.gif","img/card_backs/set2/orange.gif","img/card_backs/set2/pink.gif","img/card_backs/set2/blue.gif","img/card_backs/set2/gray.gif","""event"",""trial"",""time""
""fullscreenenter"",""1"",""3818""
","
","
","""event"",""trial"",""time""
""fullscreenenter"",""1"",""3818""
","
","","null","","null","","fixation","2021-08-18 09:36:30.955","","","","","",""
"card-selection-trial","79","341994","0.0-25.0-1.4","595","true","img/card_backs/set1/green.gif","img/card_backs/set1/yellow.gif","img/card_backs/set1/red.gif","img/card_backs/set1/purple.gif","img/card_backs/set2/orange.gif","img/card_backs/set2/pink.gif","img/card_backs/set2/blue.gif","img/card_backs/set2/gray.gif","""event"",""trial"",""time""
""fullscreenenter"",""1"",""3818""
","
","
","""event"",""trial"",""time""
""fullscreenenter"",""1"",""3818""
","
","","1073.8000000044703","","","","real_trial","2021-08-18 09:36:34.036","img/card_backs/set1/purple.gif","3","40","1","",""
"casino-fixation","80","342498","0.0-25.0-0.5","595","true","img/card_backs/set1/green.gif","img/card_backs/set1/yellow.gif","img/card_backs/set1/red.gif","img/card_backs/set1/purple.gif","img/card_backs/set2/orange.gif","img/card_backs/set2/pink.gif","img/card_backs/set2/blue.gif","img/card_backs/set2/gray.gif","""event"",""trial"",""time""
""fullscreenenter"",""1"",""3818""
","
","
","""event"",""trial"",""time""
""fullscreenenter"",""1"",""3818""
","
","","null","","null","","fixation","2021-08-18 09:36:34.540","","","","","",""
"card-selection-trial","81","345698","0.0-25.0-1.5","595","true","img/card_backs/set1/green.gif","img/card_backs/set1/yellow.gif","img/card_backs/set1/red.gif","img/card_backs/set1/purple.gif","img/card_backs/set2/orange.gif","img/card_backs/set2/pink.gif","img/card_backs/set2/blue.gif","img/card_backs/set2/gray.gif","""event"",""trial"",""time""
""fullscreenenter"",""1"",""3818""
","
","
","""event"",""trial"",""time""
""fullscreenenter"",""1"",""3818""
","
","","1191.2999999970198","","","","real_trial","2021-08-18 09:36:37.740","img/card_backs/set1/green.gif","3","-210","1","",""
"casino-fixation","82","346205","0.0-25.0-0.6","595","true","img/card_backs/set1/green.gif","img/card_backs/set1/yellow.gif","img/card_backs/set1/red.gif","img/card_backs/set1/purple.gif","img/card_backs/set2/orange.gif","img/card_backs/set2/pink.gif","img/card_backs/set2/blue.gif","img/card_backs/set2/gray.gif","""event"",""trial"",""time""
""fullscreenenter"",""1"",""3818""
","
","
","""event"",""trial"",""time""
""fullscreenenter"",""1"",""3818""
","
","","null","","null","","fixation","2021-08-18 09:36:38.247","","","","","",""
"card-selection-trial","83","349303","0.0-25.0-1.6","595","true","img/card_backs/set1/green.gif","img/card_backs/set1/yellow.gif","img/card_backs/set1/red.gif","img/card_backs/set1/purple.gif","img/card_backs/set2/orange.gif","img/card_backs/set2/pink.gif","img/card_backs/set2/blue.gif","img/card_backs/set2/gray.gif","""event"",""trial"",""time""
""fullscreenenter"",""1"",""3818""
","
","
","""event"",""trial"",""time""
""fullscreenenter"",""1"",""3818""
","
","","1088.1000000014901","","","","real_trial","2021-08-18 09:36:41.346","img/card_backs/set1/red.gif","2","40","1","",""
"casino-fixation","84","349805","0.0-25.0-0.7","595","true","img/card_backs/set1/green.gif","img/card_backs/set1/yellow.gif","img/card_backs/set1/red.gif","img/card_backs/set1/purple.gif","img/card_backs/set2/orange.gif","img/card_backs/set2/pink.gif","img/card_backs/set2/blue.gif","img/card_backs/set2/gray.gif","""event"",""trial"",""time""
""fullscreenenter"",""1"",""3818""
","
","
","""event"",""trial"",""time""
""fullscreenenter"",""1"",""3818""
","
","","null","","null","","fixation","2021-08-18 09:36:41.847","","","","","",""
"card-selection-trial","85","352344","0.0-25.0-1.7","595","true","img/card_backs/set1/green.gif","img/card_backs/set1/yellow.gif","img/card_backs/set1/red.gif","img/card_backs/set1/purple.gif","img/card_backs/set2/orange.gif","img/card_backs/set2/pink.gif","img/card_backs/set2/blue.gif","img/card_backs/set2/gray.gif","""event"",""trial"",""time""
""fullscreenenter"",""1"",""3818""
","
","
","""event"",""trial"",""time""
""fullscreenenter"",""1"",""3818""
","
","","531.3999999985099","","","","real_trial","2021-08-18 09:36:44.387","img/card_backs/set1/red.gif","2","60","1","",""
"casino-fixation","86","352851","0.0-25.0-0.8","595","true","img/card_backs/set1/green.gif","img/card_backs/set1/yellow.gif","img/card_backs/set1/red.gif","img/card_backs/set1/purple.gif","img/card_backs/set2/orange.gif","img/card_backs/set2/pink.gif","img/card_backs/set2/blue.gif","img/card_backs/set2/gray.gif","""event"",""trial"",""time""
""fullscreenenter"",""1"",""3818""
","
","
","""event"",""trial"",""time""
""fullscreenenter"",""1"",""3818""
","
","","null","","null","","fixation","2021-08-18 09:36:44.893","","","","","",""
"card-selection-trial","87","356312","0.0-25.0-1.8","595","true","img/card_backs/set1/green.gif","img/card_backs/set1/yellow.gif","img/card_backs/set1/red.gif","img/card_backs/set1/purple.gif","img/card_backs/set2/orange.gif","img/card_backs/set2/pink.gif","img/card_backs/set2/blue.gif","img/card_backs/set2/gray.gif","""event"",""trial"",""time""
""fullscreenenter"",""1"",""3818""
","
","
","""event"",""trial"",""time""
""fullscreenenter"",""1"",""3818""
","
","","1454.2000000029802","","","","real_trial","2021-08-18 09:36:48.355","img/card_backs/set1/red.gif","1","40","1","",""
"casino-fixation","88","356819","0.0-25.0-0.9","595","true","img/card_backs/set1/green.gif","img/card_backs/set1/yellow.gif","img/card_backs/set1/red.gif","img/card_backs/set1/purple.gif","img/card_backs/set2/orange.gif","img/card_backs/set2/pink.gif","img/card_backs/set2/blue.gif","img/card_backs/set2/gray.gif","""event"",""trial"",""time""
""fullscreenenter"",""1"",""3818""
","
","
","""event"",""trial"",""time""
""fullscreenenter"",""1"",""3818""
","
","","null","","null","","fixation","2021-08-18 09:36:48.861","","","","","",""
"card-selection-trial","89","360862","0.0-25.0-1.9","595","true","img/card_backs/set1/green.gif","img/card_backs/set1/yellow.gif","img/card_backs/set1/red.gif","img/card_backs/set1/purple.gif","img/card_backs/set2/orange.gif","img/card_backs/set2/pink.gif","img/card_backs/set2/blue.gif","img/card_backs/set2/gray.gif","""event"",""trial"",""time""
""fullscreenenter"",""1"",""3818""
","
","
","""event"",""trial"",""time""
""fullscreenenter"",""1"",""3818""
","
","","2032.5","","","","real_trial","2021-08-18 09:36:52.904","img/card_backs/set1/red.gif","0","60","1","",""
"casino-fixation","90","361368","0.0-25.0-0.10","595","true","img/card_backs/set1/green.gif","img/card_backs/set1/yellow.gif","img/card_backs/set1/red.gif","img/card_backs/set1/purple.gif","img/card_backs/set2/orange.gif","img/card_backs/set2/pink.gif","img/card_backs/set2/blue.gif","img/card_backs/set2/gray.gif","""event"",""trial"",""time""
""fullscreenenter"",""1"",""3818""
","
","
","""event"",""trial"",""time""
""fullscreenenter"",""1"",""3818""
","
","","null","","null","","fixation","2021-08-18 09:36:53.410","","","","","",""
"card-selection-trial","91","364147","0.0-25.0-1.10","595","true","img/card_backs/set1/green.gif","img/card_backs/set1/yellow.gif","img/card_backs/set1/red.gif","img/card_backs/set1/purple.gif","img/card_backs/set2/orange.gif","img/card_backs/set2/pink.gif","img/card_backs/set2/blue.gif","img/card_backs/set2/gray.gif","""event"",""trial"",""time""
""fullscreenenter"",""1"",""3818""
","
","
","""event"",""trial"",""time""
""fullscreenenter"",""1"",""3818""
","
","","768.3999999985099","","","","real_trial","2021-08-18 09:36:56.189","img/card_backs/set1/purple.gif","3","50","1","",""
"casino-fixation","92","364654","0.0-25.0-0.11","595","true","img/card_backs/set1/green.gif","img/card_backs/set1/yellow.gif","img/card_backs/set1/red.gif","img/card_backs/set1/purple.gif","img/card_backs/set2/orange.gif","img/card_backs/set2/pink.gif","img/card_backs/set2/blue.gif","img/card_backs/set2/gray.gif","""event"",""trial"",""time""
""fullscreenenter"",""1"",""3818""
","
","
","""event"",""trial"",""time""
""fullscreenenter"",""1"",""3818""
","
","","null","","null","","fixation","2021-08-18 09:36:56.696","","","","","",""
"card-selection-trial","93","367272","0.0-25.0-1.11","595","true","img/card_backs/set1/green.gif","img/card_backs/set1/yellow.gif","img/card_backs/set1/red.gif","img/card_backs/set1/purple.gif","img/card_backs/set2/orange.gif","img/card_backs/set2/pink.gif","img/card_backs/set2/blue.gif","img/card_backs/set2/gray.gif","""event"",""trial"",""time""
""fullscreenenter"",""1"",""3818""
","
","
","""event"",""trial"",""time""
""fullscreenenter"",""1"",""3818""
","
","","612.3000000044703","","","","real_trial","2021-08-18 09:36:59.315","img/card_backs/set1/yellow.gif","2","250","1","",""
"casino-fixation","94","367774","0.0-25.0-0.12","595","true","img/card_backs/set1/green.gif","img/card_backs/set1/yellow.gif","img/card_backs/set1/red.gif","img/card_backs/set1/purple.gif","img/card_backs/set2/orange.gif","img/card_backs/set2/pink.gif","img/card_backs/set2/blue.gif","img/card_backs/set2/gray.gif","""event"",""trial"",""time""
""fullscreenenter"",""1"",""3818""
","
","
","""event"",""trial"",""time""
""fullscreenenter"",""1"",""3818""
","
","","null","","null","","fixation","2021-08-18 09:36:59.816","","","","","",""
"card-selection-trial","95","370691","0.0-25.0-1.12","595","true","img/card_backs/set1/green.gif","img/card_backs/set1/yellow.gif","img/card_backs/set1/red.gif","img/card_backs/set1/purple.gif","img/card_backs/set2/orange.gif","img/card_backs/set2/pink.gif","img/card_backs/set2/blue.gif","img/card_backs/set2/gray.gif","""event"",""trial"",""time""
""fullscreenenter"",""1"",""3818""
","
","
","""event"",""trial"",""time""
""fullscreenenter"",""1"",""3818""
","
","","911.2000000029802","","","","real_trial","2021-08-18 09:37:02.733","img/card_backs/set1/purple.gif","1","40","1","",""
"casino-fixation","96","371198","0.0-25.0-0.13","595","true","img/card_backs/set1/green.gif","img/card_backs/set1/yellow.gif","img/card_backs/set1/red.gif","img/card_backs/set1/purple.gif","img/card_backs/set2/orange.gif","img/card_backs/set2/pink.gif","img/card_backs/set2/blue.gif","img/card_backs/set2/gray.gif","""event"",""trial"",""time""
""fullscreenenter"",""1"",""3818""
","
","
","""event"",""trial"",""time""
""fullscreenenter"",""1"",""3818""
","
","","null","","null","","fixation","2021-08-18 09:37:03.240","","","","","",""
"card-selection-trial","97","373795","0.0-25.0-1.13","595","true","img/card_backs/set1/green.gif","img/card_backs/set1/yellow.gif","img/card_backs/set1/red.gif","img/card_backs/set1/purple.gif","img/card_backs/set2/orange.gif","img/card_backs/set2/pink.gif","img/card_backs/set2/blue.gif","img/card_backs/set2/gray.gif","""event"",""trial"",""time""
""fullscreenenter"",""1"",""3818""
","
","
","""event"",""trial"",""time""
""fullscreenenter"",""1"",""3818""
","
","","591.5","","","","real_trial","2021-08-18 09:37:05.837","img/card_backs/set1/green.gif","0","250","1","",""
"casino-fixation","98","374302","0.0-25.0-0.14","595","true","img/card_backs/set1/green.gif","img/card_backs/set1/yellow.gif","img/card_backs/set1/red.gif","img/card_backs/set1/purple.gif","img/card_backs/set2/orange.gif","img/card_backs/set2/pink.gif","img/card_backs/set2/blue.gif","img/card_backs/set2/gray.gif","""event"",""trial"",""time""
""fullscreenenter"",""1"",""3818""
","
","
","""event"",""trial"",""time""
""fullscreenenter"",""1"",""3818""
","
","","null","","null","","fixation","2021-08-18 09:37:06.344","","","","","",""
"card-selection-trial","99","376771","0.0-25.0-1.14","595","true","img/card_backs/set1/green.gif","img/card_backs/set1/yellow.gif","img/card_backs/set1/red.gif","img/card_backs/set1/purple.gif","img/card_backs/set2/orange.gif","img/card_backs/set2/pink.gif","img/card_backs/set2/blue.gif","img/card_backs/set2/gray.gif","""event"",""trial"",""time""
""fullscreenenter"",""1"",""3818""
","
","
","""event"",""trial"",""time""
""fullscreenenter"",""1"",""3818""
","
","","463.3999999985099","","","","real_trial","2021-08-18 09:37:08.813","img/card_backs/set1/purple.gif","3","60","1","",""
"casino-fixation","100","377278","0.0-25.0-0.15","595","true","img/card_backs/set1/green.gif","img/card_backs/set1/yellow.gif","img/card_backs/set1/red.gif","img/card_backs/set1/purple.gif","img/card_backs/set2/orange.gif","img/card_backs/set2/pink.gif","img/card_backs/set2/blue.gif","img/card_backs/set2/gray.gif","""event"",""trial"",""time""
""fullscreenenter"",""1"",""3818""
","
","
","""event"",""trial"",""time""
""fullscreenenter"",""1"",""3818""
","
","","null","","null","","fixation","2021-08-18 09:37:09.320","","","","","",""
"card-selection-trial","101","379721","0.0-25.0-1.15","595","true","img/card_backs/set1/green.gif","img/card_backs/set1/yellow.gif","img/card_backs/set1/red.gif","img/card_backs/set1/purple.gif","img/card_backs/set2/orange.gif","img/card_backs/set2/pink.gif","img/card_backs/set2/blue.gif","img/card_backs/set2/gray.gif","""event"",""trial"",""time""
""fullscreenenter"",""1"",""3818""
","
","
","""event"",""trial"",""time""
""fullscreenenter"",""1"",""3818""
","
","","432.1000000014901","","","","real_trial","2021-08-18 09:37:11.763","img/card_backs/set1/yellow.gif","2","260","1","",""
"casino-fixation","102","380227","0.0-25.0-0.16","595","true","img/card_backs/set1/green.gif","img/card_backs/set1/yellow.gif","img/card_backs/set1/red.gif","img/card_backs/set1/purple.gif","img/card_backs/set2/orange.gif","img/card_backs/set2/pink.gif","img/card_backs/set2/blue.gif","img/card_backs/set2/gray.gif","""event"",""trial"",""time""
""fullscreenenter"",""1"",""3818""
","
","
","""event"",""trial"",""time""
""fullscreenenter"",""1"",""3818""
","
","","null","","null","","fixation","2021-08-18 09:37:12.269","","","","","",""
"card-selection-trial","103","382825","0.0-25.0-1.16","595","true","img/card_backs/set1/green.gif","img/card_backs/set1/yellow.gif","img/card_backs/set1/red.gif","img/card_backs/set1/purple.gif","img/card_backs/set2/orange.gif","img/card_backs/set2/pink.gif","img/card_backs/set2/blue.gif","img/card_backs/set2/gray.gif","""event"",""trial"",""time""
""fullscreenenter"",""1"",""3818""
","
","
","""event"",""trial"",""time""
""fullscreenenter"",""1"",""3818""
","
","","587.3999999985099","","","","real_trial","2021-08-18 09:37:14.867","img/card_backs/set1/green.gif","1","260","1","",""
"casino-fixation","104","383331","0.0-25.0-0.17","595","true","img/card_backs/set1/green.gif","img/card_backs/set1/yellow.gif","img/card_backs/set1/red.gif","img/card_backs/set1/purple.gif","img/card_backs/set2/orange.gif","img/card_backs/set2/pink.gif","img/card_backs/set2/blue.gif","img/card_backs/set2/gray.gif","""event"",""trial"",""time""
""fullscreenenter"",""1"",""3818""
","
","
","""event"",""trial"",""time""
""fullscreenenter"",""1"",""3818""
","
","","null","","null","","fixation","2021-08-18 09:37:15.373","","","","","",""
"card-selection-trial","105","385833","0.0-25.0-1.17","595","true","img/card_backs/set1/green.gif","img/card_backs/set1/yellow.gif","img/card_backs/set1/red.gif","img/card_backs/set1/purple.gif","img/card_backs/set2/orange.gif","img/card_backs/set2/pink.gif","img/card_backs/set2/blue.gif","img/card_backs/set2/gray.gif","""event"",""trial"",""time""
""fullscreenenter"",""1"",""3818""
","
","
","""event"",""trial"",""time""
""fullscreenenter"",""1"",""3818""
","
","","493.8999999985099","","","","real_trial","2021-08-18 09:37:17.875","img/card_backs/set1/yellow.gif","0","-210","1","",""
"casino-fixation","106","386339","0.0-25.0-0.18","595","true","img/card_backs/set1/green.gif","img/card_backs/set1/yellow.gif","img/card_backs/set1/red.gif","img/card_backs/set1/purple.gif","img/card_backs/set2/orange.gif","img/card_backs/set2/pink.gif","img/card_backs/set2/blue.gif","img/card_backs/set2/gray.gif","""event"",""trial"",""time""
""fullscreenenter"",""1"",""3818""
","
","
","""event"",""trial"",""time""
""fullscreenenter"",""1"",""3818""
","
","","null","","null","","fixation","2021-08-18 09:37:18.381","","","","","",""
"card-selection-trial","107","389209","0.0-25.0-1.18","595","true","img/card_backs/set1/green.gif","img/card_backs/set1/yellow.gif","img/card_backs/set1/red.gif","img/card_backs/set1/purple.gif","img/card_backs/set2/orange.gif","img/card_backs/set2/pink.gif","img/card_backs/set2/blue.gif","img/card_backs/set2/gray.gif","""event"",""trial"",""time""
""fullscreenenter"",""1"",""3818""
","
","
","""event"",""trial"",""time""
""fullscreenenter"",""1"",""3818""
","
","","859.3000000044703","","","","real_trial","2021-08-18 09:37:21.251","img/card_backs/set1/purple.gif","2","-100","1","",""
"casino-fixation","108","389715","0.0-25.0-0.19","595","true","img/card_backs/set1/green.gif","img/card_backs/set1/yellow.gif","img/card_backs/set1/red.gif","img/card_backs/set1/purple.gif","img/card_backs/set2/orange.gif","img/card_backs/set2/pink.gif","img/card_backs/set2/blue.gif","img/card_backs/set2/gray.gif","""event"",""trial"",""time""
""fullscreenenter"",""1"",""3818""
","
","
","""event"",""trial"",""time""
""fullscreenenter"",""1"",""3818""
","
","","null","","null","","fixation","2021-08-18 09:37:21.757","","","","","",""
"card-selection-trial","109","392121","0.0-25.0-1.19","595","true","img/card_backs/set1/green.gif","img/card_backs/set1/yellow.gif","img/card_backs/set1/red.gif","img/card_backs/set1/purple.gif","img/card_backs/set2/orange.gif","img/card_backs/set2/pink.gif","img/card_backs/set2/blue.gif","img/card_backs/set2/gray.gif","""event"",""trial"",""time""
""fullscreenenter"",""1"",""3818""
","
","
","""event"",""trial"",""time""
""fullscreenenter"",""1"",""3818""
","
","","396.1000000014901","","","","real_trial","2021-08-18 09:37:24.163","img/card_backs/set1/red.gif","1","40","1","",""
"casino-fixation","110","392627","0.0-25.0-0.20","595","true","img/card_backs/set1/green.gif","img/card_backs/set1/yellow.gif","img/card_backs/set1/red.gif","img/card_backs/set1/purple.gif","img/card_backs/set2/orange.gif","img/card_backs/set2/pink.gif","img/card_backs/set2/blue.gif","img/card_backs/set2/gray.gif","""event"",""trial"",""time""
""fullscreenenter"",""1"",""3818""
","
","
","""event"",""trial"",""time""
""fullscreenenter"",""1"",""3818""
","
","","null","","null","","fixation","2021-08-18 09:37:24.669","","","","","",""
"card-selection-trial","111","395150","0.0-25.0-1.20","595","true","img/card_backs/set1/green.gif","img/card_backs/set1/yellow.gif","img/card_backs/set1/red.gif","img/card_backs/set1/purple.gif","img/card_backs/set2/orange.gif","img/card_backs/set2/pink.gif","img/card_backs/set2/blue.gif","img/card_backs/set2/gray.gif","""event"",""trial"",""time""
""fullscreenenter"",""1"",""3818""
","
","
","""event"",""trial"",""time""
""fullscreenenter"",""1"",""3818""
","
","","512.1000000014901","","","","real_trial","2021-08-18 09:37:27.192","img/card_backs/set1/purple.gif","3","-110","1","",""
"casino-fixation","112","395656","0.0-25.0-0.21","595","true","img/card_backs/set1/green.gif","img/card_backs/set1/yellow.gif","img/card_backs/set1/red.gif","img/card_backs/set1/purple.gif","img/card_backs/set2/orange.gif","img/card_backs/set2/pink.gif","img/card_backs/set2/blue.gif","img/card_backs/set2/gray.gif","""event"",""trial"",""time""
""fullscreenenter"",""1"",""3818""
","
","
","""event"",""trial"",""time""
""fullscreenenter"",""1"",""3818""
","
","","null","","null","","fixation","2021-08-18 09:37:27.698","","","","","",""
"card-selection-trial","113","398094","0.0-25.0-1.21","595","true","img/card_backs/set1/green.gif","img/card_backs/set1/yellow.gif","img/card_backs/set1/red.gif","img/card_backs/set1/purple.gif","img/card_backs/set2/orange.gif","img/card_backs/set2/pink.gif","img/card_backs/set2/blue.gif","img/card_backs/set2/gray.gif","""event"",""trial"",""time""
""fullscreenenter"",""1"",""3818""
","
","
","""event"",""trial"",""time""
""fullscreenenter"",""1"",""3818""
","
","","428.8999999985099","","","","real_trial","2021-08-18 09:37:30.136","img/card_backs/set1/yellow.gif","2","-210","1","",""
"casino-fixation","114","398595","0.0-25.0-0.22","595","true","img/card_backs/set1/green.gif","img/card_backs/set1/yellow.gif","img/card_backs/set1/red.gif","img/card_backs/set1/purple.gif","img/card_backs/set2/orange.gif","img/card_backs/set2/pink.gif","img/card_backs/set2/blue.gif","img/card_backs/set2/gray.gif","""event"",""trial"",""time""
""fullscreenenter"",""1"",""3818""
","
","
","""event"",""trial"",""time""
""fullscreenenter"",""1"",""3818""
","
","","null","","null","","fixation","2021-08-18 09:37:30.638","","","","","",""
"card-selection-trial","115","401152","0.0-25.0-1.22","595","true","img/card_backs/set1/green.gif","img/card_backs/set1/yellow.gif","img/card_backs/set1/red.gif","img/card_backs/set1/purple.gif","img/card_backs/set2/orange.gif","img/card_backs/set2/pink.gif","img/card_backs/set2/blue.gif","img/card_backs/set2/gray.gif","""event"",""trial"",""time""
""fullscreenenter"",""1"",""3818""
","
","
","""event"",""trial"",""time""
""fullscreenenter"",""1"",""3818""
","
","","545.6000000014901","","","","real_trial","2021-08-18 09:37:33.194","img/card_backs/set1/purple.gif","1","-110","1","",""
"casino-fixation","116","401656","0.0-25.0-0.23","595","true","img/card_backs/set1/green.gif","img/card_backs/set1/yellow.gif","img/card_backs/set1/red.gif","img/card_backs/set1/purple.gif","img/card_backs/set2/orange.gif","img/card_backs/set2/pink.gif","img/card_backs/set2/blue.gif","img/card_backs/set2/gray.gif","""event"",""trial"",""time""
""fullscreenenter"",""1"",""3818""
","
","
","""event"",""trial"",""time""
""fullscreenenter"",""1"",""3818""
","
","","null","","null","","fixation","2021-08-18 09:37:33.699","","","","","",""
"card-selection-trial","117","404003","0.0-25.0-1.23","595","true","img/card_backs/set1/green.gif","img/card_backs/set1/yellow.gif","img/card_backs/set1/red.gif","img/card_backs/set1/purple.gif","img/card_backs/set2/orange.gif","img/card_backs/set2/pink.gif","img/card_backs/set2/blue.gif","img/card_backs/set2/gray.gif","""event"",""trial"",""time""
""fullscreenenter"",""1"",""3818""
","
","
","""event"",""trial"",""time""
""fullscreenenter"",""1"",""3818""
","
","","336.20000000298023","","","","real_trial","2021-08-18 09:37:36.045","img/card_backs/set1/yellow.gif","2","240","1","",""
"casino-fixation","118","404510","0.0-25.0-0.24","595","true","img/card_backs/set1/green.gif","img/card_backs/set1/yellow.gif","img/card_backs/set1/red.gif","img/card_backs/set1/purple.gif","img/card_backs/set2/orange.gif","img/card_backs/set2/pink.gif","img/card_backs/set2/blue.gif","img/card_backs/set2/gray.gif","""event"",""trial"",""time""
""fullscreenenter"",""1"",""3818""
","
","
","""event"",""trial"",""time""
""fullscreenenter"",""1"",""3818""
","
","","null","","null","","fixation","2021-08-18 09:37:36.552","","","","","",""
"card-selection-trial","119","406878","0.0-25.0-1.24","595","true","img/card_backs/set1/green.gif","img/card_backs/set1/yellow.gif","img/card_backs/set1/red.gif","img/card_backs/set1/purple.gif","img/card_backs/set2/orange.gif","img/card_backs/set2/pink.gif","img/card_backs/set2/blue.gif","img/card_backs/set2/gray.gif","""event"",""trial"",""time""
""fullscreenenter"",""1"",""3818""
","
","
","""event"",""trial"",""time""
""fullscreenenter"",""1"",""3818""
","
","","357.8999999985099","","","","real_trial","2021-08-18 09:37:38.920","img/card_backs/set1/yellow.gif","2","250","1","",""
"casino-fixation","120","407384","0.0-25.0-0.25","595","true","img/card_backs/set1/green.gif","img/card_backs/set1/yellow.gif","img/card_backs/set1/red.gif","img/card_backs/set1/purple.gif","img/card_backs/set2/orange.gif","img/card_backs/set2/pink.gif","img/card_backs/set2/blue.gif","img/card_backs/set2/gray.gif","""event"",""trial"",""time""
""fullscreenenter"",""1"",""3818""
","
","
","""event"",""trial"",""time""
""fullscreenenter"",""1"",""3818""
","
","","null","","null","","fixation","2021-08-18 09:37:39.427","","","","","",""
"card-selection-trial","121","409742","0.0-25.0-1.25","595","true","img/card_backs/set1/green.gif","img/card_backs/set1/yellow.gif","img/card_backs/set1/red.gif","img/card_backs/set1/purple.gif","img/card_backs/set2/orange.gif","img/card_backs/set2/pink.gif","img/card_backs/set2/blue.gif","img/card_backs/set2/gray.gif","""event"",""trial"",""time""
""fullscreenenter"",""1"",""3818""
","
","
","""event"",""trial"",""time""
""fullscreenenter"",""1"",""3818""
","
","","346.79999999701977","","","","real_trial","2021-08-18 09:37:41.784","img/card_backs/set1/purple.gif","2","-110","1","",""
"casino-fixation","122","410248","0.0-25.0-0.26","595","true","img/card_backs/set1/green.gif","img/card_backs/set1/yellow.gif","img/card_backs/set1/red.gif","img/card_backs/set1/purple.gif","img/card_backs/set2/orange.gif","img/card_backs/set2/pink.gif","img/card_backs/set2/blue.gif","img/card_backs/set2/gray.gif","""event"",""trial"",""time""
""fullscreenenter"",""1"",""3818""
","
","
","""event"",""trial"",""time""
""fullscreenenter"",""1"",""3818""
","
","","null","","null","","fixation","2021-08-18 09:37:42.291","","","","","",""
"card-selection-trial","123","412563","0.0-25.0-1.26","595","true","img/card_backs/set1/green.gif","img/card_backs/set1/yellow.gif","img/card_backs/set1/red.gif","img/card_backs/set1/purple.gif","img/card_backs/set2/orange.gif","img/card_backs/set2/pink.gif","img/card_backs/set2/blue.gif","img/card_backs/set2/gray.gif","""event"",""trial"",""time""
""fullscreenenter"",""1"",""3818""
","
","
","""event"",""trial"",""time""
""fullscreenenter"",""1"",""3818""
","
","","306","","","","real_trial","2021-08-18 09:37:44.606","img/card_backs/set1/red.gif","3","-100","1","",""
"casino-fixation","124","413070","0.0-25.0-0.27","595","true","img/card_backs/set1/green.gif","img/card_backs/set1/yellow.gif","img/card_backs/set1/red.gif","img/card_backs/set1/purple.gif","img/card_backs/set2/orange.gif","img/card_backs/set2/pink.gif","img/card_backs/set2/blue.gif","img/card_backs/set2/gray.gif","""event"",""trial"",""time""
""fullscreenenter"",""1"",""3818""
","
","
","""event"",""trial"",""time""
""fullscreenenter"",""1"",""3818""
","
","","null","","null","","fixation","2021-08-18 09:37:45.112","","","","","",""
"card-selection-trial","125","415395","0.0-25.0-1.27","595","true","img/card_backs/set1/green.gif","img/card_backs/set1/yellow.gif","img/card_backs/set1/red.gif","img/card_backs/set1/purple.gif","img/card_backs/set2/orange.gif","img/card_backs/set2/pink.gif","img/card_backs/set2/blue.gif","img/card_backs/set2/gray.gif","""event"",""trial"",""time""
""fullscreenenter"",""1"",""3818""
","
","
","""event"",""trial"",""time""
""fullscreenenter"",""1"",""3818""
","
","","319.79999999701977","","","","real_trial","2021-08-18 09:37:47.438","img/card_backs/set1/purple.gif","0","-100","1","",""
"casino-fixation","126","415902","0.0-25.0-0.28","595","true","img/card_backs/set1/green.gif","img/card_backs/set1/yellow.gif","img/card_backs/set1/red.gif","img/card_backs/set1/purple.gif","img/card_backs/set2/orange.gif","img/card_backs/set2/pink.gif","img/card_backs/set2/blue.gif","img/card_backs/set2/gray.gif","""event"",""trial"",""time""
""fullscreenenter"",""1"",""3818""
","
","
","""event"",""trial"",""time""
""fullscreenenter"",""1"",""3818""
","
","","null","","null","","fixation","2021-08-18 09:37:47.944","","","","","",""
"card-selection-trial","127","418969","0.0-25.0-1.28","595","true","img/card_backs/set1/green.gif","img/card_backs/set1/yellow.gif","img/card_backs/set1/red.gif","img/card_backs/set1/purple.gif","img/card_backs/set2/orange.gif","img/card_backs/set2/pink.gif","img/card_backs/set2/blue.gif","img/card_backs/set2/gray.gif","""event"",""trial"",""time""
""fullscreenenter"",""1"",""3818""
","
","
","""event"",""trial"",""time""
""fullscreenenter"",""1"",""3818""
","
","","1059.8999999985099","","","","real_trial","2021-08-18 09:37:51.011","img/card_backs/set1/red.gif","0","-90","1","",""
"casino-fixation","128","419475","0.0-25.0-0.29","595","true","img/card_backs/set1/green.gif","img/card_backs/set1/yellow.gif","img/card_backs/set1/red.gif","img/card_backs/set1/purple.gif","img/card_backs/set2/orange.gif","img/card_backs/set2/pink.gif","img/card_backs/set2/blue.gif","img/card_backs/set2/gray.gif","""event"",""trial"",""time""
""fullscreenenter"",""1"",""3818""
","
","
","""event"",""trial"",""time""
""fullscreenenter"",""1"",""3818""
","
","","null","","null","","fixation","2021-08-18 09:37:51.517","","","","","",""
"card-selection-trial","129","421822","0.0-25.0-1.29","595","true","img/card_backs/set1/green.gif","img/card_backs/set1/yellow.gif","img/card_backs/set1/red.gif","img/card_backs/set1/purple.gif","img/card_backs/set2/orange.gif","img/card_backs/set2/pink.gif","img/card_backs/set2/blue.gif","img/card_backs/set2/gray.gif","""event"",""trial"",""time""
""fullscreenenter"",""1"",""3818""
","
","
","""event"",""trial"",""time""
""fullscreenenter"",""1"",""3818""
","
","","339.80000000447035","","","","real_trial","2021-08-18 09:37:53.864","img/card_backs/set1/yellow.gif","0","-210","1","",""
"casino-fixation","130","422328","0.0-25.0-0.30","595","true","img/card_backs/set1/green.gif","img/card_backs/set1/yellow.gif","img/card_backs/set1/red.gif","img/card_backs/set1/purple.gif","img/card_backs/set2/orange.gif","img/card_backs/set2/pink.gif","img/card_backs/set2/blue.gif","img/card_backs/set2/gray.gif","""event"",""trial"",""time""
""fullscreenenter"",""1"",""3818""
","
","
","""event"",""trial"",""time""
""fullscreenenter"",""1"",""3818""
","
","","null","","null","","fixation","2021-08-18 09:37:54.371","","","","","",""
"card-selection-trial","131","424659","0.0-25.0-1.30","595","true","img/card_backs/set1/green.gif","img/card_backs/set1/yellow.gif","img/card_backs/set1/red.gif","img/card_backs/set1/purple.gif","img/card_backs/set2/orange.gif","img/card_backs/set2/pink.gif","img/card_backs/set2/blue.gif","img/card_backs/set2/gray.gif","""event"",""trial"",""time""
""fullscreenenter"",""1"",""3818""
","
","
","""event"",""trial"",""time""
""fullscreenenter"",""1"",""3818""
","
","","321.5","","","","real_trial","2021-08-18 09:37:56.702","img/card_backs/set1/purple.gif","1","40","1","",""
"casino-fixation","132","425166","0.0-25.0-0.31","595","true","img/card_backs/set1/green.gif","img/card_backs/set1/yellow.gif","img/card_backs/set1/red.gif","img/card_backs/set1/purple.gif","img/card_backs/set2/orange.gif","img/card_backs/set2/pink.gif","img/card_backs/set2/blue.gif","img/card_backs/set2/gray.gif","""event"",""trial"",""time""
""fullscreenenter"",""1"",""3818""
","
","
","""event"",""trial"",""time""
""fullscreenenter"",""1"",""3818""
","
","","null","","null","","fixation","2021-08-18 09:37:57.208","","","","","",""
"card-selection-trial","133","427571","0.0-25.0-1.31","595","true","img/card_backs/set1/green.gif","img/card_backs/set1/yellow.gif","img/card_backs/set1/red.gif","img/card_backs/set1/purple.gif","img/card_backs/set2/orange.gif","img/card_backs/set2/pink.gif","img/card_backs/set2/blue.gif","img/card_backs/set2/gray.gif","""event"",""trial"",""time""
""fullscreenenter"",""1"",""3818""
","
","
","""event"",""trial"",""time""
""fullscreenenter"",""1"",""3818""
","
","","397.6000000014901","","","","real_trial","2021-08-18 09:37:59.614","img/card_backs/set1/red.gif","1","-110","1","",""
"casino-fixation","134","428078","0.0-25.0-0.32","595","true","img/card_backs/set1/green.gif","img/card_backs/set1/yellow.gif","img/card_backs/set1/red.gif","img/card_backs/set1/purple.gif","img/card_backs/set2/orange.gif","img/card_backs/set2/pink.gif","img/card_backs/set2/blue.gif","img/card_backs/set2/gray.gif","""event"",""trial"",""time""
""fullscreenenter"",""1"",""3818""
","
","
","""event"",""trial"",""time""
""fullscreenenter"",""1"",""3818""
","
","","null","","null","","fixation","2021-08-18 09:38:00.120","","","","","",""
"card-selection-trial","135","430457","0.0-25.0-1.32","595","true","img/card_backs/set1/green.gif","img/card_backs/set1/yellow.gif","img/card_backs/set1/red.gif","img/card_backs/set1/purple.gif","img/card_backs/set2/orange.gif","img/card_backs/set2/pink.gif","img/card_backs/set2/blue.gif","img/card_backs/set2/gray.gif","""event"",""trial"",""time""
""fullscreenenter"",""1"",""3818""
","
","
","""event"",""trial"",""time""
""fullscreenenter"",""1"",""3818""
","
","","370.70000000298023","","","","real_trial","2021-08-18 09:38:02.499","img/card_backs/set1/red.gif","2","-100","1","",""
"casino-fixation","136","430962","0.0-25.0-0.33","595","true","img/card_backs/set1/green.gif","img/card_backs/set1/yellow.gif","img/card_backs/set1/red.gif","img/card_backs/set1/purple.gif","img/card_backs/set2/orange.gif","img/card_backs/set2/pink.gif","img/card_backs/set2/blue.gif","img/card_backs/set2/gray.gif","""event"",""trial"",""time""
""fullscreenenter"",""1"",""3818""
","
","
","""event"",""trial"",""time""
""fullscreenenter"",""1"",""3818""
","
","","null","","null","","fixation","2021-08-18 09:38:03.004","","","","","",""
"card-selection-trial","137","433450","0.0-25.0-1.33","595","true","img/card_backs/set1/green.gif","img/card_backs/set1/yellow.gif","img/card_backs/set1/red.gif","img/card_backs/set1/purple.gif","img/card_backs/set2/orange.gif","img/card_backs/set2/pink.gif","img/card_backs/set2/blue.gif","img/card_backs/set2/gray.gif","""event"",""trial"",""time""
""fullscreenenter"",""1"",""3818""
","
","
","""event"",""trial"",""time""
""fullscreenenter"",""1"",""3818""
","
","","479.40000000596046","","","","real_trial","2021-08-18 09:38:05.492","img/card_backs/set1/green.gif","2","260","1","",""
"casino-fixation","138","433955","0.0-25.0-0.34","595","true","img/card_backs/set1/green.gif","img/card_backs/set1/yellow.gif","img/card_backs/set1/red.gif","img/card_backs/set1/purple.gif","img/card_backs/set2/orange.gif","img/card_backs/set2/pink.gif","img/card_backs/set2/blue.gif","img/card_backs/set2/gray.gif","""event"",""trial"",""time""
""fullscreenenter"",""1"",""3818""
","
","
","""event"",""trial"",""time""
""fullscreenenter"",""1"",""3818""
","
","","null","","null","","fixation","2021-08-18 09:38:05.997","","","","","",""
"card-selection-trial","139","436425","0.0-25.0-1.34","595","true","img/card_backs/set1/green.gif","img/card_backs/set1/yellow.gif","img/card_backs/set1/red.gif","img/card_backs/set1/purple.gif","img/card_backs/set2/orange.gif","img/card_backs/set2/pink.gif","img/card_backs/set2/blue.gif","img/card_backs/set2/gray.gif","""event"",""trial"",""time""
""fullscreenenter"",""1"",""3818""
","
","
","""event"",""trial"",""time""
""fullscreenenter"",""1"",""3818""
","
","","460.8999999985099","","","","real_trial","2021-08-18 09:38:08.467","img/card_backs/set1/green.gif","2","-200","1","",""
"casino-fixation","140","436931","0.0-25.0-0.35","595","true","img/card_backs/set1/green.gif","img/card_backs/set1/yellow.gif","img/card_backs/set1/red.gif","img/card_backs/set1/purple.gif","img/card_backs/set2/orange.gif","img/card_backs/set2/pink.gif","img/card_backs/set2/blue.gif","img/card_backs/set2/gray.gif","""event"",""trial"",""time""
""fullscreenenter"",""1"",""3818""
","
","
","""event"",""trial"",""time""
""fullscreenenter"",""1"",""3818""
","
","","null","","null","","fixation","2021-08-18 09:38:08.973","","","","","",""
"card-selection-trial","141","442996","0.0-25.0-1.35","595","true","img/card_backs/set1/green.gif","img/card_backs/set1/yellow.gif","img/card_backs/set1/red.gif","img/card_backs/set1/purple.gif","img/card_backs/set2/orange.gif","img/card_backs/set2/pink.gif","img/card_backs/set2/blue.gif","img/card_backs/set2/gray.gif","""event"",""trial"",""time""
""fullscreenenter"",""1"",""3818""
","
","
","""event"",""trial"",""time""
""fullscreenenter"",""1"",""3818""
","
","","4057.2000000029802","","","","real_trial","2021-08-18 09:38:15.038","img/card_backs/set1/green.gif","3","-200","1","",""
"casino-fixation","142","443502","0.0-25.0-0.36","595","true","img/card_backs/set1/green.gif","img/card_backs/set1/yellow.gif","img/card_backs/set1/red.gif","img/card_backs/set1/purple.gif","img/card_backs/set2/orange.gif","img/card_backs/set2/pink.gif","img/card_backs/set2/blue.gif","img/card_backs/set2/gray.gif","""event"",""trial"",""time""
""fullscreenenter"",""1"",""3818""
","
","
","""event"",""trial"",""time""
""fullscreenenter"",""1"",""3818""
","
","","null","","null","","fixation","2021-08-18 09:38:15.544","","","","","",""
"card-selection-trial","143","446516","0.0-25.0-1.36","595","true","img/card_backs/set1/green.gif","img/card_backs/set1/yellow.gif","img/card_backs/set1/red.gif","img/card_backs/set1/purple.gif","img/card_backs/set2/orange.gif","img/card_backs/set2/pink.gif","img/card_backs/set2/blue.gif","img/card_backs/set2/gray.gif","""event"",""trial"",""time""
""fullscreenenter"",""1"",""3818""
","
","
","""event"",""trial"",""time""
""fullscreenenter"",""1"",""3818""
","
","","1007.5999999940395","","","","real_trial","2021-08-18 09:38:18.558","img/card_backs/set1/green.gif","2","-210","1","",""
"casino-fixation","144","447021","0.0-25.0-0.37","595","true","img/card_backs/set1/green.gif","img/card_backs/set1/yellow.gif","img/card_backs/set1/red.gif","img/card_backs/set1/purple.gif","img/card_backs/set2/orange.gif","img/card_backs/set2/pink.gif","img/card_backs/set2/blue.gif","img/card_backs/set2/gray.gif","""event"",""trial"",""time""
""fullscreenenter"",""1"",""3818""
","
","
","""event"",""trial"",""time""
""fullscreenenter"",""1"",""3818""
","
","","null","","null","","fixation","2021-08-18 09:38:19.063","","","","","",""
"card-selection-trial","145","451225","0.0-25.0-1.37","595","true","img/card_backs/set1/green.gif","img/card_backs/set1/yellow.gif","img/card_backs/set1/red.gif","img/card_backs/set1/purple.gif","img/card_backs/set2/orange.gif","img/card_backs/set2/pink.gif","img/card_backs/set2/blue.gif","img/card_backs/set2/gray.gif","""event"",""trial"",""time""
""fullscreenenter"",""1"",""3818""
","
","
","""event"",""trial"",""time""
""fullscreenenter"",""1"",""3818""
","
","","2193.5","","","","real_trial","2021-08-18 09:38:23.267","img/card_backs/set1/yellow.gif","1","250","1","",""
"casino-fixation","146","451731","0.0-25.0-0.38","595","true","img/card_backs/set1/green.gif","img/card_backs/set1/yellow.gif","img/card_backs/set1/red.gif","img/card_backs/set1/purple.gif","img/card_backs/set2/orange.gif","img/card_backs/set2/pink.gif","img/card_backs/set2/blue.gif","img/card_backs/set2/gray.gif","""event"",""trial"",""time""
""fullscreenenter"",""1"",""3818""
","
","
","""event"",""trial"",""time""
""fullscreenenter"",""1"",""3818""
","
","","null","","null","","fixation","2021-08-18 09:38:23.773","","","","","",""
"card-selection-trial","147","454382","0.0-25.0-1.38","595","true","img/card_backs/set1/green.gif","img/card_backs/set1/yellow.gif","img/card_backs/set1/red.gif","img/card_backs/set1/purple.gif","img/card_backs/set2/orange.gif","img/card_backs/set2/pink.gif","img/card_backs/set2/blue.gif","img/card_backs/set2/gray.gif","""event"",""trial"",""time""
""fullscreenenter"",""1"",""3818""
","
","
","""event"",""trial"",""time""
""fullscreenenter"",""1"",""3818""
","
","","641.8999999985099","","","","real_trial","2021-08-18 09:38:26.424","img/card_backs/set1/yellow.gif","1","-200","1","",""
"casino-fixation","148","454889","0.0-25.0-0.39","595","true","img/card_backs/set1/green.gif","img/card_backs/set1/yellow.gif","img/card_backs/set1/red.gif","img/card_backs/set1/purple.gif","img/card_backs/set2/orange.gif","img/card_backs/set2/pink.gif","img/card_backs/set2/blue.gif","img/card_backs/set2/gray.gif","""event"",""trial"",""time""
""fullscreenenter"",""1"",""3818""
","
","
","""event"",""trial"",""time""
""fullscreenenter"",""1"",""3818""
","
","","null","","null","","fixation","2021-08-18 09:38:26.931","","","","","",""
"card-selection-trial","149","457678","0.0-25.0-1.39","595","true","img/card_backs/set1/green.gif","img/card_backs/set1/yellow.gif","img/card_backs/set1/red.gif","img/card_backs/set1/purple.gif","img/card_backs/set2/orange.gif","img/card_backs/set2/pink.gif","img/card_backs/set2/blue.gif","img/card_backs/set2/gray.gif","""event"",""trial"",""time""
""fullscreenenter"",""1"",""3818""
","
","
","""event"",""trial"",""time""
""fullscreenenter"",""1"",""3818""
","
","","782.5","","","","real_trial","2021-08-18 09:38:29.720","img/card_backs/set1/yellow.gif","3","260","1","",""
"casino-fixation","150","458182","0.0-25.0-0.40","595","true","img/card_backs/set1/green.gif","img/card_backs/set1/yellow.gif","img/card_backs/set1/red.gif","img/card_backs/set1/purple.gif","img/card_backs/set2/orange.gif","img/card_backs/set2/pink.gif","img/card_backs/set2/blue.gif","img/card_backs/set2/gray.gif","""event"",""trial"",""time""
""fullscreenenter"",""1"",""3818""
","
","
","""event"",""trial"",""time""
""fullscreenenter"",""1"",""3818""
","
","","null","","null","","fixation","2021-08-18 09:38:30.225","","","","","",""
"card-selection-trial","151","461337","0.0-25.0-1.40","595","true","img/card_backs/set1/green.gif","img/card_backs/set1/yellow.gif","img/card_backs/set1/red.gif","img/card_backs/set1/purple.gif","img/card_backs/set2/orange.gif","img/card_backs/set2/pink.gif","img/card_backs/set2/blue.gif","img/card_backs/set2/gray.gif","""event"",""trial"",""time""
""fullscreenenter"",""1"",""3818""
","
","
","""event"",""trial"",""time""
""fullscreenenter"",""1"",""3818""
","
","","1144.8999999985099","","","","real_trial","2021-08-18 09:38:33.379","img/card_backs/set1/yellow.gif","0","240","1","",""
"casino-fixation","152","461843","0.0-25.0-0.41","595","true","img/card_backs/set1/green.gif","img/card_backs/set1/yellow.gif","img/card_backs/set1/red.gif","img/card_backs/set1/purple.gif","img/card_backs/set2/orange.gif","img/card_backs/set2/pink.gif","img/card_backs/set2/blue.gif","img/card_backs/set2/gray.gif","""event"",""trial"",""time""
""fullscreenenter"",""1"",""3818""
","
","
","""event"",""trial"",""time""
""fullscreenenter"",""1"",""3818""
","
","","null","","null","","fixation","2021-08-18 09:38:33.885","","","","","",""
"card-selection-trial","153","465002","0.0-25.0-1.41","595","true","img/card_backs/set1/green.gif","img/card_backs/set1/yellow.gif","img/card_backs/set1/red.gif","img/card_backs/set1/purple.gif","img/card_backs/set2/orange.gif","img/card_backs/set2/pink.gif","img/card_backs/set2/blue.gif","img/card_backs/set2/gray.gif","""event"",""trial"",""time""
""fullscreenenter"",""1"",""3818""
","
","
","""event"",""trial"",""time""
""fullscreenenter"",""1"",""3818""
","
","","1147.2000000029802","","","","real_trial","2021-08-18 09:38:37.044","img/card_backs/set1/yellow.gif","1","-200","1","",""
"casino-fixation","154","465507","0.0-25.0-0.42","595","true","img/card_backs/set1/green.gif","img/card_backs/set1/yellow.gif","img/card_backs/set1/red.gif","img/card_backs/set1/purple.gif","img/card_backs/set2/orange.gif","img/card_backs/set2/pink.gif","img/card_backs/set2/blue.gif","img/card_backs/set2/gray.gif","""event"",""trial"",""time""
""fullscreenenter"",""1"",""3818""
","
","
","""event"",""trial"",""time""
""fullscreenenter"",""1"",""3818""
","
","","null","","null","","fixation","2021-08-18 09:38:37.550","","","","","",""
"card-selection-trial","155","468468","0.0-25.0-1.42","595","true","img/card_backs/set1/green.gif","img/card_backs/set1/yellow.gif","img/card_backs/set1/red.gif","img/card_backs/set1/purple.gif","img/card_backs/set2/orange.gif","img/card_backs/set2/pink.gif","img/card_backs/set2/blue.gif","img/card_backs/set2/gray.gif","""event"",""trial"",""time""
""fullscreenenter"",""1"",""3818""
","
","
","""event"",""trial"",""time""
""fullscreenenter"",""1"",""3818""
","
","","950.1000000014901","","","","real_trial","2021-08-18 09:38:40.510","img/card_backs/set1/red.gif","1","40","1","",""
"casino-fixation","156","468974","0.0-25.0-0.43","595","true","img/card_backs/set1/green.gif","img/card_backs/set1/yellow.gif","img/card_backs/set1/red.gif","img/card_backs/set1/purple.gif","img/card_backs/set2/orange.gif","img/card_backs/set2/pink.gif","img/card_backs/set2/blue.gif","img/card_backs/set2/gray.gif","""event"",""trial"",""time""
""fullscreenenter"",""1"",""3818""
","
","
","""event"",""trial"",""time""
""fullscreenenter"",""1"",""3818""
","
","","null","","null","","fixation","2021-08-18 09:38:41.016","","","","","",""
"card-selection-trial","157","471556","0.0-25.0-1.43","595","true","img/card_backs/set1/green.gif","img/card_backs/set1/yellow.gif","img/card_backs/set1/red.gif","img/card_backs/set1/purple.gif","img/card_backs/set2/orange.gif","img/card_backs/set2/pink.gif","img/card_backs/set2/blue.gif","img/card_backs/set2/gray.gif","""event"",""trial"",""time""
""fullscreenenter"",""1"",""3818""
","
","
","""event"",""trial"",""time""
""fullscreenenter"",""1"",""3818""
","
","","573","","","","real_trial","2021-08-18 09:38:43.598","img/card_backs/set1/red.gif","1","40","1","",""
"casino-fixation","158","472062","0.0-25.0-0.44","595","true","img/card_backs/set1/green.gif","img/card_backs/set1/yellow.gif","img/card_backs/set1/red.gif","img/card_backs/set1/purple.gif","img/card_backs/set2/orange.gif","img/card_backs/set2/pink.gif","img/card_backs/set2/blue.gif","img/card_backs/set2/gray.gif","""event"",""trial"",""time""
""fullscreenenter"",""1"",""3818""
","
","
","""event"",""trial"",""time""
""fullscreenenter"",""1"",""3818""
","
","","null","","null","","fixation","2021-08-18 09:38:44.104","","","","","",""
"card-selection-trial","159","474622","0.0-25.0-1.44","595","true","img/card_backs/set1/green.gif","img/card_backs/set1/yellow.gif","img/card_backs/set1/red.gif","img/card_backs/set1/purple.gif","img/card_backs/set2/orange.gif","img/card_backs/set2/pink.gif","img/card_backs/set2/blue.gif","img/card_backs/set2/gray.gif","""event"",""trial"",""time""
""fullscreenenter"",""1"",""3818""
","
","
","""event"",""trial"",""time""
""fullscreenenter"",""1"",""3818""
","
","","552.7999999970198","","","","real_trial","2021-08-18 09:38:46.664","img/card_backs/set1/red.gif","1","-90","1","",""
"casino-fixation","160","475129","0.0-25.0-0.45","595","true","img/card_backs/set1/green.gif","img/card_backs/set1/yellow.gif","img/card_backs/set1/red.gif","img/card_backs/set1/purple.gif","img/card_backs/set2/orange.gif","img/card_backs/set2/pink.gif","img/card_backs/set2/blue.gif","img/card_backs/set2/gray.gif","""event"",""trial"",""time""
""fullscreenenter"",""1"",""3818""
","
","
","""event"",""trial"",""time""
""fullscreenenter"",""1"",""3818""
","
","","null","","null","","fixation","2021-08-18 09:38:47.171","","","","","",""
"card-selection-trial","161","478318","0.0-25.0-1.45","595","true","img/card_backs/set1/green.gif","img/card_backs/set1/yellow.gif","img/card_backs/set1/red.gif","img/card_backs/set1/purple.gif","img/card_backs/set2/orange.gif","img/card_backs/set2/pink.gif","img/card_backs/set2/blue.gif","img/card_backs/set2/gray.gif","""event"",""trial"",""time""
""fullscreenenter"",""1"",""3818""
","
","
","""event"",""trial"",""time""
""fullscreenenter"",""1"",""3818""
","
","","1181.7000000029802","","","","real_trial","2021-08-18 09:38:50.360","img/card_backs/set1/green.gif","1","-200","1","",""
"casino-fixation","162","478825","0.0-25.0-0.46","595","true","img/card_backs/set1/green.gif","img/card_backs/set1/yellow.gif","img/card_backs/set1/red.gif","img/card_backs/set1/purple.gif","img/card_backs/set2/orange.gif","img/card_backs/set2/pink.gif","img/card_backs/set2/blue.gif","img/card_backs/set2/gray.gif","""event"",""trial"",""time""
""fullscreenenter"",""1"",""3818""
","
","
","""event"",""trial"",""time""
""fullscreenenter"",""1"",""3818""
","
","","null","","null","","fixation","2021-08-18 09:38:50.867","","","","","",""
"card-selection-trial","163","481508","0.0-25.0-1.46","595","true","img/card_backs/set1/green.gif","img/card_backs/set1/yellow.gif","img/card_backs/set1/red.gif","img/card_backs/set1/purple.gif","img/card_backs/set2/orange.gif","img/card_backs/set2/pink.gif","img/card_backs/set2/blue.gif","img/card_backs/set2/gray.gif","""event"",""trial"",""time""
""fullscreenenter"",""1"",""3818""
","
","
","""event"",""trial"",""time""
""fullscreenenter"",""1"",""3818""
","
","","675.6999999955297","","","","real_trial","2021-08-18 09:38:53.550","img/card_backs/set1/green.gif","0","-210","1","",""
"casino-fixation","164","482014","0.0-25.0-0.47","595","true","img/card_backs/set1/green.gif","img/card_backs/set1/yellow.gif","img/card_backs/set1/red.gif","img/card_backs/set1/purple.gif","img/card_backs/set2/orange.gif","img/card_backs/set2/pink.gif","img/card_backs/set2/blue.gif","img/card_backs/set2/gray.gif","""event"",""trial"",""time""
""fullscreenenter"",""1"",""3818""
","
","
","""event"",""trial"",""time""
""fullscreenenter"",""1"",""3818""
","
","","null","","null","","fixation","2021-08-18 09:38:54.056","","","","","",""
"card-selection-trial","165","485145","0.0-25.0-1.47","595","true","img/card_backs/set1/green.gif","img/card_backs/set1/yellow.gif","img/card_backs/set1/red.gif","img/card_backs/set1/purple.gif","img/card_backs/set2/orange.gif","img/card_backs/set2/pink.gif","img/card_backs/set2/blue.gif","img/card_backs/set2/gray.gif","""event"",""trial"",""time""
""fullscreenenter"",""1"",""3818""
","
","
","""event"",""trial"",""time""
""fullscreenenter"",""1"",""3818""
","
","","1119.7999999970198","","","","real_trial","2021-08-18 09:38:57.187","img/card_backs/set1/purple.gif","3","-90","1","",""
"casino-fixation","166","485651","0.0-25.0-0.48","595","true","img/card_backs/set1/green.gif","img/card_backs/set1/yellow.gif","img/card_backs/set1/red.gif","img/card_backs/set1/purple.gif","img/card_backs/set2/orange.gif","img/card_backs/set2/pink.gif","img/card_backs/set2/blue.gif","img/card_backs/set2/gray.gif","""event"",""trial"",""time""
""fullscreenenter"",""1"",""3818""
","
","
","""event"",""trial"",""time""
""fullscreenenter"",""1"",""3818""
","
","","null","","null","","fixation","2021-08-18 09:38:57.694","","","","","",""
"card-selection-trial","167","488361","0.0-25.0-1.48","595","true","img/card_backs/set1/green.gif","img/card_backs/set1/yellow.gif","img/card_backs/set1/red.gif","img/card_backs/set1/purple.gif","img/card_backs/set2/orange.gif","img/card_backs/set2/pink.gif","img/card_backs/set2/blue.gif","img/card_backs/set2/gray.gif","""event"",""trial"",""time""
""fullscreenenter"",""1"",""3818""
","
","
","""event"",""trial"",""time""
""fullscreenenter"",""1"",""3818""
","
","","699.2999999970198","","","","real_trial","2021-08-18 09:39:00.403","img/card_backs/set1/purple.gif","2","-100","1","",""
