"trial_type","trial_index","time_elapsed","internal_node_id","sub_id","risk_good_first","block1_A","block1_B","block1_C","block1_D","block2_A","block2_B","block2_C","block2_D","interactions","blur_events","focus_events","fullscreenenter_events","fullscreenexit_events","success","rt","stimulus","key_press","button_pressed","task_part","timestamp","card_choice","choice_position","points_earned","block","correct","response"
"pavlovia","0","15","0.0-0.0","A675","false","img/card_backs/set1/purple.gif","img/card_backs/set1/yellow.gif","img/card_backs/set1/green.gif","img/card_backs/set1/red.gif","img/card_backs/set2/pink.gif","img/card_backs/set2/gray.gif","img/card_backs/set2/blue.gif","img/card_backs/set2/orange.gif","""event"",""trial"",""time""
""fullscreenenter"",""1"",""3701""
","
","
","""event"",""trial"",""time""
""fullscreenenter"",""1"",""3701""
","
","","","","","","","","","","","","",""
"fullscreen","1","4663","0.0-1.0","A675","false","img/card_backs/set1/purple.gif","img/card_backs/set1/yellow.gif","img/card_backs/set1/green.gif","img/card_backs/set1/red.gif","img/card_backs/set2/pink.gif","img/card_backs/set2/gray.gif","img/card_backs/set2/blue.gif","img/card_backs/set2/orange.gif","""event"",""trial"",""time""
""fullscreenenter"",""1"",""3701""
","
","
","""event"",""trial"",""time""
""fullscreenenter"",""1"",""3701""
","
","true","","","","","","","","","","","",""
"audio-keyboard-response","2","9037","0.0-2.0","A675","false","img/card_backs/set1/purple.gif","img/card_backs/set1/yellow.gif","img/card_backs/set1/green.gif","img/card_backs/set1/red.gif","img/card_backs/set2/pink.gif","img/card_backs/set2/gray.gif","img/card_backs/set2/blue.gif","img/card_backs/set2/orange.gif","""event"",""trial"",""time""
""fullscreenenter"",""1"",""3701""
","
","
","""event"",""trial"",""time""
""fullscreenenter"",""1"",""3701""
","
","","4360","audio/beep_loop.wav","32","","","","","","","","",""
"audio-button-response","3","11679","0.0-3.0","A675","false","img/card_backs/set1/purple.gif","img/card_backs/set1/yellow.gif","img/card_backs/set1/green.gif","img/card_backs/set1/red.gif","img/card_backs/set2/pink.gif","img/card_backs/set2/gray.gif","img/card_backs/set2/blue.gif","img/card_backs/set2/orange.gif","""event"",""trial"",""time""
""fullscreenenter"",""1"",""3701""
","
","
","""event"",""trial"",""time""
""fullscreenenter"",""1"",""3701""
","
","","NaN","audio/turtle.mp3","","3","","","","","","","",""
"audio-button-response","4","14245","0.0-4.0","A675","false","img/card_backs/set1/purple.gif","img/card_backs/set1/yellow.gif","img/card_backs/set1/green.gif","img/card_backs/set1/red.gif","img/card_backs/set2/pink.gif","img/card_backs/set2/gray.gif","img/card_backs/set2/blue.gif","img/card_backs/set2/orange.gif","""event"",""trial"",""time""
""fullscreenenter"",""1"",""3701""
","
","
","""event"",""trial"",""time""
""fullscreenenter"",""1"",""3701""
","
","","NaN","audio/shark.mp3","","2","","","","","","","",""
"fullscreen","5","17452","0.0-5.0","A675","false","img/card_backs/set1/purple.gif","img/card_backs/set1/yellow.gif","img/card_backs/set1/green.gif","img/card_backs/set1/red.gif","img/card_backs/set2/pink.gif","img/card_backs/set2/gray.gif","img/card_backs/set2/blue.gif","img/card_backs/set2/orange.gif","""event"",""trial"",""time""
""fullscreenenter"",""1"",""3701""
","
","
","""event"",""trial"",""time""
""fullscreenenter"",""1"",""3701""
","
","true","","","","","","","","","","","",""
"casino-keyboard-response","6","20765","0.0-6.0-0.0","A675","false","img/card_backs/set1/purple.gif","img/card_backs/set1/yellow.gif","img/card_backs/set1/green.gif","img/card_backs/set1/red.gif","img/card_backs/set2/pink.gif","img/card_backs/set2/gray.gif","img/card_backs/set2/blue.gif","img/card_backs/set2/orange.gif","""event"",""trial"",""time""
""fullscreenenter"",""1"",""3701""
","
","
","""event"",""trial"",""time""
""fullscreenenter"",""1"",""3701""
","
","","3305.8000000715256","Welcome to the casino!","71","","instructions","2021-07-25 20:34:26.237","","","","","",""
"casino-keyboard-response","7","30280","0.0-6.0-0.1","A675","false","img/card_backs/set1/purple.gif","img/card_backs/set1/yellow.gif","img/card_backs/set1/green.gif","img/card_backs/set1/red.gif","img/card_backs/set2/pink.gif","img/card_backs/set2/gray.gif","img/card_backs/set2/blue.gif","img/card_backs/set2/orange.gif","""event"",""trial"",""time""
""fullscreenenter"",""1"",""3701""
","
","
","""event"",""trial"",""time""
""fullscreenenter"",""1"",""3701""
","
","","9511.800000071526","Today you will be playing a game to earn tokens. </br> At the end of the experiment, you will be paid a bonus based on how many tokens you win. ","69","","instructions","2021-07-25 20:34:35.752","","","","","",""
"casino-keyboard-response","8","42250","0.0-6.0-0.2","A675","false","img/card_backs/set1/purple.gif","img/card_backs/set1/yellow.gif","img/card_backs/set1/green.gif","img/card_backs/set1/red.gif","img/card_backs/set2/pink.gif","img/card_backs/set2/gray.gif","img/card_backs/set2/blue.gif","img/card_backs/set2/orange.gif","""event"",""trial"",""time""
""fullscreenenter"",""1"",""3701""
","
","
","""event"",""trial"",""time""
""fullscreenenter"",""1"",""3701""
","
","","11967.299999952316","On every turn, you will be shown four different decks of cards. </br> You need to select a card from one of the four decks.  ","75","","instructions","2021-07-25 20:34:47.722","","","","","",""
"casino-keyboard-response","9","46816","0.0-6.0-0.3","A675","false","img/card_backs/set1/purple.gif","img/card_backs/set1/yellow.gif","img/card_backs/set1/green.gif","img/card_backs/set1/red.gif","img/card_backs/set2/pink.gif","img/card_backs/set2/gray.gif","img/card_backs/set2/blue.gif","img/card_backs/set2/orange.gif","""event"",""trial"",""time""
""fullscreenenter"",""1"",""3701""
","
","
","""event"",""trial"",""time""
""fullscreenenter"",""1"",""3701""
","
","","4563","On the next screen, you will see what the decks will look like. ","66","","instructions","2021-07-25 20:34:52.288","","","","","",""
"card-selection-trial","10","50826","0.0-7.0-0.0","A675","false","img/card_backs/set1/purple.gif","img/card_backs/set1/yellow.gif","img/card_backs/set1/green.gif","img/card_backs/set1/red.gif","img/card_backs/set2/pink.gif","img/card_backs/set2/gray.gif","img/card_backs/set2/blue.gif","img/card_backs/set2/orange.gif","""event"",""trial"",""time""
""fullscreenenter"",""1"",""3701""
","
","
","""event"",""trial"",""time""
""fullscreenenter"",""1"",""3701""
","
","","null","","","","practice","2021-07-25 20:34:56.299","null","null","null","0","",""
"casino-keyboard-response","11","59867","0.0-8.0-0.0","A675","false","img/card_backs/set1/purple.gif","img/card_backs/set1/yellow.gif","img/card_backs/set1/green.gif","img/card_backs/set1/red.gif","img/card_backs/set2/pink.gif","img/card_backs/set2/gray.gif","img/card_backs/set2/blue.gif","img/card_backs/set2/orange.gif","""event"",""trial"",""time""
""fullscreenenter"",""1"",""3701""
","
","
","""event"",""trial"",""time""
""fullscreenenter"",""1"",""3701""
","
","","9038.199999928474","You should pick a card from a deck using the '2', '4', '6', and '8' keys at the top of the keyboard.","85","","instructions","2021-07-25 20:35:05.339","","","","","",""
"casino-keyboard-response","12","65193","0.0-8.0-0.1","A675","false","img/card_backs/set1/purple.gif","img/card_backs/set1/yellow.gif","img/card_backs/set1/green.gif","img/card_backs/set1/red.gif","img/card_backs/set2/pink.gif","img/card_backs/set2/gray.gif","img/card_backs/set2/blue.gif","img/card_backs/set2/orange.gif","""event"",""trial"",""time""
""fullscreenenter"",""1"",""3701""
","
","
","""event"",""trial"",""time""
""fullscreenenter"",""1"",""3701""
","
","","5323.400000095367","Once you select a card, it will turn over and you will see how many tokens you earned.","83","","instructions","2021-07-25 20:35:10.665","","","","","",""
"casino-keyboard-response","13","83466","0.0-8.0-0.2","A675","false","img/card_backs/set1/purple.gif","img/card_backs/set1/yellow.gif","img/card_backs/set1/green.gif","img/card_backs/set1/red.gif","img/card_backs/set2/pink.gif","img/card_backs/set2/gray.gif","img/card_backs/set2/blue.gif","img/card_backs/set2/orange.gif","""event"",""trial"",""time""
""fullscreenenter"",""1"",""3701""
","
","
","""event"",""trial"",""time""
""fullscreenenter"",""1"",""3701""
","
","","18269.799999952316","Let's try practicing that! </br> First, try to put your fingers over the '2', '4', '6', and '8' keys. </br>  You can use whatever fingers are most comfortable for you. Try to find a comfortable position now. ","50","","instructions","2021-07-25 20:35:28.938","","","","","",""
"casino-keyboard-response","14","89085","0.0-8.0-0.3","A675","false","img/card_backs/set1/purple.gif","img/card_backs/set1/yellow.gif","img/card_backs/set1/green.gif","img/card_backs/set1/red.gif","img/card_backs/set2/pink.gif","img/card_backs/set2/gray.gif","img/card_backs/set2/blue.gif","img/card_backs/set2/orange.gif","""event"",""trial"",""time""
""fullscreenenter"",""1"",""3701""
","
","
","""event"",""trial"",""time""
""fullscreenenter"",""1"",""3701""
","
","","5615.100000023842","Okay ready? </br> On the next screen, press '2' to select the left deck. ","50","","instructions","2021-07-25 20:35:34.557","","","","","",""
"card-selection-trial","15","92012","0.0-9.0-0.0","A675","false","img/card_backs/set1/purple.gif","img/card_backs/set1/yellow.gif","img/card_backs/set1/green.gif","img/card_backs/set1/red.gif","img/card_backs/set2/pink.gif","img/card_backs/set2/gray.gif","img/card_backs/set2/blue.gif","img/card_backs/set2/orange.gif","""event"",""trial"",""time""
""fullscreenenter"",""1"",""3701""
","
","
","""event"",""trial"",""time""
""fullscreenenter"",""1"",""3701""
","
","","887.8999999761581","","","","practice_card_selection","2021-07-25 20:35:37.484","img/practice_cards/backs/dark_green.gif","0","200","","",""
"casino-keyboard-response","16","97864","0.0-10.0-0.0","A675","false","img/card_backs/set1/purple.gif","img/card_backs/set1/yellow.gif","img/card_backs/set1/green.gif","img/card_backs/set1/red.gif","img/card_backs/set2/pink.gif","img/card_backs/set2/gray.gif","img/card_backs/set2/blue.gif","img/card_backs/set2/orange.gif","""event"",""trial"",""time""
""fullscreenenter"",""1"",""3701""
","
","
","""event"",""trial"",""time""
""fullscreenenter"",""1"",""3701""
","
","","5825.100000023842","Great! Now on the next screen, try pressing '6' to select the third deck.","54","","instructions","2021-07-25 20:35:43.336","","","","","",""
"card-selection-trial","17","100636","0.0-11.0-0.0","A675","false","img/card_backs/set1/purple.gif","img/card_backs/set1/yellow.gif","img/card_backs/set1/green.gif","img/card_backs/set1/red.gif","img/card_backs/set2/pink.gif","img/card_backs/set2/gray.gif","img/card_backs/set2/blue.gif","img/card_backs/set2/orange.gif","""event"",""trial"",""time""
""fullscreenenter"",""1"",""3701""
","
","
","""event"",""trial"",""time""
""fullscreenenter"",""1"",""3701""
","
","","766","","","","practice_card_selection","2021-07-25 20:35:46.108","img/practice_cards/backs/dark_green.gif","2","200","","",""
"casino-keyboard-response","18","105155","0.0-12.0-0.0","A675","false","img/card_backs/set1/purple.gif","img/card_backs/set1/yellow.gif","img/card_backs/set1/green.gif","img/card_backs/set1/red.gif","img/card_backs/set2/pink.gif","img/card_backs/set2/gray.gif","img/card_backs/set2/blue.gif","img/card_backs/set2/orange.gif","""event"",""trial"",""time""
""fullscreenenter"",""1"",""3701""
","
","
","""event"",""trial"",""time""
""fullscreenenter"",""1"",""3701""
","
","","4516.899999976158","Now on the next screen, try pressing '4' to select the second deck.","52","","instructions","2021-07-25 20:35:50.627","","","","","",""
"card-selection-trial","19","109426","0.0-13.0-0.0","A675","false","img/card_backs/set1/purple.gif","img/card_backs/set1/yellow.gif","img/card_backs/set1/green.gif","img/card_backs/set1/red.gif","img/card_backs/set2/pink.gif","img/card_backs/set2/gray.gif","img/card_backs/set2/blue.gif","img/card_backs/set2/orange.gif","""event"",""trial"",""time""
""fullscreenenter"",""1"",""3701""
","
","
","""event"",""trial"",""time""
""fullscreenenter"",""1"",""3701""
","
","","2258.399999976158","","","","practice_card_selection","2021-07-25 20:35:54.898","img/practice_cards/backs/black.gif","1","-100","","",""
"casino-keyboard-response","20","113958","0.0-14.0-0.0","A675","false","img/card_backs/set1/purple.gif","img/card_backs/set1/yellow.gif","img/card_backs/set1/green.gif","img/card_backs/set1/red.gif","img/card_backs/set2/pink.gif","img/card_backs/set2/gray.gif","img/card_backs/set2/blue.gif","img/card_backs/set2/orange.gif","""event"",""trial"",""time""
""fullscreenenter"",""1"",""3701""
","
","
","""event"",""trial"",""time""
""fullscreenenter"",""1"",""3701""
","
","","4529.100000023842","Finally, try pressing '8' to select the deck all the way on the right.","56","","instructions","2021-07-25 20:35:59.430","","","","","",""
"card-selection-trial","21","116645","0.0-15.0-0.0","A675","false","img/card_backs/set1/purple.gif","img/card_backs/set1/yellow.gif","img/card_backs/set1/green.gif","img/card_backs/set1/red.gif","img/card_backs/set2/pink.gif","img/card_backs/set2/gray.gif","img/card_backs/set2/blue.gif","img/card_backs/set2/orange.gif","""event"",""trial"",""time""
""fullscreenenter"",""1"",""3701""
","
","
","""event"",""trial"",""time""
""fullscreenenter"",""1"",""3701""
","
","","673.8000000715256","","","","practice_card_selection","2021-07-25 20:36:02.117","img/practice_cards/backs/brown.gif","3","100","","",""
"casino-keyboard-response","22","120557","0.0-16.0-0.0","A675","false","img/card_backs/set1/purple.gif","img/card_backs/set1/yellow.gif","img/card_backs/set1/green.gif","img/card_backs/set1/red.gif","img/card_backs/set2/pink.gif","img/card_backs/set2/gray.gif","img/card_backs/set2/blue.gif","img/card_backs/set2/orange.gif","""event"",""trial"",""time""
""fullscreenenter"",""1"",""3701""
","
","
","""event"",""trial"",""time""
""fullscreenenter"",""1"",""3701""
","
","","3909.4000000953674","Great! It seems like you are getting the hang of this.","80","","instructions","2021-07-25 20:36:06.029","","","","","",""
"casino-keyboard-response","23","128361","0.0-16.0-0.1","A675","false","img/card_backs/set1/purple.gif","img/card_backs/set1/yellow.gif","img/card_backs/set1/green.gif","img/card_backs/set1/red.gif","img/card_backs/set2/pink.gif","img/card_backs/set2/gray.gif","img/card_backs/set2/blue.gif","img/card_backs/set2/orange.gif","""event"",""trial"",""time""
""fullscreenenter"",""1"",""3701""
","
","
","""event"",""trial"",""time""
""fullscreenenter"",""1"",""3701""
","
","","7800.800000071526","You may have noticed that some cards will cause you to <b> win </b> tokens while other cards will cause you to <b> lose </b>  tokens.","70","","instructions","2021-07-25 20:36:13.833","","","","","",""
"casino-keyboard-response","24","144710","0.0-16.0-0.2","A675","false","img/card_backs/set1/purple.gif","img/card_backs/set1/yellow.gif","img/card_backs/set1/green.gif","img/card_backs/set1/red.gif","img/card_backs/set2/pink.gif","img/card_backs/set2/gray.gif","img/card_backs/set2/blue.gif","img/card_backs/set2/orange.gif","""event"",""trial"",""time""
""fullscreenenter"",""1"",""3701""
","
","
","""event"",""trial"",""time""
""fullscreenenter"",""1"",""3701""
","
","","16345","Each deck has a mix of cards that will cause you to win and lose tokens. </br> However, the cards in each colored deck are different.","73","","instructions","2021-07-25 20:36:30.182","","","","","",""
"casino-keyboard-response","25","153534","0.0-16.0-0.3","A675","false","img/card_backs/set1/purple.gif","img/card_backs/set1/yellow.gif","img/card_backs/set1/green.gif","img/card_backs/set1/red.gif","img/card_backs/set2/pink.gif","img/card_backs/set2/gray.gif","img/card_backs/set2/blue.gif","img/card_backs/set2/orange.gif","""event"",""trial"",""time""
""fullscreenenter"",""1"",""3701""
","
","
","""event"",""trial"",""time""
""fullscreenenter"",""1"",""3701""
","
","","8820.200000047684","Some colored decks are luckier than others. </br> If you choose the lucky decks, you will earn more tokens than if you choose the unlucky decks.","69","","instructions","2021-07-25 20:36:39.006","","","","","",""
"casino-keyboard-response","26","161180","0.0-16.0-0.4","A675","false","img/card_backs/set1/purple.gif","img/card_backs/set1/yellow.gif","img/card_backs/set1/green.gif","img/card_backs/set1/red.gif","img/card_backs/set2/pink.gif","img/card_backs/set2/gray.gif","img/card_backs/set2/blue.gif","img/card_backs/set2/orange.gif","""event"",""trial"",""time""
""fullscreenenter"",""1"",""3701""
","
","
","""event"",""trial"",""time""
""fullscreenenter"",""1"",""3701""
","
","","7642.899999976158","You should try to figure out which decks are lucky. </br> Then, try to choose the lucky decks so you can win the most tokens.","87","","instructions","2021-07-25 20:36:46.652","","","","","",""
"casino-keyboard-response","27","172944","0.0-16.0-0.5","A675","false","img/card_backs/set1/purple.gif","img/card_backs/set1/yellow.gif","img/card_backs/set1/green.gif","img/card_backs/set1/red.gif","img/card_backs/set2/pink.gif","img/card_backs/set2/gray.gif","img/card_backs/set2/blue.gif","img/card_backs/set2/orange.gif","""event"",""trial"",""time""
""fullscreenenter"",""1"",""3701""
","
","
","""event"",""trial"",""time""
""fullscreenenter"",""1"",""3701""
","
","","11756.100000023842","To make it trickier, the casino dealer will switch the locations of the decks on every turn. </br> The color of the deck determines how lucky it is. The location does not matter.","88","","instructions","2021-07-25 20:36:58.416","","","","","",""
"casino-keyboard-response","28","182653","0.0-16.0-0.6","A675","false","img/card_backs/set1/purple.gif","img/card_backs/set1/yellow.gif","img/card_backs/set1/green.gif","img/card_backs/set1/red.gif","img/card_backs/set2/pink.gif","img/card_backs/set2/gray.gif","img/card_backs/set2/blue.gif","img/card_backs/set2/orange.gif","""event"",""trial"",""time""
""fullscreenenter"",""1"",""3701""
","
","
","""event"",""trial"",""time""
""fullscreenenter"",""1"",""3701""
","
","","9701.399999976158","The mix of cards in each colored deck will stay the same throughout the game. </br> That means that a deck that is lucky early on will stay lucky.","79","","instructions","2021-07-25 20:37:08.126","","","","","",""
"casino-keyboard-response","29","191278","0.0-16.0-0.7","A675","false","img/card_backs/set1/purple.gif","img/card_backs/set1/yellow.gif","img/card_backs/set1/green.gif","img/card_backs/set1/red.gif","img/card_backs/set2/pink.gif","img/card_backs/set2/gray.gif","img/card_backs/set2/blue.gif","img/card_backs/set2/orange.gif","""event"",""trial"",""time""
""fullscreenenter"",""1"",""3701""
","
","
","""event"",""trial"",""time""
""fullscreenenter"",""1"",""3701""
","
","","8618.400000095367","Remember though, all the decks have a <b> mix </b> of both <b> good </b> and <b> bad </b> cards so it may take a couple of turns to figure out if a deck is lucky.","69","","instructions","2021-07-25 20:37:16.750","","","","","",""
"casino-keyboard-response","30","199533","0.0-16.0-0.8","A675","false","img/card_backs/set1/purple.gif","img/card_backs/set1/yellow.gif","img/card_backs/set1/green.gif","img/card_backs/set1/red.gif","img/card_backs/set2/pink.gif","img/card_backs/set2/gray.gif","img/card_backs/set2/blue.gif","img/card_backs/set2/orange.gif","""event"",""trial"",""time""
""fullscreenenter"",""1"",""3701""
","
","
","""event"",""trial"",""time""
""fullscreenenter"",""1"",""3701""
","
","","8251.800000071526","At the end of the game, you will be paid bonus money based on how many tokens you win. </br> If you win more tokens, you will earn more money!","72","","instructions","2021-07-25 20:37:25.005","","","","","",""
"casino-keyboard-response","31","209919","0.0-16.0-0.9","A675","false","img/card_backs/set1/purple.gif","img/card_backs/set1/yellow.gif","img/card_backs/set1/green.gif","img/card_backs/set1/red.gif","img/card_backs/set2/pink.gif","img/card_backs/set2/gray.gif","img/card_backs/set2/blue.gif","img/card_backs/set2/orange.gif","""event"",""trial"",""time""
""fullscreenenter"",""1"",""3701""
","
","
","""event"",""trial"",""time""
""fullscreenenter"",""1"",""3701""
","
","","10383.200000047684","You will never <b> lose </b> money. </br> If you end up with fewer than 0 tokens, you will earn $0 of bonus money, but you will still be paid for playing the game.","83","","instructions","2021-07-25 20:37:35.392","","","","","",""
"casino-keyboard-response","32","214152","0.0-16.0-0.10","A675","false","img/card_backs/set1/purple.gif","img/card_backs/set1/yellow.gif","img/card_backs/set1/green.gif","img/card_backs/set1/red.gif","img/card_backs/set2/pink.gif","img/card_backs/set2/gray.gif","img/card_backs/set2/blue.gif","img/card_backs/set2/orange.gif","""event"",""trial"",""time""
""fullscreenenter"",""1"",""3701""
","
","
","""event"",""trial"",""time""
""fullscreenenter"",""1"",""3701""
","
","","4229.700000047684","You will have 10 seconds to make each choice.","82","","instructions","2021-07-25 20:37:39.624","","","","","",""
"casino-keyboard-response","33","222393","0.0-16.0-0.11","A675","false","img/card_backs/set1/purple.gif","img/card_backs/set1/yellow.gif","img/card_backs/set1/green.gif","img/card_backs/set1/red.gif","img/card_backs/set2/pink.gif","img/card_backs/set2/gray.gif","img/card_backs/set2/blue.gif","img/card_backs/set2/orange.gif","""event"",""trial"",""time""
""fullscreenenter"",""1"",""3701""
","
","
","""event"",""trial"",""time""
""fullscreenenter"",""1"",""3701""
","
","","8236.399999976158","Before you play the game for real, you will play with practice decks. </br> The tokens you earn during practice won't count toward your total.","86","","instructions","2021-07-25 20:37:47.865","","","","","",""
"casino-keyboard-response","34","228256","0.0-16.0-0.12","A675","false","img/card_backs/set1/purple.gif","img/card_backs/set1/yellow.gif","img/card_backs/set1/green.gif","img/card_backs/set1/red.gif","img/card_backs/set2/pink.gif","img/card_backs/set2/gray.gif","img/card_backs/set2/blue.gif","img/card_backs/set2/orange.gif","""event"",""trial"",""time""
""fullscreenenter"",""1"",""3701""
","
","
","""event"",""trial"",""time""
""fullscreenenter"",""1"",""3701""
","
","","5859.600000023842","Ready? Remember, use the '2', '4', '6', and '8' keys to select the decks. </br> Put your fingers on those keys now and then press '2' to begin.","50","","instructions","2021-07-25 20:37:53.728","","","","","",""
"casino-fixation","35","228760","0.0-17.0-0.0","A675","false","img/card_backs/set1/purple.gif","img/card_backs/set1/yellow.gif","img/card_backs/set1/green.gif","img/card_backs/set1/red.gif","img/card_backs/set2/pink.gif","img/card_backs/set2/gray.gif","img/card_backs/set2/blue.gif","img/card_backs/set2/orange.gif","""event"",""trial"",""time""
""fullscreenenter"",""1"",""3701""
","
","
","""event"",""trial"",""time""
""fullscreenenter"",""1"",""3701""
","
","","null","","null","","fixation","2021-07-25 20:37:54.233","","","","","",""
"card-selection-trial","36","232053","0.0-17.0-1.0","A675","false","img/card_backs/set1/purple.gif","img/card_backs/set1/yellow.gif","img/card_backs/set1/green.gif","img/card_backs/set1/red.gif","img/card_backs/set2/pink.gif","img/card_backs/set2/gray.gif","img/card_backs/set2/blue.gif","img/card_backs/set2/orange.gif","""event"",""trial"",""time""
""fullscreenenter"",""1"",""3701""
","
","
","""event"",""trial"",""time""
""fullscreenenter"",""1"",""3701""
","
","","1281.1999999284744","","","","practice","2021-07-25 20:37:57.525","img/practice_cards/backs/black.gif","0","100","0","",""
"casino-fixation","37","232559","0.0-17.0-0.1","A675","false","img/card_backs/set1/purple.gif","img/card_backs/set1/yellow.gif","img/card_backs/set1/green.gif","img/card_backs/set1/red.gif","img/card_backs/set2/pink.gif","img/card_backs/set2/gray.gif","img/card_backs/set2/blue.gif","img/card_backs/set2/orange.gif","""event"",""trial"",""time""
""fullscreenenter"",""1"",""3701""
","
","
","""event"",""trial"",""time""
""fullscreenenter"",""1"",""3701""
","
","","null","","null","","fixation","2021-07-25 20:37:58.031","","","","","",""
"card-selection-trial","38","235857","0.0-17.0-1.1","A675","false","img/card_backs/set1/purple.gif","img/card_backs/set1/yellow.gif","img/card_backs/set1/green.gif","img/card_backs/set1/red.gif","img/card_backs/set2/pink.gif","img/card_backs/set2/gray.gif","img/card_backs/set2/blue.gif","img/card_backs/set2/orange.gif","""event"",""trial"",""time""
""fullscreenenter"",""1"",""3701""
","
","
","""event"",""trial"",""time""
""fullscreenenter"",""1"",""3701""
","
","","1290.8999999761581","","","","practice","2021-07-25 20:38:01.329","img/practice_cards/backs/black.gif","0","100","0","",""
"casino-fixation","39","236361","0.0-17.0-0.2","A675","false","img/card_backs/set1/purple.gif","img/card_backs/set1/yellow.gif","img/card_backs/set1/green.gif","img/card_backs/set1/red.gif","img/card_backs/set2/pink.gif","img/card_backs/set2/gray.gif","img/card_backs/set2/blue.gif","img/card_backs/set2/orange.gif","""event"",""trial"",""time""
""fullscreenenter"",""1"",""3701""
","
","
","""event"",""trial"",""time""
""fullscreenenter"",""1"",""3701""
","
","","null","","null","","fixation","2021-07-25 20:38:01.833","","","","","",""
"card-selection-trial","40","239080","0.0-17.0-1.2","A675","false","img/card_backs/set1/purple.gif","img/card_backs/set1/yellow.gif","img/card_backs/set1/green.gif","img/card_backs/set1/red.gif","img/card_backs/set2/pink.gif","img/card_backs/set2/gray.gif","img/card_backs/set2/blue.gif","img/card_backs/set2/orange.gif","""event"",""trial"",""time""
""fullscreenenter"",""1"",""3701""
","
","
","""event"",""trial"",""time""
""fullscreenenter"",""1"",""3701""
","
","","710.8999999761581","","","","practice","2021-07-25 20:38:04.552","img/practice_cards/backs/brown.gif","0","100","0","",""
"casino-fixation","41","239584","0.0-17.0-0.3","A675","false","img/card_backs/set1/purple.gif","img/card_backs/set1/yellow.gif","img/card_backs/set1/green.gif","img/card_backs/set1/red.gif","img/card_backs/set2/pink.gif","img/card_backs/set2/gray.gif","img/card_backs/set2/blue.gif","img/card_backs/set2/orange.gif","""event"",""trial"",""time""
""fullscreenenter"",""1"",""3701""
","
","
","""event"",""trial"",""time""
""fullscreenenter"",""1"",""3701""
","
","","null","","null","","fixation","2021-07-25 20:38:05.056","","","","","",""
"card-selection-trial","42","242019","0.0-17.0-1.3","A675","false","img/card_backs/set1/purple.gif","img/card_backs/set1/yellow.gif","img/card_backs/set1/green.gif","img/card_backs/set1/red.gif","img/card_backs/set2/pink.gif","img/card_backs/set2/gray.gif","img/card_backs/set2/blue.gif","img/card_backs/set2/orange.gif","""event"",""trial"",""time""
""fullscreenenter"",""1"",""3701""
","
","
","""event"",""trial"",""time""
""fullscreenenter"",""1"",""3701""
","
","","427.7999999523163","","","","practice","2021-07-25 20:38:07.491","img/practice_cards/backs/dark_blue.gif","0","-200","0","",""
"casino-fixation","43","242522","0.0-17.0-0.4","A675","false","img/card_backs/set1/purple.gif","img/card_backs/set1/yellow.gif","img/card_backs/set1/green.gif","img/card_backs/set1/red.gif","img/card_backs/set2/pink.gif","img/card_backs/set2/gray.gif","img/card_backs/set2/blue.gif","img/card_backs/set2/orange.gif","""event"",""trial"",""time""
""fullscreenenter"",""1"",""3701""
","
","
","""event"",""trial"",""time""
""fullscreenenter"",""1"",""3701""
","
","","null","","null","","fixation","2021-07-25 20:38:07.995","","","","","",""
"card-selection-trial","44","244959","0.0-17.0-1.4","A675","false","img/card_backs/set1/purple.gif","img/card_backs/set1/yellow.gif","img/card_backs/set1/green.gif","img/card_backs/set1/red.gif","img/card_backs/set2/pink.gif","img/card_backs/set2/gray.gif","img/card_backs/set2/blue.gif","img/card_backs/set2/orange.gif","""event"",""trial"",""time""
""fullscreenenter"",""1"",""3701""
","
","
","""event"",""trial"",""time""
""fullscreenenter"",""1"",""3701""
","
","","428","","","","practice","2021-07-25 20:38:10.431","img/practice_cards/backs/dark_blue.gif","0","200","0","",""
"casino-fixation","45","245464","0.0-17.0-0.5","A675","false","img/card_backs/set1/purple.gif","img/card_backs/set1/yellow.gif","img/card_backs/set1/green.gif","img/card_backs/set1/red.gif","img/card_backs/set2/pink.gif","img/card_backs/set2/gray.gif","img/card_backs/set2/blue.gif","img/card_backs/set2/orange.gif","""event"",""trial"",""time""
""fullscreenenter"",""1"",""3701""
","
","
","""event"",""trial"",""time""
""fullscreenenter"",""1"",""3701""
","
","","null","","null","","fixation","2021-07-25 20:38:10.936","","","","","",""
"card-selection-trial","46","249022","0.0-17.0-1.5","A675","false","img/card_backs/set1/purple.gif","img/card_backs/set1/yellow.gif","img/card_backs/set1/green.gif","img/card_backs/set1/red.gif","img/card_backs/set2/pink.gif","img/card_backs/set2/gray.gif","img/card_backs/set2/blue.gif","img/card_backs/set2/orange.gif","""event"",""trial"",""time""
""fullscreenenter"",""1"",""3701""
","
","
","""event"",""trial"",""time""
""fullscreenenter"",""1"",""3701""
","
","","1549.2000000476837","","","","practice","2021-07-25 20:38:14.494","img/practice_cards/backs/dark_green.gif","1","-200","0","",""
"casino-fixation","47","249525","0.0-17.0-0.6","A675","false","img/card_backs/set1/purple.gif","img/card_backs/set1/yellow.gif","img/card_backs/set1/green.gif","img/card_backs/set1/red.gif","img/card_backs/set2/pink.gif","img/card_backs/set2/gray.gif","img/card_backs/set2/blue.gif","img/card_backs/set2/orange.gif","""event"",""trial"",""time""
""fullscreenenter"",""1"",""3701""
","
","
","""event"",""trial"",""time""
""fullscreenenter"",""1"",""3701""
","
","","null","","null","","fixation","2021-07-25 20:38:14.997","","","","","",""
"card-selection-trial","48","251875","0.0-17.0-1.6","A675","false","img/card_backs/set1/purple.gif","img/card_backs/set1/yellow.gif","img/card_backs/set1/green.gif","img/card_backs/set1/red.gif","img/card_backs/set2/pink.gif","img/card_backs/set2/gray.gif","img/card_backs/set2/blue.gif","img/card_backs/set2/orange.gif","""event"",""trial"",""time""
""fullscreenenter"",""1"",""3701""
","
","
","""event"",""trial"",""time""
""fullscreenenter"",""1"",""3701""
","
","","338.59999990463257","","","","practice","2021-07-25 20:38:17.347","img/practice_cards/backs/dark_blue.gif","1","200","0","",""
"casino-fixation","49","252379","0.0-17.0-0.7","A675","false","img/card_backs/set1/purple.gif","img/card_backs/set1/yellow.gif","img/card_backs/set1/green.gif","img/card_backs/set1/red.gif","img/card_backs/set2/pink.gif","img/card_backs/set2/gray.gif","img/card_backs/set2/blue.gif","img/card_backs/set2/orange.gif","""event"",""trial"",""time""
""fullscreenenter"",""1"",""3701""
","
","
","""event"",""trial"",""time""
""fullscreenenter"",""1"",""3701""
","
","","null","","null","","fixation","2021-07-25 20:38:17.851","","","","","",""
"card-selection-trial","50","254671","0.0-17.0-1.7","A675","false","img/card_backs/set1/purple.gif","img/card_backs/set1/yellow.gif","img/card_backs/set1/green.gif","img/card_backs/set1/red.gif","img/card_backs/set2/pink.gif","img/card_backs/set2/gray.gif","img/card_backs/set2/blue.gif","img/card_backs/set2/orange.gif","""event"",""trial"",""time""
""fullscreenenter"",""1"",""3701""
","
","
","""event"",""trial"",""time""
""fullscreenenter"",""1"",""3701""
","
","","284.6999999284744","","","","practice","2021-07-25 20:38:20.143","img/practice_cards/backs/dark_blue.gif","1","200","0","",""
"casino-fixation","51","255176","0.0-17.0-0.8","A675","false","img/card_backs/set1/purple.gif","img/card_backs/set1/yellow.gif","img/card_backs/set1/green.gif","img/card_backs/set1/red.gif","img/card_backs/set2/pink.gif","img/card_backs/set2/gray.gif","img/card_backs/set2/blue.gif","img/card_backs/set2/orange.gif","""event"",""trial"",""time""
""fullscreenenter"",""1"",""3701""
","
","
","""event"",""trial"",""time""
""fullscreenenter"",""1"",""3701""
","
","","null","","null","","fixation","2021-07-25 20:38:20.648","","","","","",""
"card-selection-trial","52","257539","0.0-17.0-1.8","A675","false","img/card_backs/set1/purple.gif","img/card_backs/set1/yellow.gif","img/card_backs/set1/green.gif","img/card_backs/set1/red.gif","img/card_backs/set2/pink.gif","img/card_backs/set2/gray.gif","img/card_backs/set2/blue.gif","img/card_backs/set2/orange.gif","""event"",""trial"",""time""
""fullscreenenter"",""1"",""3701""
","
","
","""event"",""trial"",""time""
""fullscreenenter"",""1"",""3701""
","
","","355.7000000476837","","","","practice","2021-07-25 20:38:23.011","img/practice_cards/backs/dark_green.gif","1","-200","0","",""
"casino-fixation","53","258044","0.0-17.0-0.9","A675","false","img/card_backs/set1/purple.gif","img/card_backs/set1/yellow.gif","img/card_backs/set1/green.gif","img/card_backs/set1/red.gif","img/card_backs/set2/pink.gif","img/card_backs/set2/gray.gif","img/card_backs/set2/blue.gif","img/card_backs/set2/orange.gif","""event"",""trial"",""time""
""fullscreenenter"",""1"",""3701""
","
","
","""event"",""trial"",""time""
""fullscreenenter"",""1"",""3701""
","
","","null","","null","","fixation","2021-07-25 20:38:23.516","","","","","",""
"card-selection-trial","54","260843","0.0-17.0-1.9","A675","false","img/card_backs/set1/purple.gif","img/card_backs/set1/yellow.gif","img/card_backs/set1/green.gif","img/card_backs/set1/red.gif","img/card_backs/set2/pink.gif","img/card_backs/set2/gray.gif","img/card_backs/set2/blue.gif","img/card_backs/set2/orange.gif","""event"",""trial"",""time""
""fullscreenenter"",""1"",""3701""
","
","
","""event"",""trial"",""time""
""fullscreenenter"",""1"",""3701""
","
","","789.6000000238419","","","","practice","2021-07-25 20:38:26.315","img/practice_cards/backs/black.gif","1","-100","0","",""
"casino-keyboard-response","55","266599","0.0-18.0","A675","false","img/card_backs/set1/purple.gif","img/card_backs/set1/yellow.gif","img/card_backs/set1/green.gif","img/card_backs/set1/red.gif","img/card_backs/set2/pink.gif","img/card_backs/set2/gray.gif","img/card_backs/set2/blue.gif","img/card_backs/set2/orange.gif","""event"",""trial"",""time""
""fullscreenenter"",""1"",""3701""
","
","
","""event"",""trial"",""time""
""fullscreenenter"",""1"",""3701""
","
","","5753.700000047684","You earned 200 tokens during the practice round!","82","","","2021-07-25 20:38:32.071","","","","","",""
"casino-keyboard-response","56","271275","0.0-19.0-0.0","A675","false","img/card_backs/set1/purple.gif","img/card_backs/set1/yellow.gif","img/card_backs/set1/green.gif","img/card_backs/set1/red.gif","img/card_backs/set2/pink.gif","img/card_backs/set2/gray.gif","img/card_backs/set2/blue.gif","img/card_backs/set2/orange.gif","""event"",""trial"",""time""
""fullscreenenter"",""1"",""3701""
","
","
","""event"",""trial"",""time""
""fullscreenenter"",""1"",""3701""
","
","","4673.5","Nice job! You are almost ready to play the real game.","86","","instructions","2021-07-25 20:38:36.747","","","","","",""
"casino-keyboard-response","57","278343","0.0-19.0-0.1","A675","false","img/card_backs/set1/purple.gif","img/card_backs/set1/yellow.gif","img/card_backs/set1/green.gif","img/card_backs/set1/red.gif","img/card_backs/set2/pink.gif","img/card_backs/set2/gray.gif","img/card_backs/set2/blue.gif","img/card_backs/set2/orange.gif","""event"",""trial"",""time""
""fullscreenenter"",""1"",""3701""
","
","
","""event"",""trial"",""time""
""fullscreenenter"",""1"",""3701""
","
","","7064.399999976158","You will play two rounds of the real game. In each round, you will pick 100 cards in total.","73","","instructions","2021-07-25 20:38:43.816","","","","","",""
"casino-keyboard-response","58","282453","0.0-19.0-0.2","A675","false","img/card_backs/set1/purple.gif","img/card_backs/set1/yellow.gif","img/card_backs/set1/green.gif","img/card_backs/set1/red.gif","img/card_backs/set2/pink.gif","img/card_backs/set2/gray.gif","img/card_backs/set2/blue.gif","img/card_backs/set2/orange.gif","""event"",""trial"",""time""
""fullscreenenter"",""1"",""3701""
","
","
","""event"",""trial"",""time""
""fullscreenenter"",""1"",""3701""
","
","","4105.299999952316","We are now going to ask you some questions about how the game works.","66","","instructions","2021-07-25 20:38:47.925","","","","","",""
"casino-keyboard-response","59","288586","0.0-19.0-0.3","A675","false","img/card_backs/set1/purple.gif","img/card_backs/set1/yellow.gif","img/card_backs/set1/green.gif","img/card_backs/set1/red.gif","img/card_backs/set2/pink.gif","img/card_backs/set2/gray.gif","img/card_backs/set2/blue.gif","img/card_backs/set2/orange.gif","""event"",""trial"",""time""
""fullscreenenter"",""1"",""3701""
","
","
","""event"",""trial"",""time""
""fullscreenenter"",""1"",""3701""
","
","","6129.800000071526","Answer carefully. You will not be able to begin the game until you answer them correctly.","67","","instructions","2021-07-25 20:38:54.058","","","","","",""
"casino-comp_q","60","295550","0.0-20.0-0.0","A675","false","img/card_backs/set1/purple.gif","img/card_backs/set1/yellow.gif","img/card_backs/set1/green.gif","img/card_backs/set1/red.gif","img/card_backs/set2/pink.gif","img/card_backs/set2/gray.gif","img/card_backs/set2/blue.gif","img/card_backs/set2/orange.gif","""event"",""trial"",""time""
""fullscreenenter"",""1"",""3701""
","
","
","""event"",""trial"",""time""
""fullscreenenter"",""1"",""3701""
","
","","6959.700000047684","True or False: All the decks have some cards that cause you to win tokens and some cards that cause you to lose tokens.","84","","","2021-07-25 20:39:01.022","","","","","",""
"casino-keyboard-response","61","302281","0.0-20.0-1.0","A675","false","img/card_backs/set1/purple.gif","img/card_backs/set1/yellow.gif","img/card_backs/set1/green.gif","img/card_backs/set1/red.gif","img/card_backs/set2/pink.gif","img/card_backs/set2/gray.gif","img/card_backs/set2/blue.gif","img/card_backs/set2/orange.gif","""event"",""trial"",""time""
""fullscreenenter"",""1"",""3701""
","
","
","""event"",""trial"",""time""
""fullscreenenter"",""1"",""3701""
","
","","6727.899999976158","True is correct! All the decks have a mix of winning and losing cards.","77","","","2021-07-25 20:39:07.753","","","","","true",""
"casino-comp_q","62","307246","0.0-21.0-0.0","A675","false","img/card_backs/set1/purple.gif","img/card_backs/set1/yellow.gif","img/card_backs/set1/green.gif","img/card_backs/set1/red.gif","img/card_backs/set2/pink.gif","img/card_backs/set2/gray.gif","img/card_backs/set2/blue.gif","img/card_backs/set2/orange.gif","""event"",""trial"",""time""
""fullscreenenter"",""1"",""3701""
","
","
","""event"",""trial"",""time""
""fullscreenenter"",""1"",""3701""
","
","","4961.5","True or False: You will have as much time as you want to make your response.","70","","","2021-07-25 20:39:12.719","","","","","",""
"casino-keyboard-response","63","311103","0.0-21.0-1.0","A675","false","img/card_backs/set1/purple.gif","img/card_backs/set1/yellow.gif","img/card_backs/set1/green.gif","img/card_backs/set1/red.gif","img/card_backs/set2/pink.gif","img/card_backs/set2/gray.gif","img/card_backs/set2/blue.gif","img/card_backs/set2/orange.gif","""event"",""trial"",""time""
""fullscreenenter"",""1"",""3701""
","
","
","""event"",""trial"",""time""
""fullscreenenter"",""1"",""3701""
","
","","3851.100000023842","False is correct! You will only have 10 seconds to make each choice.","75","","","2021-07-25 20:39:16.576","","","","","true",""
"casino-comp_q","64","315373","0.0-22.0-0.0","A675","false","img/card_backs/set1/purple.gif","img/card_backs/set1/yellow.gif","img/card_backs/set1/green.gif","img/card_backs/set1/red.gif","img/card_backs/set2/pink.gif","img/card_backs/set2/gray.gif","img/card_backs/set2/blue.gif","img/card_backs/set2/orange.gif","""event"",""trial"",""time""
""fullscreenenter"",""1"",""3701""
","
","
","""event"",""trial"",""time""
""fullscreenenter"",""1"",""3701""
","
","","4266.899999976158","True or False: The location of the deck determines how lucky it is.","70","","","2021-07-25 20:39:20.846","","","","","",""
"casino-keyboard-response","65","319320","0.0-22.0-1.0","A675","false","img/card_backs/set1/purple.gif","img/card_backs/set1/yellow.gif","img/card_backs/set1/green.gif","img/card_backs/set1/red.gif","img/card_backs/set2/pink.gif","img/card_backs/set2/gray.gif","img/card_backs/set2/blue.gif","img/card_backs/set2/orange.gif","""event"",""trial"",""time""
""fullscreenenter"",""1"",""3701""
","
","
","""event"",""trial"",""time""
""fullscreenenter"",""1"",""3701""
","
","","3944.2000000476837","False is correct! The <i>color</i>  of the deck determines how lucky or unlucky it is.","68","","","2021-07-25 20:39:24.793","","","","","true",""
"casino-keyboard-response","66","323725","0.0-23.0-0.0","A675","false","img/card_backs/set1/purple.gif","img/card_backs/set1/yellow.gif","img/card_backs/set1/green.gif","img/card_backs/set1/red.gif","img/card_backs/set2/pink.gif","img/card_backs/set2/gray.gif","img/card_backs/set2/blue.gif","img/card_backs/set2/orange.gif","""event"",""trial"",""time""
""fullscreenenter"",""1"",""3701""
","
","
","""event"",""trial"",""time""
""fullscreenenter"",""1"",""3701""
","
","","4401.5","Great job! Now it's time to start the real game.","82","","instructions","2021-07-25 20:39:29.197","","","","","",""
"casino-keyboard-response","67","329222","0.0-23.0-0.1","A675","false","img/card_backs/set1/purple.gif","img/card_backs/set1/yellow.gif","img/card_backs/set1/green.gif","img/card_backs/set1/red.gif","img/card_backs/set2/pink.gif","img/card_backs/set2/gray.gif","img/card_backs/set2/blue.gif","img/card_backs/set2/orange.gif","""event"",""trial"",""time""
""fullscreenenter"",""1"",""3701""
","
","
","""event"",""trial"",""time""
""fullscreenenter"",""1"",""3701""
","
","","5488.5","Before we start, we're going to head into a new room of the casino.","86","","instructions","2021-07-25 20:39:34.694","","","","","",""
"casino-keyboard-response","68","336967","0.0-24.0-0.0","A675","false","img/card_backs/set1/purple.gif","img/card_backs/set1/yellow.gif","img/card_backs/set1/green.gif","img/card_backs/set1/red.gif","img/card_backs/set2/pink.gif","img/card_backs/set2/gray.gif","img/card_backs/set2/blue.gif","img/card_backs/set2/orange.gif","""event"",""trial"",""time""
""fullscreenenter"",""1"",""3701""
","
","
","""event"",""trial"",""time""
""fullscreenenter"",""1"",""3701""
","
","","7741.899999976158","Here we are! The real game will use different cards, but the rules will be the same.","71","","instructions","2021-07-25 20:39:42.439","","","","","",""
"casino-keyboard-response","69","346971","0.0-24.0-0.1","A675","false","img/card_backs/set1/purple.gif","img/card_backs/set1/yellow.gif","img/card_backs/set1/green.gif","img/card_backs/set1/red.gif","img/card_backs/set2/pink.gif","img/card_backs/set2/gray.gif","img/card_backs/set2/blue.gif","img/card_backs/set2/orange.gif","""event"",""trial"",""time""
""fullscreenenter"",""1"",""3701""
","
","
","""event"",""trial"",""time""
""fullscreenenter"",""1"",""3701""
","
","","10002.100000023842","Ready? Put your fingers over the '2', '4', 6', and '8' keys so you are ready to play the game. </br> Then press 2 to start.","50","","instructions","2021-07-25 20:39:52.443","","","","","",""
"casino-fixation","70","347473","0.0-25.0-0.0","A675","false","img/card_backs/set1/purple.gif","img/card_backs/set1/yellow.gif","img/card_backs/set1/green.gif","img/card_backs/set1/red.gif","img/card_backs/set2/pink.gif","img/card_backs/set2/gray.gif","img/card_backs/set2/blue.gif","img/card_backs/set2/orange.gif","""event"",""trial"",""time""
""fullscreenenter"",""1"",""3701""
","
","
","""event"",""trial"",""time""
""fullscreenenter"",""1"",""3701""
","
","","null","","null","","fixation","2021-07-25 20:39:52.945","","","","","",""
"card-selection-trial","71","350687","0.0-25.0-1.0","A675","false","img/card_backs/set1/purple.gif","img/card_backs/set1/yellow.gif","img/card_backs/set1/green.gif","img/card_backs/set1/red.gif","img/card_backs/set2/pink.gif","img/card_backs/set2/gray.gif","img/card_backs/set2/blue.gif","img/card_backs/set2/orange.gif","""event"",""trial"",""time""
""fullscreenenter"",""1"",""3701""
","
","
","""event"",""trial"",""time""
""fullscreenenter"",""1"",""3701""
","
","","1201.8000000715256","","","","real_trial","2021-07-25 20:39:56.159","img/card_backs/set1/green.gif","0","110","1","",""
"casino-fixation","72","351192","0.0-25.0-0.1","A675","false","img/card_backs/set1/purple.gif","img/card_backs/set1/yellow.gif","img/card_backs/set1/green.gif","img/card_backs/set1/red.gif","img/card_backs/set2/pink.gif","img/card_backs/set2/gray.gif","img/card_backs/set2/blue.gif","img/card_backs/set2/orange.gif","""event"",""trial"",""time""
""fullscreenenter"",""1"",""3701""
","
","
","""event"",""trial"",""time""
""fullscreenenter"",""1"",""3701""
","
","","null","","null","","fixation","2021-07-25 20:39:56.664","","","","","",""
"card-selection-trial","73","354303","0.0-25.0-1.1","A675","false","img/card_backs/set1/purple.gif","img/card_backs/set1/yellow.gif","img/card_backs/set1/green.gif","img/card_backs/set1/red.gif","img/card_backs/set2/pink.gif","img/card_backs/set2/gray.gif","img/card_backs/set2/blue.gif","img/card_backs/set2/orange.gif","""event"",""trial"",""time""
""fullscreenenter"",""1"",""3701""
","
","
","""event"",""trial"",""time""
""fullscreenenter"",""1"",""3701""
","
","","1098.7000000476837","","","","real_trial","2021-07-25 20:39:59.775","img/card_backs/set1/green.gif","0","100","1","",""
"casino-fixation","74","354809","0.0-25.0-0.2","A675","false","img/card_backs/set1/purple.gif","img/card_backs/set1/yellow.gif","img/card_backs/set1/green.gif","img/card_backs/set1/red.gif","img/card_backs/set2/pink.gif","img/card_backs/set2/gray.gif","img/card_backs/set2/blue.gif","img/card_backs/set2/orange.gif","""event"",""trial"",""time""
""fullscreenenter"",""1"",""3701""
","
","
","""event"",""trial"",""time""
""fullscreenenter"",""1"",""3701""
","
","","null","","null","","fixation","2021-07-25 20:40:00.281","","","","","",""
"card-selection-trial","75","358471","0.0-25.0-1.2","A675","false","img/card_backs/set1/purple.gif","img/card_backs/set1/yellow.gif","img/card_backs/set1/green.gif","img/card_backs/set1/red.gif","img/card_backs/set2/pink.gif","img/card_backs/set2/gray.gif","img/card_backs/set2/blue.gif","img/card_backs/set2/orange.gif","""event"",""trial"",""time""
""fullscreenenter"",""1"",""3701""
","
","
","""event"",""trial"",""time""
""fullscreenenter"",""1"",""3701""
","
","","1653.3999999761581","","","","real_trial","2021-07-25 20:40:03.943","img/card_backs/set1/green.gif","2","100","1","",""
"casino-fixation","76","358974","0.0-25.0-0.3","A675","false","img/card_backs/set1/purple.gif","img/card_backs/set1/yellow.gif","img/card_backs/set1/green.gif","img/card_backs/set1/red.gif","img/card_backs/set2/pink.gif","img/card_backs/set2/gray.gif","img/card_backs/set2/blue.gif","img/card_backs/set2/orange.gif","""event"",""trial"",""time""
""fullscreenenter"",""1"",""3701""
","
","
","""event"",""trial"",""time""
""fullscreenenter"",""1"",""3701""
","
","","null","","null","","fixation","2021-07-25 20:40:04.446","","","","","",""
"card-selection-trial","77","362110","0.0-25.0-1.3","A675","false","img/card_backs/set1/purple.gif","img/card_backs/set1/yellow.gif","img/card_backs/set1/green.gif","img/card_backs/set1/red.gif","img/card_backs/set2/pink.gif","img/card_backs/set2/gray.gif","img/card_backs/set2/blue.gif","img/card_backs/set2/orange.gif","""event"",""trial"",""time""
""fullscreenenter"",""1"",""3701""
","
","
","""event"",""trial"",""time""
""fullscreenenter"",""1"",""3701""
","
","","1126.7000000476837","","","","real_trial","2021-07-25 20:40:07.582","img/card_backs/set1/green.gif","0","-50","1","",""
"casino-fixation","78","362616","0.0-25.0-0.4","A675","false","img/card_backs/set1/purple.gif","img/card_backs/set1/yellow.gif","img/card_backs/set1/green.gif","img/card_backs/set1/red.gif","img/card_backs/set2/pink.gif","img/card_backs/set2/gray.gif","img/card_backs/set2/blue.gif","img/card_backs/set2/orange.gif","""event"",""trial"",""time""
""fullscreenenter"",""1"",""3701""
","
","
","""event"",""trial"",""time""
""fullscreenenter"",""1"",""3701""
","
","","null","","null","","fixation","2021-07-25 20:40:08.088","","","","","",""
"card-selection-trial","79","366227","0.0-25.0-1.4","A675","false","img/card_backs/set1/purple.gif","img/card_backs/set1/yellow.gif","img/card_backs/set1/green.gif","img/card_backs/set1/red.gif","img/card_backs/set2/pink.gif","img/card_backs/set2/gray.gif","img/card_backs/set2/blue.gif","img/card_backs/set2/orange.gif","""event"",""trial"",""time""
""fullscreenenter"",""1"",""3701""
","
","
","""event"",""trial"",""time""
""fullscreenenter"",""1"",""3701""
","
","","1602.5","","","","real_trial","2021-07-25 20:40:11.699","img/card_backs/set1/green.gif","3","-50","1","",""
"casino-fixation","80","366730","0.0-25.0-0.5","A675","false","img/card_backs/set1/purple.gif","img/card_backs/set1/yellow.gif","img/card_backs/set1/green.gif","img/card_backs/set1/red.gif","img/card_backs/set2/pink.gif","img/card_backs/set2/gray.gif","img/card_backs/set2/blue.gif","img/card_backs/set2/orange.gif","""event"",""trial"",""time""
""fullscreenenter"",""1"",""3701""
","
","
","""event"",""trial"",""time""
""fullscreenenter"",""1"",""3701""
","
","","null","","null","","fixation","2021-07-25 20:40:12.202","","","","","",""
"card-selection-trial","81","370982","0.0-25.0-1.5","A675","false","img/card_backs/set1/purple.gif","img/card_backs/set1/yellow.gif","img/card_backs/set1/green.gif","img/card_backs/set1/red.gif","img/card_backs/set2/pink.gif","img/card_backs/set2/gray.gif","img/card_backs/set2/blue.gif","img/card_backs/set2/orange.gif","""event"",""trial"",""time""
""fullscreenenter"",""1"",""3701""
","
","
","""event"",""trial"",""time""
""fullscreenenter"",""1"",""3701""
","
","","2240.600000023842","","","","real_trial","2021-07-25 20:40:16.454","img/card_backs/set1/purple.gif","1","200","1","",""
"casino-fixation","82","371486","0.0-25.0-0.6","A675","false","img/card_backs/set1/purple.gif","img/card_backs/set1/yellow.gif","img/card_backs/set1/green.gif","img/card_backs/set1/red.gif","img/card_backs/set2/pink.gif","img/card_backs/set2/gray.gif","img/card_backs/set2/blue.gif","img/card_backs/set2/orange.gif","""event"",""trial"",""time""
""fullscreenenter"",""1"",""3701""
","
","
","""event"",""trial"",""time""
""fullscreenenter"",""1"",""3701""
","
","","null","","null","","fixation","2021-07-25 20:40:16.958","","","","","",""
"card-selection-trial","83","376445","0.0-25.0-1.6","A675","false","img/card_backs/set1/purple.gif","img/card_backs/set1/yellow.gif","img/card_backs/set1/green.gif","img/card_backs/set1/red.gif","img/card_backs/set2/pink.gif","img/card_backs/set2/gray.gif","img/card_backs/set2/blue.gif","img/card_backs/set2/orange.gif","""event"",""trial"",""time""
""fullscreenenter"",""1"",""3701""
","
","
","""event"",""trial"",""time""
""fullscreenenter"",""1"",""3701""
","
","","2947.2999999523163","","","","real_trial","2021-07-25 20:40:21.917","img/card_backs/set1/purple.gif","2","180","1","",""
"casino-fixation","84","376950","0.0-25.0-0.7","A675","false","img/card_backs/set1/purple.gif","img/card_backs/set1/yellow.gif","img/card_backs/set1/green.gif","img/card_backs/set1/red.gif","img/card_backs/set2/pink.gif","img/card_backs/set2/gray.gif","img/card_backs/set2/blue.gif","img/card_backs/set2/orange.gif","""event"",""trial"",""time""
""fullscreenenter"",""1"",""3701""
","
","
","""event"",""trial"",""time""
""fullscreenenter"",""1"",""3701""
","
","","null","","null","","fixation","2021-07-25 20:40:22.422","","","","","",""
"card-selection-trial","85","380404","0.0-25.0-1.7","A675","false","img/card_backs/set1/purple.gif","img/card_backs/set1/yellow.gif","img/card_backs/set1/green.gif","img/card_backs/set1/red.gif","img/card_backs/set2/pink.gif","img/card_backs/set2/gray.gif","img/card_backs/set2/blue.gif","img/card_backs/set2/orange.gif","""event"",""trial"",""time""
""fullscreenenter"",""1"",""3701""
","
","
","""event"",""trial"",""time""
""fullscreenenter"",""1"",""3701""
","
","","1444.8999999761581","","","","real_trial","2021-07-25 20:40:25.876","img/card_backs/set1/purple.gif","3","-250","1","",""
"casino-fixation","86","380910","0.0-25.0-0.8","A675","false","img/card_backs/set1/purple.gif","img/card_backs/set1/yellow.gif","img/card_backs/set1/green.gif","img/card_backs/set1/red.gif","img/card_backs/set2/pink.gif","img/card_backs/set2/gray.gif","img/card_backs/set2/blue.gif","img/card_backs/set2/orange.gif","""event"",""trial"",""time""
""fullscreenenter"",""1"",""3701""
","
","
","""event"",""trial"",""time""
""fullscreenenter"",""1"",""3701""
","
","","null","","null","","fixation","2021-07-25 20:40:26.382","","","","","",""
"card-selection-trial","87","383905","0.0-25.0-1.8","A675","false","img/card_backs/set1/purple.gif","img/card_backs/set1/yellow.gif","img/card_backs/set1/green.gif","img/card_backs/set1/red.gif","img/card_backs/set2/pink.gif","img/card_backs/set2/gray.gif","img/card_backs/set2/blue.gif","img/card_backs/set2/orange.gif","""event"",""trial"",""time""
""fullscreenenter"",""1"",""3701""
","
","
","""event"",""trial"",""time""
""fullscreenenter"",""1"",""3701""
","
","","985.8000000715256","","","","real_trial","2021-07-25 20:40:29.377","img/card_backs/set1/purple.gif","2","180","1","",""
"casino-fixation","88","384410","0.0-25.0-0.9","A675","false","img/card_backs/set1/purple.gif","img/card_backs/set1/yellow.gif","img/card_backs/set1/green.gif","img/card_backs/set1/red.gif","img/card_backs/set2/pink.gif","img/card_backs/set2/gray.gif","img/card_backs/set2/blue.gif","img/card_backs/set2/orange.gif","""event"",""trial"",""time""
""fullscreenenter"",""1"",""3701""
","
","
","""event"",""trial"",""time""
""fullscreenenter"",""1"",""3701""
","
","","null","","null","","fixation","2021-07-25 20:40:29.882","","","","","",""
"card-selection-trial","89","387172","0.0-25.0-1.9","A675","false","img/card_backs/set1/purple.gif","img/card_backs/set1/yellow.gif","img/card_backs/set1/green.gif","img/card_backs/set1/red.gif","img/card_backs/set2/pink.gif","img/card_backs/set2/gray.gif","img/card_backs/set2/blue.gif","img/card_backs/set2/orange.gif","""event"",""trial"",""time""
""fullscreenenter"",""1"",""3701""
","
","
","""event"",""trial"",""time""
""fullscreenenter"",""1"",""3701""
","
","","750.6000000238419","","","","real_trial","2021-07-25 20:40:32.644","img/card_backs/set1/purple.gif","2","-230","1","",""
"casino-fixation","90","387678","0.0-25.0-0.10","A675","false","img/card_backs/set1/purple.gif","img/card_backs/set1/yellow.gif","img/card_backs/set1/green.gif","img/card_backs/set1/red.gif","img/card_backs/set2/pink.gif","img/card_backs/set2/gray.gif","img/card_backs/set2/blue.gif","img/card_backs/set2/orange.gif","""event"",""trial"",""time""
""fullscreenenter"",""1"",""3701""
","
","
","""event"",""trial"",""time""
""fullscreenenter"",""1"",""3701""
","
","","null","","null","","fixation","2021-07-25 20:40:33.150","","","","","",""
"card-selection-trial","91","392595","0.0-25.0-1.10","A675","false","img/card_backs/set1/purple.gif","img/card_backs/set1/yellow.gif","img/card_backs/set1/green.gif","img/card_backs/set1/red.gif","img/card_backs/set2/pink.gif","img/card_backs/set2/gray.gif","img/card_backs/set2/blue.gif","img/card_backs/set2/orange.gif","""event"",""trial"",""time""
""fullscreenenter"",""1"",""3701""
","
","
","""event"",""trial"",""time""
""fullscreenenter"",""1"",""3701""
","
","","2904.899999976158","","","","real_trial","2021-07-25 20:40:38.067","img/card_backs/set1/red.gif","2","-60","1","",""
"casino-fixation","92","393100","0.0-25.0-0.11","A675","false","img/card_backs/set1/purple.gif","img/card_backs/set1/yellow.gif","img/card_backs/set1/green.gif","img/card_backs/set1/red.gif","img/card_backs/set2/pink.gif","img/card_backs/set2/gray.gif","img/card_backs/set2/blue.gif","img/card_backs/set2/orange.gif","""event"",""trial"",""time""
""fullscreenenter"",""1"",""3701""
","
","
","""event"",""trial"",""time""
""fullscreenenter"",""1"",""3701""
","
","","null","","null","","fixation","2021-07-25 20:40:38.572","","","","","",""
"card-selection-trial","93","395933","0.0-25.0-1.11","A675","false","img/card_backs/set1/purple.gif","img/card_backs/set1/yellow.gif","img/card_backs/set1/green.gif","img/card_backs/set1/red.gif","img/card_backs/set2/pink.gif","img/card_backs/set2/gray.gif","img/card_backs/set2/blue.gif","img/card_backs/set2/orange.gif","""event"",""trial"",""time""
""fullscreenenter"",""1"",""3701""
","
","
","""event"",""trial"",""time""
""fullscreenenter"",""1"",""3701""
","
","","825.5","","","","real_trial","2021-07-25 20:40:41.406","img/card_backs/set1/red.gif","3","-70","1","",""
"casino-fixation","94","396439","0.0-25.0-0.12","A675","false","img/card_backs/set1/purple.gif","img/card_backs/set1/yellow.gif","img/card_backs/set1/green.gif","img/card_backs/set1/red.gif","img/card_backs/set2/pink.gif","img/card_backs/set2/gray.gif","img/card_backs/set2/blue.gif","img/card_backs/set2/orange.gif","""event"",""trial"",""time""
""fullscreenenter"",""1"",""3701""
","
","
","""event"",""trial"",""time""
""fullscreenenter"",""1"",""3701""
","
","","null","","null","","fixation","2021-07-25 20:40:41.912","","","","","",""
"card-selection-trial","95","399349","0.0-25.0-1.12","A675","false","img/card_backs/set1/purple.gif","img/card_backs/set1/yellow.gif","img/card_backs/set1/green.gif","img/card_backs/set1/red.gif","img/card_backs/set2/pink.gif","img/card_backs/set2/gray.gif","img/card_backs/set2/blue.gif","img/card_backs/set2/orange.gif","""event"",""trial"",""time""
""fullscreenenter"",""1"",""3701""
","
","
","""event"",""trial"",""time""
""fullscreenenter"",""1"",""3701""
","
","","900.6999999284744","","","","real_trial","2021-07-25 20:40:44.821","img/card_backs/set1/red.gif","2","-70","1","",""
"casino-fixation","96","399852","0.0-25.0-0.13","A675","false","img/card_backs/set1/purple.gif","img/card_backs/set1/yellow.gif","img/card_backs/set1/green.gif","img/card_backs/set1/red.gif","img/card_backs/set2/pink.gif","img/card_backs/set2/gray.gif","img/card_backs/set2/blue.gif","img/card_backs/set2/orange.gif","""event"",""trial"",""time""
""fullscreenenter"",""1"",""3701""
","
","
","""event"",""trial"",""time""
""fullscreenenter"",""1"",""3701""
","
","","null","","null","","fixation","2021-07-25 20:40:45.324","","","","","",""
"card-selection-trial","97","403590","0.0-25.0-1.13","A675","false","img/card_backs/set1/purple.gif","img/card_backs/set1/yellow.gif","img/card_backs/set1/green.gif","img/card_backs/set1/red.gif","img/card_backs/set2/pink.gif","img/card_backs/set2/gray.gif","img/card_backs/set2/blue.gif","img/card_backs/set2/orange.gif","""event"",""trial"",""time""
""fullscreenenter"",""1"",""3701""
","
","
","""event"",""trial"",""time""
""fullscreenenter"",""1"",""3701""
","
","","1731.2999999523163","","","","real_trial","2021-07-25 20:40:49.063","img/card_backs/set1/yellow.gif","2","-230","1","",""
"casino-fixation","98","404095","0.0-25.0-0.14","A675","false","img/card_backs/set1/purple.gif","img/card_backs/set1/yellow.gif","img/card_backs/set1/green.gif","img/card_backs/set1/red.gif","img/card_backs/set2/pink.gif","img/card_backs/set2/gray.gif","img/card_backs/set2/blue.gif","img/card_backs/set2/orange.gif","""event"",""trial"",""time""
""fullscreenenter"",""1"",""3701""
","
","
","""event"",""trial"",""time""
""fullscreenenter"",""1"",""3701""
","
","","null","","null","","fixation","2021-07-25 20:40:49.568","","","","","",""
"card-selection-trial","99","408293","0.0-25.0-1.14","A675","false","img/card_backs/set1/purple.gif","img/card_backs/set1/yellow.gif","img/card_backs/set1/green.gif","img/card_backs/set1/red.gif","img/card_backs/set2/pink.gif","img/card_backs/set2/gray.gif","img/card_backs/set2/blue.gif","img/card_backs/set2/orange.gif","""event"",""trial"",""time""
""fullscreenenter"",""1"",""3701""
","
","
","""event"",""trial"",""time""
""fullscreenenter"",""1"",""3701""
","
","","2189.7000000476837","","","","real_trial","2021-07-25 20:40:53.765","img/card_backs/set1/yellow.gif","1","180","1","",""
"casino-fixation","100","408797","0.0-25.0-0.15","A675","false","img/card_backs/set1/purple.gif","img/card_backs/set1/yellow.gif","img/card_backs/set1/green.gif","img/card_backs/set1/red.gif","img/card_backs/set2/pink.gif","img/card_backs/set2/gray.gif","img/card_backs/set2/blue.gif","img/card_backs/set2/orange.gif","""event"",""trial"",""time""
""fullscreenenter"",""1"",""3701""
","
","
","""event"",""trial"",""time""
""fullscreenenter"",""1"",""3701""
","
","","null","","null","","fixation","2021-07-25 20:40:54.270","","","","","",""
"card-selection-trial","101","411927","0.0-25.0-1.15","A675","false","img/card_backs/set1/purple.gif","img/card_backs/set1/yellow.gif","img/card_backs/set1/green.gif","img/card_backs/set1/red.gif","img/card_backs/set2/pink.gif","img/card_backs/set2/gray.gif","img/card_backs/set2/blue.gif","img/card_backs/set2/orange.gif","""event"",""trial"",""time""
""fullscreenenter"",""1"",""3701""
","
","
","""event"",""trial"",""time""
""fullscreenenter"",""1"",""3701""
","
","","1118.6000000238419","","","","real_trial","2021-07-25 20:40:57.399","img/card_backs/set1/yellow.gif","3","190","1","",""
"casino-fixation","102","412431","0.0-25.0-0.16","A675","false","img/card_backs/set1/purple.gif","img/card_backs/set1/yellow.gif","img/card_backs/set1/green.gif","img/card_backs/set1/red.gif","img/card_backs/set2/pink.gif","img/card_backs/set2/gray.gif","img/card_backs/set2/blue.gif","img/card_backs/set2/orange.gif","""event"",""trial"",""time""
""fullscreenenter"",""1"",""3701""
","
","
","""event"",""trial"",""time""
""fullscreenenter"",""1"",""3701""
","
","","null","","null","","fixation","2021-07-25 20:40:57.904","","","","","",""
"card-selection-trial","103","415996","0.0-25.0-1.16","A675","false","img/card_backs/set1/purple.gif","img/card_backs/set1/yellow.gif","img/card_backs/set1/green.gif","img/card_backs/set1/red.gif","img/card_backs/set2/pink.gif","img/card_backs/set2/gray.gif","img/card_backs/set2/blue.gif","img/card_backs/set2/orange.gif","""event"",""trial"",""time""
""fullscreenenter"",""1"",""3701""
","
","
","""event"",""trial"",""time""
""fullscreenenter"",""1"",""3701""
","
","","1554.3000000715256","","","","real_trial","2021-07-25 20:41:01.468","img/card_backs/set1/yellow.gif","0","-240","1","",""
"casino-fixation","104","416501","0.0-25.0-0.17","A675","false","img/card_backs/set1/purple.gif","img/card_backs/set1/yellow.gif","img/card_backs/set1/green.gif","img/card_backs/set1/red.gif","img/card_backs/set2/pink.gif","img/card_backs/set2/gray.gif","img/card_backs/set2/blue.gif","img/card_backs/set2/orange.gif","""event"",""trial"",""time""
""fullscreenenter"",""1"",""3701""
","
","
","""event"",""trial"",""time""
""fullscreenenter"",""1"",""3701""
","
","","null","","null","","fixation","2021-07-25 20:41:01.973","","","","","",""
"card-selection-trial","105","419432","0.0-25.0-1.17","A675","false","img/card_backs/set1/purple.gif","img/card_backs/set1/yellow.gif","img/card_backs/set1/green.gif","img/card_backs/set1/red.gif","img/card_backs/set2/pink.gif","img/card_backs/set2/gray.gif","img/card_backs/set2/blue.gif","img/card_backs/set2/orange.gif","""event"",""trial"",""time""
""fullscreenenter"",""1"",""3701""
","
","
","""event"",""trial"",""time""
""fullscreenenter"",""1"",""3701""
","
","","920.5","","","","real_trial","2021-07-25 20:41:04.904","img/card_backs/set1/yellow.gif","3","180","1","",""
"casino-fixation","106","419938","0.0-25.0-0.18","A675","false","img/card_backs/set1/purple.gif","img/card_backs/set1/yellow.gif","img/card_backs/set1/green.gif","img/card_backs/set1/red.gif","img/card_backs/set2/pink.gif","img/card_backs/set2/gray.gif","img/card_backs/set2/blue.gif","img/card_backs/set2/orange.gif","""event"",""trial"",""time""
""fullscreenenter"",""1"",""3701""
","
","
","""event"",""trial"",""time""
""fullscreenenter"",""1"",""3701""
","
","","null","","null","","fixation","2021-07-25 20:41:05.410","","","","","",""
"card-selection-trial","107","422991","0.0-25.0-1.18","A675","false","img/card_backs/set1/purple.gif","img/card_backs/set1/yellow.gif","img/card_backs/set1/green.gif","img/card_backs/set1/red.gif","img/card_backs/set2/pink.gif","img/card_backs/set2/gray.gif","img/card_backs/set2/blue.gif","img/card_backs/set2/orange.gif","""event"",""trial"",""time""
""fullscreenenter"",""1"",""3701""
","
","
","""event"",""trial"",""time""
""fullscreenenter"",""1"",""3701""
","
","","1046.5","","","","real_trial","2021-07-25 20:41:08.463","img/card_backs/set1/green.gif","1","-50","1","",""
"casino-fixation","108","423496","0.0-25.0-0.19","A675","false","img/card_backs/set1/purple.gif","img/card_backs/set1/yellow.gif","img/card_backs/set1/green.gif","img/card_backs/set1/red.gif","img/card_backs/set2/pink.gif","img/card_backs/set2/gray.gif","img/card_backs/set2/blue.gif","img/card_backs/set2/orange.gif","""event"",""trial"",""time""
""fullscreenenter"",""1"",""3701""
","
","
","""event"",""trial"",""time""
""fullscreenenter"",""1"",""3701""
","
","","null","","null","","fixation","2021-07-25 20:41:08.968","","","","","",""
"card-selection-trial","109","426463","0.0-25.0-1.19","A675","false","img/card_backs/set1/purple.gif","img/card_backs/set1/yellow.gif","img/card_backs/set1/green.gif","img/card_backs/set1/red.gif","img/card_backs/set2/pink.gif","img/card_backs/set2/gray.gif","img/card_backs/set2/blue.gif","img/card_backs/set2/orange.gif","""event"",""trial"",""time""
""fullscreenenter"",""1"",""3701""
","
","
","""event"",""trial"",""time""
""fullscreenenter"",""1"",""3701""
","
","","959.3000000715256","","","","real_trial","2021-07-25 20:41:11.935","img/card_backs/set1/green.gif","2","-60","1","",""
"casino-fixation","110","426968","0.0-25.0-0.20","A675","false","img/card_backs/set1/purple.gif","img/card_backs/set1/yellow.gif","img/card_backs/set1/green.gif","img/card_backs/set1/red.gif","img/card_backs/set2/pink.gif","img/card_backs/set2/gray.gif","img/card_backs/set2/blue.gif","img/card_backs/set2/orange.gif","""event"",""trial"",""time""
""fullscreenenter"",""1"",""3701""
","
","
","""event"",""trial"",""time""
""fullscreenenter"",""1"",""3701""
","
","","null","","null","","fixation","2021-07-25 20:41:12.440","","","","","",""
"card-selection-trial","111","429853","0.0-25.0-1.20","A675","false","img/card_backs/set1/purple.gif","img/card_backs/set1/yellow.gif","img/card_backs/set1/green.gif","img/card_backs/set1/red.gif","img/card_backs/set2/pink.gif","img/card_backs/set2/gray.gif","img/card_backs/set2/blue.gif","img/card_backs/set2/orange.gif","""event"",""trial"",""time""
""fullscreenenter"",""1"",""3701""
","
","
","""event"",""trial"",""time""
""fullscreenenter"",""1"",""3701""
","
","","873.5","","","","real_trial","2021-07-25 20:41:15.325","img/card_backs/set1/green.gif","3","-50","1","",""
"casino-fixation","112","430355","0.0-25.0-0.21","A675","false","img/card_backs/set1/purple.gif","img/card_backs/set1/yellow.gif","img/card_backs/set1/green.gif","img/card_backs/set1/red.gif","img/card_backs/set2/pink.gif","img/card_backs/set2/gray.gif","img/card_backs/set2/blue.gif","img/card_backs/set2/orange.gif","""event"",""trial"",""time""
""fullscreenenter"",""1"",""3701""
","
","
","""event"",""trial"",""time""
""fullscreenenter"",""1"",""3701""
","
","","null","","null","","fixation","2021-07-25 20:41:15.827","","","","","",""
"card-selection-trial","113","433214","0.0-25.0-1.21","A675","false","img/card_backs/set1/purple.gif","img/card_backs/set1/yellow.gif","img/card_backs/set1/green.gif","img/card_backs/set1/red.gif","img/card_backs/set2/pink.gif","img/card_backs/set2/gray.gif","img/card_backs/set2/blue.gif","img/card_backs/set2/orange.gif","""event"",""trial"",""time""
""fullscreenenter"",""1"",""3701""
","
","
","""event"",""trial"",""time""
""fullscreenenter"",""1"",""3701""
","
","","851.1000000238419","","","","real_trial","2021-07-25 20:41:18.686","img/card_backs/set1/green.gif","0","-70","1","",""
"casino-fixation","114","433719","0.0-25.0-0.22","A675","false","img/card_backs/set1/purple.gif","img/card_backs/set1/yellow.gif","img/card_backs/set1/green.gif","img/card_backs/set1/red.gif","img/card_backs/set2/pink.gif","img/card_backs/set2/gray.gif","img/card_backs/set2/blue.gif","img/card_backs/set2/orange.gif","""event"",""trial"",""time""
""fullscreenenter"",""1"",""3701""
","
","
","""event"",""trial"",""time""
""fullscreenenter"",""1"",""3701""
","
","","null","","null","","fixation","2021-07-25 20:41:19.191","","","","","",""
"card-selection-trial","115","438363","0.0-25.0-1.22","A675","false","img/card_backs/set1/purple.gif","img/card_backs/set1/yellow.gif","img/card_backs/set1/green.gif","img/card_backs/set1/red.gif","img/card_backs/set2/pink.gif","img/card_backs/set2/gray.gif","img/card_backs/set2/blue.gif","img/card_backs/set2/orange.gif","""event"",""trial"",""time""
""fullscreenenter"",""1"",""3701""
","
","
","""event"",""trial"",""time""
""fullscreenenter"",""1"",""3701""
","
","","2634.899999976158","","","","real_trial","2021-07-25 20:41:23.835","img/card_backs/set1/yellow.gif","1","-240","1","",""
"casino-fixation","116","438868","0.0-25.0-0.23","A675","false","img/card_backs/set1/purple.gif","img/card_backs/set1/yellow.gif","img/card_backs/set1/green.gif","img/card_backs/set1/red.gif","img/card_backs/set2/pink.gif","img/card_backs/set2/gray.gif","img/card_backs/set2/blue.gif","img/card_backs/set2/orange.gif","""event"",""trial"",""time""
""fullscreenenter"",""1"",""3701""
","
","
","""event"",""trial"",""time""
""fullscreenenter"",""1"",""3701""
","
","","null","","null","","fixation","2021-07-25 20:41:24.340","","","","","",""
"card-selection-trial","117","443478","0.0-25.0-1.23","A675","false","img/card_backs/set1/purple.gif","img/card_backs/set1/yellow.gif","img/card_backs/set1/green.gif","img/card_backs/set1/red.gif","img/card_backs/set2/pink.gif","img/card_backs/set2/gray.gif","img/card_backs/set2/blue.gif","img/card_backs/set2/orange.gif","""event"",""trial"",""time""
""fullscreenenter"",""1"",""3701""
","
","
","""event"",""trial"",""time""
""fullscreenenter"",""1"",""3701""
","
","","2597.5","","","","real_trial","2021-07-25 20:41:28.950","img/card_backs/set1/purple.gif","0","190","1","",""
"casino-fixation","118","443983","0.0-25.0-0.24","A675","false","img/card_backs/set1/purple.gif","img/card_backs/set1/yellow.gif","img/card_backs/set1/green.gif","img/card_backs/set1/red.gif","img/card_backs/set2/pink.gif","img/card_backs/set2/gray.gif","img/card_backs/set2/blue.gif","img/card_backs/set2/orange.gif","""event"",""trial"",""time""
""fullscreenenter"",""1"",""3701""
","
","
","""event"",""trial"",""time""
""fullscreenenter"",""1"",""3701""
","
","","null","","null","","fixation","2021-07-25 20:41:29.455","","","","","",""
"card-selection-trial","119","446891","0.0-25.0-1.24","A675","false","img/card_backs/set1/purple.gif","img/card_backs/set1/yellow.gif","img/card_backs/set1/green.gif","img/card_backs/set1/red.gif","img/card_backs/set2/pink.gif","img/card_backs/set2/gray.gif","img/card_backs/set2/blue.gif","img/card_backs/set2/orange.gif","""event"",""trial"",""time""
""fullscreenenter"",""1"",""3701""
","
","
","""event"",""trial"",""time""
""fullscreenenter"",""1"",""3701""
","
","","900.2999999523163","","","","real_trial","2021-07-25 20:41:32.363","img/card_backs/set1/purple.gif","2","190","1","",""
"casino-fixation","120","447397","0.0-25.0-0.25","A675","false","img/card_backs/set1/purple.gif","img/card_backs/set1/yellow.gif","img/card_backs/set1/green.gif","img/card_backs/set1/red.gif","img/card_backs/set2/pink.gif","img/card_backs/set2/gray.gif","img/card_backs/set2/blue.gif","img/card_backs/set2/orange.gif","""event"",""trial"",""time""
""fullscreenenter"",""1"",""3701""
","
","
","""event"",""trial"",""time""
""fullscreenenter"",""1"",""3701""
","
","","null","","null","","fixation","2021-07-25 20:41:32.869","","","","","",""
"card-selection-trial","121","450264","0.0-25.0-1.25","A675","false","img/card_backs/set1/purple.gif","img/card_backs/set1/yellow.gif","img/card_backs/set1/green.gif","img/card_backs/set1/red.gif","img/card_backs/set2/pink.gif","img/card_backs/set2/gray.gif","img/card_backs/set2/blue.gif","img/card_backs/set2/orange.gif","""event"",""trial"",""time""
""fullscreenenter"",""1"",""3701""
","
","
","""event"",""trial"",""time""
""fullscreenenter"",""1"",""3701""
","
","","856.6999999284744","","","","real_trial","2021-07-25 20:41:35.736","img/card_backs/set1/purple.gif","3","-250","1","",""
"casino-fixation","122","450769","0.0-25.0-0.26","A675","false","img/card_backs/set1/purple.gif","img/card_backs/set1/yellow.gif","img/card_backs/set1/green.gif","img/card_backs/set1/red.gif","img/card_backs/set2/pink.gif","img/card_backs/set2/gray.gif","img/card_backs/set2/blue.gif","img/card_backs/set2/orange.gif","""event"",""trial"",""time""
""fullscreenenter"",""1"",""3701""
","
","
","""event"",""trial"",""time""
""fullscreenenter"",""1"",""3701""
","
","","null","","null","","fixation","2021-07-25 20:41:36.241","","","","","",""
"card-selection-trial","123","453509","0.0-25.0-1.26","A675","false","img/card_backs/set1/purple.gif","img/card_backs/set1/yellow.gif","img/card_backs/set1/green.gif","img/card_backs/set1/red.gif","img/card_backs/set2/pink.gif","img/card_backs/set2/gray.gif","img/card_backs/set2/blue.gif","img/card_backs/set2/orange.gif","""event"",""trial"",""time""
""fullscreenenter"",""1"",""3701""
","
","
","""event"",""trial"",""time""
""fullscreenenter"",""1"",""3701""
","
","","732.8999999761581","","","","real_trial","2021-07-25 20:41:38.982","img/card_backs/set1/purple.gif","3","200","1","",""
"casino-fixation","124","454014","0.0-25.0-0.27","A675","false","img/card_backs/set1/purple.gif","img/card_backs/set1/yellow.gif","img/card_backs/set1/green.gif","img/card_backs/set1/red.gif","img/card_backs/set2/pink.gif","img/card_backs/set2/gray.gif","img/card_backs/set2/blue.gif","img/card_backs/set2/orange.gif","""event"",""trial"",""time""
""fullscreenenter"",""1"",""3701""
","
","
","""event"",""trial"",""time""
""fullscreenenter"",""1"",""3701""
","
","","null","","null","","fixation","2021-07-25 20:41:39.486","","","","","",""
"card-selection-trial","125","461381","0.0-25.0-1.27","A675","false","img/card_backs/set1/purple.gif","img/card_backs/set1/yellow.gif","img/card_backs/set1/green.gif","img/card_backs/set1/red.gif","img/card_backs/set2/pink.gif","img/card_backs/set2/gray.gif","img/card_backs/set2/blue.gif","img/card_backs/set2/orange.gif","""event"",""trial"",""time""
""fullscreenenter"",""1"",""3701""
","
","
","""event"",""trial"",""time""
""fullscreenenter"",""1"",""3701""
","
","","5357.899999976158","","","","real_trial","2021-07-25 20:41:46.853","img/card_backs/set1/yellow.gif","1","-230","1","",""
"casino-fixation","126","461886","0.0-25.0-0.28","A675","false","img/card_backs/set1/purple.gif","img/card_backs/set1/yellow.gif","img/card_backs/set1/green.gif","img/card_backs/set1/red.gif","img/card_backs/set2/pink.gif","img/card_backs/set2/gray.gif","img/card_backs/set2/blue.gif","img/card_backs/set2/orange.gif","""event"",""trial"",""time""
""fullscreenenter"",""1"",""3701""
","
","
","""event"",""trial"",""time""
""fullscreenenter"",""1"",""3701""
","
","","null","","null","","fixation","2021-07-25 20:41:47.358","","","","","",""
"card-selection-trial","127","464411","0.0-25.0-1.28","A675","false","img/card_backs/set1/purple.gif","img/card_backs/set1/yellow.gif","img/card_backs/set1/green.gif","img/card_backs/set1/red.gif","img/card_backs/set2/pink.gif","img/card_backs/set2/gray.gif","img/card_backs/set2/blue.gif","img/card_backs/set2/orange.gif","""event"",""trial"",""time""
""fullscreenenter"",""1"",""3701""
","
","
","""event"",""trial"",""time""
""fullscreenenter"",""1"",""3701""
","
","","515.8999999761581","","","","real_trial","2021-07-25 20:41:49.883","img/card_backs/set1/red.gif","1","-60","1","",""
"casino-fixation","128","464916","0.0-25.0-0.29","A675","false","img/card_backs/set1/purple.gif","img/card_backs/set1/yellow.gif","img/card_backs/set1/green.gif","img/card_backs/set1/red.gif","img/card_backs/set2/pink.gif","img/card_backs/set2/gray.gif","img/card_backs/set2/blue.gif","img/card_backs/set2/orange.gif","""event"",""trial"",""time""
""fullscreenenter"",""1"",""3701""
","
","
","""event"",""trial"",""time""
""fullscreenenter"",""1"",""3701""
","
","","null","","null","","fixation","2021-07-25 20:41:50.388","","","","","",""
"card-selection-trial","129","467471","0.0-25.0-1.29","A675","false","img/card_backs/set1/purple.gif","img/card_backs/set1/yellow.gif","img/card_backs/set1/green.gif","img/card_backs/set1/red.gif","img/card_backs/set2/pink.gif","img/card_backs/set2/gray.gif","img/card_backs/set2/blue.gif","img/card_backs/set2/orange.gif","""event"",""trial"",""time""
""fullscreenenter"",""1"",""3701""
","
","
","""event"",""trial"",""time""
""fullscreenenter"",""1"",""3701""
","
","","542.8999999761581","","","","real_trial","2021-07-25 20:41:52.943","img/card_backs/set1/purple.gif","0","180","1","",""
"casino-fixation","130","467977","0.0-25.0-0.30","A675","false","img/card_backs/set1/purple.gif","img/card_backs/set1/yellow.gif","img/card_backs/set1/green.gif","img/card_backs/set1/red.gif","img/card_backs/set2/pink.gif","img/card_backs/set2/gray.gif","img/card_backs/set2/blue.gif","img/card_backs/set2/orange.gif","""event"",""trial"",""time""
""fullscreenenter"",""1"",""3701""
","
","
","""event"",""trial"",""time""
""fullscreenenter"",""1"",""3701""
","
","","null","","null","","fixation","2021-07-25 20:41:53.449","","","","","",""
"card-selection-trial","131","470583","0.0-25.0-1.30","A675","false","img/card_backs/set1/purple.gif","img/card_backs/set1/yellow.gif","img/card_backs/set1/green.gif","img/card_backs/set1/red.gif","img/card_backs/set2/pink.gif","img/card_backs/set2/gray.gif","img/card_backs/set2/blue.gif","img/card_backs/set2/orange.gif","""event"",""trial"",""time""
""fullscreenenter"",""1"",""3701""
","
","
","""event"",""trial"",""time""
""fullscreenenter"",""1"",""3701""
","
","","594.8999999761581","","","","real_trial","2021-07-25 20:41:56.055","img/card_backs/set1/purple.gif","0","-240","1","",""
"casino-fixation","132","471088","0.0-25.0-0.31","A675","false","img/card_backs/set1/purple.gif","img/card_backs/set1/yellow.gif","img/card_backs/set1/green.gif","img/card_backs/set1/red.gif","img/card_backs/set2/pink.gif","img/card_backs/set2/gray.gif","img/card_backs/set2/blue.gif","img/card_backs/set2/orange.gif","""event"",""trial"",""time""
""fullscreenenter"",""1"",""3701""
","
","
","""event"",""trial"",""time""
""fullscreenenter"",""1"",""3701""
","
","","null","","null","","fixation","2021-07-25 20:41:56.561","","","","","",""
"card-selection-trial","133","473534","0.0-25.0-1.31","A675","false","img/card_backs/set1/purple.gif","img/card_backs/set1/yellow.gif","img/card_backs/set1/green.gif","img/card_backs/set1/red.gif","img/card_backs/set2/pink.gif","img/card_backs/set2/gray.gif","img/card_backs/set2/blue.gif","img/card_backs/set2/orange.gif","""event"",""trial"",""time""
""fullscreenenter"",""1"",""3701""
","
","
","""event"",""trial"",""time""
""fullscreenenter"",""1"",""3701""
","
","","434.60000002384186","","","","real_trial","2021-07-25 20:41:59.006","img/card_backs/set1/purple.gif","0","-230","1","",""
"casino-fixation","134","474042","0.0-25.0-0.32","A675","false","img/card_backs/set1/purple.gif","img/card_backs/set1/yellow.gif","img/card_backs/set1/green.gif","img/card_backs/set1/red.gif","img/card_backs/set2/pink.gif","img/card_backs/set2/gray.gif","img/card_backs/set2/blue.gif","img/card_backs/set2/orange.gif","""event"",""trial"",""time""
""fullscreenenter"",""1"",""3701""
","
","
","""event"",""trial"",""time""
""fullscreenenter"",""1"",""3701""
","
","","null","","null","","fixation","2021-07-25 20:41:59.514","","","","","",""
"card-selection-trial","135","477206","0.0-25.0-1.32","A675","false","img/card_backs/set1/purple.gif","img/card_backs/set1/yellow.gif","img/card_backs/set1/green.gif","img/card_backs/set1/red.gif","img/card_backs/set2/pink.gif","img/card_backs/set2/gray.gif","img/card_backs/set2/blue.gif","img/card_backs/set2/orange.gif","""event"",""trial"",""time""
""fullscreenenter"",""1"",""3701""
","
","
","""event"",""trial"",""time""
""fullscreenenter"",""1"",""3701""
","
","","1153.3000000715256","","","","real_trial","2021-07-25 20:42:02.678","img/card_backs/set1/purple.gif","3","180","1","",""
"casino-fixation","136","477711","0.0-25.0-0.33","A675","false","img/card_backs/set1/purple.gif","img/card_backs/set1/yellow.gif","img/card_backs/set1/green.gif","img/card_backs/set1/red.gif","img/card_backs/set2/pink.gif","img/card_backs/set2/gray.gif","img/card_backs/set2/blue.gif","img/card_backs/set2/orange.gif","""event"",""trial"",""time""
""fullscreenenter"",""1"",""3701""
","
","
","""event"",""trial"",""time""
""fullscreenenter"",""1"",""3701""
","
","","null","","null","","fixation","2021-07-25 20:42:03.183","","","","","",""
"card-selection-trial","137","480263","0.0-25.0-1.33","A675","false","img/card_backs/set1/purple.gif","img/card_backs/set1/yellow.gif","img/card_backs/set1/green.gif","img/card_backs/set1/red.gif","img/card_backs/set2/pink.gif","img/card_backs/set2/gray.gif","img/card_backs/set2/blue.gif","img/card_backs/set2/orange.gif","""event"",""trial"",""time""
""fullscreenenter"",""1"",""3701""
","
","
","""event"",""trial"",""time""
""fullscreenenter"",""1"",""3701""
","
","","541","","","","real_trial","2021-07-25 20:42:05.735","img/card_backs/set1/purple.gif","3","190","1","",""
"casino-fixation","138","480767","0.0-25.0-0.34","A675","false","img/card_backs/set1/purple.gif","img/card_backs/set1/yellow.gif","img/card_backs/set1/green.gif","img/card_backs/set1/red.gif","img/card_backs/set2/pink.gif","img/card_backs/set2/gray.gif","img/card_backs/set2/blue.gif","img/card_backs/set2/orange.gif","""event"",""trial"",""time""
""fullscreenenter"",""1"",""3701""
","
","
","""event"",""trial"",""time""
""fullscreenenter"",""1"",""3701""
","
","","null","","null","","fixation","2021-07-25 20:42:06.239","","","","","",""
"card-selection-trial","139","483626","0.0-25.0-1.34","A675","false","img/card_backs/set1/purple.gif","img/card_backs/set1/yellow.gif","img/card_backs/set1/green.gif","img/card_backs/set1/red.gif","img/card_backs/set2/pink.gif","img/card_backs/set2/gray.gif","img/card_backs/set2/blue.gif","img/card_backs/set2/orange.gif","""event"",""trial"",""time""
""fullscreenenter"",""1"",""3701""
","
","
","""event"",""trial"",""time""
""fullscreenenter"",""1"",""3701""
","
","","848.5","","","","real_trial","2021-07-25 20:42:09.104","img/card_backs/set1/purple.gif","0","200","1","",""
"casino-fixation","140","484137","0.0-25.0-0.35","A675","false","img/card_backs/set1/purple.gif","img/card_backs/set1/yellow.gif","img/card_backs/set1/green.gif","img/card_backs/set1/red.gif","img/card_backs/set2/pink.gif","img/card_backs/set2/gray.gif","img/card_backs/set2/blue.gif","img/card_backs/set2/orange.gif","""event"",""trial"",""time""
""fullscreenenter"",""1"",""3701""
","
","
","""event"",""trial"",""time""
""fullscreenenter"",""1"",""3701""
","
","","null","","null","","fixation","2021-07-25 20:42:09.609","","","","","",""
"card-selection-trial","141","486755","0.0-25.0-1.35","A675","false","img/card_backs/set1/purple.gif","img/card_backs/set1/yellow.gif","img/card_backs/set1/green.gif","img/card_backs/set1/red.gif","img/card_backs/set2/pink.gif","img/card_backs/set2/gray.gif","img/card_backs/set2/blue.gif","img/card_backs/set2/orange.gif","""event"",""trial"",""time""
""fullscreenenter"",""1"",""3701""
","
","
","""event"",""trial"",""time""
""fullscreenenter"",""1"",""3701""
","
","","605","","","","real_trial","2021-07-25 20:42:12.227","img/card_backs/set1/purple.gif","3","200","1","",""
"casino-fixation","142","487260","0.0-25.0-0.36","A675","false","img/card_backs/set1/purple.gif","img/card_backs/set1/yellow.gif","img/card_backs/set1/green.gif","img/card_backs/set1/red.gif","img/card_backs/set2/pink.gif","img/card_backs/set2/gray.gif","img/card_backs/set2/blue.gif","img/card_backs/set2/orange.gif","""event"",""trial"",""time""
""fullscreenenter"",""1"",""3701""
","
","
","""event"",""trial"",""time""
""fullscreenenter"",""1"",""3701""
","
","","null","","null","","fixation","2021-07-25 20:42:12.732","","","","","",""
"card-selection-trial","143","489995","0.0-25.0-1.36","A675","false","img/card_backs/set1/purple.gif","img/card_backs/set1/yellow.gif","img/card_backs/set1/green.gif","img/card_backs/set1/red.gif","img/card_backs/set2/pink.gif","img/card_backs/set2/gray.gif","img/card_backs/set2/blue.gif","img/card_backs/set2/orange.gif","""event"",""trial"",""time""
""fullscreenenter"",""1"",""3701""
","
","
","""event"",""trial"",""time""
""fullscreenenter"",""1"",""3701""
","
","","723.5","","","","real_trial","2021-07-25 20:42:15.467","img/card_backs/set1/purple.gif","0","200","1","",""
"casino-fixation","144","490499","0.0-25.0-0.37","A675","false","img/card_backs/set1/purple.gif","img/card_backs/set1/yellow.gif","img/card_backs/set1/green.gif","img/card_backs/set1/red.gif","img/card_backs/set2/pink.gif","img/card_backs/set2/gray.gif","img/card_backs/set2/blue.gif","img/card_backs/set2/orange.gif","""event"",""trial"",""time""
""fullscreenenter"",""1"",""3701""
","
","
","""event"",""trial"",""time""
""fullscreenenter"",""1"",""3701""
","
","","null","","null","","fixation","2021-07-25 20:42:15.971","","","","","",""
"card-selection-trial","145","493507","0.0-25.0-1.37","A675","false","img/card_backs/set1/purple.gif","img/card_backs/set1/yellow.gif","img/card_backs/set1/green.gif","img/card_backs/set1/red.gif","img/card_backs/set2/pink.gif","img/card_backs/set2/gray.gif","img/card_backs/set2/blue.gif","img/card_backs/set2/orange.gif","""event"",""trial"",""time""
""fullscreenenter"",""1"",""3701""
","
","
","""event"",""trial"",""time""
""fullscreenenter"",""1"",""3701""
","
","","998.1000000238419","","","","real_trial","2021-07-25 20:42:18.979","img/card_backs/set1/purple.gif","2","-230","1","",""
"casino-fixation","146","494011","0.0-25.0-0.38","A675","false","img/card_backs/set1/purple.gif","img/card_backs/set1/yellow.gif","img/card_backs/set1/green.gif","img/card_backs/set1/red.gif","img/card_backs/set2/pink.gif","img/card_backs/set2/gray.gif","img/card_backs/set2/blue.gif","img/card_backs/set2/orange.gif","""event"",""trial"",""time""
""fullscreenenter"",""1"",""3701""
","
","
","""event"",""trial"",""time""
""fullscreenenter"",""1"",""3701""
","
","","null","","null","","fixation","2021-07-25 20:42:19.484","","","","","",""
"card-selection-trial","147","496763","0.0-25.0-1.38","A675","false","img/card_backs/set1/purple.gif","img/card_backs/set1/yellow.gif","img/card_backs/set1/green.gif","img/card_backs/set1/red.gif","img/card_backs/set2/pink.gif","img/card_backs/set2/gray.gif","img/card_backs/set2/blue.gif","img/card_backs/set2/orange.gif","""event"",""trial"",""time""
""fullscreenenter"",""1"",""3701""
","
","
","""event"",""trial"",""time""
""fullscreenenter"",""1"",""3701""
","
","","742.3999999761581","","","","real_trial","2021-07-25 20:42:22.235","img/card_backs/set1/purple.gif","3","-240","1","",""
"casino-fixation","148","497268","0.0-25.0-0.39","A675","false","img/card_backs/set1/purple.gif","img/card_backs/set1/yellow.gif","img/card_backs/set1/green.gif","img/card_backs/set1/red.gif","img/card_backs/set2/pink.gif","img/card_backs/set2/gray.gif","img/card_backs/set2/blue.gif","img/card_backs/set2/orange.gif","""event"",""trial"",""time""
""fullscreenenter"",""1"",""3701""
","
","
","""event"",""trial"",""time""
""fullscreenenter"",""1"",""3701""
","
","","null","","null","","fixation","2021-07-25 20:42:22.740","","","","","",""
"card-selection-trial","149","504809","0.0-25.0-1.39","A675","false","img/card_backs/set1/purple.gif","img/card_backs/set1/yellow.gif","img/card_backs/set1/green.gif","img/card_backs/set1/red.gif","img/card_backs/set2/pink.gif","img/card_backs/set2/gray.gif","img/card_backs/set2/blue.gif","img/card_backs/set2/orange.gif","""event"",""trial"",""time""
""fullscreenenter"",""1"",""3701""
","
","
","""event"",""trial"",""time""
""fullscreenenter"",""1"",""3701""
","
","","5531.200000047684","","","","real_trial","2021-07-25 20:42:30.281","img/card_backs/set1/yellow.gif","3","190","1","",""
"casino-fixation","150","505314","0.0-25.0-0.40","A675","false","img/card_backs/set1/purple.gif","img/card_backs/set1/yellow.gif","img/card_backs/set1/green.gif","img/card_backs/set1/red.gif","img/card_backs/set2/pink.gif","img/card_backs/set2/gray.gif","img/card_backs/set2/blue.gif","img/card_backs/set2/orange.gif","""event"",""trial"",""time""
""fullscreenenter"",""1"",""3701""
","
","
","""event"",""trial"",""time""
""fullscreenenter"",""1"",""3701""
","
","","null","","null","","fixation","2021-07-25 20:42:30.786","","","","","",""
"card-selection-trial","151","508176","0.0-25.0-1.40","A675","false","img/card_backs/set1/purple.gif","img/card_backs/set1/yellow.gif","img/card_backs/set1/green.gif","img/card_backs/set1/red.gif","img/card_backs/set2/pink.gif","img/card_backs/set2/gray.gif","img/card_backs/set2/blue.gif","img/card_backs/set2/orange.gif","""event"",""trial"",""time""
""fullscreenenter"",""1"",""3701""
","
","
","""event"",""trial"",""time""
""fullscreenenter"",""1"",""3701""
","
","","850.5","","","","real_trial","2021-07-25 20:42:33.648","img/card_backs/set1/yellow.gif","0","-240","1","",""
"casino-fixation","152","508681","0.0-25.0-0.41","A675","false","img/card_backs/set1/purple.gif","img/card_backs/set1/yellow.gif","img/card_backs/set1/green.gif","img/card_backs/set1/red.gif","img/card_backs/set2/pink.gif","img/card_backs/set2/gray.gif","img/card_backs/set2/blue.gif","img/card_backs/set2/orange.gif","""event"",""trial"",""time""
""fullscreenenter"",""1"",""3701""
","
","
","""event"",""trial"",""time""
""fullscreenenter"",""1"",""3701""
","
","","null","","null","","fixation","2021-07-25 20:42:34.153","","","","","",""
"card-selection-trial","153","512587","0.0-25.0-1.41","A675","false","img/card_backs/set1/purple.gif","img/card_backs/set1/yellow.gif","img/card_backs/set1/green.gif","img/card_backs/set1/red.gif","img/card_backs/set2/pink.gif","img/card_backs/set2/gray.gif","img/card_backs/set2/blue.gif","img/card_backs/set2/orange.gif","""event"",""trial"",""time""
""fullscreenenter"",""1"",""3701""
","
","
","""event"",""trial"",""time""
""fullscreenenter"",""1"",""3701""
","
","","1893.3999999761581","","","","real_trial","2021-07-25 20:42:38.060","img/card_backs/set1/yellow.gif","1","-240","1","",""
"casino-fixation","154","513093","0.0-25.0-0.42","A675","false","img/card_backs/set1/purple.gif","img/card_backs/set1/yellow.gif","img/card_backs/set1/green.gif","img/card_backs/set1/red.gif","img/card_backs/set2/pink.gif","img/card_backs/set2/gray.gif","img/card_backs/set2/blue.gif","img/card_backs/set2/orange.gif","""event"",""trial"",""time""
""fullscreenenter"",""1"",""3701""
","
","
","""event"",""trial"",""time""
""fullscreenenter"",""1"",""3701""
","
","","null","","null","","fixation","2021-07-25 20:42:38.565","","","","","",""
"card-selection-trial","155","516309","0.0-25.0-1.42","A675","false","img/card_backs/set1/purple.gif","img/card_backs/set1/yellow.gif","img/card_backs/set1/green.gif","img/card_backs/set1/red.gif","img/card_backs/set2/pink.gif","img/card_backs/set2/gray.gif","img/card_backs/set2/blue.gif","img/card_backs/set2/orange.gif","""event"",""trial"",""time""
""fullscreenenter"",""1"",""3701""
","
","
","""event"",""trial"",""time""
""fullscreenenter"",""1"",""3701""
","
","","1205.1000000238419","","","","real_trial","2021-07-25 20:42:41.781","img/card_backs/set1/purple.gif","1","-250","1","",""
"casino-fixation","156","516816","0.0-25.0-0.43","A675","false","img/card_backs/set1/purple.gif","img/card_backs/set1/yellow.gif","img/card_backs/set1/green.gif","img/card_backs/set1/red.gif","img/card_backs/set2/pink.gif","img/card_backs/set2/gray.gif","img/card_backs/set2/blue.gif","img/card_backs/set2/orange.gif","""event"",""trial"",""time""
""fullscreenenter"",""1"",""3701""
","
","
","""event"",""trial"",""time""
""fullscreenenter"",""1"",""3701""
","
","","null","","null","","fixation","2021-07-25 20:42:42.288","","","","","",""
"card-selection-trial","157","521150","0.0-25.0-1.43","A675","false","img/card_backs/set1/purple.gif","img/card_backs/set1/yellow.gif","img/card_backs/set1/green.gif","img/card_backs/set1/red.gif","img/card_backs/set2/pink.gif","img/card_backs/set2/gray.gif","img/card_backs/set2/blue.gif","img/card_backs/set2/orange.gif","""event"",""trial"",""time""
""fullscreenenter"",""1"",""3701""
","
","
","""event"",""trial"",""time""
""fullscreenenter"",""1"",""3701""
","
","","2322.8000000715256","","","","real_trial","2021-07-25 20:42:46.623","img/card_backs/set1/purple.gif","2","-240","1","",""
"casino-fixation","158","521655","0.0-25.0-0.44","A675","false","img/card_backs/set1/purple.gif","img/card_backs/set1/yellow.gif","img/card_backs/set1/green.gif","img/card_backs/set1/red.gif","img/card_backs/set2/pink.gif","img/card_backs/set2/gray.gif","img/card_backs/set2/blue.gif","img/card_backs/set2/orange.gif","""event"",""trial"",""time""
""fullscreenenter"",""1"",""3701""
","
","
","""event"",""trial"",""time""
""fullscreenenter"",""1"",""3701""
","
","","null","","null","","fixation","2021-07-25 20:42:47.128","","","","","",""
"card-selection-trial","159","524558","0.0-25.0-1.44","A675","false","img/card_backs/set1/purple.gif","img/card_backs/set1/yellow.gif","img/card_backs/set1/green.gif","img/card_backs/set1/red.gif","img/card_backs/set2/pink.gif","img/card_backs/set2/gray.gif","img/card_backs/set2/blue.gif","img/card_backs/set2/orange.gif","""event"",""trial"",""time""
""fullscreenenter"",""1"",""3701""
","
","
","""event"",""trial"",""time""
""fullscreenenter"",""1"",""3701""
","
","","891.8999999761581","","","","real_trial","2021-07-25 20:42:50.031","img/card_backs/set1/purple.gif","1","-240","1","",""
"casino-fixation","160","525063","0.0-25.0-0.45","A675","false","img/card_backs/set1/purple.gif","img/card_backs/set1/yellow.gif","img/card_backs/set1/green.gif","img/card_backs/set1/red.gif","img/card_backs/set2/pink.gif","img/card_backs/set2/gray.gif","img/card_backs/set2/blue.gif","img/card_backs/set2/orange.gif","""event"",""trial"",""time""
""fullscreenenter"",""1"",""3701""
","
","
","""event"",""trial"",""time""
""fullscreenenter"",""1"",""3701""
","
","","null","","null","","fixation","2021-07-25 20:42:50.535","","","","","",""
"card-selection-trial","161","529121","0.0-25.0-1.45","A675","false","img/card_backs/set1/purple.gif","img/card_backs/set1/yellow.gif","img/card_backs/set1/green.gif","img/card_backs/set1/red.gif","img/card_backs/set2/pink.gif","img/card_backs/set2/gray.gif","img/card_backs/set2/blue.gif","img/card_backs/set2/orange.gif","""event"",""trial"",""time""
""fullscreenenter"",""1"",""3701""
","
","
","""event"",""trial"",""time""
""fullscreenenter"",""1"",""3701""
","
","","2046.3999999761581","","","","real_trial","2021-07-25 20:42:54.593","img/card_backs/set1/yellow.gif","1","190","1","",""
"casino-fixation","162","529626","0.0-25.0-0.46","A675","false","img/card_backs/set1/purple.gif","img/card_backs/set1/yellow.gif","img/card_backs/set1/green.gif","img/card_backs/set1/red.gif","img/card_backs/set2/pink.gif","img/card_backs/set2/gray.gif","img/card_backs/set2/blue.gif","img/card_backs/set2/orange.gif","""event"",""trial"",""time""
""fullscreenenter"",""1"",""3701""
","
","
","""event"",""trial"",""time""
""fullscreenenter"",""1"",""3701""
","
","","null","","null","","fixation","2021-07-25 20:42:55.098","","","","","",""
"card-selection-trial","163","532506","0.0-25.0-1.46","A675","false","img/card_backs/set1/purple.gif","img/card_backs/set1/yellow.gif","img/card_backs/set1/green.gif","img/card_backs/set1/red.gif","img/card_backs/set2/pink.gif","img/card_backs/set2/gray.gif","img/card_backs/set2/blue.gif","img/card_backs/set2/orange.gif","""event"",""trial"",""time""
""fullscreenenter"",""1"",""3701""
","
","
","""event"",""trial"",""time""
""fullscreenenter"",""1"",""3701""
","
","","868.1999999284744","","","","real_trial","2021-07-25 20:42:57.978","img/card_backs/set1/yellow.gif","3","200","1","",""
"casino-fixation","164","533011","0.0-25.0-0.47","A675","false","img/card_backs/set1/purple.gif","img/card_backs/set1/yellow.gif","img/card_backs/set1/green.gif","img/card_backs/set1/red.gif","img/card_backs/set2/pink.gif","img/card_backs/set2/gray.gif","img/card_backs/set2/blue.gif","img/card_backs/set2/orange.gif","""event"",""trial"",""time""
""fullscreenenter"",""1"",""3701""
","
","
","""event"",""trial"",""time""
""fullscreenenter"",""1"",""3701""
","
","","null","","null","","fixation","2021-07-25 20:42:58.483","","","","","",""
"card-selection-trial","165","535985","0.0-25.0-1.47","A675","false","img/card_backs/set1/purple.gif","img/card_backs/set1/yellow.gif","img/card_backs/set1/green.gif","img/card_backs/set1/red.gif","img/card_backs/set2/pink.gif","img/card_backs/set2/gray.gif","img/card_backs/set2/blue.gif","img/card_backs/set2/orange.gif","""event"",""trial"",""time""
""fullscreenenter"",""1"",""3701""
","
","
","""event"",""trial"",""time""
""fullscreenenter"",""1"",""3701""
","
","","964.8999999761581","","","","real_trial","2021-07-25 20:43:01.457","img/card_backs/set1/yellow.gif","0","-250","1","",""
"casino-fixation","166","536492","0.0-25.0-0.48","A675","false","img/card_backs/set1/purple.gif","img/card_backs/set1/yellow.gif","img/card_backs/set1/green.gif","img/card_backs/set1/red.gif","img/card_backs/set2/pink.gif","img/card_backs/set2/gray.gif","img/card_backs/set2/blue.gif","img/card_backs/set2/orange.gif","""event"",""trial"",""time""
""fullscreenenter"",""1"",""3701""
","
","
","""event"",""trial"",""time""
""fullscreenenter"",""1"",""3701""
","
","","null","","null","","fixation","2021-07-25 20:43:01.965","","","","","",""
