"trial_type","trial_index","time_elapsed","internal_node_id","sub_id","risk_good_first","block1_A","block1_B","block1_C","block1_D","block2_A","block2_B","block2_C","block2_D","interactions","blur_events","focus_events","fullscreenenter_events","fullscreenexit_events","success","rt","stimulus","key_press","button_pressed","task_part","timestamp","card_choice","choice_position","points_earned","block","correct","response"
"pavlovia","0","3","0.0-0.0","202","false","img/card_backs/set1/red.gif","img/card_backs/set1/yellow.gif","img/card_backs/set1/purple.gif","img/card_backs/set1/green.gif","img/card_backs/set2/gray.gif","img/card_backs/set2/pink.gif","img/card_backs/set2/orange.gif","img/card_backs/set2/blue.gif","""event"",""trial"",""time""
""fullscreenenter"",""1"",""2440""
","
","
","""event"",""trial"",""time""
""fullscreenenter"",""1"",""2440""
","
","","","","","","","","","","","","",""
"fullscreen","1","3431","0.0-1.0","202","false","img/card_backs/set1/red.gif","img/card_backs/set1/yellow.gif","img/card_backs/set1/purple.gif","img/card_backs/set1/green.gif","img/card_backs/set2/gray.gif","img/card_backs/set2/pink.gif","img/card_backs/set2/orange.gif","img/card_backs/set2/blue.gif","""event"",""trial"",""time""
""fullscreenenter"",""1"",""2440""
","
","
","""event"",""trial"",""time""
""fullscreenenter"",""1"",""2440""
","
","true","","","","","","","","","","","",""
"audio-keyboard-response","2","4821","0.0-2.0","202","false","img/card_backs/set1/red.gif","img/card_backs/set1/yellow.gif","img/card_backs/set1/purple.gif","img/card_backs/set1/green.gif","img/card_backs/set2/gray.gif","img/card_backs/set2/pink.gif","img/card_backs/set2/orange.gif","img/card_backs/set2/blue.gif","""event"",""trial"",""time""
""fullscreenenter"",""1"",""2440""
""fullscreenexit"",""3"",""17235""
""blur"",""3"",""32954""
""focus"",""3"",""32954""
""blur"",""3"",""34705""
""focus"",""3"",""34705""
""blur"",""3"",""39974""
""focus"",""3"",""39978""
""blur"",""3"",""46909""
""focus"",""3"",""54547""
""blur"",""3"",""57430""
""focus"",""3"",""83623""
","""event"",""trial"",""time""
""blur"",""3"",""32954""
""blur"",""3"",""34705""
""blur"",""3"",""39974""
""blur"",""3"",""46909""
""blur"",""3"",""57430""
","""event"",""trial"",""time""
""focus"",""3"",""32954""
""focus"",""3"",""34705""
""focus"",""3"",""39978""
""focus"",""3"",""54547""
""focus"",""3"",""83623""
","""event"",""trial"",""time""
""fullscreenenter"",""1"",""2440""
","""event"",""trial"",""time""
""fullscreenexit"",""3"",""17235""
","","1333","audio/beep_loop.wav","32","","","","","","","","",""
"audio-button-response","3","93737","0.0-3.0","202","false","img/card_backs/set1/red.gif","img/card_backs/set1/yellow.gif","img/card_backs/set1/purple.gif","img/card_backs/set1/green.gif","img/card_backs/set2/gray.gif","img/card_backs/set2/pink.gif","img/card_backs/set2/orange.gif","img/card_backs/set2/blue.gif","""event"",""trial"",""time""
""fullscreenenter"",""1"",""2440""
""fullscreenexit"",""3"",""17235""
""blur"",""3"",""32954""
""focus"",""3"",""32954""
""blur"",""3"",""34705""
""focus"",""3"",""34705""
""blur"",""3"",""39974""
""focus"",""3"",""39978""
""blur"",""3"",""46909""
""focus"",""3"",""54547""
""blur"",""3"",""57430""
""focus"",""3"",""83623""
","""event"",""trial"",""time""
""blur"",""3"",""32954""
""blur"",""3"",""34705""
""blur"",""3"",""39974""
""blur"",""3"",""46909""
""blur"",""3"",""57430""
","""event"",""trial"",""time""
""focus"",""3"",""32954""
""focus"",""3"",""34705""
""focus"",""3"",""39978""
""focus"",""3"",""54547""
""focus"",""3"",""83623""
","""event"",""trial"",""time""
""fullscreenenter"",""1"",""2440""
","""event"",""trial"",""time""
""fullscreenexit"",""3"",""17235""
","","NaN","audio/turtle.mp3","","3","","","","","","","",""
"audio-button-response","4","96397","0.0-4.0","202","false","img/card_backs/set1/red.gif","img/card_backs/set1/yellow.gif","img/card_backs/set1/purple.gif","img/card_backs/set1/green.gif","img/card_backs/set2/gray.gif","img/card_backs/set2/pink.gif","img/card_backs/set2/orange.gif","img/card_backs/set2/blue.gif","""event"",""trial"",""time""
""fullscreenenter"",""1"",""2440""
""fullscreenexit"",""3"",""17235""
""blur"",""3"",""32954""
""focus"",""3"",""32954""
""blur"",""3"",""34705""
""focus"",""3"",""34705""
""blur"",""3"",""39974""
""focus"",""3"",""39978""
""blur"",""3"",""46909""
""focus"",""3"",""54547""
""blur"",""3"",""57430""
""focus"",""3"",""83623""
""fullscreenenter"",""5"",""99683""
","""event"",""trial"",""time""
""blur"",""3"",""32954""
""blur"",""3"",""34705""
""blur"",""3"",""39974""
""blur"",""3"",""46909""
""blur"",""3"",""57430""
","""event"",""trial"",""time""
""focus"",""3"",""32954""
""focus"",""3"",""34705""
""focus"",""3"",""39978""
""focus"",""3"",""54547""
""focus"",""3"",""83623""
","""event"",""trial"",""time""
""fullscreenenter"",""1"",""2440""
""fullscreenenter"",""5"",""99683""
","""event"",""trial"",""time""
""fullscreenexit"",""3"",""17235""
","","NaN","audio/shark.mp3","","2","","","","","","","",""
"fullscreen","5","100672","0.0-5.0","202","false","img/card_backs/set1/red.gif","img/card_backs/set1/yellow.gif","img/card_backs/set1/purple.gif","img/card_backs/set1/green.gif","img/card_backs/set2/gray.gif","img/card_backs/set2/pink.gif","img/card_backs/set2/orange.gif","img/card_backs/set2/blue.gif","""event"",""trial"",""time""
""fullscreenenter"",""1"",""2440""
""fullscreenexit"",""3"",""17235""
""blur"",""3"",""32954""
""focus"",""3"",""32954""
""blur"",""3"",""34705""
""focus"",""3"",""34705""
""blur"",""3"",""39974""
""focus"",""3"",""39978""
""blur"",""3"",""46909""
""focus"",""3"",""54547""
""blur"",""3"",""57430""
""focus"",""3"",""83623""
""fullscreenenter"",""5"",""99683""
","""event"",""trial"",""time""
""blur"",""3"",""32954""
""blur"",""3"",""34705""
""blur"",""3"",""39974""
""blur"",""3"",""46909""
""blur"",""3"",""57430""
","""event"",""trial"",""time""
""focus"",""3"",""32954""
""focus"",""3"",""34705""
""focus"",""3"",""39978""
""focus"",""3"",""54547""
""focus"",""3"",""83623""
","""event"",""trial"",""time""
""fullscreenenter"",""1"",""2440""
""fullscreenenter"",""5"",""99683""
","""event"",""trial"",""time""
""fullscreenexit"",""3"",""17235""
","true","","","","","","","","","","","",""
"casino-keyboard-response","6","103949","0.0-6.0-0.0","202","false","img/card_backs/set1/red.gif","img/card_backs/set1/yellow.gif","img/card_backs/set1/purple.gif","img/card_backs/set1/green.gif","img/card_backs/set2/gray.gif","img/card_backs/set2/pink.gif","img/card_backs/set2/orange.gif","img/card_backs/set2/blue.gif","""event"",""trial"",""time""
""fullscreenenter"",""1"",""2440""
""fullscreenexit"",""3"",""17235""
""blur"",""3"",""32954""
""focus"",""3"",""32954""
""blur"",""3"",""34705""
""focus"",""3"",""34705""
""blur"",""3"",""39974""
""focus"",""3"",""39978""
""blur"",""3"",""46909""
""focus"",""3"",""54547""
""blur"",""3"",""57430""
""focus"",""3"",""83623""
""fullscreenenter"",""5"",""99683""
","""event"",""trial"",""time""
""blur"",""3"",""32954""
""blur"",""3"",""34705""
""blur"",""3"",""39974""
""blur"",""3"",""46909""
""blur"",""3"",""57430""
","""event"",""trial"",""time""
""focus"",""3"",""32954""
""focus"",""3"",""34705""
""focus"",""3"",""39978""
""focus"",""3"",""54547""
""focus"",""3"",""83623""
","""event"",""trial"",""time""
""fullscreenenter"",""1"",""2440""
""fullscreenenter"",""5"",""99683""
","""event"",""trial"",""time""
""fullscreenexit"",""3"",""17235""
","","3273.899999976158","Welcome to the casino!","71","","instructions","2021-08-15 18:31:22.400","","","","","",""
"casino-keyboard-response","7","113484","0.0-6.0-0.1","202","false","img/card_backs/set1/red.gif","img/card_backs/set1/yellow.gif","img/card_backs/set1/purple.gif","img/card_backs/set1/green.gif","img/card_backs/set2/gray.gif","img/card_backs/set2/pink.gif","img/card_backs/set2/orange.gif","img/card_backs/set2/blue.gif","""event"",""trial"",""time""
""fullscreenenter"",""1"",""2440""
""fullscreenexit"",""3"",""17235""
""blur"",""3"",""32954""
""focus"",""3"",""32954""
""blur"",""3"",""34705""
""focus"",""3"",""34705""
""blur"",""3"",""39974""
""focus"",""3"",""39978""
""blur"",""3"",""46909""
""focus"",""3"",""54547""
""blur"",""3"",""57430""
""focus"",""3"",""83623""
""fullscreenenter"",""5"",""99683""
","""event"",""trial"",""time""
""blur"",""3"",""32954""
""blur"",""3"",""34705""
""blur"",""3"",""39974""
""blur"",""3"",""46909""
""blur"",""3"",""57430""
","""event"",""trial"",""time""
""focus"",""3"",""32954""
""focus"",""3"",""34705""
""focus"",""3"",""39978""
""focus"",""3"",""54547""
""focus"",""3"",""83623""
","""event"",""trial"",""time""
""fullscreenenter"",""1"",""2440""
""fullscreenenter"",""5"",""99683""
","""event"",""trial"",""time""
""fullscreenexit"",""3"",""17235""
","","9533.899999976158","Today you will be playing a game to earn tokens. </br> At the end of the experiment, you will be paid a bonus based on how many tokens you win. ","69","","instructions","2021-08-15 18:31:31.935","","","","","",""
"casino-keyboard-response","8","121073","0.0-6.0-0.2","202","false","img/card_backs/set1/red.gif","img/card_backs/set1/yellow.gif","img/card_backs/set1/purple.gif","img/card_backs/set1/green.gif","img/card_backs/set2/gray.gif","img/card_backs/set2/pink.gif","img/card_backs/set2/orange.gif","img/card_backs/set2/blue.gif","""event"",""trial"",""time""
""fullscreenenter"",""1"",""2440""
""fullscreenexit"",""3"",""17235""
""blur"",""3"",""32954""
""focus"",""3"",""32954""
""blur"",""3"",""34705""
""focus"",""3"",""34705""
""blur"",""3"",""39974""
""focus"",""3"",""39978""
""blur"",""3"",""46909""
""focus"",""3"",""54547""
""blur"",""3"",""57430""
""focus"",""3"",""83623""
""fullscreenenter"",""5"",""99683""
","""event"",""trial"",""time""
""blur"",""3"",""32954""
""blur"",""3"",""34705""
""blur"",""3"",""39974""
""blur"",""3"",""46909""
""blur"",""3"",""57430""
","""event"",""trial"",""time""
""focus"",""3"",""32954""
""focus"",""3"",""34705""
""focus"",""3"",""39978""
""focus"",""3"",""54547""
""focus"",""3"",""83623""
","""event"",""trial"",""time""
""fullscreenenter"",""1"",""2440""
""fullscreenenter"",""5"",""99683""
","""event"",""trial"",""time""
""fullscreenexit"",""3"",""17235""
","","7588.400000095367","On every turn, you will be shown four different decks of cards. </br> You need to select a card from one of the four decks.  ","75","","instructions","2021-08-15 18:31:39.524","","","","","",""
"casino-keyboard-response","9","125902","0.0-6.0-0.3","202","false","img/card_backs/set1/red.gif","img/card_backs/set1/yellow.gif","img/card_backs/set1/purple.gif","img/card_backs/set1/green.gif","img/card_backs/set2/gray.gif","img/card_backs/set2/pink.gif","img/card_backs/set2/orange.gif","img/card_backs/set2/blue.gif","""event"",""trial"",""time""
""fullscreenenter"",""1"",""2440""
""fullscreenexit"",""3"",""17235""
""blur"",""3"",""32954""
""focus"",""3"",""32954""
""blur"",""3"",""34705""
""focus"",""3"",""34705""
""blur"",""3"",""39974""
""focus"",""3"",""39978""
""blur"",""3"",""46909""
""focus"",""3"",""54547""
""blur"",""3"",""57430""
""focus"",""3"",""83623""
""fullscreenenter"",""5"",""99683""
","""event"",""trial"",""time""
""blur"",""3"",""32954""
""blur"",""3"",""34705""
""blur"",""3"",""39974""
""blur"",""3"",""46909""
""blur"",""3"",""57430""
","""event"",""trial"",""time""
""focus"",""3"",""32954""
""focus"",""3"",""34705""
""focus"",""3"",""39978""
""focus"",""3"",""54547""
""focus"",""3"",""83623""
","""event"",""trial"",""time""
""fullscreenenter"",""1"",""2440""
""fullscreenenter"",""5"",""99683""
","""event"",""trial"",""time""
""fullscreenexit"",""3"",""17235""
","","4826.799999952316","On the next screen, you will see what the decks will look like. ","66","","instructions","2021-08-15 18:31:44.353","","","","","",""
"card-selection-trial","10","129919","0.0-7.0-0.0","202","false","img/card_backs/set1/red.gif","img/card_backs/set1/yellow.gif","img/card_backs/set1/purple.gif","img/card_backs/set1/green.gif","img/card_backs/set2/gray.gif","img/card_backs/set2/pink.gif","img/card_backs/set2/orange.gif","img/card_backs/set2/blue.gif","""event"",""trial"",""time""
""fullscreenenter"",""1"",""2440""
""fullscreenexit"",""3"",""17235""
""blur"",""3"",""32954""
""focus"",""3"",""32954""
""blur"",""3"",""34705""
""focus"",""3"",""34705""
""blur"",""3"",""39974""
""focus"",""3"",""39978""
""blur"",""3"",""46909""
""focus"",""3"",""54547""
""blur"",""3"",""57430""
""focus"",""3"",""83623""
""fullscreenenter"",""5"",""99683""
","""event"",""trial"",""time""
""blur"",""3"",""32954""
""blur"",""3"",""34705""
""blur"",""3"",""39974""
""blur"",""3"",""46909""
""blur"",""3"",""57430""
","""event"",""trial"",""time""
""focus"",""3"",""32954""
""focus"",""3"",""34705""
""focus"",""3"",""39978""
""focus"",""3"",""54547""
""focus"",""3"",""83623""
","""event"",""trial"",""time""
""fullscreenenter"",""1"",""2440""
""fullscreenenter"",""5"",""99683""
","""event"",""trial"",""time""
""fullscreenexit"",""3"",""17235""
","","null","","","","practice","2021-08-15 18:31:48.370","null","null","null","0","",""
"casino-keyboard-response","11","137774","0.0-8.0-0.0","202","false","img/card_backs/set1/red.gif","img/card_backs/set1/yellow.gif","img/card_backs/set1/purple.gif","img/card_backs/set1/green.gif","img/card_backs/set2/gray.gif","img/card_backs/set2/pink.gif","img/card_backs/set2/orange.gif","img/card_backs/set2/blue.gif","""event"",""trial"",""time""
""fullscreenenter"",""1"",""2440""
""fullscreenexit"",""3"",""17235""
""blur"",""3"",""32954""
""focus"",""3"",""32954""
""blur"",""3"",""34705""
""focus"",""3"",""34705""
""blur"",""3"",""39974""
""focus"",""3"",""39978""
""blur"",""3"",""46909""
""focus"",""3"",""54547""
""blur"",""3"",""57430""
""focus"",""3"",""83623""
""fullscreenenter"",""5"",""99683""
","""event"",""trial"",""time""
""blur"",""3"",""32954""
""blur"",""3"",""34705""
""blur"",""3"",""39974""
""blur"",""3"",""46909""
""blur"",""3"",""57430""
","""event"",""trial"",""time""
""focus"",""3"",""32954""
""focus"",""3"",""34705""
""focus"",""3"",""39978""
""focus"",""3"",""54547""
""focus"",""3"",""83623""
","""event"",""trial"",""time""
""fullscreenenter"",""1"",""2440""
""fullscreenenter"",""5"",""99683""
","""event"",""trial"",""time""
""fullscreenexit"",""3"",""17235""
","","7852.899999976158","You should pick a card from a deck using the '2', '4', '6', and '8' keys at the top of the keyboard.","85","","instructions","2021-08-15 18:31:56.225","","","","","",""
"casino-keyboard-response","12","142957","0.0-8.0-0.1","202","false","img/card_backs/set1/red.gif","img/card_backs/set1/yellow.gif","img/card_backs/set1/purple.gif","img/card_backs/set1/green.gif","img/card_backs/set2/gray.gif","img/card_backs/set2/pink.gif","img/card_backs/set2/orange.gif","img/card_backs/set2/blue.gif","""event"",""trial"",""time""
""fullscreenenter"",""1"",""2440""
""fullscreenexit"",""3"",""17235""
""blur"",""3"",""32954""
""focus"",""3"",""32954""
""blur"",""3"",""34705""
""focus"",""3"",""34705""
""blur"",""3"",""39974""
""focus"",""3"",""39978""
""blur"",""3"",""46909""
""focus"",""3"",""54547""
""blur"",""3"",""57430""
""focus"",""3"",""83623""
""fullscreenenter"",""5"",""99683""
","""event"",""trial"",""time""
""blur"",""3"",""32954""
""blur"",""3"",""34705""
""blur"",""3"",""39974""
""blur"",""3"",""46909""
""blur"",""3"",""57430""
","""event"",""trial"",""time""
""focus"",""3"",""32954""
""focus"",""3"",""34705""
""focus"",""3"",""39978""
""focus"",""3"",""54547""
""focus"",""3"",""83623""
","""event"",""trial"",""time""
""fullscreenenter"",""1"",""2440""
""fullscreenenter"",""5"",""99683""
","""event"",""trial"",""time""
""fullscreenexit"",""3"",""17235""
","","5182.899999976158","Once you select a card, it will turn over and you will see how many tokens you earned.","83","","instructions","2021-08-15 18:32:01.408","","","","","",""
"casino-keyboard-response","13","160946","0.0-8.0-0.2","202","false","img/card_backs/set1/red.gif","img/card_backs/set1/yellow.gif","img/card_backs/set1/purple.gif","img/card_backs/set1/green.gif","img/card_backs/set2/gray.gif","img/card_backs/set2/pink.gif","img/card_backs/set2/orange.gif","img/card_backs/set2/blue.gif","""event"",""trial"",""time""
""fullscreenenter"",""1"",""2440""
""fullscreenexit"",""3"",""17235""
""blur"",""3"",""32954""
""focus"",""3"",""32954""
""blur"",""3"",""34705""
""focus"",""3"",""34705""
""blur"",""3"",""39974""
""focus"",""3"",""39978""
""blur"",""3"",""46909""
""focus"",""3"",""54547""
""blur"",""3"",""57430""
""focus"",""3"",""83623""
""fullscreenenter"",""5"",""99683""
","""event"",""trial"",""time""
""blur"",""3"",""32954""
""blur"",""3"",""34705""
""blur"",""3"",""39974""
""blur"",""3"",""46909""
""blur"",""3"",""57430""
","""event"",""trial"",""time""
""focus"",""3"",""32954""
""focus"",""3"",""34705""
""focus"",""3"",""39978""
""focus"",""3"",""54547""
""focus"",""3"",""83623""
","""event"",""trial"",""time""
""fullscreenenter"",""1"",""2440""
""fullscreenenter"",""5"",""99683""
","""event"",""trial"",""time""
""fullscreenexit"",""3"",""17235""
","","17987.799999952316","Let's try practicing that! </br> First, try to put your fingers over the '2', '4', '6', and '8' keys. </br>  You can use whatever fingers are most comfortable for you. Try to find a comfortable position now. ","50","","instructions","2021-08-15 18:32:19.397","","","","","",""
"casino-keyboard-response","14","166698","0.0-8.0-0.3","202","false","img/card_backs/set1/red.gif","img/card_backs/set1/yellow.gif","img/card_backs/set1/purple.gif","img/card_backs/set1/green.gif","img/card_backs/set2/gray.gif","img/card_backs/set2/pink.gif","img/card_backs/set2/orange.gif","img/card_backs/set2/blue.gif","""event"",""trial"",""time""
""fullscreenenter"",""1"",""2440""
""fullscreenexit"",""3"",""17235""
""blur"",""3"",""32954""
""focus"",""3"",""32954""
""blur"",""3"",""34705""
""focus"",""3"",""34705""
""blur"",""3"",""39974""
""focus"",""3"",""39978""
""blur"",""3"",""46909""
""focus"",""3"",""54547""
""blur"",""3"",""57430""
""focus"",""3"",""83623""
""fullscreenenter"",""5"",""99683""
","""event"",""trial"",""time""
""blur"",""3"",""32954""
""blur"",""3"",""34705""
""blur"",""3"",""39974""
""blur"",""3"",""46909""
""blur"",""3"",""57430""
","""event"",""trial"",""time""
""focus"",""3"",""32954""
""focus"",""3"",""34705""
""focus"",""3"",""39978""
""focus"",""3"",""54547""
""focus"",""3"",""83623""
","""event"",""trial"",""time""
""fullscreenenter"",""1"",""2440""
""fullscreenenter"",""5"",""99683""
","""event"",""trial"",""time""
""fullscreenexit"",""3"",""17235""
","","5751.100000023842","Okay ready? </br> On the next screen, press '2' to select the left deck. ","50","","instructions","2021-08-15 18:32:25.149","","","","","",""
"card-selection-trial","15","169506","0.0-9.0-0.0","202","false","img/card_backs/set1/red.gif","img/card_backs/set1/yellow.gif","img/card_backs/set1/purple.gif","img/card_backs/set1/green.gif","img/card_backs/set2/gray.gif","img/card_backs/set2/pink.gif","img/card_backs/set2/orange.gif","img/card_backs/set2/blue.gif","""event"",""trial"",""time""
""fullscreenenter"",""1"",""2440""
""fullscreenexit"",""3"",""17235""
""blur"",""3"",""32954""
""focus"",""3"",""32954""
""blur"",""3"",""34705""
""focus"",""3"",""34705""
""blur"",""3"",""39974""
""focus"",""3"",""39978""
""blur"",""3"",""46909""
""focus"",""3"",""54547""
""blur"",""3"",""57430""
""focus"",""3"",""83623""
""fullscreenenter"",""5"",""99683""
","""event"",""trial"",""time""
""blur"",""3"",""32954""
""blur"",""3"",""34705""
""blur"",""3"",""39974""
""blur"",""3"",""46909""
""blur"",""3"",""57430""
","""event"",""trial"",""time""
""focus"",""3"",""32954""
""focus"",""3"",""34705""
""focus"",""3"",""39978""
""focus"",""3"",""54547""
""focus"",""3"",""83623""
","""event"",""trial"",""time""
""fullscreenenter"",""1"",""2440""
""fullscreenenter"",""5"",""99683""
","""event"",""trial"",""time""
""fullscreenexit"",""3"",""17235""
","","783","","","","practice_card_selection","2021-08-15 18:32:27.957","img/practice_cards/backs/black.gif","0","-100","","",""
"casino-keyboard-response","16","172610","0.0-10.0-0.0","202","false","img/card_backs/set1/red.gif","img/card_backs/set1/yellow.gif","img/card_backs/set1/purple.gif","img/card_backs/set1/green.gif","img/card_backs/set2/gray.gif","img/card_backs/set2/pink.gif","img/card_backs/set2/orange.gif","img/card_backs/set2/blue.gif","""event"",""trial"",""time""
""fullscreenenter"",""1"",""2440""
""fullscreenexit"",""3"",""17235""
""blur"",""3"",""32954""
""focus"",""3"",""32954""
""blur"",""3"",""34705""
""focus"",""3"",""34705""
""blur"",""3"",""39974""
""focus"",""3"",""39978""
""blur"",""3"",""46909""
""focus"",""3"",""54547""
""blur"",""3"",""57430""
""focus"",""3"",""83623""
""fullscreenenter"",""5"",""99683""
","""event"",""trial"",""time""
""blur"",""3"",""32954""
""blur"",""3"",""34705""
""blur"",""3"",""39974""
""blur"",""3"",""46909""
""blur"",""3"",""57430""
","""event"",""trial"",""time""
""focus"",""3"",""32954""
""focus"",""3"",""34705""
""focus"",""3"",""39978""
""focus"",""3"",""54547""
""focus"",""3"",""83623""
","""event"",""trial"",""time""
""fullscreenenter"",""1"",""2440""
""fullscreenenter"",""5"",""99683""
","""event"",""trial"",""time""
""fullscreenexit"",""3"",""17235""
","","3103.2000000476837","Great! Now on the next screen, try pressing '6' to select the third deck.","54","","instructions","2021-08-15 18:32:31.061","","","","","",""
"card-selection-trial","17","175326","0.0-11.0-0.0","202","false","img/card_backs/set1/red.gif","img/card_backs/set1/yellow.gif","img/card_backs/set1/purple.gif","img/card_backs/set1/green.gif","img/card_backs/set2/gray.gif","img/card_backs/set2/pink.gif","img/card_backs/set2/orange.gif","img/card_backs/set2/blue.gif","""event"",""trial"",""time""
""fullscreenenter"",""1"",""2440""
""fullscreenexit"",""3"",""17235""
""blur"",""3"",""32954""
""focus"",""3"",""32954""
""blur"",""3"",""34705""
""focus"",""3"",""34705""
""blur"",""3"",""39974""
""focus"",""3"",""39978""
""blur"",""3"",""46909""
""focus"",""3"",""54547""
""blur"",""3"",""57430""
""focus"",""3"",""83623""
""fullscreenenter"",""5"",""99683""
","""event"",""trial"",""time""
""blur"",""3"",""32954""
""blur"",""3"",""34705""
""blur"",""3"",""39974""
""blur"",""3"",""46909""
""blur"",""3"",""57430""
","""event"",""trial"",""time""
""focus"",""3"",""32954""
""focus"",""3"",""34705""
""focus"",""3"",""39978""
""focus"",""3"",""54547""
""focus"",""3"",""83623""
","""event"",""trial"",""time""
""fullscreenenter"",""1"",""2440""
""fullscreenenter"",""5"",""99683""
","""event"",""trial"",""time""
""fullscreenexit"",""3"",""17235""
","","696.5","","","","practice_card_selection","2021-08-15 18:32:33.777","img/practice_cards/backs/dark_blue.gif","2","200","","",""
"casino-keyboard-response","18","176641","0.0-12.0-0.0","202","false","img/card_backs/set1/red.gif","img/card_backs/set1/yellow.gif","img/card_backs/set1/purple.gif","img/card_backs/set1/green.gif","img/card_backs/set2/gray.gif","img/card_backs/set2/pink.gif","img/card_backs/set2/orange.gif","img/card_backs/set2/blue.gif","""event"",""trial"",""time""
""fullscreenenter"",""1"",""2440""
""fullscreenexit"",""3"",""17235""
""blur"",""3"",""32954""
""focus"",""3"",""32954""
""blur"",""3"",""34705""
""focus"",""3"",""34705""
""blur"",""3"",""39974""
""focus"",""3"",""39978""
""blur"",""3"",""46909""
""focus"",""3"",""54547""
""blur"",""3"",""57430""
""focus"",""3"",""83623""
""fullscreenenter"",""5"",""99683""
","""event"",""trial"",""time""
""blur"",""3"",""32954""
""blur"",""3"",""34705""
""blur"",""3"",""39974""
""blur"",""3"",""46909""
""blur"",""3"",""57430""
","""event"",""trial"",""time""
""focus"",""3"",""32954""
""focus"",""3"",""34705""
""focus"",""3"",""39978""
""focus"",""3"",""54547""
""focus"",""3"",""83623""
","""event"",""trial"",""time""
""fullscreenenter"",""1"",""2440""
""fullscreenenter"",""5"",""99683""
","""event"",""trial"",""time""
""fullscreenexit"",""3"",""17235""
","","1313.8999999761581","Now on the next screen, try pressing '4' to select the second deck.","52","","instructions","2021-08-15 18:32:35.092","","","","","",""
"card-selection-trial","19","179230","0.0-13.0-0.0","202","false","img/card_backs/set1/red.gif","img/card_backs/set1/yellow.gif","img/card_backs/set1/purple.gif","img/card_backs/set1/green.gif","img/card_backs/set2/gray.gif","img/card_backs/set2/pink.gif","img/card_backs/set2/orange.gif","img/card_backs/set2/blue.gif","""event"",""trial"",""time""
""fullscreenenter"",""1"",""2440""
""fullscreenexit"",""3"",""17235""
""blur"",""3"",""32954""
""focus"",""3"",""32954""
""blur"",""3"",""34705""
""focus"",""3"",""34705""
""blur"",""3"",""39974""
""focus"",""3"",""39978""
""blur"",""3"",""46909""
""focus"",""3"",""54547""
""blur"",""3"",""57430""
""focus"",""3"",""83623""
""fullscreenenter"",""5"",""99683""
","""event"",""trial"",""time""
""blur"",""3"",""32954""
""blur"",""3"",""34705""
""blur"",""3"",""39974""
""blur"",""3"",""46909""
""blur"",""3"",""57430""
","""event"",""trial"",""time""
""focus"",""3"",""32954""
""focus"",""3"",""34705""
""focus"",""3"",""39978""
""focus"",""3"",""54547""
""focus"",""3"",""83623""
","""event"",""trial"",""time""
""fullscreenenter"",""1"",""2440""
""fullscreenenter"",""5"",""99683""
","""event"",""trial"",""time""
""fullscreenexit"",""3"",""17235""
","","579.6000000238419","","","","practice_card_selection","2021-08-15 18:32:37.681","img/practice_cards/backs/black.gif","1","-100","","",""
"casino-keyboard-response","20","180055","0.0-14.0-0.0","202","false","img/card_backs/set1/red.gif","img/card_backs/set1/yellow.gif","img/card_backs/set1/purple.gif","img/card_backs/set1/green.gif","img/card_backs/set2/gray.gif","img/card_backs/set2/pink.gif","img/card_backs/set2/orange.gif","img/card_backs/set2/blue.gif","""event"",""trial"",""time""
""fullscreenenter"",""1"",""2440""
""fullscreenexit"",""3"",""17235""
""blur"",""3"",""32954""
""focus"",""3"",""32954""
""blur"",""3"",""34705""
""focus"",""3"",""34705""
""blur"",""3"",""39974""
""focus"",""3"",""39978""
""blur"",""3"",""46909""
""focus"",""3"",""54547""
""blur"",""3"",""57430""
""focus"",""3"",""83623""
""fullscreenenter"",""5"",""99683""
","""event"",""trial"",""time""
""blur"",""3"",""32954""
""blur"",""3"",""34705""
""blur"",""3"",""39974""
""blur"",""3"",""46909""
""blur"",""3"",""57430""
","""event"",""trial"",""time""
""focus"",""3"",""32954""
""focus"",""3"",""34705""
""focus"",""3"",""39978""
""focus"",""3"",""54547""
""focus"",""3"",""83623""
","""event"",""trial"",""time""
""fullscreenenter"",""1"",""2440""
""fullscreenenter"",""5"",""99683""
","""event"",""trial"",""time""
""fullscreenexit"",""3"",""17235""
","","823.8999999761581","Finally, try pressing '8' to select the deck all the way on the right.","56","","instructions","2021-08-15 18:32:38.507","","","","","",""
"card-selection-trial","21","182624","0.0-15.0-0.0","202","false","img/card_backs/set1/red.gif","img/card_backs/set1/yellow.gif","img/card_backs/set1/purple.gif","img/card_backs/set1/green.gif","img/card_backs/set2/gray.gif","img/card_backs/set2/pink.gif","img/card_backs/set2/orange.gif","img/card_backs/set2/blue.gif","""event"",""trial"",""time""
""fullscreenenter"",""1"",""2440""
""fullscreenexit"",""3"",""17235""
""blur"",""3"",""32954""
""focus"",""3"",""32954""
""blur"",""3"",""34705""
""focus"",""3"",""34705""
""blur"",""3"",""39974""
""focus"",""3"",""39978""
""blur"",""3"",""46909""
""focus"",""3"",""54547""
""blur"",""3"",""57430""
""focus"",""3"",""83623""
""fullscreenenter"",""5"",""99683""
","""event"",""trial"",""time""
""blur"",""3"",""32954""
""blur"",""3"",""34705""
""blur"",""3"",""39974""
""blur"",""3"",""46909""
""blur"",""3"",""57430""
","""event"",""trial"",""time""
""focus"",""3"",""32954""
""focus"",""3"",""34705""
""focus"",""3"",""39978""
""focus"",""3"",""54547""
""focus"",""3"",""83623""
","""event"",""trial"",""time""
""fullscreenenter"",""1"",""2440""
""fullscreenenter"",""5"",""99683""
","""event"",""trial"",""time""
""fullscreenexit"",""3"",""17235""
","","549.3999999761581","","","","practice_card_selection","2021-08-15 18:32:41.075","img/practice_cards/backs/black.gif","3","100","","",""
"casino-keyboard-response","22","186597","0.0-16.0-0.0","202","false","img/card_backs/set1/red.gif","img/card_backs/set1/yellow.gif","img/card_backs/set1/purple.gif","img/card_backs/set1/green.gif","img/card_backs/set2/gray.gif","img/card_backs/set2/pink.gif","img/card_backs/set2/orange.gif","img/card_backs/set2/blue.gif","""event"",""trial"",""time""
""fullscreenenter"",""1"",""2440""
""fullscreenexit"",""3"",""17235""
""blur"",""3"",""32954""
""focus"",""3"",""32954""
""blur"",""3"",""34705""
""focus"",""3"",""34705""
""blur"",""3"",""39974""
""focus"",""3"",""39978""
""blur"",""3"",""46909""
""focus"",""3"",""54547""
""blur"",""3"",""57430""
""focus"",""3"",""83623""
""fullscreenenter"",""5"",""99683""
","""event"",""trial"",""time""
""blur"",""3"",""32954""
""blur"",""3"",""34705""
""blur"",""3"",""39974""
""blur"",""3"",""46909""
""blur"",""3"",""57430""
","""event"",""trial"",""time""
""focus"",""3"",""32954""
""focus"",""3"",""34705""
""focus"",""3"",""39978""
""focus"",""3"",""54547""
""focus"",""3"",""83623""
","""event"",""trial"",""time""
""fullscreenenter"",""1"",""2440""
""fullscreenenter"",""5"",""99683""
","""event"",""trial"",""time""
""fullscreenexit"",""3"",""17235""
","","3972.399999976158","Great! It seems like you are getting the hang of this.","80","","instructions","2021-08-15 18:32:45.048","","","","","",""
"casino-keyboard-response","23","193954","0.0-16.0-0.1","202","false","img/card_backs/set1/red.gif","img/card_backs/set1/yellow.gif","img/card_backs/set1/purple.gif","img/card_backs/set1/green.gif","img/card_backs/set2/gray.gif","img/card_backs/set2/pink.gif","img/card_backs/set2/orange.gif","img/card_backs/set2/blue.gif","""event"",""trial"",""time""
""fullscreenenter"",""1"",""2440""
""fullscreenexit"",""3"",""17235""
""blur"",""3"",""32954""
""focus"",""3"",""32954""
""blur"",""3"",""34705""
""focus"",""3"",""34705""
""blur"",""3"",""39974""
""focus"",""3"",""39978""
""blur"",""3"",""46909""
""focus"",""3"",""54547""
""blur"",""3"",""57430""
""focus"",""3"",""83623""
""fullscreenenter"",""5"",""99683""
","""event"",""trial"",""time""
""blur"",""3"",""32954""
""blur"",""3"",""34705""
""blur"",""3"",""39974""
""blur"",""3"",""46909""
""blur"",""3"",""57430""
","""event"",""trial"",""time""
""focus"",""3"",""32954""
""focus"",""3"",""34705""
""focus"",""3"",""39978""
""focus"",""3"",""54547""
""focus"",""3"",""83623""
","""event"",""trial"",""time""
""fullscreenenter"",""1"",""2440""
""fullscreenenter"",""5"",""99683""
","""event"",""trial"",""time""
""fullscreenexit"",""3"",""17235""
","","7355.899999976158","You may have noticed that some cards will cause you to <b> win </b> tokens while other cards will cause you to <b> lose </b>  tokens.","70","","instructions","2021-08-15 18:32:52.405","","","","","",""
"casino-keyboard-response","24","203033","0.0-16.0-0.2","202","false","img/card_backs/set1/red.gif","img/card_backs/set1/yellow.gif","img/card_backs/set1/purple.gif","img/card_backs/set1/green.gif","img/card_backs/set2/gray.gif","img/card_backs/set2/pink.gif","img/card_backs/set2/orange.gif","img/card_backs/set2/blue.gif","""event"",""trial"",""time""
""fullscreenenter"",""1"",""2440""
""fullscreenexit"",""3"",""17235""
""blur"",""3"",""32954""
""focus"",""3"",""32954""
""blur"",""3"",""34705""
""focus"",""3"",""34705""
""blur"",""3"",""39974""
""focus"",""3"",""39978""
""blur"",""3"",""46909""
""focus"",""3"",""54547""
""blur"",""3"",""57430""
""focus"",""3"",""83623""
""fullscreenenter"",""5"",""99683""
","""event"",""trial"",""time""
""blur"",""3"",""32954""
""blur"",""3"",""34705""
""blur"",""3"",""39974""
""blur"",""3"",""46909""
""blur"",""3"",""57430""
","""event"",""trial"",""time""
""focus"",""3"",""32954""
""focus"",""3"",""34705""
""focus"",""3"",""39978""
""focus"",""3"",""54547""
""focus"",""3"",""83623""
","""event"",""trial"",""time""
""fullscreenenter"",""1"",""2440""
""fullscreenenter"",""5"",""99683""
","""event"",""trial"",""time""
""fullscreenexit"",""3"",""17235""
","","9077.600000023842","Each deck has a mix of cards that will cause you to win and lose tokens. </br> However, the cards in each colored deck are different.","73","","instructions","2021-08-15 18:33:01.484","","","","","",""
"casino-keyboard-response","25","211673","0.0-16.0-0.3","202","false","img/card_backs/set1/red.gif","img/card_backs/set1/yellow.gif","img/card_backs/set1/purple.gif","img/card_backs/set1/green.gif","img/card_backs/set2/gray.gif","img/card_backs/set2/pink.gif","img/card_backs/set2/orange.gif","img/card_backs/set2/blue.gif","""event"",""trial"",""time""
""fullscreenenter"",""1"",""2440""
""fullscreenexit"",""3"",""17235""
""blur"",""3"",""32954""
""focus"",""3"",""32954""
""blur"",""3"",""34705""
""focus"",""3"",""34705""
""blur"",""3"",""39974""
""focus"",""3"",""39978""
""blur"",""3"",""46909""
""focus"",""3"",""54547""
""blur"",""3"",""57430""
""focus"",""3"",""83623""
""fullscreenenter"",""5"",""99683""
","""event"",""trial"",""time""
""blur"",""3"",""32954""
""blur"",""3"",""34705""
""blur"",""3"",""39974""
""blur"",""3"",""46909""
""blur"",""3"",""57430""
","""event"",""trial"",""time""
""focus"",""3"",""32954""
""focus"",""3"",""34705""
""focus"",""3"",""39978""
""focus"",""3"",""54547""
""focus"",""3"",""83623""
","""event"",""trial"",""time""
""fullscreenenter"",""1"",""2440""
""fullscreenenter"",""5"",""99683""
","""event"",""trial"",""time""
""fullscreenexit"",""3"",""17235""
","","8638.5","Some colored decks are luckier than others. </br> If you choose the lucky decks, you will earn more tokens than if you choose the unlucky decks.","69","","instructions","2021-08-15 18:33:10.124","","","","","",""
"casino-keyboard-response","26","219204","0.0-16.0-0.4","202","false","img/card_backs/set1/red.gif","img/card_backs/set1/yellow.gif","img/card_backs/set1/purple.gif","img/card_backs/set1/green.gif","img/card_backs/set2/gray.gif","img/card_backs/set2/pink.gif","img/card_backs/set2/orange.gif","img/card_backs/set2/blue.gif","""event"",""trial"",""time""
""fullscreenenter"",""1"",""2440""
""fullscreenexit"",""3"",""17235""
""blur"",""3"",""32954""
""focus"",""3"",""32954""
""blur"",""3"",""34705""
""focus"",""3"",""34705""
""blur"",""3"",""39974""
""focus"",""3"",""39978""
""blur"",""3"",""46909""
""focus"",""3"",""54547""
""blur"",""3"",""57430""
""focus"",""3"",""83623""
""fullscreenenter"",""5"",""99683""
","""event"",""trial"",""time""
""blur"",""3"",""32954""
""blur"",""3"",""34705""
""blur"",""3"",""39974""
""blur"",""3"",""46909""
""blur"",""3"",""57430""
","""event"",""trial"",""time""
""focus"",""3"",""32954""
""focus"",""3"",""34705""
""focus"",""3"",""39978""
""focus"",""3"",""54547""
""focus"",""3"",""83623""
","""event"",""trial"",""time""
""fullscreenenter"",""1"",""2440""
""fullscreenenter"",""5"",""99683""
","""event"",""trial"",""time""
""fullscreenexit"",""3"",""17235""
","","7529.799999952316","You should try to figure out which decks are lucky. </br> Then, try to choose the lucky decks so you can win the most tokens.","87","","instructions","2021-08-15 18:33:17.655","","","","","",""
"casino-keyboard-response","27","230865","0.0-16.0-0.5","202","false","img/card_backs/set1/red.gif","img/card_backs/set1/yellow.gif","img/card_backs/set1/purple.gif","img/card_backs/set1/green.gif","img/card_backs/set2/gray.gif","img/card_backs/set2/pink.gif","img/card_backs/set2/orange.gif","img/card_backs/set2/blue.gif","""event"",""trial"",""time""
""fullscreenenter"",""1"",""2440""
""fullscreenexit"",""3"",""17235""
""blur"",""3"",""32954""
""focus"",""3"",""32954""
""blur"",""3"",""34705""
""focus"",""3"",""34705""
""blur"",""3"",""39974""
""focus"",""3"",""39978""
""blur"",""3"",""46909""
""focus"",""3"",""54547""
""blur"",""3"",""57430""
""focus"",""3"",""83623""
""fullscreenenter"",""5"",""99683""
","""event"",""trial"",""time""
""blur"",""3"",""32954""
""blur"",""3"",""34705""
""blur"",""3"",""39974""
""blur"",""3"",""46909""
""blur"",""3"",""57430""
","""event"",""trial"",""time""
""focus"",""3"",""32954""
""focus"",""3"",""34705""
""focus"",""3"",""39978""
""focus"",""3"",""54547""
""focus"",""3"",""83623""
","""event"",""trial"",""time""
""fullscreenenter"",""1"",""2440""
""fullscreenenter"",""5"",""99683""
","""event"",""trial"",""time""
""fullscreenexit"",""3"",""17235""
","","11660.899999976158","To make it trickier, the casino dealer will switch the locations of the decks on every turn. </br> The color of the deck determines how lucky it is. The location does not matter.","88","","instructions","2021-08-15 18:33:29.317","","","","","",""
"casino-keyboard-response","28","240572","0.0-16.0-0.6","202","false","img/card_backs/set1/red.gif","img/card_backs/set1/yellow.gif","img/card_backs/set1/purple.gif","img/card_backs/set1/green.gif","img/card_backs/set2/gray.gif","img/card_backs/set2/pink.gif","img/card_backs/set2/orange.gif","img/card_backs/set2/blue.gif","""event"",""trial"",""time""
""fullscreenenter"",""1"",""2440""
""fullscreenexit"",""3"",""17235""
""blur"",""3"",""32954""
""focus"",""3"",""32954""
""blur"",""3"",""34705""
""focus"",""3"",""34705""
""blur"",""3"",""39974""
""focus"",""3"",""39978""
""blur"",""3"",""46909""
""focus"",""3"",""54547""
""blur"",""3"",""57430""
""focus"",""3"",""83623""
""fullscreenenter"",""5"",""99683""
","""event"",""trial"",""time""
""blur"",""3"",""32954""
""blur"",""3"",""34705""
""blur"",""3"",""39974""
""blur"",""3"",""46909""
""blur"",""3"",""57430""
","""event"",""trial"",""time""
""focus"",""3"",""32954""
""focus"",""3"",""34705""
""focus"",""3"",""39978""
""focus"",""3"",""54547""
""focus"",""3"",""83623""
","""event"",""trial"",""time""
""fullscreenenter"",""1"",""2440""
""fullscreenenter"",""5"",""99683""
","""event"",""trial"",""time""
""fullscreenexit"",""3"",""17235""
","","9705","The mix of cards in each colored deck will stay the same throughout the game. </br> That means that a deck that is lucky early on will stay lucky.","79","","instructions","2021-08-15 18:33:39.023","","","","","",""
"casino-keyboard-response","29","248806","0.0-16.0-0.7","202","false","img/card_backs/set1/red.gif","img/card_backs/set1/yellow.gif","img/card_backs/set1/purple.gif","img/card_backs/set1/green.gif","img/card_backs/set2/gray.gif","img/card_backs/set2/pink.gif","img/card_backs/set2/orange.gif","img/card_backs/set2/blue.gif","""event"",""trial"",""time""
""fullscreenenter"",""1"",""2440""
""fullscreenexit"",""3"",""17235""
""blur"",""3"",""32954""
""focus"",""3"",""32954""
""blur"",""3"",""34705""
""focus"",""3"",""34705""
""blur"",""3"",""39974""
""focus"",""3"",""39978""
""blur"",""3"",""46909""
""focus"",""3"",""54547""
""blur"",""3"",""57430""
""focus"",""3"",""83623""
""fullscreenenter"",""5"",""99683""
","""event"",""trial"",""time""
""blur"",""3"",""32954""
""blur"",""3"",""34705""
""blur"",""3"",""39974""
""blur"",""3"",""46909""
""blur"",""3"",""57430""
","""event"",""trial"",""time""
""focus"",""3"",""32954""
""focus"",""3"",""34705""
""focus"",""3"",""39978""
""focus"",""3"",""54547""
""focus"",""3"",""83623""
","""event"",""trial"",""time""
""fullscreenenter"",""1"",""2440""
""fullscreenenter"",""5"",""99683""
","""event"",""trial"",""time""
""fullscreenexit"",""3"",""17235""
","","8233.600000023842","Remember though, all the decks have a <b> mix </b> of both <b> good </b> and <b> bad </b> cards so it may take a couple of turns to figure out if a deck is lucky.","69","","instructions","2021-08-15 18:33:47.258","","","","","",""
"casino-keyboard-response","30","257191","0.0-16.0-0.8","202","false","img/card_backs/set1/red.gif","img/card_backs/set1/yellow.gif","img/card_backs/set1/purple.gif","img/card_backs/set1/green.gif","img/card_backs/set2/gray.gif","img/card_backs/set2/pink.gif","img/card_backs/set2/orange.gif","img/card_backs/set2/blue.gif","""event"",""trial"",""time""
""fullscreenenter"",""1"",""2440""
""fullscreenexit"",""3"",""17235""
""blur"",""3"",""32954""
""focus"",""3"",""32954""
""blur"",""3"",""34705""
""focus"",""3"",""34705""
""blur"",""3"",""39974""
""focus"",""3"",""39978""
""blur"",""3"",""46909""
""focus"",""3"",""54547""
""blur"",""3"",""57430""
""focus"",""3"",""83623""
""fullscreenenter"",""5"",""99683""
","""event"",""trial"",""time""
""blur"",""3"",""32954""
""blur"",""3"",""34705""
""blur"",""3"",""39974""
""blur"",""3"",""46909""
""blur"",""3"",""57430""
","""event"",""trial"",""time""
""focus"",""3"",""32954""
""focus"",""3"",""34705""
""focus"",""3"",""39978""
""focus"",""3"",""54547""
""focus"",""3"",""83623""
","""event"",""trial"",""time""
""fullscreenenter"",""1"",""2440""
""fullscreenenter"",""5"",""99683""
","""event"",""trial"",""time""
""fullscreenexit"",""3"",""17235""
","","8383.699999928474","At the end of the game, you will be paid bonus money based on how many tokens you win. </br> If you win more tokens, you will earn more money!","72","","instructions","2021-08-15 18:33:55.642","","","","","",""
"casino-keyboard-response","31","267447","0.0-16.0-0.9","202","false","img/card_backs/set1/red.gif","img/card_backs/set1/yellow.gif","img/card_backs/set1/purple.gif","img/card_backs/set1/green.gif","img/card_backs/set2/gray.gif","img/card_backs/set2/pink.gif","img/card_backs/set2/orange.gif","img/card_backs/set2/blue.gif","""event"",""trial"",""time""
""fullscreenenter"",""1"",""2440""
""fullscreenexit"",""3"",""17235""
""blur"",""3"",""32954""
""focus"",""3"",""32954""
""blur"",""3"",""34705""
""focus"",""3"",""34705""
""blur"",""3"",""39974""
""focus"",""3"",""39978""
""blur"",""3"",""46909""
""focus"",""3"",""54547""
""blur"",""3"",""57430""
""focus"",""3"",""83623""
""fullscreenenter"",""5"",""99683""
","""event"",""trial"",""time""
""blur"",""3"",""32954""
""blur"",""3"",""34705""
""blur"",""3"",""39974""
""blur"",""3"",""46909""
""blur"",""3"",""57430""
","""event"",""trial"",""time""
""focus"",""3"",""32954""
""focus"",""3"",""34705""
""focus"",""3"",""39978""
""focus"",""3"",""54547""
""focus"",""3"",""83623""
","""event"",""trial"",""time""
""fullscreenenter"",""1"",""2440""
""fullscreenenter"",""5"",""99683""
","""event"",""trial"",""time""
""fullscreenexit"",""3"",""17235""
","","10253.600000023842","You will never <b> lose </b> money. </br> If you end up with fewer than 0 tokens, you will earn $0 of bonus money, but you will still be paid for playing the game.","83","","instructions","2021-08-15 18:34:05.898","","","","","",""
"casino-keyboard-response","32","271546","0.0-16.0-0.10","202","false","img/card_backs/set1/red.gif","img/card_backs/set1/yellow.gif","img/card_backs/set1/purple.gif","img/card_backs/set1/green.gif","img/card_backs/set2/gray.gif","img/card_backs/set2/pink.gif","img/card_backs/set2/orange.gif","img/card_backs/set2/blue.gif","""event"",""trial"",""time""
""fullscreenenter"",""1"",""2440""
""fullscreenexit"",""3"",""17235""
""blur"",""3"",""32954""
""focus"",""3"",""32954""
""blur"",""3"",""34705""
""focus"",""3"",""34705""
""blur"",""3"",""39974""
""focus"",""3"",""39978""
""blur"",""3"",""46909""
""focus"",""3"",""54547""
""blur"",""3"",""57430""
""focus"",""3"",""83623""
""fullscreenenter"",""5"",""99683""
","""event"",""trial"",""time""
""blur"",""3"",""32954""
""blur"",""3"",""34705""
""blur"",""3"",""39974""
""blur"",""3"",""46909""
""blur"",""3"",""57430""
","""event"",""trial"",""time""
""focus"",""3"",""32954""
""focus"",""3"",""34705""
""focus"",""3"",""39978""
""focus"",""3"",""54547""
""focus"",""3"",""83623""
","""event"",""trial"",""time""
""fullscreenenter"",""1"",""2440""
""fullscreenenter"",""5"",""99683""
","""event"",""trial"",""time""
""fullscreenexit"",""3"",""17235""
","","4098.799999952316","You will have 10 seconds to make each choice.","82","","instructions","2021-08-15 18:34:09.997","","","","","",""
"casino-keyboard-response","33","280094","0.0-16.0-0.11","202","false","img/card_backs/set1/red.gif","img/card_backs/set1/yellow.gif","img/card_backs/set1/purple.gif","img/card_backs/set1/green.gif","img/card_backs/set2/gray.gif","img/card_backs/set2/pink.gif","img/card_backs/set2/orange.gif","img/card_backs/set2/blue.gif","""event"",""trial"",""time""
""fullscreenenter"",""1"",""2440""
""fullscreenexit"",""3"",""17235""
""blur"",""3"",""32954""
""focus"",""3"",""32954""
""blur"",""3"",""34705""
""focus"",""3"",""34705""
""blur"",""3"",""39974""
""focus"",""3"",""39978""
""blur"",""3"",""46909""
""focus"",""3"",""54547""
""blur"",""3"",""57430""
""focus"",""3"",""83623""
""fullscreenenter"",""5"",""99683""
","""event"",""trial"",""time""
""blur"",""3"",""32954""
""blur"",""3"",""34705""
""blur"",""3"",""39974""
""blur"",""3"",""46909""
""blur"",""3"",""57430""
","""event"",""trial"",""time""
""focus"",""3"",""32954""
""focus"",""3"",""34705""
""focus"",""3"",""39978""
""focus"",""3"",""54547""
""focus"",""3"",""83623""
","""event"",""trial"",""time""
""fullscreenenter"",""1"",""2440""
""fullscreenenter"",""5"",""99683""
","""event"",""trial"",""time""
""fullscreenexit"",""3"",""17235""
","","8546.299999952316","Before you play the game for real, you will play with practice decks. </br> The tokens you earn during practice won't count toward your total.","86","","instructions","2021-08-15 18:34:18.545","","","","","",""
"casino-keyboard-response","34","291523","0.0-16.0-0.12","202","false","img/card_backs/set1/red.gif","img/card_backs/set1/yellow.gif","img/card_backs/set1/purple.gif","img/card_backs/set1/green.gif","img/card_backs/set2/gray.gif","img/card_backs/set2/pink.gif","img/card_backs/set2/orange.gif","img/card_backs/set2/blue.gif","""event"",""trial"",""time""
""fullscreenenter"",""1"",""2440""
""fullscreenexit"",""3"",""17235""
""blur"",""3"",""32954""
""focus"",""3"",""32954""
""blur"",""3"",""34705""
""focus"",""3"",""34705""
""blur"",""3"",""39974""
""focus"",""3"",""39978""
""blur"",""3"",""46909""
""focus"",""3"",""54547""
""blur"",""3"",""57430""
""focus"",""3"",""83623""
""fullscreenenter"",""5"",""99683""
","""event"",""trial"",""time""
""blur"",""3"",""32954""
""blur"",""3"",""34705""
""blur"",""3"",""39974""
""blur"",""3"",""46909""
""blur"",""3"",""57430""
","""event"",""trial"",""time""
""focus"",""3"",""32954""
""focus"",""3"",""34705""
""focus"",""3"",""39978""
""focus"",""3"",""54547""
""focus"",""3"",""83623""
","""event"",""trial"",""time""
""fullscreenenter"",""1"",""2440""
""fullscreenenter"",""5"",""99683""
","""event"",""trial"",""time""
""fullscreenexit"",""3"",""17235""
","","11428.399999976158","Ready? Remember, use the '2', '4', '6', and '8' keys to select the decks. </br> Put your fingers on those keys now and then press '2' to begin.","50","","instructions","2021-08-15 18:34:29.974","","","","","",""
"casino-fixation","35","292037","0.0-17.0-0.0","202","false","img/card_backs/set1/red.gif","img/card_backs/set1/yellow.gif","img/card_backs/set1/purple.gif","img/card_backs/set1/green.gif","img/card_backs/set2/gray.gif","img/card_backs/set2/pink.gif","img/card_backs/set2/orange.gif","img/card_backs/set2/blue.gif","""event"",""trial"",""time""
""fullscreenenter"",""1"",""2440""
""fullscreenexit"",""3"",""17235""
""blur"",""3"",""32954""
""focus"",""3"",""32954""
""blur"",""3"",""34705""
""focus"",""3"",""34705""
""blur"",""3"",""39974""
""focus"",""3"",""39978""
""blur"",""3"",""46909""
""focus"",""3"",""54547""
""blur"",""3"",""57430""
""focus"",""3"",""83623""
""fullscreenenter"",""5"",""99683""
","""event"",""trial"",""time""
""blur"",""3"",""32954""
""blur"",""3"",""34705""
""blur"",""3"",""39974""
""blur"",""3"",""46909""
""blur"",""3"",""57430""
","""event"",""trial"",""time""
""focus"",""3"",""32954""
""focus"",""3"",""34705""
""focus"",""3"",""39978""
""focus"",""3"",""54547""
""focus"",""3"",""83623""
","""event"",""trial"",""time""
""fullscreenenter"",""1"",""2440""
""fullscreenenter"",""5"",""99683""
","""event"",""trial"",""time""
""fullscreenexit"",""3"",""17235""
","","null","","null","","fixation","2021-08-15 18:34:30.488","","","","","",""
"card-selection-trial","36","295043","0.0-17.0-1.0","202","false","img/card_backs/set1/red.gif","img/card_backs/set1/yellow.gif","img/card_backs/set1/purple.gif","img/card_backs/set1/green.gif","img/card_backs/set2/gray.gif","img/card_backs/set2/pink.gif","img/card_backs/set2/orange.gif","img/card_backs/set2/blue.gif","""event"",""trial"",""time""
""fullscreenenter"",""1"",""2440""
""fullscreenexit"",""3"",""17235""
""blur"",""3"",""32954""
""focus"",""3"",""32954""
""blur"",""3"",""34705""
""focus"",""3"",""34705""
""blur"",""3"",""39974""
""focus"",""3"",""39978""
""blur"",""3"",""46909""
""focus"",""3"",""54547""
""blur"",""3"",""57430""
""focus"",""3"",""83623""
""fullscreenenter"",""5"",""99683""
","""event"",""trial"",""time""
""blur"",""3"",""32954""
""blur"",""3"",""34705""
""blur"",""3"",""39974""
""blur"",""3"",""46909""
""blur"",""3"",""57430""
","""event"",""trial"",""time""
""focus"",""3"",""32954""
""focus"",""3"",""34705""
""focus"",""3"",""39978""
""focus"",""3"",""54547""
""focus"",""3"",""83623""
","""event"",""trial"",""time""
""fullscreenenter"",""1"",""2440""
""fullscreenenter"",""5"",""99683""
","""event"",""trial"",""time""
""fullscreenexit"",""3"",""17235""
","","990.6000000238419","","","","practice","2021-08-15 18:34:33.494","img/practice_cards/backs/dark_green.gif","0","200","0","",""
"casino-fixation","37","295547","0.0-17.0-0.1","202","false","img/card_backs/set1/red.gif","img/card_backs/set1/yellow.gif","img/card_backs/set1/purple.gif","img/card_backs/set1/green.gif","img/card_backs/set2/gray.gif","img/card_backs/set2/pink.gif","img/card_backs/set2/orange.gif","img/card_backs/set2/blue.gif","""event"",""trial"",""time""
""fullscreenenter"",""1"",""2440""
""fullscreenexit"",""3"",""17235""
""blur"",""3"",""32954""
""focus"",""3"",""32954""
""blur"",""3"",""34705""
""focus"",""3"",""34705""
""blur"",""3"",""39974""
""focus"",""3"",""39978""
""blur"",""3"",""46909""
""focus"",""3"",""54547""
""blur"",""3"",""57430""
""focus"",""3"",""83623""
""fullscreenenter"",""5"",""99683""
","""event"",""trial"",""time""
""blur"",""3"",""32954""
""blur"",""3"",""34705""
""blur"",""3"",""39974""
""blur"",""3"",""46909""
""blur"",""3"",""57430""
","""event"",""trial"",""time""
""focus"",""3"",""32954""
""focus"",""3"",""34705""
""focus"",""3"",""39978""
""focus"",""3"",""54547""
""focus"",""3"",""83623""
","""event"",""trial"",""time""
""fullscreenenter"",""1"",""2440""
""fullscreenenter"",""5"",""99683""
","""event"",""trial"",""time""
""fullscreenexit"",""3"",""17235""
","","null","","null","","fixation","2021-08-15 18:34:33.998","","","","","",""
"card-selection-trial","38","298639","0.0-17.0-1.1","202","false","img/card_backs/set1/red.gif","img/card_backs/set1/yellow.gif","img/card_backs/set1/purple.gif","img/card_backs/set1/green.gif","img/card_backs/set2/gray.gif","img/card_backs/set2/pink.gif","img/card_backs/set2/orange.gif","img/card_backs/set2/blue.gif","""event"",""trial"",""time""
""fullscreenenter"",""1"",""2440""
""fullscreenexit"",""3"",""17235""
""blur"",""3"",""32954""
""focus"",""3"",""32954""
""blur"",""3"",""34705""
""focus"",""3"",""34705""
""blur"",""3"",""39974""
""focus"",""3"",""39978""
""blur"",""3"",""46909""
""focus"",""3"",""54547""
""blur"",""3"",""57430""
""focus"",""3"",""83623""
""fullscreenenter"",""5"",""99683""
","""event"",""trial"",""time""
""blur"",""3"",""32954""
""blur"",""3"",""34705""
""blur"",""3"",""39974""
""blur"",""3"",""46909""
""blur"",""3"",""57430""
","""event"",""trial"",""time""
""focus"",""3"",""32954""
""focus"",""3"",""34705""
""focus"",""3"",""39978""
""focus"",""3"",""54547""
""focus"",""3"",""83623""
","""event"",""trial"",""time""
""fullscreenenter"",""1"",""2440""
""fullscreenenter"",""5"",""99683""
","""event"",""trial"",""time""
""fullscreenexit"",""3"",""17235""
","","1078.8999999761581","","","","practice","2021-08-15 18:34:37.090","img/practice_cards/backs/dark_green.gif","3","-200","0","",""
"casino-fixation","39","299156","0.0-17.0-0.2","202","false","img/card_backs/set1/red.gif","img/card_backs/set1/yellow.gif","img/card_backs/set1/purple.gif","img/card_backs/set1/green.gif","img/card_backs/set2/gray.gif","img/card_backs/set2/pink.gif","img/card_backs/set2/orange.gif","img/card_backs/set2/blue.gif","""event"",""trial"",""time""
""fullscreenenter"",""1"",""2440""
""fullscreenexit"",""3"",""17235""
""blur"",""3"",""32954""
""focus"",""3"",""32954""
""blur"",""3"",""34705""
""focus"",""3"",""34705""
""blur"",""3"",""39974""
""focus"",""3"",""39978""
""blur"",""3"",""46909""
""focus"",""3"",""54547""
""blur"",""3"",""57430""
""focus"",""3"",""83623""
""fullscreenenter"",""5"",""99683""
","""event"",""trial"",""time""
""blur"",""3"",""32954""
""blur"",""3"",""34705""
""blur"",""3"",""39974""
""blur"",""3"",""46909""
""blur"",""3"",""57430""
","""event"",""trial"",""time""
""focus"",""3"",""32954""
""focus"",""3"",""34705""
""focus"",""3"",""39978""
""focus"",""3"",""54547""
""focus"",""3"",""83623""
","""event"",""trial"",""time""
""fullscreenenter"",""1"",""2440""
""fullscreenenter"",""5"",""99683""
","""event"",""trial"",""time""
""fullscreenexit"",""3"",""17235""
","","null","","null","","fixation","2021-08-15 18:34:37.607","","","","","",""
"card-selection-trial","40","302526","0.0-17.0-1.2","202","false","img/card_backs/set1/red.gif","img/card_backs/set1/yellow.gif","img/card_backs/set1/purple.gif","img/card_backs/set1/green.gif","img/card_backs/set2/gray.gif","img/card_backs/set2/pink.gif","img/card_backs/set2/orange.gif","img/card_backs/set2/blue.gif","""event"",""trial"",""time""
""fullscreenenter"",""1"",""2440""
""fullscreenexit"",""3"",""17235""
""blur"",""3"",""32954""
""focus"",""3"",""32954""
""blur"",""3"",""34705""
""focus"",""3"",""34705""
""blur"",""3"",""39974""
""focus"",""3"",""39978""
""blur"",""3"",""46909""
""focus"",""3"",""54547""
""blur"",""3"",""57430""
""focus"",""3"",""83623""
""fullscreenenter"",""5"",""99683""
","""event"",""trial"",""time""
""blur"",""3"",""32954""
""blur"",""3"",""34705""
""blur"",""3"",""39974""
""blur"",""3"",""46909""
""blur"",""3"",""57430""
","""event"",""trial"",""time""
""focus"",""3"",""32954""
""focus"",""3"",""34705""
""focus"",""3"",""39978""
""focus"",""3"",""54547""
""focus"",""3"",""83623""
","""event"",""trial"",""time""
""fullscreenenter"",""1"",""2440""
""fullscreenenter"",""5"",""99683""
","""event"",""trial"",""time""
""fullscreenexit"",""3"",""17235""
","","1353.2000000476837","","","","practice","2021-08-15 18:34:40.977","img/practice_cards/backs/dark_blue.gif","2","200","0","",""
"casino-fixation","41","303036","0.0-17.0-0.3","202","false","img/card_backs/set1/red.gif","img/card_backs/set1/yellow.gif","img/card_backs/set1/purple.gif","img/card_backs/set1/green.gif","img/card_backs/set2/gray.gif","img/card_backs/set2/pink.gif","img/card_backs/set2/orange.gif","img/card_backs/set2/blue.gif","""event"",""trial"",""time""
""fullscreenenter"",""1"",""2440""
""fullscreenexit"",""3"",""17235""
""blur"",""3"",""32954""
""focus"",""3"",""32954""
""blur"",""3"",""34705""
""focus"",""3"",""34705""
""blur"",""3"",""39974""
""focus"",""3"",""39978""
""blur"",""3"",""46909""
""focus"",""3"",""54547""
""blur"",""3"",""57430""
""focus"",""3"",""83623""
""fullscreenenter"",""5"",""99683""
","""event"",""trial"",""time""
""blur"",""3"",""32954""
""blur"",""3"",""34705""
""blur"",""3"",""39974""
""blur"",""3"",""46909""
""blur"",""3"",""57430""
","""event"",""trial"",""time""
""focus"",""3"",""32954""
""focus"",""3"",""34705""
""focus"",""3"",""39978""
""focus"",""3"",""54547""
""focus"",""3"",""83623""
","""event"",""trial"",""time""
""fullscreenenter"",""1"",""2440""
""fullscreenenter"",""5"",""99683""
","""event"",""trial"",""time""
""fullscreenexit"",""3"",""17235""
","","null","","null","","fixation","2021-08-15 18:34:41.487","","","","","",""
"card-selection-trial","42","305786","0.0-17.0-1.3","202","false","img/card_backs/set1/red.gif","img/card_backs/set1/yellow.gif","img/card_backs/set1/purple.gif","img/card_backs/set1/green.gif","img/card_backs/set2/gray.gif","img/card_backs/set2/pink.gif","img/card_backs/set2/orange.gif","img/card_backs/set2/blue.gif","""event"",""trial"",""time""
""fullscreenenter"",""1"",""2440""
""fullscreenexit"",""3"",""17235""
""blur"",""3"",""32954""
""focus"",""3"",""32954""
""blur"",""3"",""34705""
""focus"",""3"",""34705""
""blur"",""3"",""39974""
""focus"",""3"",""39978""
""blur"",""3"",""46909""
""focus"",""3"",""54547""
""blur"",""3"",""57430""
""focus"",""3"",""83623""
""fullscreenenter"",""5"",""99683""
","""event"",""trial"",""time""
""blur"",""3"",""32954""
""blur"",""3"",""34705""
""blur"",""3"",""39974""
""blur"",""3"",""46909""
""blur"",""3"",""57430""
","""event"",""trial"",""time""
""focus"",""3"",""32954""
""focus"",""3"",""34705""
""focus"",""3"",""39978""
""focus"",""3"",""54547""
""focus"",""3"",""83623""
","""event"",""trial"",""time""
""fullscreenenter"",""1"",""2440""
""fullscreenenter"",""5"",""99683""
","""event"",""trial"",""time""
""fullscreenexit"",""3"",""17235""
","","728.3999999761581","","","","practice","2021-08-15 18:34:44.237","img/practice_cards/backs/dark_blue.gif","2","-200","0","",""
"casino-fixation","43","306296","0.0-17.0-0.4","202","false","img/card_backs/set1/red.gif","img/card_backs/set1/yellow.gif","img/card_backs/set1/purple.gif","img/card_backs/set1/green.gif","img/card_backs/set2/gray.gif","img/card_backs/set2/pink.gif","img/card_backs/set2/orange.gif","img/card_backs/set2/blue.gif","""event"",""trial"",""time""
""fullscreenenter"",""1"",""2440""
""fullscreenexit"",""3"",""17235""
""blur"",""3"",""32954""
""focus"",""3"",""32954""
""blur"",""3"",""34705""
""focus"",""3"",""34705""
""blur"",""3"",""39974""
""focus"",""3"",""39978""
""blur"",""3"",""46909""
""focus"",""3"",""54547""
""blur"",""3"",""57430""
""focus"",""3"",""83623""
""fullscreenenter"",""5"",""99683""
","""event"",""trial"",""time""
""blur"",""3"",""32954""
""blur"",""3"",""34705""
""blur"",""3"",""39974""
""blur"",""3"",""46909""
""blur"",""3"",""57430""
","""event"",""trial"",""time""
""focus"",""3"",""32954""
""focus"",""3"",""34705""
""focus"",""3"",""39978""
""focus"",""3"",""54547""
""focus"",""3"",""83623""
","""event"",""trial"",""time""
""fullscreenenter"",""1"",""2440""
""fullscreenenter"",""5"",""99683""
","""event"",""trial"",""time""
""fullscreenexit"",""3"",""17235""
","","null","","null","","fixation","2021-08-15 18:34:44.747","","","","","",""
"card-selection-trial","44","309126","0.0-17.0-1.4","202","false","img/card_backs/set1/red.gif","img/card_backs/set1/yellow.gif","img/card_backs/set1/purple.gif","img/card_backs/set1/green.gif","img/card_backs/set2/gray.gif","img/card_backs/set2/pink.gif","img/card_backs/set2/orange.gif","img/card_backs/set2/blue.gif","""event"",""trial"",""time""
""fullscreenenter"",""1"",""2440""
""fullscreenexit"",""3"",""17235""
""blur"",""3"",""32954""
""focus"",""3"",""32954""
""blur"",""3"",""34705""
""focus"",""3"",""34705""
""blur"",""3"",""39974""
""focus"",""3"",""39978""
""blur"",""3"",""46909""
""focus"",""3"",""54547""
""blur"",""3"",""57430""
""focus"",""3"",""83623""
""fullscreenenter"",""5"",""99683""
","""event"",""trial"",""time""
""blur"",""3"",""32954""
""blur"",""3"",""34705""
""blur"",""3"",""39974""
""blur"",""3"",""46909""
""blur"",""3"",""57430""
","""event"",""trial"",""time""
""focus"",""3"",""32954""
""focus"",""3"",""34705""
""focus"",""3"",""39978""
""focus"",""3"",""54547""
""focus"",""3"",""83623""
","""event"",""trial"",""time""
""fullscreenenter"",""1"",""2440""
""fullscreenenter"",""5"",""99683""
","""event"",""trial"",""time""
""fullscreenexit"",""3"",""17235""
","","816.8999999761581","","","","practice","2021-08-15 18:34:47.577","img/practice_cards/backs/dark_blue.gif","3","200","0","",""
"casino-fixation","45","309639","0.0-17.0-0.5","202","false","img/card_backs/set1/red.gif","img/card_backs/set1/yellow.gif","img/card_backs/set1/purple.gif","img/card_backs/set1/green.gif","img/card_backs/set2/gray.gif","img/card_backs/set2/pink.gif","img/card_backs/set2/orange.gif","img/card_backs/set2/blue.gif","""event"",""trial"",""time""
""fullscreenenter"",""1"",""2440""
""fullscreenexit"",""3"",""17235""
""blur"",""3"",""32954""
""focus"",""3"",""32954""
""blur"",""3"",""34705""
""focus"",""3"",""34705""
""blur"",""3"",""39974""
""focus"",""3"",""39978""
""blur"",""3"",""46909""
""focus"",""3"",""54547""
""blur"",""3"",""57430""
""focus"",""3"",""83623""
""fullscreenenter"",""5"",""99683""
","""event"",""trial"",""time""
""blur"",""3"",""32954""
""blur"",""3"",""34705""
""blur"",""3"",""39974""
""blur"",""3"",""46909""
""blur"",""3"",""57430""
","""event"",""trial"",""time""
""focus"",""3"",""32954""
""focus"",""3"",""34705""
""focus"",""3"",""39978""
""focus"",""3"",""54547""
""focus"",""3"",""83623""
","""event"",""trial"",""time""
""fullscreenenter"",""1"",""2440""
""fullscreenenter"",""5"",""99683""
","""event"",""trial"",""time""
""fullscreenexit"",""3"",""17235""
","","null","","null","","fixation","2021-08-15 18:34:48.090","","","","","",""
"card-selection-trial","46","312386","0.0-17.0-1.5","202","false","img/card_backs/set1/red.gif","img/card_backs/set1/yellow.gif","img/card_backs/set1/purple.gif","img/card_backs/set1/green.gif","img/card_backs/set2/gray.gif","img/card_backs/set2/pink.gif","img/card_backs/set2/orange.gif","img/card_backs/set2/blue.gif","""event"",""trial"",""time""
""fullscreenenter"",""1"",""2440""
""fullscreenexit"",""3"",""17235""
""blur"",""3"",""32954""
""focus"",""3"",""32954""
""blur"",""3"",""34705""
""focus"",""3"",""34705""
""blur"",""3"",""39974""
""focus"",""3"",""39978""
""blur"",""3"",""46909""
""focus"",""3"",""54547""
""blur"",""3"",""57430""
""focus"",""3"",""83623""
""fullscreenenter"",""5"",""99683""
","""event"",""trial"",""time""
""blur"",""3"",""32954""
""blur"",""3"",""34705""
""blur"",""3"",""39974""
""blur"",""3"",""46909""
""blur"",""3"",""57430""
","""event"",""trial"",""time""
""focus"",""3"",""32954""
""focus"",""3"",""34705""
""focus"",""3"",""39978""
""focus"",""3"",""54547""
""focus"",""3"",""83623""
","""event"",""trial"",""time""
""fullscreenenter"",""1"",""2440""
""fullscreenenter"",""5"",""99683""
","""event"",""trial"",""time""
""fullscreenexit"",""3"",""17235""
","","737.7999999523163","","","","practice","2021-08-15 18:34:50.838","img/practice_cards/backs/dark_blue.gif","2","200","0","",""
"casino-fixation","47","312898","0.0-17.0-0.6","202","false","img/card_backs/set1/red.gif","img/card_backs/set1/yellow.gif","img/card_backs/set1/purple.gif","img/card_backs/set1/green.gif","img/card_backs/set2/gray.gif","img/card_backs/set2/pink.gif","img/card_backs/set2/orange.gif","img/card_backs/set2/blue.gif","""event"",""trial"",""time""
""fullscreenenter"",""1"",""2440""
""fullscreenexit"",""3"",""17235""
""blur"",""3"",""32954""
""focus"",""3"",""32954""
""blur"",""3"",""34705""
""focus"",""3"",""34705""
""blur"",""3"",""39974""
""focus"",""3"",""39978""
""blur"",""3"",""46909""
""focus"",""3"",""54547""
""blur"",""3"",""57430""
""focus"",""3"",""83623""
""fullscreenenter"",""5"",""99683""
","""event"",""trial"",""time""
""blur"",""3"",""32954""
""blur"",""3"",""34705""
""blur"",""3"",""39974""
""blur"",""3"",""46909""
""blur"",""3"",""57430""
","""event"",""trial"",""time""
""focus"",""3"",""32954""
""focus"",""3"",""34705""
""focus"",""3"",""39978""
""focus"",""3"",""54547""
""focus"",""3"",""83623""
","""event"",""trial"",""time""
""fullscreenenter"",""1"",""2440""
""fullscreenenter"",""5"",""99683""
","""event"",""trial"",""time""
""fullscreenexit"",""3"",""17235""
","","null","","null","","fixation","2021-08-15 18:34:51.349","","","","","",""
"card-selection-trial","48","315732","0.0-17.0-1.6","202","false","img/card_backs/set1/red.gif","img/card_backs/set1/yellow.gif","img/card_backs/set1/purple.gif","img/card_backs/set1/green.gif","img/card_backs/set2/gray.gif","img/card_backs/set2/pink.gif","img/card_backs/set2/orange.gif","img/card_backs/set2/blue.gif","""event"",""trial"",""time""
""fullscreenenter"",""1"",""2440""
""fullscreenexit"",""3"",""17235""
""blur"",""3"",""32954""
""focus"",""3"",""32954""
""blur"",""3"",""34705""
""focus"",""3"",""34705""
""blur"",""3"",""39974""
""focus"",""3"",""39978""
""blur"",""3"",""46909""
""focus"",""3"",""54547""
""blur"",""3"",""57430""
""focus"",""3"",""83623""
""fullscreenenter"",""5"",""99683""
","""event"",""trial"",""time""
""blur"",""3"",""32954""
""blur"",""3"",""34705""
""blur"",""3"",""39974""
""blur"",""3"",""46909""
""blur"",""3"",""57430""
","""event"",""trial"",""time""
""focus"",""3"",""32954""
""focus"",""3"",""34705""
""focus"",""3"",""39978""
""focus"",""3"",""54547""
""focus"",""3"",""83623""
","""event"",""trial"",""time""
""fullscreenenter"",""1"",""2440""
""fullscreenenter"",""5"",""99683""
","""event"",""trial"",""time""
""fullscreenexit"",""3"",""17235""
","","820.7999999523163","","","","practice","2021-08-15 18:34:54.183","img/practice_cards/backs/black.gif","0","100","0","",""
"casino-fixation","49","316236","0.0-17.0-0.7","202","false","img/card_backs/set1/red.gif","img/card_backs/set1/yellow.gif","img/card_backs/set1/purple.gif","img/card_backs/set1/green.gif","img/card_backs/set2/gray.gif","img/card_backs/set2/pink.gif","img/card_backs/set2/orange.gif","img/card_backs/set2/blue.gif","""event"",""trial"",""time""
""fullscreenenter"",""1"",""2440""
""fullscreenexit"",""3"",""17235""
""blur"",""3"",""32954""
""focus"",""3"",""32954""
""blur"",""3"",""34705""
""focus"",""3"",""34705""
""blur"",""3"",""39974""
""focus"",""3"",""39978""
""blur"",""3"",""46909""
""focus"",""3"",""54547""
""blur"",""3"",""57430""
""focus"",""3"",""83623""
""fullscreenenter"",""5"",""99683""
","""event"",""trial"",""time""
""blur"",""3"",""32954""
""blur"",""3"",""34705""
""blur"",""3"",""39974""
""blur"",""3"",""46909""
""blur"",""3"",""57430""
","""event"",""trial"",""time""
""focus"",""3"",""32954""
""focus"",""3"",""34705""
""focus"",""3"",""39978""
""focus"",""3"",""54547""
""focus"",""3"",""83623""
","""event"",""trial"",""time""
""fullscreenenter"",""1"",""2440""
""fullscreenenter"",""5"",""99683""
","""event"",""trial"",""time""
""fullscreenexit"",""3"",""17235""
","","null","","null","","fixation","2021-08-15 18:34:54.687","","","","","",""
"card-selection-trial","50","319896","0.0-17.0-1.7","202","false","img/card_backs/set1/red.gif","img/card_backs/set1/yellow.gif","img/card_backs/set1/purple.gif","img/card_backs/set1/green.gif","img/card_backs/set2/gray.gif","img/card_backs/set2/pink.gif","img/card_backs/set2/orange.gif","img/card_backs/set2/blue.gif","""event"",""trial"",""time""
""fullscreenenter"",""1"",""2440""
""fullscreenexit"",""3"",""17235""
""blur"",""3"",""32954""
""focus"",""3"",""32954""
""blur"",""3"",""34705""
""focus"",""3"",""34705""
""blur"",""3"",""39974""
""focus"",""3"",""39978""
""blur"",""3"",""46909""
""focus"",""3"",""54547""
""blur"",""3"",""57430""
""focus"",""3"",""83623""
""fullscreenenter"",""5"",""99683""
","""event"",""trial"",""time""
""blur"",""3"",""32954""
""blur"",""3"",""34705""
""blur"",""3"",""39974""
""blur"",""3"",""46909""
""blur"",""3"",""57430""
","""event"",""trial"",""time""
""focus"",""3"",""32954""
""focus"",""3"",""34705""
""focus"",""3"",""39978""
""focus"",""3"",""54547""
""focus"",""3"",""83623""
","""event"",""trial"",""time""
""fullscreenenter"",""1"",""2440""
""fullscreenenter"",""5"",""99683""
","""event"",""trial"",""time""
""fullscreenexit"",""3"",""17235""
","","1637.5","","","","practice","2021-08-15 18:34:58.347","img/practice_cards/backs/dark_blue.gif","0","200","0","",""
"casino-fixation","51","320406","0.0-17.0-0.8","202","false","img/card_backs/set1/red.gif","img/card_backs/set1/yellow.gif","img/card_backs/set1/purple.gif","img/card_backs/set1/green.gif","img/card_backs/set2/gray.gif","img/card_backs/set2/pink.gif","img/card_backs/set2/orange.gif","img/card_backs/set2/blue.gif","""event"",""trial"",""time""
""fullscreenenter"",""1"",""2440""
""fullscreenexit"",""3"",""17235""
""blur"",""3"",""32954""
""focus"",""3"",""32954""
""blur"",""3"",""34705""
""focus"",""3"",""34705""
""blur"",""3"",""39974""
""focus"",""3"",""39978""
""blur"",""3"",""46909""
""focus"",""3"",""54547""
""blur"",""3"",""57430""
""focus"",""3"",""83623""
""fullscreenenter"",""5"",""99683""
","""event"",""trial"",""time""
""blur"",""3"",""32954""
""blur"",""3"",""34705""
""blur"",""3"",""39974""
""blur"",""3"",""46909""
""blur"",""3"",""57430""
","""event"",""trial"",""time""
""focus"",""3"",""32954""
""focus"",""3"",""34705""
""focus"",""3"",""39978""
""focus"",""3"",""54547""
""focus"",""3"",""83623""
","""event"",""trial"",""time""
""fullscreenenter"",""1"",""2440""
""fullscreenenter"",""5"",""99683""
","""event"",""trial"",""time""
""fullscreenexit"",""3"",""17235""
","","null","","null","","fixation","2021-08-15 18:34:58.858","","","","","",""
"card-selection-trial","52","323530","0.0-17.0-1.8","202","false","img/card_backs/set1/red.gif","img/card_backs/set1/yellow.gif","img/card_backs/set1/purple.gif","img/card_backs/set1/green.gif","img/card_backs/set2/gray.gif","img/card_backs/set2/pink.gif","img/card_backs/set2/orange.gif","img/card_backs/set2/blue.gif","""event"",""trial"",""time""
""fullscreenenter"",""1"",""2440""
""fullscreenexit"",""3"",""17235""
""blur"",""3"",""32954""
""focus"",""3"",""32954""
""blur"",""3"",""34705""
""focus"",""3"",""34705""
""blur"",""3"",""39974""
""focus"",""3"",""39978""
""blur"",""3"",""46909""
""focus"",""3"",""54547""
""blur"",""3"",""57430""
""focus"",""3"",""83623""
""fullscreenenter"",""5"",""99683""
","""event"",""trial"",""time""
""blur"",""3"",""32954""
""blur"",""3"",""34705""
""blur"",""3"",""39974""
""blur"",""3"",""46909""
""blur"",""3"",""57430""
","""event"",""trial"",""time""
""focus"",""3"",""32954""
""focus"",""3"",""34705""
""focus"",""3"",""39978""
""focus"",""3"",""54547""
""focus"",""3"",""83623""
","""event"",""trial"",""time""
""fullscreenenter"",""1"",""2440""
""fullscreenenter"",""5"",""99683""
","""event"",""trial"",""time""
""fullscreenexit"",""3"",""17235""
","","1105.5999999046326","","","","practice","2021-08-15 18:35:01.981","img/practice_cards/backs/brown.gif","2","100","0","",""
"casino-fixation","53","324032","0.0-17.0-0.9","202","false","img/card_backs/set1/red.gif","img/card_backs/set1/yellow.gif","img/card_backs/set1/purple.gif","img/card_backs/set1/green.gif","img/card_backs/set2/gray.gif","img/card_backs/set2/pink.gif","img/card_backs/set2/orange.gif","img/card_backs/set2/blue.gif","""event"",""trial"",""time""
""fullscreenenter"",""1"",""2440""
""fullscreenexit"",""3"",""17235""
""blur"",""3"",""32954""
""focus"",""3"",""32954""
""blur"",""3"",""34705""
""focus"",""3"",""34705""
""blur"",""3"",""39974""
""focus"",""3"",""39978""
""blur"",""3"",""46909""
""focus"",""3"",""54547""
""blur"",""3"",""57430""
""focus"",""3"",""83623""
""fullscreenenter"",""5"",""99683""
","""event"",""trial"",""time""
""blur"",""3"",""32954""
""blur"",""3"",""34705""
""blur"",""3"",""39974""
""blur"",""3"",""46909""
""blur"",""3"",""57430""
","""event"",""trial"",""time""
""focus"",""3"",""32954""
""focus"",""3"",""34705""
""focus"",""3"",""39978""
""focus"",""3"",""54547""
""focus"",""3"",""83623""
","""event"",""trial"",""time""
""fullscreenenter"",""1"",""2440""
""fullscreenenter"",""5"",""99683""
","""event"",""trial"",""time""
""fullscreenexit"",""3"",""17235""
","","null","","null","","fixation","2021-08-15 18:35:02.483","","","","","",""
"card-selection-trial","54","327535","0.0-17.0-1.9","202","false","img/card_backs/set1/red.gif","img/card_backs/set1/yellow.gif","img/card_backs/set1/purple.gif","img/card_backs/set1/green.gif","img/card_backs/set2/gray.gif","img/card_backs/set2/pink.gif","img/card_backs/set2/orange.gif","img/card_backs/set2/blue.gif","""event"",""trial"",""time""
""fullscreenenter"",""1"",""2440""
""fullscreenexit"",""3"",""17235""
""blur"",""3"",""32954""
""focus"",""3"",""32954""
""blur"",""3"",""34705""
""focus"",""3"",""34705""
""blur"",""3"",""39974""
""focus"",""3"",""39978""
""blur"",""3"",""46909""
""focus"",""3"",""54547""
""blur"",""3"",""57430""
""focus"",""3"",""83623""
""fullscreenenter"",""5"",""99683""
","""event"",""trial"",""time""
""blur"",""3"",""32954""
""blur"",""3"",""34705""
""blur"",""3"",""39974""
""blur"",""3"",""46909""
""blur"",""3"",""57430""
","""event"",""trial"",""time""
""focus"",""3"",""32954""
""focus"",""3"",""34705""
""focus"",""3"",""39978""
""focus"",""3"",""54547""
""focus"",""3"",""83623""
","""event"",""trial"",""time""
""fullscreenenter"",""1"",""2440""
""fullscreenenter"",""5"",""99683""
","""event"",""trial"",""time""
""fullscreenexit"",""3"",""17235""
","","1499.5","","","","practice","2021-08-15 18:35:05.987","img/practice_cards/backs/dark_blue.gif","3","200","0","",""
"casino-keyboard-response","55","330890","0.0-18.0","202","false","img/card_backs/set1/red.gif","img/card_backs/set1/yellow.gif","img/card_backs/set1/purple.gif","img/card_backs/set1/green.gif","img/card_backs/set2/gray.gif","img/card_backs/set2/pink.gif","img/card_backs/set2/orange.gif","img/card_backs/set2/blue.gif","""event"",""trial"",""time""
""fullscreenenter"",""1"",""2440""
""fullscreenexit"",""3"",""17235""
""blur"",""3"",""32954""
""focus"",""3"",""32954""
""blur"",""3"",""34705""
""focus"",""3"",""34705""
""blur"",""3"",""39974""
""focus"",""3"",""39978""
""blur"",""3"",""46909""
""focus"",""3"",""54547""
""blur"",""3"",""57430""
""focus"",""3"",""83623""
""fullscreenenter"",""5"",""99683""
","""event"",""trial"",""time""
""blur"",""3"",""32954""
""blur"",""3"",""34705""
""blur"",""3"",""39974""
""blur"",""3"",""46909""
""blur"",""3"",""57430""
","""event"",""trial"",""time""
""focus"",""3"",""32954""
""focus"",""3"",""34705""
""focus"",""3"",""39978""
""focus"",""3"",""54547""
""focus"",""3"",""83623""
","""event"",""trial"",""time""
""fullscreenenter"",""1"",""2440""
""fullscreenenter"",""5"",""99683""
","""event"",""trial"",""time""
""fullscreenexit"",""3"",""17235""
","","3353","You earned 1000 tokens during the practice round!","82","","","2021-08-15 18:35:09.341","","","","","",""
"casino-keyboard-response","56","335305","0.0-19.0-0.0","202","false","img/card_backs/set1/red.gif","img/card_backs/set1/yellow.gif","img/card_backs/set1/purple.gif","img/card_backs/set1/green.gif","img/card_backs/set2/gray.gif","img/card_backs/set2/pink.gif","img/card_backs/set2/orange.gif","img/card_backs/set2/blue.gif","""event"",""trial"",""time""
""fullscreenenter"",""1"",""2440""
""fullscreenexit"",""3"",""17235""
""blur"",""3"",""32954""
""focus"",""3"",""32954""
""blur"",""3"",""34705""
""focus"",""3"",""34705""
""blur"",""3"",""39974""
""focus"",""3"",""39978""
""blur"",""3"",""46909""
""focus"",""3"",""54547""
""blur"",""3"",""57430""
""focus"",""3"",""83623""
""fullscreenenter"",""5"",""99683""
","""event"",""trial"",""time""
""blur"",""3"",""32954""
""blur"",""3"",""34705""
""blur"",""3"",""39974""
""blur"",""3"",""46909""
""blur"",""3"",""57430""
","""event"",""trial"",""time""
""focus"",""3"",""32954""
""focus"",""3"",""34705""
""focus"",""3"",""39978""
""focus"",""3"",""54547""
""focus"",""3"",""83623""
","""event"",""trial"",""time""
""fullscreenenter"",""1"",""2440""
""fullscreenenter"",""5"",""99683""
","""event"",""trial"",""time""
""fullscreenexit"",""3"",""17235""
","","4414.5","Nice job! You are almost ready to play the real game.","86","","instructions","2021-08-15 18:35:13.756","","","","","",""
"casino-keyboard-response","57","343662","0.0-19.0-0.1","202","false","img/card_backs/set1/red.gif","img/card_backs/set1/yellow.gif","img/card_backs/set1/purple.gif","img/card_backs/set1/green.gif","img/card_backs/set2/gray.gif","img/card_backs/set2/pink.gif","img/card_backs/set2/orange.gif","img/card_backs/set2/blue.gif","""event"",""trial"",""time""
""fullscreenenter"",""1"",""2440""
""fullscreenexit"",""3"",""17235""
""blur"",""3"",""32954""
""focus"",""3"",""32954""
""blur"",""3"",""34705""
""focus"",""3"",""34705""
""blur"",""3"",""39974""
""focus"",""3"",""39978""
""blur"",""3"",""46909""
""focus"",""3"",""54547""
""blur"",""3"",""57430""
""focus"",""3"",""83623""
""fullscreenenter"",""5"",""99683""
","""event"",""trial"",""time""
""blur"",""3"",""32954""
""blur"",""3"",""34705""
""blur"",""3"",""39974""
""blur"",""3"",""46909""
""blur"",""3"",""57430""
","""event"",""trial"",""time""
""focus"",""3"",""32954""
""focus"",""3"",""34705""
""focus"",""3"",""39978""
""focus"",""3"",""54547""
""focus"",""3"",""83623""
","""event"",""trial"",""time""
""fullscreenenter"",""1"",""2440""
""fullscreenenter"",""5"",""99683""
","""event"",""trial"",""time""
""fullscreenexit"",""3"",""17235""
","","8356.300000071526","You will play two rounds of the real game. In each round, you will pick 100 cards in total.","73","","instructions","2021-08-15 18:35:22.113","","","","","",""
"casino-keyboard-response","58","347933","0.0-19.0-0.2","202","false","img/card_backs/set1/red.gif","img/card_backs/set1/yellow.gif","img/card_backs/set1/purple.gif","img/card_backs/set1/green.gif","img/card_backs/set2/gray.gif","img/card_backs/set2/pink.gif","img/card_backs/set2/orange.gif","img/card_backs/set2/blue.gif","""event"",""trial"",""time""
""fullscreenenter"",""1"",""2440""
""fullscreenexit"",""3"",""17235""
""blur"",""3"",""32954""
""focus"",""3"",""32954""
""blur"",""3"",""34705""
""focus"",""3"",""34705""
""blur"",""3"",""39974""
""focus"",""3"",""39978""
""blur"",""3"",""46909""
""focus"",""3"",""54547""
""blur"",""3"",""57430""
""focus"",""3"",""83623""
""fullscreenenter"",""5"",""99683""
","""event"",""trial"",""time""
""blur"",""3"",""32954""
""blur"",""3"",""34705""
""blur"",""3"",""39974""
""blur"",""3"",""46909""
""blur"",""3"",""57430""
","""event"",""trial"",""time""
""focus"",""3"",""32954""
""focus"",""3"",""34705""
""focus"",""3"",""39978""
""focus"",""3"",""54547""
""focus"",""3"",""83623""
","""event"",""trial"",""time""
""fullscreenenter"",""1"",""2440""
""fullscreenenter"",""5"",""99683""
","""event"",""trial"",""time""
""fullscreenexit"",""3"",""17235""
","","4269.399999976158","We are now going to ask you some questions about how the game works.","66","","instructions","2021-08-15 18:35:26.384","","","","","",""
"casino-keyboard-response","59","354148","0.0-19.0-0.3","202","false","img/card_backs/set1/red.gif","img/card_backs/set1/yellow.gif","img/card_backs/set1/purple.gif","img/card_backs/set1/green.gif","img/card_backs/set2/gray.gif","img/card_backs/set2/pink.gif","img/card_backs/set2/orange.gif","img/card_backs/set2/blue.gif","""event"",""trial"",""time""
""fullscreenenter"",""1"",""2440""
""fullscreenexit"",""3"",""17235""
""blur"",""3"",""32954""
""focus"",""3"",""32954""
""blur"",""3"",""34705""
""focus"",""3"",""34705""
""blur"",""3"",""39974""
""focus"",""3"",""39978""
""blur"",""3"",""46909""
""focus"",""3"",""54547""
""blur"",""3"",""57430""
""focus"",""3"",""83623""
""fullscreenenter"",""5"",""99683""
","""event"",""trial"",""time""
""blur"",""3"",""32954""
""blur"",""3"",""34705""
""blur"",""3"",""39974""
""blur"",""3"",""46909""
""blur"",""3"",""57430""
","""event"",""trial"",""time""
""focus"",""3"",""32954""
""focus"",""3"",""34705""
""focus"",""3"",""39978""
""focus"",""3"",""54547""
""focus"",""3"",""83623""
","""event"",""trial"",""time""
""fullscreenenter"",""1"",""2440""
""fullscreenenter"",""5"",""99683""
","""event"",""trial"",""time""
""fullscreenexit"",""3"",""17235""
","","6213.899999976158","Answer carefully. You will not be able to begin the game until you answer them correctly.","67","","instructions","2021-08-15 18:35:32.599","","","","","",""
"casino-comp_q","60","361450","0.0-20.0-0.0","202","false","img/card_backs/set1/red.gif","img/card_backs/set1/yellow.gif","img/card_backs/set1/purple.gif","img/card_backs/set1/green.gif","img/card_backs/set2/gray.gif","img/card_backs/set2/pink.gif","img/card_backs/set2/orange.gif","img/card_backs/set2/blue.gif","""event"",""trial"",""time""
""fullscreenenter"",""1"",""2440""
""fullscreenexit"",""3"",""17235""
""blur"",""3"",""32954""
""focus"",""3"",""32954""
""blur"",""3"",""34705""
""focus"",""3"",""34705""
""blur"",""3"",""39974""
""focus"",""3"",""39978""
""blur"",""3"",""46909""
""focus"",""3"",""54547""
""blur"",""3"",""57430""
""focus"",""3"",""83623""
""fullscreenenter"",""5"",""99683""
","""event"",""trial"",""time""
""blur"",""3"",""32954""
""blur"",""3"",""34705""
""blur"",""3"",""39974""
""blur"",""3"",""46909""
""blur"",""3"",""57430""
","""event"",""trial"",""time""
""focus"",""3"",""32954""
""focus"",""3"",""34705""
""focus"",""3"",""39978""
""focus"",""3"",""54547""
""focus"",""3"",""83623""
","""event"",""trial"",""time""
""fullscreenenter"",""1"",""2440""
""fullscreenenter"",""5"",""99683""
","""event"",""trial"",""time""
""fullscreenexit"",""3"",""17235""
","","7301.899999976158","True or False: All the decks have some cards that cause you to win tokens and some cards that cause you to lose tokens.","84","","","2021-08-15 18:35:39.902","","","","","",""
"casino-keyboard-response","61","364933","0.0-20.0-1.0","202","false","img/card_backs/set1/red.gif","img/card_backs/set1/yellow.gif","img/card_backs/set1/purple.gif","img/card_backs/set1/green.gif","img/card_backs/set2/gray.gif","img/card_backs/set2/pink.gif","img/card_backs/set2/orange.gif","img/card_backs/set2/blue.gif","""event"",""trial"",""time""
""fullscreenenter"",""1"",""2440""
""fullscreenexit"",""3"",""17235""
""blur"",""3"",""32954""
""focus"",""3"",""32954""
""blur"",""3"",""34705""
""focus"",""3"",""34705""
""blur"",""3"",""39974""
""focus"",""3"",""39978""
""blur"",""3"",""46909""
""focus"",""3"",""54547""
""blur"",""3"",""57430""
""focus"",""3"",""83623""
""fullscreenenter"",""5"",""99683""
","""event"",""trial"",""time""
""blur"",""3"",""32954""
""blur"",""3"",""34705""
""blur"",""3"",""39974""
""blur"",""3"",""46909""
""blur"",""3"",""57430""
","""event"",""trial"",""time""
""focus"",""3"",""32954""
""focus"",""3"",""34705""
""focus"",""3"",""39978""
""focus"",""3"",""54547""
""focus"",""3"",""83623""
","""event"",""trial"",""time""
""fullscreenenter"",""1"",""2440""
""fullscreenenter"",""5"",""99683""
","""event"",""trial"",""time""
""fullscreenexit"",""3"",""17235""
","","3481.399999976158","True is correct! All the decks have a mix of winning and losing cards.","77","","","2021-08-15 18:35:43.384","","","","","true",""
"casino-comp_q","62","368870","0.0-21.0-0.0","202","false","img/card_backs/set1/red.gif","img/card_backs/set1/yellow.gif","img/card_backs/set1/purple.gif","img/card_backs/set1/green.gif","img/card_backs/set2/gray.gif","img/card_backs/set2/pink.gif","img/card_backs/set2/orange.gif","img/card_backs/set2/blue.gif","""event"",""trial"",""time""
""fullscreenenter"",""1"",""2440""
""fullscreenexit"",""3"",""17235""
""blur"",""3"",""32954""
""focus"",""3"",""32954""
""blur"",""3"",""34705""
""focus"",""3"",""34705""
""blur"",""3"",""39974""
""focus"",""3"",""39978""
""blur"",""3"",""46909""
""focus"",""3"",""54547""
""blur"",""3"",""57430""
""focus"",""3"",""83623""
""fullscreenenter"",""5"",""99683""
","""event"",""trial"",""time""
""blur"",""3"",""32954""
""blur"",""3"",""34705""
""blur"",""3"",""39974""
""blur"",""3"",""46909""
""blur"",""3"",""57430""
","""event"",""trial"",""time""
""focus"",""3"",""32954""
""focus"",""3"",""34705""
""focus"",""3"",""39978""
""focus"",""3"",""54547""
""focus"",""3"",""83623""
","""event"",""trial"",""time""
""fullscreenenter"",""1"",""2440""
""fullscreenenter"",""5"",""99683""
","""event"",""trial"",""time""
""fullscreenexit"",""3"",""17235""
","","3935.0999999046326","True or False: You will have as much time as you want to make your response.","70","","","2021-08-15 18:35:47.321","","","","","",""
"casino-keyboard-response","63","372152","0.0-21.0-1.0","202","false","img/card_backs/set1/red.gif","img/card_backs/set1/yellow.gif","img/card_backs/set1/purple.gif","img/card_backs/set1/green.gif","img/card_backs/set2/gray.gif","img/card_backs/set2/pink.gif","img/card_backs/set2/orange.gif","img/card_backs/set2/blue.gif","""event"",""trial"",""time""
""fullscreenenter"",""1"",""2440""
""fullscreenexit"",""3"",""17235""
""blur"",""3"",""32954""
""focus"",""3"",""32954""
""blur"",""3"",""34705""
""focus"",""3"",""34705""
""blur"",""3"",""39974""
""focus"",""3"",""39978""
""blur"",""3"",""46909""
""focus"",""3"",""54547""
""blur"",""3"",""57430""
""focus"",""3"",""83623""
""fullscreenenter"",""5"",""99683""
","""event"",""trial"",""time""
""blur"",""3"",""32954""
""blur"",""3"",""34705""
""blur"",""3"",""39974""
""blur"",""3"",""46909""
""blur"",""3"",""57430""
","""event"",""trial"",""time""
""focus"",""3"",""32954""
""focus"",""3"",""34705""
""focus"",""3"",""39978""
""focus"",""3"",""54547""
""focus"",""3"",""83623""
","""event"",""trial"",""time""
""fullscreenenter"",""1"",""2440""
""fullscreenenter"",""5"",""99683""
","""event"",""trial"",""time""
""fullscreenexit"",""3"",""17235""
","","3281.3000000715256","False is correct! You will only have 10 seconds to make each choice.","75","","","2021-08-15 18:35:50.603","","","","","true",""
"casino-comp_q","64","375301","0.0-22.0-0.0","202","false","img/card_backs/set1/red.gif","img/card_backs/set1/yellow.gif","img/card_backs/set1/purple.gif","img/card_backs/set1/green.gif","img/card_backs/set2/gray.gif","img/card_backs/set2/pink.gif","img/card_backs/set2/orange.gif","img/card_backs/set2/blue.gif","""event"",""trial"",""time""
""fullscreenenter"",""1"",""2440""
""fullscreenexit"",""3"",""17235""
""blur"",""3"",""32954""
""focus"",""3"",""32954""
""blur"",""3"",""34705""
""focus"",""3"",""34705""
""blur"",""3"",""39974""
""focus"",""3"",""39978""
""blur"",""3"",""46909""
""focus"",""3"",""54547""
""blur"",""3"",""57430""
""focus"",""3"",""83623""
""fullscreenenter"",""5"",""99683""
","""event"",""trial"",""time""
""blur"",""3"",""32954""
""blur"",""3"",""34705""
""blur"",""3"",""39974""
""blur"",""3"",""46909""
""blur"",""3"",""57430""
","""event"",""trial"",""time""
""focus"",""3"",""32954""
""focus"",""3"",""34705""
""focus"",""3"",""39978""
""focus"",""3"",""54547""
""focus"",""3"",""83623""
","""event"",""trial"",""time""
""fullscreenenter"",""1"",""2440""
""fullscreenenter"",""5"",""99683""
","""event"",""trial"",""time""
""fullscreenexit"",""3"",""17235""
","","3147.899999976158","True or False: The location of the deck determines how lucky it is.","70","","","2021-08-15 18:35:53.752","","","","","",""
"casino-keyboard-response","65","378346","0.0-22.0-1.0","202","false","img/card_backs/set1/red.gif","img/card_backs/set1/yellow.gif","img/card_backs/set1/purple.gif","img/card_backs/set1/green.gif","img/card_backs/set2/gray.gif","img/card_backs/set2/pink.gif","img/card_backs/set2/orange.gif","img/card_backs/set2/blue.gif","""event"",""trial"",""time""
""fullscreenenter"",""1"",""2440""
""fullscreenexit"",""3"",""17235""
""blur"",""3"",""32954""
""focus"",""3"",""32954""
""blur"",""3"",""34705""
""focus"",""3"",""34705""
""blur"",""3"",""39974""
""focus"",""3"",""39978""
""blur"",""3"",""46909""
""focus"",""3"",""54547""
""blur"",""3"",""57430""
""focus"",""3"",""83623""
""fullscreenenter"",""5"",""99683""
","""event"",""trial"",""time""
""blur"",""3"",""32954""
""blur"",""3"",""34705""
""blur"",""3"",""39974""
""blur"",""3"",""46909""
""blur"",""3"",""57430""
","""event"",""trial"",""time""
""focus"",""3"",""32954""
""focus"",""3"",""34705""
""focus"",""3"",""39978""
""focus"",""3"",""54547""
""focus"",""3"",""83623""
","""event"",""trial"",""time""
""fullscreenenter"",""1"",""2440""
""fullscreenenter"",""5"",""99683""
","""event"",""trial"",""time""
""fullscreenexit"",""3"",""17235""
","","3044.7999999523163","False is correct! The <i>color</i>  of the deck determines how lucky or unlucky it is.","68","","","2021-08-15 18:35:56.797","","","","","true",""
"casino-keyboard-response","66","382466","0.0-23.0-0.0","202","false","img/card_backs/set1/red.gif","img/card_backs/set1/yellow.gif","img/card_backs/set1/purple.gif","img/card_backs/set1/green.gif","img/card_backs/set2/gray.gif","img/card_backs/set2/pink.gif","img/card_backs/set2/orange.gif","img/card_backs/set2/blue.gif","""event"",""trial"",""time""
""fullscreenenter"",""1"",""2440""
""fullscreenexit"",""3"",""17235""
""blur"",""3"",""32954""
""focus"",""3"",""32954""
""blur"",""3"",""34705""
""focus"",""3"",""34705""
""blur"",""3"",""39974""
""focus"",""3"",""39978""
""blur"",""3"",""46909""
""focus"",""3"",""54547""
""blur"",""3"",""57430""
""focus"",""3"",""83623""
""fullscreenenter"",""5"",""99683""
","""event"",""trial"",""time""
""blur"",""3"",""32954""
""blur"",""3"",""34705""
""blur"",""3"",""39974""
""blur"",""3"",""46909""
""blur"",""3"",""57430""
","""event"",""trial"",""time""
""focus"",""3"",""32954""
""focus"",""3"",""34705""
""focus"",""3"",""39978""
""focus"",""3"",""54547""
""focus"",""3"",""83623""
","""event"",""trial"",""time""
""fullscreenenter"",""1"",""2440""
""fullscreenenter"",""5"",""99683""
","""event"",""trial"",""time""
""fullscreenexit"",""3"",""17235""
","","4118.900000095367","Great job! Now it's time to start the real game.","82","","instructions","2021-08-15 18:36:00.917","","","","","",""
"casino-keyboard-response","67","387617","0.0-23.0-0.1","202","false","img/card_backs/set1/red.gif","img/card_backs/set1/yellow.gif","img/card_backs/set1/purple.gif","img/card_backs/set1/green.gif","img/card_backs/set2/gray.gif","img/card_backs/set2/pink.gif","img/card_backs/set2/orange.gif","img/card_backs/set2/blue.gif","""event"",""trial"",""time""
""fullscreenenter"",""1"",""2440""
""fullscreenexit"",""3"",""17235""
""blur"",""3"",""32954""
""focus"",""3"",""32954""
""blur"",""3"",""34705""
""focus"",""3"",""34705""
""blur"",""3"",""39974""
""focus"",""3"",""39978""
""blur"",""3"",""46909""
""focus"",""3"",""54547""
""blur"",""3"",""57430""
""focus"",""3"",""83623""
""fullscreenenter"",""5"",""99683""
","""event"",""trial"",""time""
""blur"",""3"",""32954""
""blur"",""3"",""34705""
""blur"",""3"",""39974""
""blur"",""3"",""46909""
""blur"",""3"",""57430""
","""event"",""trial"",""time""
""focus"",""3"",""32954""
""focus"",""3"",""34705""
""focus"",""3"",""39978""
""focus"",""3"",""54547""
""focus"",""3"",""83623""
","""event"",""trial"",""time""
""fullscreenenter"",""1"",""2440""
""fullscreenenter"",""5"",""99683""
","""event"",""trial"",""time""
""fullscreenexit"",""3"",""17235""
","","5149.100000023842","Before we start, we're going to head into a new room of the casino.","86","","instructions","2021-08-15 18:36:06.068","","","","","",""
"casino-keyboard-response","68","393772","0.0-24.0-0.0","202","false","img/card_backs/set1/red.gif","img/card_backs/set1/yellow.gif","img/card_backs/set1/purple.gif","img/card_backs/set1/green.gif","img/card_backs/set2/gray.gif","img/card_backs/set2/pink.gif","img/card_backs/set2/orange.gif","img/card_backs/set2/blue.gif","""event"",""trial"",""time""
""fullscreenenter"",""1"",""2440""
""fullscreenexit"",""3"",""17235""
""blur"",""3"",""32954""
""focus"",""3"",""32954""
""blur"",""3"",""34705""
""focus"",""3"",""34705""
""blur"",""3"",""39974""
""focus"",""3"",""39978""
""blur"",""3"",""46909""
""focus"",""3"",""54547""
""blur"",""3"",""57430""
""focus"",""3"",""83623""
""fullscreenenter"",""5"",""99683""
","""event"",""trial"",""time""
""blur"",""3"",""32954""
""blur"",""3"",""34705""
""blur"",""3"",""39974""
""blur"",""3"",""46909""
""blur"",""3"",""57430""
","""event"",""trial"",""time""
""focus"",""3"",""32954""
""focus"",""3"",""34705""
""focus"",""3"",""39978""
""focus"",""3"",""54547""
""focus"",""3"",""83623""
","""event"",""trial"",""time""
""fullscreenenter"",""1"",""2440""
""fullscreenenter"",""5"",""99683""
","""event"",""trial"",""time""
""fullscreenexit"",""3"",""17235""
","","6154.899999976158","Here we are! The real game will use different cards, but the rules will be the same.","71","","instructions","2021-08-15 18:36:12.223","","","","","",""
"casino-keyboard-response","69","397741","0.0-24.0-0.1","202","false","img/card_backs/set1/red.gif","img/card_backs/set1/yellow.gif","img/card_backs/set1/purple.gif","img/card_backs/set1/green.gif","img/card_backs/set2/gray.gif","img/card_backs/set2/pink.gif","img/card_backs/set2/orange.gif","img/card_backs/set2/blue.gif","""event"",""trial"",""time""
""fullscreenenter"",""1"",""2440""
""fullscreenexit"",""3"",""17235""
""blur"",""3"",""32954""
""focus"",""3"",""32954""
""blur"",""3"",""34705""
""focus"",""3"",""34705""
""blur"",""3"",""39974""
""focus"",""3"",""39978""
""blur"",""3"",""46909""
""focus"",""3"",""54547""
""blur"",""3"",""57430""
""focus"",""3"",""83623""
""fullscreenenter"",""5"",""99683""
","""event"",""trial"",""time""
""blur"",""3"",""32954""
""blur"",""3"",""34705""
""blur"",""3"",""39974""
""blur"",""3"",""46909""
""blur"",""3"",""57430""
","""event"",""trial"",""time""
""focus"",""3"",""32954""
""focus"",""3"",""34705""
""focus"",""3"",""39978""
""focus"",""3"",""54547""
""focus"",""3"",""83623""
","""event"",""trial"",""time""
""fullscreenenter"",""1"",""2440""
""fullscreenenter"",""5"",""99683""
","""event"",""trial"",""time""
""fullscreenexit"",""3"",""17235""
","","3967.5","Ready? Put your fingers over the '2', '4', 6', and '8' keys so you are ready to play the game. </br> Then press 2 to start.","50","","instructions","2021-08-15 18:36:16.192","","","","","",""
"casino-fixation","70","398245","0.0-25.0-0.0","202","false","img/card_backs/set1/red.gif","img/card_backs/set1/yellow.gif","img/card_backs/set1/purple.gif","img/card_backs/set1/green.gif","img/card_backs/set2/gray.gif","img/card_backs/set2/pink.gif","img/card_backs/set2/orange.gif","img/card_backs/set2/blue.gif","""event"",""trial"",""time""
""fullscreenenter"",""1"",""2440""
""fullscreenexit"",""3"",""17235""
""blur"",""3"",""32954""
""focus"",""3"",""32954""
""blur"",""3"",""34705""
""focus"",""3"",""34705""
""blur"",""3"",""39974""
""focus"",""3"",""39978""
""blur"",""3"",""46909""
""focus"",""3"",""54547""
""blur"",""3"",""57430""
""focus"",""3"",""83623""
""fullscreenenter"",""5"",""99683""
","""event"",""trial"",""time""
""blur"",""3"",""32954""
""blur"",""3"",""34705""
""blur"",""3"",""39974""
""blur"",""3"",""46909""
""blur"",""3"",""57430""
","""event"",""trial"",""time""
""focus"",""3"",""32954""
""focus"",""3"",""34705""
""focus"",""3"",""39978""
""focus"",""3"",""54547""
""focus"",""3"",""83623""
","""event"",""trial"",""time""
""fullscreenenter"",""1"",""2440""
""fullscreenenter"",""5"",""99683""
","""event"",""trial"",""time""
""fullscreenexit"",""3"",""17235""
","","null","","null","","fixation","2021-08-15 18:36:16.696","","","","","",""
"card-selection-trial","71","401455","0.0-25.0-1.0","202","false","img/card_backs/set1/red.gif","img/card_backs/set1/yellow.gif","img/card_backs/set1/purple.gif","img/card_backs/set1/green.gif","img/card_backs/set2/gray.gif","img/card_backs/set2/pink.gif","img/card_backs/set2/orange.gif","img/card_backs/set2/blue.gif","""event"",""trial"",""time""
""fullscreenenter"",""1"",""2440""
""fullscreenexit"",""3"",""17235""
""blur"",""3"",""32954""
""focus"",""3"",""32954""
""blur"",""3"",""34705""
""focus"",""3"",""34705""
""blur"",""3"",""39974""
""focus"",""3"",""39978""
""blur"",""3"",""46909""
""focus"",""3"",""54547""
""blur"",""3"",""57430""
""focus"",""3"",""83623""
""fullscreenenter"",""5"",""99683""
","""event"",""trial"",""time""
""blur"",""3"",""32954""
""blur"",""3"",""34705""
""blur"",""3"",""39974""
""blur"",""3"",""46909""
""blur"",""3"",""57430""
","""event"",""trial"",""time""
""focus"",""3"",""32954""
""focus"",""3"",""34705""
""focus"",""3"",""39978""
""focus"",""3"",""54547""
""focus"",""3"",""83623""
","""event"",""trial"",""time""
""fullscreenenter"",""1"",""2440""
""fullscreenenter"",""5"",""99683""
","""event"",""trial"",""time""
""fullscreenexit"",""3"",""17235""
","","1202.2999999523163","","","","real_trial","2021-08-15 18:36:19.906","img/card_backs/set1/red.gif","1","-230","1","",""
"casino-fixation","72","401975","0.0-25.0-0.1","202","false","img/card_backs/set1/red.gif","img/card_backs/set1/yellow.gif","img/card_backs/set1/purple.gif","img/card_backs/set1/green.gif","img/card_backs/set2/gray.gif","img/card_backs/set2/pink.gif","img/card_backs/set2/orange.gif","img/card_backs/set2/blue.gif","""event"",""trial"",""time""
""fullscreenenter"",""1"",""2440""
""fullscreenexit"",""3"",""17235""
""blur"",""3"",""32954""
""focus"",""3"",""32954""
""blur"",""3"",""34705""
""focus"",""3"",""34705""
""blur"",""3"",""39974""
""focus"",""3"",""39978""
""blur"",""3"",""46909""
""focus"",""3"",""54547""
""blur"",""3"",""57430""
""focus"",""3"",""83623""
""fullscreenenter"",""5"",""99683""
","""event"",""trial"",""time""
""blur"",""3"",""32954""
""blur"",""3"",""34705""
""blur"",""3"",""39974""
""blur"",""3"",""46909""
""blur"",""3"",""57430""
","""event"",""trial"",""time""
""focus"",""3"",""32954""
""focus"",""3"",""34705""
""focus"",""3"",""39978""
""focus"",""3"",""54547""
""focus"",""3"",""83623""
","""event"",""trial"",""time""
""fullscreenenter"",""1"",""2440""
""fullscreenenter"",""5"",""99683""
","""event"",""trial"",""time""
""fullscreenexit"",""3"",""17235""
","","null","","null","","fixation","2021-08-15 18:36:20.426","","","","","",""
"card-selection-trial","73","406325","0.0-25.0-1.1","202","false","img/card_backs/set1/red.gif","img/card_backs/set1/yellow.gif","img/card_backs/set1/purple.gif","img/card_backs/set1/green.gif","img/card_backs/set2/gray.gif","img/card_backs/set2/pink.gif","img/card_backs/set2/orange.gif","img/card_backs/set2/blue.gif","""event"",""trial"",""time""
""fullscreenenter"",""1"",""2440""
""fullscreenexit"",""3"",""17235""
""blur"",""3"",""32954""
""focus"",""3"",""32954""
""blur"",""3"",""34705""
