"trial_type","trial_index","time_elapsed","internal_node_id","sub_id","risk_good_first","block1_A","block1_B","block1_C","block1_D","block2_A","block2_B","block2_C","block2_D","interactions","blur_events","focus_events","fullscreenenter_events","fullscreenexit_events","success","rt","stimulus","key_press","button_pressed","task_part","timestamp","card_choice","choice_position","points_earned","block","correct","response"
"pavlovia","0","4","0.0-0.0","909","false","img/card_backs/set1/green.gif","img/card_backs/set1/purple.gif","img/card_backs/set1/yellow.gif","img/card_backs/set1/red.gif","img/card_backs/set2/blue.gif","img/card_backs/set2/pink.gif","img/card_backs/set2/gray.gif","img/card_backs/set2/orange.gif","""event"",""trial"",""time""
""fullscreenenter"",""1"",""3615""
","
","
","""event"",""trial"",""time""
""fullscreenenter"",""1"",""3615""
","
","","","","","","","","","","","","",""
"fullscreen","1","4589","0.0-1.0","909","false","img/card_backs/set1/green.gif","img/card_backs/set1/purple.gif","img/card_backs/set1/yellow.gif","img/card_backs/set1/red.gif","img/card_backs/set2/blue.gif","img/card_backs/set2/pink.gif","img/card_backs/set2/gray.gif","img/card_backs/set2/orange.gif","""event"",""trial"",""time""
""fullscreenenter"",""1"",""3615""
","
","
","""event"",""trial"",""time""
""fullscreenenter"",""1"",""3615""
","
","true","","","","","","","","","","","",""
"audio-keyboard-response","2","7903","0.0-2.0","909","false","img/card_backs/set1/green.gif","img/card_backs/set1/purple.gif","img/card_backs/set1/yellow.gif","img/card_backs/set1/red.gif","img/card_backs/set2/blue.gif","img/card_backs/set2/pink.gif","img/card_backs/set2/gray.gif","img/card_backs/set2/orange.gif","""event"",""trial"",""time""
""fullscreenenter"",""1"",""3615""
","
","
","""event"",""trial"",""time""
""fullscreenenter"",""1"",""3615""
","
","","3193","audio/beep_loop.wav","32","","","","","","","","",""
"audio-button-response","3","9574","0.0-3.0","909","false","img/card_backs/set1/green.gif","img/card_backs/set1/purple.gif","img/card_backs/set1/yellow.gif","img/card_backs/set1/red.gif","img/card_backs/set2/blue.gif","img/card_backs/set2/pink.gif","img/card_backs/set2/gray.gif","img/card_backs/set2/orange.gif","""event"",""trial"",""time""
""fullscreenenter"",""1"",""3615""
","
","
","""event"",""trial"",""time""
""fullscreenenter"",""1"",""3615""
","
","","NaN","audio/turtle.mp3","","3","","","","","","","",""
"audio-button-response","4","11627","0.0-4.0","909","false","img/card_backs/set1/green.gif","img/card_backs/set1/purple.gif","img/card_backs/set1/yellow.gif","img/card_backs/set1/red.gif","img/card_backs/set2/blue.gif","img/card_backs/set2/pink.gif","img/card_backs/set2/gray.gif","img/card_backs/set2/orange.gif","""event"",""trial"",""time""
""fullscreenenter"",""1"",""3615""
","
","
","""event"",""trial"",""time""
""fullscreenenter"",""1"",""3615""
","
","","NaN","audio/shark.mp3","","2","","","","","","","",""
"fullscreen","5","15209","0.0-5.0","909","false","img/card_backs/set1/green.gif","img/card_backs/set1/purple.gif","img/card_backs/set1/yellow.gif","img/card_backs/set1/red.gif","img/card_backs/set2/blue.gif","img/card_backs/set2/pink.gif","img/card_backs/set2/gray.gif","img/card_backs/set2/orange.gif","""event"",""trial"",""time""
""fullscreenenter"",""1"",""3615""
","
","
","""event"",""trial"",""time""
""fullscreenenter"",""1"",""3615""
","
","true","","","","","","","","","","","",""
"casino-keyboard-response","6","18798","0.0-6.0-0.0","909","false","img/card_backs/set1/green.gif","img/card_backs/set1/purple.gif","img/card_backs/set1/yellow.gif","img/card_backs/set1/red.gif","img/card_backs/set2/blue.gif","img/card_backs/set2/pink.gif","img/card_backs/set2/gray.gif","img/card_backs/set2/orange.gif","""event"",""trial"",""time""
""fullscreenenter"",""1"",""3615""
","
","
","""event"",""trial"",""time""
""fullscreenenter"",""1"",""3615""
","
","","3585.4000000001397","Welcome to the casino!","71","","instructions","2021-06-23 19:11:56.294","","","","","",""
"casino-keyboard-response","7","28589","0.0-6.0-0.1","909","false","img/card_backs/set1/green.gif","img/card_backs/set1/purple.gif","img/card_backs/set1/yellow.gif","img/card_backs/set1/red.gif","img/card_backs/set2/blue.gif","img/card_backs/set2/pink.gif","img/card_backs/set2/gray.gif","img/card_backs/set2/orange.gif","""event"",""trial"",""time""
""fullscreenenter"",""1"",""3615""
","
","
","""event"",""trial"",""time""
""fullscreenenter"",""1"",""3615""
","
","","9790.199999999953","Today you will be playing a game to earn tokens. </br> At the end of the experiment, you will be paid a bonus based on how many tokens you win. ","69","","instructions","2021-06-23 19:12:06.085","","","","","",""
"casino-keyboard-response","8","36123","0.0-6.0-0.2","909","false","img/card_backs/set1/green.gif","img/card_backs/set1/purple.gif","img/card_backs/set1/yellow.gif","img/card_backs/set1/red.gif","img/card_backs/set2/blue.gif","img/card_backs/set2/pink.gif","img/card_backs/set2/gray.gif","img/card_backs/set2/orange.gif","""event"",""trial"",""time""
""fullscreenenter"",""1"",""3615""
","
","
","""event"",""trial"",""time""
""fullscreenenter"",""1"",""3615""
","
","","7532.300000000047","On every turn, you will be shown four different decks of cards. </br> You need to select a card from one of the four decks.  ","75","","instructions","2021-06-23 19:12:13.619","","","","","",""
"casino-keyboard-response","9","42503","0.0-6.0-0.3","909","false","img/card_backs/set1/green.gif","img/card_backs/set1/purple.gif","img/card_backs/set1/yellow.gif","img/card_backs/set1/red.gif","img/card_backs/set2/blue.gif","img/card_backs/set2/pink.gif","img/card_backs/set2/gray.gif","img/card_backs/set2/orange.gif","""event"",""trial"",""time""
""fullscreenenter"",""1"",""3615""
","
","
","""event"",""trial"",""time""
""fullscreenenter"",""1"",""3615""
","
","","6378.800000000047","On the next screen, you will see what the decks will look like. ","66","","instructions","2021-06-23 19:12:19.999","","","","","",""
"card-selection-trial","10","46508","0.0-7.0-0.0","909","false","img/card_backs/set1/green.gif","img/card_backs/set1/purple.gif","img/card_backs/set1/yellow.gif","img/card_backs/set1/red.gif","img/card_backs/set2/blue.gif","img/card_backs/set2/pink.gif","img/card_backs/set2/gray.gif","img/card_backs/set2/orange.gif","""event"",""trial"",""time""
""fullscreenenter"",""1"",""3615""
","
","
","""event"",""trial"",""time""
""fullscreenenter"",""1"",""3615""
","
","","null","","","","practice","2021-06-23 19:12:24.004","null","null","null","0","",""
"casino-keyboard-response","11","55271","0.0-8.0-0.0","909","false","img/card_backs/set1/green.gif","img/card_backs/set1/purple.gif","img/card_backs/set1/yellow.gif","img/card_backs/set1/red.gif","img/card_backs/set2/blue.gif","img/card_backs/set2/pink.gif","img/card_backs/set2/gray.gif","img/card_backs/set2/orange.gif","""event"",""trial"",""time""
""fullscreenenter"",""1"",""3615""
","
","
","""event"",""trial"",""time""
""fullscreenenter"",""1"",""3615""
","
","","8761.300000000047","You should pick a card from a deck using the '2', '4', '6', and '8' keys at the top of the keyboard.","85","","instructions","2021-06-23 19:12:32.767","","","","","",""
"casino-keyboard-response","12","60494","0.0-8.0-0.1","909","false","img/card_backs/set1/green.gif","img/card_backs/set1/purple.gif","img/card_backs/set1/yellow.gif","img/card_backs/set1/red.gif","img/card_backs/set2/blue.gif","img/card_backs/set2/pink.gif","img/card_backs/set2/gray.gif","img/card_backs/set2/orange.gif","""event"",""trial"",""time""
""fullscreenenter"",""1"",""3615""
","
","
","""event"",""trial"",""time""
""fullscreenenter"",""1"",""3615""
","
","","5222.200000000186","Once you select a card, it will turn over and you will see how many tokens you earned.","83","","instructions","2021-06-23 19:12:37.990","","","","","",""
"casino-keyboard-response","13","75467","0.0-8.0-0.2","909","false","img/card_backs/set1/green.gif","img/card_backs/set1/purple.gif","img/card_backs/set1/yellow.gif","img/card_backs/set1/red.gif","img/card_backs/set2/blue.gif","img/card_backs/set2/pink.gif","img/card_backs/set2/gray.gif","img/card_backs/set2/orange.gif","""event"",""trial"",""time""
""fullscreenenter"",""1"",""3615""
","
","
","""event"",""trial"",""time""
""fullscreenenter"",""1"",""3615""
","
","","14971.5","Let's try practicing that! </br> First, try to put your fingers over the '2', '4', '6', and '8' keys. </br>  You can use whatever fingers are most comfortable for you. Try to find a comfortable position now. ","50","","instructions","2021-06-23 19:12:52.963","","","","","",""
"casino-keyboard-response","14","81998","0.0-8.0-0.3","909","false","img/card_backs/set1/green.gif","img/card_backs/set1/purple.gif","img/card_backs/set1/yellow.gif","img/card_backs/set1/red.gif","img/card_backs/set2/blue.gif","img/card_backs/set2/pink.gif","img/card_backs/set2/gray.gif","img/card_backs/set2/orange.gif","""event"",""trial"",""time""
""fullscreenenter"",""1"",""3615""
","
","
","""event"",""trial"",""time""
""fullscreenenter"",""1"",""3615""
","
","","6529.40000000014","Okay ready? </br> On the next screen, press '2' to select the left deck. ","50","","instructions","2021-06-23 19:12:59.494","","","","","",""
"card-selection-trial","15","86312","0.0-9.0-0.0","909","false","img/card_backs/set1/green.gif","img/card_backs/set1/purple.gif","img/card_backs/set1/yellow.gif","img/card_backs/set1/red.gif","img/card_backs/set2/blue.gif","img/card_backs/set2/pink.gif","img/card_backs/set2/gray.gif","img/card_backs/set2/orange.gif","""event"",""trial"",""time""
""fullscreenenter"",""1"",""3615""
","
","
","""event"",""trial"",""time""
""fullscreenenter"",""1"",""3615""
","
","","2303","","","","practice_card_selection","2021-06-23 19:13:03.809","img/practice_cards/backs/brown.gif","0","100","","",""
"casino-keyboard-response","16","92893","0.0-10.0-0.0","909","false","img/card_backs/set1/green.gif","img/card_backs/set1/purple.gif","img/card_backs/set1/yellow.gif","img/card_backs/set1/red.gif","img/card_backs/set2/blue.gif","img/card_backs/set2/pink.gif","img/card_backs/set2/gray.gif","img/card_backs/set2/orange.gif","""event"",""trial"",""time""
""fullscreenenter"",""1"",""3615""
","
","
","""event"",""trial"",""time""
""fullscreenenter"",""1"",""3615""
","
","","6579.399999999907","Great! Now on the next screen, try pressing '6' to select the third deck.","54","","instructions","2021-06-23 19:13:10.389","","","","","",""
"card-selection-trial","17","96722","0.0-11.0-0.0","909","false","img/card_backs/set1/green.gif","img/card_backs/set1/purple.gif","img/card_backs/set1/yellow.gif","img/card_backs/set1/red.gif","img/card_backs/set2/blue.gif","img/card_backs/set2/pink.gif","img/card_backs/set2/gray.gif","img/card_backs/set2/orange.gif","""event"",""trial"",""time""
""fullscreenenter"",""1"",""3615""
","
","
","""event"",""trial"",""time""
""fullscreenenter"",""1"",""3615""
","
","","1819.6999999999534","","","","practice_card_selection","2021-06-23 19:13:14.218","img/practice_cards/backs/brown.gif","2","100","","",""
"casino-keyboard-response","18","102216","0.0-12.0-0.0","909","false","img/card_backs/set1/green.gif","img/card_backs/set1/purple.gif","img/card_backs/set1/yellow.gif","img/card_backs/set1/red.gif","img/card_backs/set2/blue.gif","img/card_backs/set2/pink.gif","img/card_backs/set2/gray.gif","img/card_backs/set2/orange.gif","""event"",""trial"",""time""
""fullscreenenter"",""1"",""3615""
","
","
","""event"",""trial"",""time""
""fullscreenenter"",""1"",""3615""
","
","","5492.699999999953","Now on the next screen, try pressing '4' to select the second deck.","52","","instructions","2021-06-23 19:13:19.712","","","","","",""
"card-selection-trial","19","104969","0.0-13.0-0.0","909","false","img/card_backs/set1/green.gif","img/card_backs/set1/purple.gif","img/card_backs/set1/yellow.gif","img/card_backs/set1/red.gif","img/card_backs/set2/blue.gif","img/card_backs/set2/pink.gif","img/card_backs/set2/gray.gif","img/card_backs/set2/orange.gif","""event"",""trial"",""time""
""fullscreenenter"",""1"",""3615""
","
","
","""event"",""trial"",""time""
""fullscreenenter"",""1"",""3615""
","
","","748","","","","practice_card_selection","2021-06-23 19:13:22.465","img/practice_cards/backs/black.gif","1","-100","","",""
"casino-keyboard-response","20","110221","0.0-14.0-0.0","909","false","img/card_backs/set1/green.gif","img/card_backs/set1/purple.gif","img/card_backs/set1/yellow.gif","img/card_backs/set1/red.gif","img/card_backs/set2/blue.gif","img/card_backs/set2/pink.gif","img/card_backs/set2/gray.gif","img/card_backs/set2/orange.gif","""event"",""trial"",""time""
""fullscreenenter"",""1"",""3615""
","
","
","""event"",""trial"",""time""
""fullscreenenter"",""1"",""3615""
","
","","5251","Finally, try pressing '8' to select the deck all the way on the right.","56","","instructions","2021-06-23 19:13:27.717","","","","","",""
"card-selection-trial","21","112887","0.0-15.0-0.0","909","false","img/card_backs/set1/green.gif","img/card_backs/set1/purple.gif","img/card_backs/set1/yellow.gif","img/card_backs/set1/red.gif","img/card_backs/set2/blue.gif","img/card_backs/set2/pink.gif","img/card_backs/set2/gray.gif","img/card_backs/set2/orange.gif","""event"",""trial"",""time""
""fullscreenenter"",""1"",""3615""
","
","
","""event"",""trial"",""time""
""fullscreenenter"",""1"",""3615""
","
","","659.5","","","","practice_card_selection","2021-06-23 19:13:30.383","img/practice_cards/backs/dark_blue.gif","3","-200","","",""
"casino-keyboard-response","22","117109","0.0-16.0-0.0","909","false","img/card_backs/set1/green.gif","img/card_backs/set1/purple.gif","img/card_backs/set1/yellow.gif","img/card_backs/set1/red.gif","img/card_backs/set2/blue.gif","img/card_backs/set2/pink.gif","img/card_backs/set2/gray.gif","img/card_backs/set2/orange.gif","""event"",""trial"",""time""
""fullscreenenter"",""1"",""3615""
","
","
","""event"",""trial"",""time""
""fullscreenenter"",""1"",""3615""
","
","","4221.399999999907","Great! It seems like you are getting the hang of this.","80","","instructions","2021-06-23 19:13:34.605","","","","","",""
"casino-keyboard-response","23","125627","0.0-16.0-0.1","909","false","img/card_backs/set1/green.gif","img/card_backs/set1/purple.gif","img/card_backs/set1/yellow.gif","img/card_backs/set1/red.gif","img/card_backs/set2/blue.gif","img/card_backs/set2/pink.gif","img/card_backs/set2/gray.gif","img/card_backs/set2/orange.gif","""event"",""trial"",""time""
""fullscreenenter"",""1"",""3615""
","
","
","""event"",""trial"",""time""
""fullscreenenter"",""1"",""3615""
","
","","8516.699999999953","You may have noticed that some cards will cause you to <b> win </b> tokens while other cards will cause you to <b> lose </b>  tokens.","70","","instructions","2021-06-23 19:13:43.124","","","","","",""
"casino-keyboard-response","24","134444","0.0-16.0-0.2","909","false","img/card_backs/set1/green.gif","img/card_backs/set1/purple.gif","img/card_backs/set1/yellow.gif","img/card_backs/set1/red.gif","img/card_backs/set2/blue.gif","img/card_backs/set2/pink.gif","img/card_backs/set2/gray.gif","img/card_backs/set2/orange.gif","""event"",""trial"",""time""
""fullscreenenter"",""1"",""3615""
","
","
","""event"",""trial"",""time""
""fullscreenenter"",""1"",""3615""
","
","","8815.399999999907","Each deck has a mix of cards that will cause you to win and lose tokens. </br> However, the cards in each colored deck are different.","73","","instructions","2021-06-23 19:13:51.941","","","","","",""
"casino-keyboard-response","25","143644","0.0-16.0-0.3","909","false","img/card_backs/set1/green.gif","img/card_backs/set1/purple.gif","img/card_backs/set1/yellow.gif","img/card_backs/set1/red.gif","img/card_backs/set2/blue.gif","img/card_backs/set2/pink.gif","img/card_backs/set2/gray.gif","img/card_backs/set2/orange.gif","""event"",""trial"",""time""
""fullscreenenter"",""1"",""3615""
","
","
","""event"",""trial"",""time""
""fullscreenenter"",""1"",""3615""
","
","","9198.199999999953","Some colored decks are luckier than others. </br> If you choose the lucky decks, you will earn more tokens than if you choose the unlucky decks.","69","","instructions","2021-06-23 19:14:01.140","","","","","",""
"casino-keyboard-response","26","151562","0.0-16.0-0.4","909","false","img/card_backs/set1/green.gif","img/card_backs/set1/purple.gif","img/card_backs/set1/yellow.gif","img/card_backs/set1/red.gif","img/card_backs/set2/blue.gif","img/card_backs/set2/pink.gif","img/card_backs/set2/gray.gif","img/card_backs/set2/orange.gif","""event"",""trial"",""time""
""fullscreenenter"",""1"",""3615""
","
","
","""event"",""trial"",""time""
""fullscreenenter"",""1"",""3615""
","
","","7916.5","You should try to figure out which decks are lucky. </br> Then, try to choose the lucky decks so you can win the most tokens.","87","","instructions","2021-06-23 19:14:09.058","","","","","",""
"casino-keyboard-response","27","163220","0.0-16.0-0.5","909","false","img/card_backs/set1/green.gif","img/card_backs/set1/purple.gif","img/card_backs/set1/yellow.gif","img/card_backs/set1/red.gif","img/card_backs/set2/blue.gif","img/card_backs/set2/pink.gif","img/card_backs/set2/gray.gif","img/card_backs/set2/orange.gif","""event"",""trial"",""time""
""fullscreenenter"",""1"",""3615""
","
","
","""event"",""trial"",""time""
""fullscreenenter"",""1"",""3615""
","
","","11657.100000000093","To make it trickier, the casino dealer will switch the locations of the decks on every turn. </br> The color of the deck determines how lucky it is. The location does not matter.","88","","instructions","2021-06-23 19:14:20.716","","","","","",""
"casino-keyboard-response","28","172740","0.0-16.0-0.6","909","false","img/card_backs/set1/green.gif","img/card_backs/set1/purple.gif","img/card_backs/set1/yellow.gif","img/card_backs/set1/red.gif","img/card_backs/set2/blue.gif","img/card_backs/set2/pink.gif","img/card_backs/set2/gray.gif","img/card_backs/set2/orange.gif","""event"",""trial"",""time""
""fullscreenenter"",""1"",""3615""
","
","
","""event"",""trial"",""time""
""fullscreenenter"",""1"",""3615""
","
","","9517.800000000047","The mix of cards in each colored deck will stay the same throughout the game. </br> That means that a deck that is lucky early on will stay lucky.","79","","instructions","2021-06-23 19:14:30.236","","","","","",""
"casino-keyboard-response","29","181428","0.0-16.0-0.7","909","false","img/card_backs/set1/green.gif","img/card_backs/set1/purple.gif","img/card_backs/set1/yellow.gif","img/card_backs/set1/red.gif","img/card_backs/set2/blue.gif","img/card_backs/set2/pink.gif","img/card_backs/set2/gray.gif","img/card_backs/set2/orange.gif","""event"",""trial"",""time""
""fullscreenenter"",""1"",""3615""
","
","
","""event"",""trial"",""time""
""fullscreenenter"",""1"",""3615""
","
","","8686.800000000047","Remember though, all the decks have a <b> mix </b> of both <b> good </b> and <b> bad </b> cards so it may take a couple of turns to figure out if a deck is lucky.","69","","instructions","2021-06-23 19:14:38.924","","","","","",""
"casino-keyboard-response","30","189755","0.0-16.0-0.8","909","false","img/card_backs/set1/green.gif","img/card_backs/set1/purple.gif","img/card_backs/set1/yellow.gif","img/card_backs/set1/red.gif","img/card_backs/set2/blue.gif","img/card_backs/set2/pink.gif","img/card_backs/set2/gray.gif","img/card_backs/set2/orange.gif","""event"",""trial"",""time""
""fullscreenenter"",""1"",""3615""
","
","
","""event"",""trial"",""time""
""fullscreenenter"",""1"",""3615""
","
","","8325.90000000014","At the end of the game, you will be paid bonus money based on how many tokens you win. </br> If you win more tokens, you will earn more money!","72","","instructions","2021-06-23 19:14:47.251","","","","","",""
"casino-keyboard-response","31","202219","0.0-16.0-0.9","909","false","img/card_backs/set1/green.gif","img/card_backs/set1/purple.gif","img/card_backs/set1/yellow.gif","img/card_backs/set1/red.gif","img/card_backs/set2/blue.gif","img/card_backs/set2/pink.gif","img/card_backs/set2/gray.gif","img/card_backs/set2/orange.gif","""event"",""trial"",""time""
""fullscreenenter"",""1"",""3615""
","
","
","""event"",""trial"",""time""
""fullscreenenter"",""1"",""3615""
","
","","12462.40000000014","You will never <b> lose </b> money. </br> If you end up with fewer than 0 tokens, you will earn $0 of bonus money, but you will still be paid for playing the game.","83","","instructions","2021-06-23 19:14:59.715","","","","","",""
"casino-keyboard-response","32","206546","0.0-16.0-0.10","909","false","img/card_backs/set1/green.gif","img/card_backs/set1/purple.gif","img/card_backs/set1/yellow.gif","img/card_backs/set1/red.gif","img/card_backs/set2/blue.gif","img/card_backs/set2/pink.gif","img/card_backs/set2/gray.gif","img/card_backs/set2/orange.gif","""event"",""trial"",""time""
""fullscreenenter"",""1"",""3615""
","
","
","""event"",""trial"",""time""
""fullscreenenter"",""1"",""3615""
","
","","4325.300000000047","You will have 10 seconds to make each choice.","82","","instructions","2021-06-23 19:15:04.042","","","","","",""
"casino-keyboard-response","33","215019","0.0-16.0-0.11","909","false","img/card_backs/set1/green.gif","img/card_backs/set1/purple.gif","img/card_backs/set1/yellow.gif","img/card_backs/set1/red.gif","img/card_backs/set2/blue.gif","img/card_backs/set2/pink.gif","img/card_backs/set2/gray.gif","img/card_backs/set2/orange.gif","""event"",""trial"",""time""
""fullscreenenter"",""1"",""3615""
","
","
","""event"",""trial"",""time""
""fullscreenenter"",""1"",""3615""
","
","","8469.699999999953","Before you play the game for real, you will play with practice decks. </br> The tokens you earn during practice won't count toward your total.","86","","instructions","2021-06-23 19:15:12.515","","","","","",""
"casino-keyboard-response","34","226714","0.0-16.0-0.12","909","false","img/card_backs/set1/green.gif","img/card_backs/set1/purple.gif","img/card_backs/set1/yellow.gif","img/card_backs/set1/red.gif","img/card_backs/set2/blue.gif","img/card_backs/set2/pink.gif","img/card_backs/set2/gray.gif","img/card_backs/set2/orange.gif","""event"",""trial"",""time""
""fullscreenenter"",""1"",""3615""
","
","
","""event"",""trial"",""time""
""fullscreenenter"",""1"",""3615""
","
","","11693.700000000186","Ready? Remember, use the '2', '4', '6', and '8' keys to select the decks. </br> Put your fingers on those keys now and then press '2' to begin.","50","","instructions","2021-06-23 19:15:24.210","","","","","",""
"casino-fixation","35","227218","0.0-17.0-0.0","909","false","img/card_backs/set1/green.gif","img/card_backs/set1/purple.gif","img/card_backs/set1/yellow.gif","img/card_backs/set1/red.gif","img/card_backs/set2/blue.gif","img/card_backs/set2/pink.gif","img/card_backs/set2/gray.gif","img/card_backs/set2/orange.gif","""event"",""trial"",""time""
""fullscreenenter"",""1"",""3615""
","
","
","""event"",""trial"",""time""
""fullscreenenter"",""1"",""3615""
","
","","null","","null","","fixation","2021-06-23 19:15:24.715","","","","","",""
"card-selection-trial","36","230951","0.0-17.0-1.0","909","false","img/card_backs/set1/green.gif","img/card_backs/set1/purple.gif","img/card_backs/set1/yellow.gif","img/card_backs/set1/red.gif","img/card_backs/set2/blue.gif","img/card_backs/set2/pink.gif","img/card_backs/set2/gray.gif","img/card_backs/set2/orange.gif","""event"",""trial"",""time""
""fullscreenenter"",""1"",""3615""
","
","
","""event"",""trial"",""time""
""fullscreenenter"",""1"",""3615""
","
","","1722.3000000002794","","","","practice","2021-06-23 19:15:28.447","img/practice_cards/backs/black.gif","1","100","0","",""
"casino-fixation","37","231456","0.0-17.0-0.1","909","false","img/card_backs/set1/green.gif","img/card_backs/set1/purple.gif","img/card_backs/set1/yellow.gif","img/card_backs/set1/red.gif","img/card_backs/set2/blue.gif","img/card_backs/set2/pink.gif","img/card_backs/set2/gray.gif","img/card_backs/set2/orange.gif","""event"",""trial"",""time""
""fullscreenenter"",""1"",""3615""
","
","
","""event"",""trial"",""time""
""fullscreenenter"",""1"",""3615""
","
","","null","","null","","fixation","2021-06-23 19:15:28.952","","","","","",""
"card-selection-trial","38","237899","0.0-17.0-1.1","909","false","img/card_backs/set1/green.gif","img/card_backs/set1/purple.gif","img/card_backs/set1/yellow.gif","img/card_backs/set1/red.gif","img/card_backs/set2/blue.gif","img/card_backs/set2/pink.gif","img/card_backs/set2/gray.gif","img/card_backs/set2/orange.gif","""event"",""trial"",""time""
""fullscreenenter"",""1"",""3615""
","
","
","""event"",""trial"",""time""
""fullscreenenter"",""1"",""3615""
","
","","4437.200000000186","","","","practice","2021-06-23 19:15:35.395","img/practice_cards/backs/dark_blue.gif","3","-200","0","",""
"casino-fixation","39","238404","0.0-17.0-0.2","909","false","img/card_backs/set1/green.gif","img/card_backs/set1/purple.gif","img/card_backs/set1/yellow.gif","img/card_backs/set1/red.gif","img/card_backs/set2/blue.gif","img/card_backs/set2/pink.gif","img/card_backs/set2/gray.gif","img/card_backs/set2/orange.gif","""event"",""trial"",""time""
""fullscreenenter"",""1"",""3615""
","
","
","""event"",""trial"",""time""
""fullscreenenter"",""1"",""3615""
","
","","null","","null","","fixation","2021-06-23 19:15:35.900","","","","","",""
"card-selection-trial","40","242038","0.0-17.0-1.2","909","false","img/card_backs/set1/green.gif","img/card_backs/set1/purple.gif","img/card_backs/set1/yellow.gif","img/card_backs/set1/red.gif","img/card_backs/set2/blue.gif","img/card_backs/set2/pink.gif","img/card_backs/set2/gray.gif","img/card_backs/set2/orange.gif","""event"",""trial"",""time""
""fullscreenenter"",""1"",""3615""
","
","
","""event"",""trial"",""time""
""fullscreenenter"",""1"",""3615""
","
","","1625","","","","practice","2021-06-23 19:15:39.534","img/practice_cards/backs/dark_blue.gif","1","200","0","",""
"casino-fixation","41","242543","0.0-17.0-0.3","909","false","img/card_backs/set1/green.gif","img/card_backs/set1/purple.gif","img/card_backs/set1/yellow.gif","img/card_backs/set1/red.gif","img/card_backs/set2/blue.gif","img/card_backs/set2/pink.gif","img/card_backs/set2/gray.gif","img/card_backs/set2/orange.gif","""event"",""trial"",""time""
""fullscreenenter"",""1"",""3615""
","
","
","""event"",""trial"",""time""
""fullscreenenter"",""1"",""3615""
","
","","null","","null","","fixation","2021-06-23 19:15:40.039","","","","","",""
"card-selection-trial","42","245956","0.0-17.0-1.3","909","false","img/card_backs/set1/green.gif","img/card_backs/set1/purple.gif","img/card_backs/set1/yellow.gif","img/card_backs/set1/red.gif","img/card_backs/set2/blue.gif","img/card_backs/set2/pink.gif","img/card_backs/set2/gray.gif","img/card_backs/set2/orange.gif","""event"",""trial"",""time""
""fullscreenenter"",""1"",""3615""
","
","
","""event"",""trial"",""time""
""fullscreenenter"",""1"",""3615""
","
","","1406","","","","practice","2021-06-23 19:15:43.453","img/practice_cards/backs/dark_blue.gif","3","-200","0","",""
"casino-fixation","43","246461","0.0-17.0-0.4","909","false","img/card_backs/set1/green.gif","img/card_backs/set1/purple.gif","img/card_backs/set1/yellow.gif","img/card_backs/set1/red.gif","img/card_backs/set2/blue.gif","img/card_backs/set2/pink.gif","img/card_backs/set2/gray.gif","img/card_backs/set2/orange.gif","""event"",""trial"",""time""
""fullscreenenter"",""1"",""3615""
","
","
","""event"",""trial"",""time""
""fullscreenenter"",""1"",""3615""
","
","","null","","null","","fixation","2021-06-23 19:15:43.957","","","","","",""
"card-selection-trial","44","250710","0.0-17.0-1.4","909","false","img/card_backs/set1/green.gif","img/card_backs/set1/purple.gif","img/card_backs/set1/yellow.gif","img/card_backs/set1/red.gif","img/card_backs/set2/blue.gif","img/card_backs/set2/pink.gif","img/card_backs/set2/gray.gif","img/card_backs/set2/orange.gif","""event"",""trial"",""time""
""fullscreenenter"",""1"",""3615""
","
","
","""event"",""trial"",""time""
""fullscreenenter"",""1"",""3615""
","
","","2239","","","","practice","2021-06-23 19:15:48.206","img/practice_cards/backs/black.gif","2","100","0","",""
"casino-fixation","45","251215","0.0-17.0-0.5","909","false","img/card_backs/set1/green.gif","img/card_backs/set1/purple.gif","img/card_backs/set1/yellow.gif","img/card_backs/set1/red.gif","img/card_backs/set2/blue.gif","img/card_backs/set2/pink.gif","img/card_backs/set2/gray.gif","img/card_backs/set2/orange.gif","""event"",""trial"",""time""
""fullscreenenter"",""1"",""3615""
","
","
","""event"",""trial"",""time""
""fullscreenenter"",""1"",""3615""
","
","","null","","null","","fixation","2021-06-23 19:15:48.712","","","","","",""
"card-selection-trial","46","256092","0.0-17.0-1.5","909","false","img/card_backs/set1/green.gif","img/card_backs/set1/purple.gif","img/card_backs/set1/yellow.gif","img/card_backs/set1/red.gif","img/card_backs/set2/blue.gif","img/card_backs/set2/pink.gif","img/card_backs/set2/gray.gif","img/card_backs/set2/orange.gif","""event"",""trial"",""time""
""fullscreenenter"",""1"",""3615""
","
","
","""event"",""trial"",""time""
""fullscreenenter"",""1"",""3615""
","
","","2869.5999999996275","","","","practice","2021-06-23 19:15:53.588","img/practice_cards/backs/dark_blue.gif","0","200","0","",""
"casino-fixation","47","256598","0.0-17.0-0.6","909","false","img/card_backs/set1/green.gif","img/card_backs/set1/purple.gif","img/card_backs/set1/yellow.gif","img/card_backs/set1/red.gif","img/card_backs/set2/blue.gif","img/card_backs/set2/pink.gif","img/card_backs/set2/gray.gif","img/card_backs/set2/orange.gif","""event"",""trial"",""time""
""fullscreenenter"",""1"",""3615""
","
","
","""event"",""trial"",""time""
""fullscreenenter"",""1"",""3615""
","
","","null","","null","","fixation","2021-06-23 19:15:54.094","","","","","",""
"card-selection-trial","48","259389","0.0-17.0-1.6","909","false","img/card_backs/set1/green.gif","img/card_backs/set1/purple.gif","img/card_backs/set1/yellow.gif","img/card_backs/set1/red.gif","img/card_backs/set2/blue.gif","img/card_backs/set2/pink.gif","img/card_backs/set2/gray.gif","img/card_backs/set2/orange.gif","""event"",""trial"",""time""
""fullscreenenter"",""1"",""3615""
","
","
","""event"",""trial"",""time""
""fullscreenenter"",""1"",""3615""
","
","","782.6999999997206","","","","practice","2021-06-23 19:15:56.885","img/practice_cards/backs/dark_blue.gif","0","-200","0","",""
"casino-fixation","49","259895","0.0-17.0-0.7","909","false","img/card_backs/set1/green.gif","img/card_backs/set1/purple.gif","img/card_backs/set1/yellow.gif","img/card_backs/set1/red.gif","img/card_backs/set2/blue.gif","img/card_backs/set2/pink.gif","img/card_backs/set2/gray.gif","img/card_backs/set2/orange.gif","""event"",""trial"",""time""
""fullscreenenter"",""1"",""3615""
","
","
","""event"",""trial"",""time""
""fullscreenenter"",""1"",""3615""
","
","","null","","null","","fixation","2021-06-23 19:15:57.391","","","","","",""
"card-selection-trial","50","263813","0.0-17.0-1.7","909","false","img/card_backs/set1/green.gif","img/card_backs/set1/purple.gif","img/card_backs/set1/yellow.gif","img/card_backs/set1/red.gif","img/card_backs/set2/blue.gif","img/card_backs/set2/pink.gif","img/card_backs/set2/gray.gif","img/card_backs/set2/orange.gif","""event"",""trial"",""time""
""fullscreenenter"",""1"",""3615""
","
","
","""event"",""trial"",""time""
""fullscreenenter"",""1"",""3615""
","
","","1909.1999999997206","","","","practice","2021-06-23 19:16:01.309","img/practice_cards/backs/dark_blue.gif","1","-200","0","",""
"casino-fixation","51","264318","0.0-17.0-0.8","909","false","img/card_backs/set1/green.gif","img/card_backs/set1/purple.gif","img/card_backs/set1/yellow.gif","img/card_backs/set1/red.gif","img/card_backs/set2/blue.gif","img/card_backs/set2/pink.gif","img/card_backs/set2/gray.gif","img/card_backs/set2/orange.gif","""event"",""trial"",""time""
""fullscreenenter"",""1"",""3615""
","
","
","""event"",""trial"",""time""
""fullscreenenter"",""1"",""3615""
","
","","null","","null","","fixation","2021-06-23 19:16:01.814","","","","","",""
"card-selection-trial","52","267917","0.0-17.0-1.8","909","false","img/card_backs/set1/green.gif","img/card_backs/set1/purple.gif","img/card_backs/set1/yellow.gif","img/card_backs/set1/red.gif","img/card_backs/set2/blue.gif","img/card_backs/set2/pink.gif","img/card_backs/set2/gray.gif","img/card_backs/set2/orange.gif","""event"",""trial"",""time""
""fullscreenenter"",""1"",""3615""
","
","
","""event"",""trial"",""time""
""fullscreenenter"",""1"",""3615""
","
","","1589.7999999998137","","","","practice","2021-06-23 19:16:05.413","img/practice_cards/backs/brown.gif","2","-100","0","",""
"casino-fixation","53","268422","0.0-17.0-0.9","909","false","img/card_backs/set1/green.gif","img/card_backs/set1/purple.gif","img/card_backs/set1/yellow.gif","img/card_backs/set1/red.gif","img/card_backs/set2/blue.gif","img/card_backs/set2/pink.gif","img/card_backs/set2/gray.gif","img/card_backs/set2/orange.gif","""event"",""trial"",""time""
""fullscreenenter"",""1"",""3615""
","
","
","""event"",""trial"",""time""
""fullscreenenter"",""1"",""3615""
","
","","null","","null","","fixation","2021-06-23 19:16:05.918","","","","","",""
"card-selection-trial","54","273681","0.0-17.0-1.9","909","false","img/card_backs/set1/green.gif","img/card_backs/set1/purple.gif","img/card_backs/set1/yellow.gif","img/card_backs/set1/red.gif","img/card_backs/set2/blue.gif","img/card_backs/set2/pink.gif","img/card_backs/set2/gray.gif","img/card_backs/set2/orange.gif","""event"",""trial"",""time""
""fullscreenenter"",""1"",""3615""
","
","
","""event"",""trial"",""time""
""fullscreenenter"",""1"",""3615""
","
","","3254.1999999997206","","","","practice","2021-06-23 19:16:11.177","img/practice_cards/backs/brown.gif","3","-100","0","",""
"casino-keyboard-response","55","277383","0.0-18.0","909","false","img/card_backs/set1/green.gif","img/card_backs/set1/purple.gif","img/card_backs/set1/yellow.gif","img/card_backs/set1/red.gif","img/card_backs/set2/blue.gif","img/card_backs/set2/pink.gif","img/card_backs/set2/gray.gif","img/card_backs/set2/orange.gif","""event"",""trial"",""time""
""fullscreenenter"",""1"",""3615""
","
","
","""event"",""trial"",""time""
""fullscreenenter"",""1"",""3615""
","
","","3700.399999999907","You earned -400 tokens during the practice round!","82","","","2021-06-23 19:16:14.879","","","","","",""
"casino-keyboard-response","56","282648","0.0-19.0-0.0","909","false","img/card_backs/set1/green.gif","img/card_backs/set1/purple.gif","img/card_backs/set1/yellow.gif","img/card_backs/set1/red.gif","img/card_backs/set2/blue.gif","img/card_backs/set2/pink.gif","img/card_backs/set2/gray.gif","img/card_backs/set2/orange.gif","""event"",""trial"",""time""
""fullscreenenter"",""1"",""3615""
","
","
","""event"",""trial"",""time""
""fullscreenenter"",""1"",""3615""
","
","","5263.4000000003725","Nice job! You are almost ready to play the real game.","86","","instructions","2021-06-23 19:16:20.144","","","","","",""
"casino-keyboard-response","57","289712","0.0-19.0-0.1","909","false","img/card_backs/set1/green.gif","img/card_backs/set1/purple.gif","img/card_backs/set1/yellow.gif","img/card_backs/set1/red.gif","img/card_backs/set2/blue.gif","img/card_backs/set2/pink.gif","img/card_backs/set2/gray.gif","img/card_backs/set2/orange.gif","""event"",""trial"",""time""
""fullscreenenter"",""1"",""3615""
","
","
","""event"",""trial"",""time""
""fullscreenenter"",""1"",""3615""
","
","","7063.199999999721","You will play two rounds of the real game. In each round, you will pick 100 cards in total.","73","","instructions","2021-06-23 19:16:27.209","","","","","",""
"casino-keyboard-response","58","293982","0.0-19.0-0.2","909","false","img/card_backs/set1/green.gif","img/card_backs/set1/purple.gif","img/card_backs/set1/yellow.gif","img/card_backs/set1/red.gif","img/card_backs/set2/blue.gif","img/card_backs/set2/pink.gif","img/card_backs/set2/gray.gif","img/card_backs/set2/orange.gif","""event"",""trial"",""time""
""fullscreenenter"",""1"",""3615""
","
","
","""event"",""trial"",""time""
""fullscreenenter"",""1"",""3615""
","
","","4267.799999999814","We are now going to ask you some questions about how the game works.","66","","instructions","2021-06-23 19:16:31.478","","","","","",""
"casino-keyboard-response","59","300868","0.0-19.0-0.3","909","false","img/card_backs/set1/green.gif","img/card_backs/set1/purple.gif","img/card_backs/set1/yellow.gif","img/card_backs/set1/red.gif","img/card_backs/set2/blue.gif","img/card_backs/set2/pink.gif","img/card_backs/set2/gray.gif","img/card_backs/set2/orange.gif","""event"",""trial"",""time""
""fullscreenenter"",""1"",""3615""
","
","
","""event"",""trial"",""time""
""fullscreenenter"",""1"",""3615""
","
","","6885.100000000093","Answer carefully. You will not be able to begin the game until you answer them correctly.","67","","instructions","2021-06-23 19:16:38.364","","","","","",""
"casino-comp_q","60","307621","0.0-20.0-0.0","909","false","img/card_backs/set1/green.gif","img/card_backs/set1/purple.gif","img/card_backs/set1/yellow.gif","img/card_backs/set1/red.gif","img/card_backs/set2/blue.gif","img/card_backs/set2/pink.gif","img/card_backs/set2/gray.gif","img/card_backs/set2/orange.gif","""event"",""trial"",""time""
""fullscreenenter"",""1"",""3615""
","
","
","""event"",""trial"",""time""
""fullscreenenter"",""1"",""3615""
","
","","6750.700000000186","True or False: All the decks have some cards that cause you to win tokens and some cards that cause you to lose tokens.","84","","","2021-06-23 19:16:45.117","","","","","",""
"casino-keyboard-response","61","312779","0.0-20.0-1.0","909","false","img/card_backs/set1/green.gif","img/card_backs/set1/purple.gif","img/card_backs/set1/yellow.gif","img/card_backs/set1/red.gif","img/card_backs/set2/blue.gif","img/card_backs/set2/pink.gif","img/card_backs/set2/gray.gif","img/card_backs/set2/orange.gif","""event"",""trial"",""time""
""fullscreenenter"",""1"",""3615""
","
","
","""event"",""trial"",""time""
""fullscreenenter"",""1"",""3615""
","
","","5156.200000000186","True is correct! All the decks have a mix of winning and losing cards.","77","","","2021-06-23 19:16:50.275","","","","","true",""
"casino-comp_q","62","317436","0.0-21.0-0.0","909","false","img/card_backs/set1/green.gif","img/card_backs/set1/purple.gif","img/card_backs/set1/yellow.gif","img/card_backs/set1/red.gif","img/card_backs/set2/blue.gif","img/card_backs/set2/pink.gif","img/card_backs/set2/gray.gif","img/card_backs/set2/orange.gif","""event"",""trial"",""time""
""fullscreenenter"",""1"",""3615""
","
","
","""event"",""trial"",""time""
""fullscreenenter"",""1"",""3615""
","
","","4655.5","True or False: You will have as much time as you want to make your response.","70","","","2021-06-23 19:16:54.933","","","","","",""
"casino-keyboard-response","63","322196","0.0-21.0-1.0","909","false","img/card_backs/set1/green.gif","img/card_backs/set1/purple.gif","img/card_backs/set1/yellow.gif","img/card_backs/set1/red.gif","img/card_backs/set2/blue.gif","img/card_backs/set2/pink.gif","img/card_backs/set2/gray.gif","img/card_backs/set2/orange.gif","""event"",""trial"",""time""
""fullscreenenter"",""1"",""3615""
","
","
","""event"",""trial"",""time""
""fullscreenenter"",""1"",""3615""
","
","","4756.399999999907","False is correct! You will only have 10 seconds to make each choice.","75","","","2021-06-23 19:16:59.692","","","","","true",""
"casino-comp_q","64","326619","0.0-22.0-0.0","909","false","img/card_backs/set1/green.gif","img/card_backs/set1/purple.gif","img/card_backs/set1/yellow.gif","img/card_backs/set1/red.gif","img/card_backs/set2/blue.gif","img/card_backs/set2/pink.gif","img/card_backs/set2/gray.gif","img/card_backs/set2/orange.gif","""event"",""trial"",""time""
""fullscreenenter"",""1"",""3615""
","
","
","""event"",""trial"",""time""
""fullscreenenter"",""1"",""3615""
","
","","4421","True or False: The location of the deck determines how lucky it is.","70","","","2021-06-23 19:17:04.115","","","","","",""
"casino-keyboard-response","65","334665","0.0-22.0-1.0","909","false","img/card_backs/set1/green.gif","img/card_backs/set1/purple.gif","img/card_backs/set1/yellow.gif","img/card_backs/set1/red.gif","img/card_backs/set2/blue.gif","img/card_backs/set2/pink.gif","img/card_backs/set2/gray.gif","img/card_backs/set2/orange.gif","""event"",""trial"",""time""
""fullscreenenter"",""1"",""3615""
","
","
","""event"",""trial"",""time""
""fullscreenenter"",""1"",""3615""
","
","","8045.5","False is correct! The <i>color</i>  of the deck determines how lucky or unlucky it is.","68","","","2021-06-23 19:17:12.162","","","","","true",""
"casino-keyboard-response","66","339034","0.0-23.0-0.0","909","false","img/card_backs/set1/green.gif","img/card_backs/set1/purple.gif","img/card_backs/set1/yellow.gif","img/card_backs/set1/red.gif","img/card_backs/set2/blue.gif","img/card_backs/set2/pink.gif","img/card_backs/set2/gray.gif","img/card_backs/set2/orange.gif","""event"",""trial"",""time""
""fullscreenenter"",""1"",""3615""
","
","
","""event"",""trial"",""time""
""fullscreenenter"",""1"",""3615""
","
","","4366.899999999907","Great job! Now it's time to start the real game.","82","","instructions","2021-06-23 19:17:16.530","","","","","",""
"casino-keyboard-response","67","344321","0.0-23.0-0.1","909","false","img/card_backs/set1/green.gif","img/card_backs/set1/purple.gif","img/card_backs/set1/yellow.gif","img/card_backs/set1/red.gif","img/card_backs/set2/blue.gif","img/card_backs/set2/pink.gif","img/card_backs/set2/gray.gif","img/card_backs/set2/orange.gif","""event"",""trial"",""time""
""fullscreenenter"",""1"",""3615""
","
","
","""event"",""trial"",""time""
""fullscreenenter"",""1"",""3615""
","
","","5285.600000000093","Before we start, we're going to head into a new room of the casino.","86","","instructions","2021-06-23 19:17:21.817","","","","","",""
"casino-keyboard-response","68","352026","0.0-24.0-0.0","909","false","img/card_backs/set1/green.gif","img/card_backs/set1/purple.gif","img/card_backs/set1/yellow.gif","img/card_backs/set1/red.gif","img/card_backs/set2/blue.gif","img/card_backs/set2/pink.gif","img/card_backs/set2/gray.gif","img/card_backs/set2/orange.gif","""event"",""trial"",""time""
""fullscreenenter"",""1"",""3615""
","
","
","""event"",""trial"",""time""
""fullscreenenter"",""1"",""3615""
","
","","7703.800000000279","Here we are! The real game will use different cards, but the rules will be the same.","71","","instructions","2021-06-23 19:17:29.522","","","","","",""
"casino-keyboard-response","69","361639","0.0-24.0-0.1","909","false","img/card_backs/set1/green.gif","img/card_backs/set1/purple.gif","img/card_backs/set1/yellow.gif","img/card_backs/set1/red.gif","img/card_backs/set2/blue.gif","img/card_backs/set2/pink.gif","img/card_backs/set2/gray.gif","img/card_backs/set2/orange.gif","""event"",""trial"",""time""
""fullscreenenter"",""1"",""3615""
","
","
","""event"",""trial"",""time""
""fullscreenenter"",""1"",""3615""
","
","","9612.299999999814","Ready? Put your fingers over the '2', '4', 6', and '8' keys so you are ready to play the game. </br> Then press 2 to start.","50","","instructions","2021-06-23 19:17:39.135","","","","","",""
"casino-fixation","70","362144","0.0-25.0-0.0","909","false","img/card_backs/set1/green.gif","img/card_backs/set1/purple.gif","img/card_backs/set1/yellow.gif","img/card_backs/set1/red.gif","img/card_backs/set2/blue.gif","img/card_backs/set2/pink.gif","img/card_backs/set2/gray.gif","img/card_backs/set2/orange.gif","""event"",""trial"",""time""
""fullscreenenter"",""1"",""3615""
","
","
","""event"",""trial"",""time""
""fullscreenenter"",""1"",""3615""
","
","","null","","null","","fixation","2021-06-23 19:17:39.640","","","","","",""
"card-selection-trial","71","365569","0.0-25.0-1.0","909","false","img/card_backs/set1/green.gif","img/card_backs/set1/purple.gif","img/card_backs/set1/yellow.gif","img/card_backs/set1/red.gif","img/card_backs/set2/blue.gif","img/card_backs/set2/pink.gif","img/card_backs/set2/gray.gif","img/card_backs/set2/orange.gif","""event"",""trial"",""time""
""fullscreenenter"",""1"",""3615""
","
","
","""event"",""trial"",""time""
""fullscreenenter"",""1"",""3615""
","
","","1419.6000000000931","","","","real_trial","2021-06-23 19:17:43.065","img/card_backs/set1/yellow.gif","1","-70","1","",""
"casino-fixation","72","366074","0.0-25.0-0.1","909","false","img/card_backs/set1/green.gif","img/card_backs/set1/purple.gif","img/card_backs/set1/yellow.gif","img/card_backs/set1/red.gif","img/card_backs/set2/blue.gif","img/card_backs/set2/pink.gif","img/card_backs/set2/gray.gif","img/card_backs/set2/orange.gif","""event"",""trial"",""time""
""fullscreenenter"",""1"",""3615""
","
","
","""event"",""trial"",""time""
""fullscreenenter"",""1"",""3615""
","
","","null","","null","","fixation","2021-06-23 19:17:43.570","","","","","",""
"card-selection-trial","73","369652","0.0-25.0-1.1","909","false","img/card_backs/set1/green.gif","img/card_backs/set1/purple.gif","img/card_backs/set1/yellow.gif","img/card_backs/set1/red.gif","img/card_backs/set2/blue.gif","img/card_backs/set2/pink.gif","img/card_backs/set2/gray.gif","img/card_backs/set2/orange.gif","""event"",""trial"",""time""
""fullscreenenter"",""1"",""3615""
","
","
","""event"",""trial"",""time""
""fullscreenenter"",""1"",""3615""
","
","","1573","","","","real_trial","2021-06-23 19:17:47.148","img/card_backs/set1/red.gif","2","100","1","",""
"casino-fixation","74","370154","0.0-25.0-0.2","909","false","img/card_backs/set1/green.gif","img/card_backs/set1/purple.gif","img/card_backs/set1/yellow.gif","img/card_backs/set1/red.gif","img/card_backs/set2/blue.gif","img/card_backs/set2/pink.gif","img/card_backs/set2/gray.gif","img/card_backs/set2/orange.gif","""event"",""trial"",""time""
""fullscreenenter"",""1"",""3615""
","
","
","""event"",""trial"",""time""
""fullscreenenter"",""1"",""3615""
","
","","null","","null","","fixation","2021-06-23 19:17:47.650","","","","","",""
"card-selection-trial","75","375772","0.0-25.0-1.2","909","false","img/card_backs/set1/green.gif","img/card_backs/set1/purple.gif","img/card_backs/set1/yellow.gif","img/card_backs/set1/red.gif","img/card_backs/set2/blue.gif","img/card_backs/set2/pink.gif","img/card_backs/set2/gray.gif","img/card_backs/set2/orange.gif","""event"",""trial"",""time""
""fullscreenenter"",""1"",""3615""
","
","
","""event"",""trial"",""time""
""fullscreenenter"",""1"",""3615""
","
","","3608.2999999998137","","","","real_trial","2021-06-23 19:17:53.268","img/card_backs/set1/yellow.gif","0","110","1","",""
"casino-fixation","76","376278","0.0-25.0-0.3","909","false","img/card_backs/set1/green.gif","img/card_backs/set1/purple.gif","img/card_backs/set1/yellow.gif","img/card_backs/set1/red.gif","img/card_backs/set2/blue.gif","img/card_backs/set2/pink.gif","img/card_backs/set2/gray.gif","img/card_backs/set2/orange.gif","""event"",""trial"",""time""
""fullscreenenter"",""1"",""3615""
","
","
","""event"",""trial"",""time""
""fullscreenenter"",""1"",""3615""
","
","","null","","null","","fixation","2021-06-23 19:17:53.775","","","","","",""
"card-selection-trial","77","380151","0.0-25.0-1.3","909","false","img/card_backs/set1/green.gif","img/card_backs/set1/purple.gif","img/card_backs/set1/yellow.gif","img/card_backs/set1/red.gif","img/card_backs/set2/blue.gif","img/card_backs/set2/pink.gif","img/card_backs/set2/gray.gif","img/card_backs/set2/orange.gif","""event"",""trial"",""time""
""fullscreenenter"",""1"",""3615""
","
","
","""event"",""trial"",""time""
""fullscreenenter"",""1"",""3615""
","
","","1862.9000000003725","","","","real_trial","2021-06-23 19:17:57.647","img/card_backs/set1/purple.gif","3","190","1","",""
"casino-fixation","78","380654","0.0-25.0-0.4","909","false","img/card_backs/set1/green.gif","img/card_backs/set1/purple.gif","img/card_backs/set1/yellow.gif","img/card_backs/set1/red.gif","img/card_backs/set2/blue.gif","img/card_backs/set2/pink.gif","img/card_backs/set2/gray.gif","img/card_backs/set2/orange.gif","""event"",""trial"",""time""
""fullscreenenter"",""1"",""3615""
","
","
","""event"",""trial"",""time""
""fullscreenenter"",""1"",""3615""
","
","","null","","null","","fixation","2021-06-23 19:17:58.150","","","","","",""
"card-selection-trial","79","384504","0.0-25.0-1.4","909","false","img/card_backs/set1/green.gif","img/card_backs/set1/purple.gif","img/card_backs/set1/yellow.gif","img/card_backs/set1/red.gif","img/card_backs/set2/blue.gif","img/card_backs/set2/pink.gif","img/card_backs/set2/gray.gif","img/card_backs/set2/orange.gif","""event"",""trial"",""time""
""fullscreenenter"",""1"",""3615""
","
","
","""event"",""trial"",""time""
""fullscreenenter"",""1"",""3615""
","
","","1846","","","","real_trial","2021-06-23 19:18:02.000","img/card_backs/set1/yellow.gif","2","-70","1","",""
"casino-fixation","80","385009","0.0-25.0-0.5","909","false","img/card_backs/set1/green.gif","img/card_backs/set1/purple.gif","img/card_backs/set1/yellow.gif","img/card_backs/set1/red.gif","img/card_backs/set2/blue.gif","img/card_backs/set2/pink.gif","img/card_backs/set2/gray.gif","img/card_backs/set2/orange.gif","""event"",""trial"",""time""
""fullscreenenter"",""1"",""3615""
","
","
","""event"",""trial"",""time""
""fullscreenenter"",""1"",""3615""
","
","","null","","null","","fixation","2021-06-23 19:18:02.505","","","","","",""
"card-selection-trial","81","393224","0.0-25.0-1.5","909","false","img/card_backs/set1/green.gif","img/card_backs/set1/purple.gif","img/card_backs/set1/yellow.gif","img/card_backs/set1/red.gif","img/card_backs/set2/blue.gif","img/card_backs/set2/pink.gif","img/card_backs/set2/gray.gif","img/card_backs/set2/orange.gif","""event"",""trial"",""time""
""fullscreenenter"",""1"",""3615""
","
","
","""event"",""trial"",""time""
""fullscreenenter"",""1"",""3615""
","
","","6208.899999999907","","","","real_trial","2021-06-23 19:18:10.720","img/card_backs/set1/red.gif","0","-50","1","",""
"casino-fixation","82","393729","0.0-25.0-0.6","909","false","img/card_backs/set1/green.gif","img/card_backs/set1/purple.gif","img/card_backs/set1/yellow.gif","img/card_backs/set1/red.gif","img/card_backs/set2/blue.gif","img/card_backs/set2/pink.gif","img/card_backs/set2/gray.gif","img/card_backs/set2/orange.gif","""event"",""trial"",""time""
""fullscreenenter"",""1"",""3615""
","
","
","""event"",""trial"",""time""
""fullscreenenter"",""1"",""3615""
","
","","null","","null","","fixation","2021-06-23 19:18:11.225","","","","","",""
"card-selection-trial","83","398977","0.0-25.0-1.6","909","false","img/card_backs/set1/green.gif","img/card_backs/set1/purple.gif","img/card_backs/set1/yellow.gif","img/card_backs/set1/red.gif","img/card_backs/set2/blue.gif","img/card_backs/set2/pink.gif","img/card_backs/set2/gray.gif","img/card_backs/set2/orange.gif","""event"",""trial"",""time""
""fullscreenenter"",""1"",""3615""
","
","
","""event"",""trial"",""time""
""fullscreenenter"",""1"",""3615""
","
","","3240.7999999998137","","","","real_trial","2021-06-23 19:18:16.473","img/card_backs/set1/green.gif","0","-230","1","",""
"casino-fixation","84","399481","0.0-25.0-0.7","909","false","img/card_backs/set1/green.gif","img/card_backs/set1/purple.gif","img/card_backs/set1/yellow.gif","img/card_backs/set1/red.gif","img/card_backs/set2/blue.gif","img/card_backs/set2/pink.gif","img/card_backs/set2/gray.gif","img/card_backs/set2/orange.gif","""event"",""trial"",""time""
""fullscreenenter"",""1"",""3615""
","
","
","""event"",""trial"",""time""
""fullscreenenter"",""1"",""3615""
","
","","null","","null","","fixation","2021-06-23 19:18:16.977","","","","","",""
"card-selection-trial","85","403818","0.0-25.0-1.7","909","false","img/card_backs/set1/green.gif","img/card_backs/set1/purple.gif","img/card_backs/set1/yellow.gif","img/card_backs/set1/red.gif","img/card_backs/set2/blue.gif","img/card_backs/set2/pink.gif","img/card_backs/set2/gray.gif","img/card_backs/set2/orange.gif","""event"",""trial"",""time""
""fullscreenenter"",""1"",""3615""
","
","
","""event"",""trial"",""time""
""fullscreenenter"",""1"",""3615""
","
","","2331.399999999907","","","","real_trial","2021-06-23 19:18:21.314","img/card_backs/set1/yellow.gif","1","120","1","",""
"casino-fixation","86","404322","0.0-25.0-0.8","909","false","img/card_backs/set1/green.gif","img/card_backs/set1/purple.gif","img/card_backs/set1/yellow.gif","img/card_backs/set1/red.gif","img/card_backs/set2/blue.gif","img/card_backs/set2/pink.gif","img/card_backs/set2/gray.gif","img/card_backs/set2/orange.gif","""event"",""trial"",""time""
""fullscreenenter"",""1"",""3615""
","
","
","""event"",""trial"",""time""
""fullscreenenter"",""1"",""3615""
","
","","null","","null","","fixation","2021-06-23 19:18:21.819","","","","","",""
"card-selection-trial","87","409384","0.0-25.0-1.8","909","false","img/card_backs/set1/green.gif","img/card_backs/set1/purple.gif","img/card_backs/set1/yellow.gif","img/card_backs/set1/red.gif","img/card_backs/set2/blue.gif","img/card_backs/set2/pink.gif","img/card_backs/set2/gray.gif","img/card_backs/set2/orange.gif","""event"",""trial"",""time""
""fullscreenenter"",""1"",""3615""
","
","
","""event"",""trial"",""time""
""fullscreenenter"",""1"",""3615""
","
","","3052.4000000003725","","","","real_trial","2021-06-23 19:18:26.881","img/card_backs/set1/purple.gif","3","-240","1","",""
"casino-fixation","88","409889","0.0-25.0-0.9","909","false","img/card_backs/set1/green.gif","img/card_backs/set1/purple.gif","img/card_backs/set1/yellow.gif","img/card_backs/set1/red.gif","img/card_backs/set2/blue.gif","img/card_backs/set2/pink.gif","img/card_backs/set2/gray.gif","img/card_backs/set2/orange.gif","""event"",""trial"",""time""
""fullscreenenter"",""1"",""3615""
","
","
","""event"",""trial"",""time""
""fullscreenenter"",""1"",""3615""
","
","","null","","null","","fixation","2021-06-23 19:18:27.385","","","","","",""
"card-selection-trial","89","413407","0.0-25.0-1.9","909","false","img/card_backs/set1/green.gif","img/card_backs/set1/purple.gif","img/card_backs/set1/yellow.gif","img/card_backs/set1/red.gif","img/card_backs/set2/blue.gif","img/card_backs/set2/pink.gif","img/card_backs/set2/gray.gif","img/card_backs/set2/orange.gif","""event"",""trial"",""time""
""fullscreenenter"",""1"",""3615""
","
","
","""event"",""trial"",""time""
""fullscreenenter"",""1"",""3615""
","
","","1512.5","","","","real_trial","2021-06-23 19:18:30.903","img/card_backs/set1/green.gif","1","-240","1","",""
"casino-fixation","90","413912","0.0-25.0-0.10","909","false","img/card_backs/set1/green.gif","img/card_backs/set1/purple.gif","img/card_backs/set1/yellow.gif","img/card_backs/set1/red.gif","img/card_backs/set2/blue.gif","img/card_backs/set2/pink.gif","img/card_backs/set2/gray.gif","img/card_backs/set2/orange.gif","""event"",""trial"",""time""
""fullscreenenter"",""1"",""3615""
","
","
","""event"",""trial"",""time""
""fullscreenenter"",""1"",""3615""
","
","","null","","null","","fixation","2021-06-23 19:18:31.408","","","","","",""
"card-selection-trial","91","418005","0.0-25.0-1.10","909","false","img/card_backs/set1/green.gif","img/card_backs/set1/purple.gif","img/card_backs/set1/yellow.gif","img/card_backs/set1/red.gif","img/card_backs/set2/blue.gif","img/card_backs/set2/pink.gif","img/card_backs/set2/gray.gif","img/card_backs/set2/orange.gif","""event"",""trial"",""time""
""fullscreenenter"",""1"",""3615""
","
","
","""event"",""trial"",""time""
""fullscreenenter"",""1"",""3615""
","
","","2084.100000000093","","","","real_trial","2021-06-23 19:18:35.501","img/card_backs/set1/red.gif","0","110","1","",""
"casino-fixation","92","418509","0.0-25.0-0.11","909","false","img/card_backs/set1/green.gif","img/card_backs/set1/purple.gif","img/card_backs/set1/yellow.gif","img/card_backs/set1/red.gif","img/card_backs/set2/blue.gif","img/card_backs/set2/pink.gif","img/card_backs/set2/gray.gif","img/card_backs/set2/orange.gif","""event"",""trial"",""time""
""fullscreenenter"",""1"",""3615""
","
","
","""event"",""trial"",""time""
""fullscreenenter"",""1"",""3615""
","
","","null","","null","","fixation","2021-06-23 19:18:36.005","","","","","",""
"card-selection-trial","93","425876","0.0-25.0-1.11","909","false","img/card_backs/set1/green.gif","img/card_backs/set1/purple.gif","img/card_backs/set1/yellow.gif","img/card_backs/set1/red.gif","img/card_backs/set2/blue.gif","img/card_backs/set2/pink.gif","img/card_backs/set2/gray.gif","img/card_backs/set2/orange.gif","""event"",""trial"",""time""
""fullscreenenter"",""1"",""3615""
","
","
","""event"",""trial"",""time""
""fullscreenenter"",""1"",""3615""
","
","","5360.600000000093","","","","real_trial","2021-06-23 19:18:43.372","img/card_backs/set1/green.gif","2","-240","1","",""
"casino-fixation","94","426381","0.0-25.0-0.12","909","false","img/card_backs/set1/green.gif","img/card_backs/set1/purple.gif","img/card_backs/set1/yellow.gif","img/card_backs/set1/red.gif","img/card_backs/set2/blue.gif","img/card_backs/set2/pink.gif","img/card_backs/set2/gray.gif","img/card_backs/set2/orange.gif","""event"",""trial"",""time""
""fullscreenenter"",""1"",""3615""
","
","
","""event"",""trial"",""time""
""fullscreenenter"",""1"",""3615""
","
","","null","","null","","fixation","2021-06-23 19:18:43.877","","","","","",""
"card-selection-trial","95","432766","0.0-25.0-1.12","909","false","img/card_backs/set1/green.gif","img/card_backs/set1/purple.gif","img/card_backs/set1/yellow.gif","img/card_backs/set1/red.gif","img/card_backs/set2/blue.gif","img/card_backs/set2/pink.gif","img/card_backs/set2/gray.gif","img/card_backs/set2/orange.gif","""event"",""trial"",""time""
""fullscreenenter"",""1"",""3615""
","
","
","""event"",""trial"",""time""
""fullscreenenter"",""1"",""3615""
","
","","4381.100000000093","","","","real_trial","2021-06-23 19:18:50.263","img/card_backs/set1/red.gif","0","110","1","",""
"casino-fixation","96","433270","0.0-25.0-0.13","909","false","img/card_backs/set1/green.gif","img/card_backs/set1/purple.gif","img/card_backs/set1/yellow.gif","img/card_backs/set1/red.gif","img/card_backs/set2/blue.gif","img/card_backs/set2/pink.gif","img/card_backs/set2/gray.gif","img/card_backs/set2/orange.gif","""event"",""trial"",""time""
""fullscreenenter"",""1"",""3615""
","
","
","""event"",""trial"",""time""
""fullscreenenter"",""1"",""3615""
","
","","null","","null","","fixation","2021-06-23 19:18:50.766","","","","","",""
"card-selection-trial","97","437404","0.0-25.0-1.13","909","false","img/card_backs/set1/green.gif","img/card_backs/set1/purple.gif","img/card_backs/set1/yellow.gif","img/card_backs/set1/red.gif","img/card_backs/set2/blue.gif","img/card_backs/set2/pink.gif","img/card_backs/set2/gray.gif","img/card_backs/set2/orange.gif","""event"",""trial"",""time""
""fullscreenenter"",""1"",""3615""
","
","
","""event"",""trial"",""time""
""fullscreenenter"",""1"",""3615""
","
","","2124.8000000002794","","","","real_trial","2021-06-23 19:18:54.900","img/card_backs/set1/yellow.gif","3","-60","1","",""
"casino-fixation","98","437909","0.0-25.0-0.14","909","false","img/card_backs/set1/green.gif","img/card_backs/set1/purple.gif","img/card_backs/set1/yellow.gif","img/card_backs/set1/red.gif","img/card_backs/set2/blue.gif","img/card_backs/set2/pink.gif","img/card_backs/set2/gray.gif","img/card_backs/set2/orange.gif","""event"",""trial"",""time""
""fullscreenenter"",""1"",""3615""
","
","
","""event"",""trial"",""time""
""fullscreenenter"",""1"",""3615""
","
","","null","","null","","fixation","2021-06-23 19:18:55.405","","","","","",""
"card-selection-trial","99","440963","0.0-25.0-1.14","909","false","img/card_backs/set1/green.gif","img/card_backs/set1/purple.gif","img/card_backs/set1/yellow.gif","img/card_backs/set1/red.gif","img/card_backs/set2/blue.gif","img/card_backs/set2/pink.gif","img/card_backs/set2/gray.gif","img/card_backs/set2/orange.gif","""event"",""trial"",""time""
""fullscreenenter"",""1"",""3615""
","
","
","""event"",""trial"",""time""
""fullscreenenter"",""1"",""3615""
","
","","1044.7000000001863","","","","real_trial","2021-06-23 19:18:58.459","img/card_backs/set1/purple.gif","0","180","1","",""
"casino-fixation","100","441468","0.0-25.0-0.15","909","false","img/card_backs/set1/green.gif","img/card_backs/set1/purple.gif","img/card_backs/set1/yellow.gif","img/card_backs/set1/red.gif","img/card_backs/set2/blue.gif","img/card_backs/set2/pink.gif","img/card_backs/set2/gray.gif","img/card_backs/set2/orange.gif","""event"",""trial"",""time""
""fullscreenenter"",""1"",""3615""
","
","
","""event"",""trial"",""time""
""fullscreenenter"",""1"",""3615""
","
","","null","","null","","fixation","2021-06-23 19:18:58.964","","","","","",""
"card-selection-trial","101","445920","0.0-25.0-1.15","909","false","img/card_backs/set1/green.gif","img/card_backs/set1/purple.gif","img/card_backs/set1/yellow.gif","img/card_backs/set1/red.gif","img/card_backs/set2/blue.gif","img/card_backs/set2/pink.gif","img/card_backs/set2/gray.gif","img/card_backs/set2/orange.gif","""event"",""trial"",""time""
""fullscreenenter"",""1"",""3615""
","
","
","""event"",""trial"",""time""
""fullscreenenter"",""1"",""3615""
","
","","2446.7000000001863","","","","real_trial","2021-06-23 19:19:03.416","img/card_backs/set1/red.gif","1","-60","1","",""
"casino-fixation","102","446425","0.0-25.0-0.16","909","false","img/card_backs/set1/green.gif","img/card_backs/set1/purple.gif","img/card_backs/set1/yellow.gif","img/card_backs/set1/red.gif","img/card_backs/set2/blue.gif","img/card_backs/set2/pink.gif","img/card_backs/set2/gray.gif","img/card_backs/set2/orange.gif","""event"",""trial"",""time""
""fullscreenenter"",""1"",""3615""
","
","
","""event"",""trial"",""time""
""fullscreenenter"",""1"",""3615""
","
","","null","","null","","fixation","2021-06-23 19:19:03.921","","","","","",""
"card-selection-trial","103","453541","0.0-25.0-1.16","909","false","img/card_backs/set1/green.gif","img/card_backs/set1/purple.gif","img/card_backs/set1/yellow.gif","img/card_backs/set1/red.gif","img/card_backs/set2/blue.gif","img/card_backs/set2/pink.gif","img/card_backs/set2/gray.gif","img/card_backs/set2/orange.gif","""event"",""trial"",""time""
""fullscreenenter"",""1"",""3615""
","
","
","""event"",""trial"",""time""
""fullscreenenter"",""1"",""3615""
","
","","5108.299999999814","","","","real_trial","2021-06-23 19:19:11.037","img/card_backs/set1/yellow.gif","1","-60","1","",""
"casino-fixation","104","454046","0.0-25.0-0.17","909","false","img/card_backs/set1/green.gif","img/card_backs/set1/purple.gif","img/card_backs/set1/yellow.gif","img/card_backs/set1/red.gif","img/card_backs/set2/blue.gif","img/card_backs/set2/pink.gif","img/card_backs/set2/gray.gif","img/card_backs/set2/orange.gif","""event"",""trial"",""time""
""fullscreenenter"",""1"",""3615""
","
","
","""event"",""trial"",""time""
""fullscreenenter"",""1"",""3615""
","
","","null","","null","","fixation","2021-06-23 19:19:11.543","","","","","",""
"card-selection-trial","105","457570","0.0-25.0-1.17","909","false","img/card_backs/set1/green.gif","img/card_backs/set1/purple.gif","img/card_backs/set1/yellow.gif","img/card_backs/set1/red.gif","img/card_backs/set2/blue.gif","img/card_backs/set2/pink.gif","img/card_backs/set2/gray.gif","img/card_backs/set2/orange.gif","""event"",""trial"",""time""
""fullscreenenter"",""1"",""3615""
","
","
","""event"",""trial"",""time""
""fullscreenenter"",""1"",""3615""
","
","","1518.7999999998137","","","","real_trial","2021-06-23 19:19:15.066","img/card_backs/set1/green.gif","3","190","1","",""
"casino-fixation","106","458075","0.0-25.0-0.18","909","false","img/card_backs/set1/green.gif","img/card_backs/set1/purple.gif","img/card_backs/set1/yellow.gif","img/card_backs/set1/red.gif","img/card_backs/set2/blue.gif","img/card_backs/set2/pink.gif","img/card_backs/set2/gray.gif","img/card_backs/set2/orange.gif","""event"",""trial"",""time""
""fullscreenenter"",""1"",""3615""
","
","
","""event"",""trial"",""time""
""fullscreenenter"",""1"",""3615""
","
","","null","","null","","fixation","2021-06-23 19:19:15.571","","","","","",""
"card-selection-trial","107","461587","0.0-25.0-1.18","909","false","img/card_backs/set1/green.gif","img/card_backs/set1/purple.gif","img/card_backs/set1/yellow.gif","img/card_backs/set1/red.gif","img/card_backs/set2/blue.gif","img/card_backs/set2/pink.gif","img/card_backs/set2/gray.gif","img/card_backs/set2/orange.gif","""event"",""trial"",""time""
""fullscreenenter"",""1"",""3615""
","
","
","""event"",""trial"",""time""
""fullscreenenter"",""1"",""3615""
","
","","1505.3000000002794","","","","real_trial","2021-06-23 19:19:19.083","img/card_backs/set1/red.gif","3","-50","1","",""
"casino-fixation","108","462092","0.0-25.0-0.19","909","false","img/card_backs/set1/green.gif","img/card_backs/set1/purple.gif","img/card_backs/set1/yellow.gif","img/card_backs/set1/red.gif","img/card_backs/set2/blue.gif","img/card_backs/set2/pink.gif","img/card_backs/set2/gray.gif","img/card_backs/set2/orange.gif","""event"",""trial"",""time""
""fullscreenenter"",""1"",""3615""
","
","
","""event"",""trial"",""time""
""fullscreenenter"",""1"",""3615""
","
","","null","","null","","fixation","2021-06-23 19:19:19.588","","","","","",""
"card-selection-trial","109","470323","0.0-25.0-1.19","909","false","img/card_backs/set1/green.gif","img/card_backs/set1/purple.gif","img/card_backs/set1/yellow.gif","img/card_backs/set1/red.gif","img/card_backs/set2/blue.gif","img/card_backs/set2/pink.gif","img/card_backs/set2/gray.gif","img/card_backs/set2/orange.gif","""event"",""trial"",""time""
""fullscreenenter"",""1"",""3615""
","
","
","""event"",""trial"",""time""
""fullscreenenter"",""1"",""3615""
","
","","6223.799999999814","","","","real_trial","2021-06-23 19:19:27.819","img/card_backs/set1/red.gif","1","110","1","",""
"casino-fixation","110","470828","0.0-25.0-0.20","909","false","img/card_backs/set1/green.gif","img/card_backs/set1/purple.gif","img/card_backs/set1/yellow.gif","img/card_backs/set1/red.gif","img/card_backs/set2/blue.gif","img/card_backs/set2/pink.gif","img/card_backs/set2/gray.gif","img/card_backs/set2/orange.gif","""event"",""trial"",""time""
""fullscreenenter"",""1"",""3615""
","
","
","""event"",""trial"",""time""
""fullscreenenter"",""1"",""3615""
","
","","null","","null","","fixation","2021-06-23 19:19:28.324","","","","","",""
"card-selection-trial","111","479739","0.0-25.0-1.20","909","false","img/card_backs/set1/green.gif","img/card_backs/set1/purple.gif","img/card_backs/set1/yellow.gif","img/card_backs/set1/red.gif","img/card_backs/set2/blue.gif","img/card_backs/set2/pink.gif","img/card_backs/set2/gray.gif","img/card_backs/set2/orange.gif","""event"",""trial"",""time""
""fullscreenenter"",""1"",""3615""
","
","
","""event"",""trial"",""time""
""fullscreenenter"",""1"",""3615""
","
","","6904.100000000093","","","","real_trial","2021-06-23 19:19:37.235","img/card_backs/set1/green.gif","3","-230","1","",""
"casino-fixation","112","480244","0.0-25.0-0.21","909","false","img/card_backs/set1/green.gif","img/card_backs/set1/purple.gif","img/card_backs/set1/yellow.gif","img/card_backs/set1/red.gif","img/card_backs/set2/blue.gif","img/card_backs/set2/pink.gif","img/card_backs/set2/gray.gif","img/card_backs/set2/orange.gif","""event"",""trial"",""time""
""fullscreenenter"",""1"",""3615""
","
","
","""event"",""trial"",""time""
""fullscreenenter"",""1"",""3615""
","
","","null","","null","","fixation","2021-06-23 19:19:37.740","","","","","",""
"card-selection-trial","113","484934","0.0-25.0-1.21","909","false","img/card_backs/set1/green.gif","img/card_backs/set1/purple.gif","img/card_backs/set1/yellow.gif","img/card_backs/set1/red.gif","img/card_backs/set2/blue.gif","img/card_backs/set2/pink.gif","img/card_backs/set2/gray.gif","img/card_backs/set2/orange.gif","""event"",""trial"",""time""
""fullscreenenter"",""1"",""3615""
","
","
","""event"",""trial"",""time""
""fullscreenenter"",""1"",""3615""
","
","","2680.5999999996275","","","","real_trial","2021-06-23 19:19:42.430","img/card_backs/set1/yellow.gif","2","-70","1","",""
"casino-fixation","114","485439","0.0-25.0-0.22","909","false","img/card_backs/set1/green.gif","img/card_backs/set1/purple.gif","img/card_backs/set1/yellow.gif","img/card_backs/set1/red.gif","img/card_backs/set2/blue.gif","img/card_backs/set2/pink.gif","img/card_backs/set2/gray.gif","img/card_backs/set2/orange.gif","""event"",""trial"",""time""
""fullscreenenter"",""1"",""3615""
","
","
","""event"",""trial"",""time""
""fullscreenenter"",""1"",""3615""
","
","","null","","null","","fixation","2021-06-23 19:19:42.935","","","","","",""
"card-selection-trial","115","489810","0.0-25.0-1.22","909","false","img/card_backs/set1/green.gif","img/card_backs/set1/purple.gif","img/card_backs/set1/yellow.gif","img/card_backs/set1/red.gif","img/card_backs/set2/blue.gif","img/card_backs/set2/pink.gif","img/card_backs/set2/gray.gif","img/card_backs/set2/orange.gif","""event"",""trial"",""time""
""fullscreenenter"",""1"",""3615""
","
","
","""event"",""trial"",""time""
""fullscreenenter"",""1"",""3615""
","
","","2364.600000000093","","","","real_trial","2021-06-23 19:19:47.306","img/card_backs/set1/yellow.gif","2","100","1","",""
"casino-fixation","116","490314","0.0-25.0-0.23","909","false","img/card_backs/set1/green.gif","img/card_backs/set1/purple.gif","img/card_backs/set1/yellow.gif","img/card_backs/set1/red.gif","img/card_backs/set2/blue.gif","img/card_backs/set2/pink.gif","img/card_backs/set2/gray.gif","img/card_backs/set2/orange.gif","""event"",""trial"",""time""
""fullscreenenter"",""1"",""3615""
","
","
","""event"",""trial"",""time""
""fullscreenenter"",""1"",""3615""
","
","","null","","null","","fixation","2021-06-23 19:19:47.810","","","","","",""
"card-selection-trial","117","493897","0.0-25.0-1.23","909","false","img/card_backs/set1/green.gif","img/card_backs/set1/purple.gif","img/card_backs/set1/yellow.gif","img/card_backs/set1/red.gif","img/card_backs/set2/blue.gif","img/card_backs/set2/pink.gif","img/card_backs/set2/gray.gif","img/card_backs/set2/orange.gif","""event"",""trial"",""time""
""fullscreenenter"",""1"",""3615""
","
","
","""event"",""trial"",""time""
""fullscreenenter"",""1"",""3615""
","
","","1577.6000000000931","","","","real_trial","2021-06-23 19:19:51.393","img/card_backs/set1/yellow.gif","2","-50","1","",""
"casino-fixation","118","494402","0.0-25.0-0.24","909","false","img/card_backs/set1/green.gif","img/card_backs/set1/purple.gif","img/card_backs/set1/yellow.gif","img/card_backs/set1/red.gif","img/card_backs/set2/blue.gif","img/card_backs/set2/pink.gif","img/card_backs/set2/gray.gif","img/card_backs/set2/orange.gif","""event"",""trial"",""time""
""fullscreenenter"",""1"",""3615""
","
","
","""event"",""trial"",""time""
""fullscreenenter"",""1"",""3615""
","
","","null","","null","","fixation","2021-06-23 19:19:51.898","","","","","",""
"card-selection-trial","119","497977","0.0-25.0-1.24","909","false","img/card_backs/set1/green.gif","img/card_backs/set1/purple.gif","img/card_backs/set1/yellow.gif","img/card_backs/set1/red.gif","img/card_backs/set2/blue.gif","img/card_backs/set2/pink.gif","img/card_backs/set2/gray.gif","img/card_backs/set2/orange.gif","""event"",""trial"",""time""
""fullscreenenter"",""1"",""3615""
","
","
","""event"",""trial"",""time""
""fullscreenenter"",""1"",""3615""
","
","","1568.3999999999069","","","","real_trial","2021-06-23 19:19:55.474","img/card_backs/set1/red.gif","0","110","1","",""
"casino-fixation","120","498482","0.0-25.0-0.25","909","false","img/card_backs/set1/green.gif","img/card_backs/set1/purple.gif","img/card_backs/set1/yellow.gif","img/card_backs/set1/red.gif","img/card_backs/set2/blue.gif","img/card_backs/set2/pink.gif","img/card_backs/set2/gray.gif","img/card_backs/set2/orange.gif","""event"",""trial"",""time""
""fullscreenenter"",""1"",""3615""
","
","
","""event"",""trial"",""time""
""fullscreenenter"",""1"",""3615""
","
","","null","","null","","fixation","2021-06-23 19:19:55.978","","","","","",""
"card-selection-trial","121","501907","0.0-25.0-1.25","909","false","img/card_backs/set1/green.gif","img/card_backs/set1/purple.gif","img/card_backs/set1/yellow.gif","img/card_backs/set1/red.gif","img/card_backs/set2/blue.gif","img/card_backs/set2/pink.gif","img/card_backs/set2/gray.gif","img/card_backs/set2/orange.gif","""event"",""trial"",""time""
""fullscreenenter"",""1"",""3615""
","
","
","""event"",""trial"",""time""
""fullscreenenter"",""1"",""3615""
","
","","1415.8999999999069","","","","real_trial","2021-06-23 19:19:59.403","img/card_backs/set1/green.gif","3","190","1","",""
"casino-fixation","122","502412","0.0-25.0-0.26","909","false","img/card_backs/set1/green.gif","img/card_backs/set1/purple.gif","img/card_backs/set1/yellow.gif","img/card_backs/set1/red.gif","img/card_backs/set2/blue.gif","img/card_backs/set2/pink.gif","img/card_backs/set2/gray.gif","img/card_backs/set2/orange.gif","""event"",""trial"",""time""
""fullscreenenter"",""1"",""3615""
","
","
","""event"",""trial"",""time""
""fullscreenenter"",""1"",""3615""
","
","","null","","null","","fixation","2021-06-23 19:19:59.908","","","","","",""
"card-selection-trial","123","505373","0.0-25.0-1.26","909","false","img/card_backs/set1/green.gif","img/card_backs/set1/purple.gif","img/card_backs/set1/yellow.gif","img/card_backs/set1/red.gif","img/card_backs/set2/blue.gif","img/card_backs/set2/pink.gif","img/card_backs/set2/gray.gif","img/card_backs/set2/orange.gif","""event"",""trial"",""time""
""fullscreenenter"",""1"",""3615""
","
","
","""event"",""trial"",""time""
""fullscreenenter"",""1"",""3615""
","
","","954.4000000003725","","","","real_trial","2021-06-23 19:20:02.869","img/card_backs/set1/red.gif","0","100","1","",""
"casino-fixation","124","505878","0.0-25.0-0.27","909","false","img/card_backs/set1/green.gif","img/card_backs/set1/purple.gif","img/card_backs/set1/yellow.gif","img/card_backs/set1/red.gif","img/card_backs/set2/blue.gif","img/card_backs/set2/pink.gif","img/card_backs/set2/gray.gif","img/card_backs/set2/orange.gif","""event"",""trial"",""time""
""fullscreenenter"",""1"",""3615""
","
","
","""event"",""trial"",""time""
""fullscreenenter"",""1"",""3615""
","
","","null","","null","","fixation","2021-06-23 19:20:03.374","","","","","",""
"card-selection-trial","125","510034","0.0-25.0-1.27","909","false","img/card_backs/set1/green.gif","img/card_backs/set1/purple.gif","img/card_backs/set1/yellow.gif","img/card_backs/set1/red.gif","img/card_backs/set2/blue.gif","img/card_backs/set2/pink.gif","img/card_backs/set2/gray.gif","img/card_backs/set2/orange.gif","""event"",""trial"",""time""
""fullscreenenter"",""1"",""3615""
","
","
","""event"",""trial"",""time""
""fullscreenenter"",""1"",""3615""
","
","","2148.100000000093","","","","real_trial","2021-06-23 19:20:07.530","img/card_backs/set1/yellow.gif","1","120","1","",""
"casino-fixation","126","510539","0.0-25.0-0.28","909","false","img/card_backs/set1/green.gif","img/card_backs/set1/purple.gif","img/card_backs/set1/yellow.gif","img/card_backs/set1/red.gif","img/card_backs/set2/blue.gif","img/card_backs/set2/pink.gif","img/card_backs/set2/gray.gif","img/card_backs/set2/orange.gif","""event"",""trial"",""time""
""fullscreenenter"",""1"",""3615""
","
","
","""event"",""trial"",""time""
""fullscreenenter"",""1"",""3615""
","
","","null","","null","","fixation","2021-06-23 19:20:08.035","","","","","",""
"card-selection-trial","127","514254","0.0-25.0-1.28","909","false","img/card_backs/set1/green.gif","img/card_backs/set1/purple.gif","img/card_backs/set1/yellow.gif","img/card_backs/set1/red.gif","img/card_backs/set2/blue.gif","img/card_backs/set2/pink.gif","img/card_backs/set2/gray.gif","img/card_backs/set2/orange.gif","""event"",""trial"",""time""
""fullscreenenter"",""1"",""3615""
","
","
","""event"",""trial"",""time""
""fullscreenenter"",""1"",""3615""
","
","","1708.2000000001863","","","","real_trial","2021-06-23 19:20:11.750","img/card_backs/set1/purple.gif","3","-230","1","",""
"casino-fixation","128","514759","0.0-25.0-0.29","909","false","img/card_backs/set1/green.gif","img/card_backs/set1/purple.gif","img/card_backs/set1/yellow.gif","img/card_backs/set1/red.gif","img/card_backs/set2/blue.gif","img/card_backs/set2/pink.gif","img/card_backs/set2/gray.gif","img/card_backs/set2/orange.gif","""event"",""trial"",""time""
""fullscreenenter"",""1"",""3615""
","
","
","""event"",""trial"",""time""
""fullscreenenter"",""1"",""3615""
","
","","null","","null","","fixation","2021-06-23 19:20:12.255","","","","","",""
"card-selection-trial","129","525614","0.0-25.0-1.29","909","false","img/card_backs/set1/green.gif","img/card_backs/set1/purple.gif","img/card_backs/set1/yellow.gif","img/card_backs/set1/red.gif","img/card_backs/set2/blue.gif","img/card_backs/set2/pink.gif","img/card_backs/set2/gray.gif","img/card_backs/set2/orange.gif","""event"",""trial"",""time""
""fullscreenenter"",""1"",""3615""
","
","
","""event"",""trial"",""time""
""fullscreenenter"",""1"",""3615""
","
","","8847.69999999972","","","","real_trial","2021-06-23 19:20:23.110","img/card_backs/set1/green.gif","2","200","1","",""
"casino-fixation","130","526118","0.0-25.0-0.30","909","false","img/card_backs/set1/green.gif","img/card_backs/set1/purple.gif","img/card_backs/set1/yellow.gif","img/card_backs/set1/red.gif","img/card_backs/set2/blue.gif","img/card_backs/set2/pink.gif","img/card_backs/set2/gray.gif","img/card_backs/set2/orange.gif","""event"",""trial"",""time""
""fullscreenenter"",""1"",""3615""
","
","
","""event"",""trial"",""time""
""fullscreenenter"",""1"",""3615""
","
","","null","","null","","fixation","2021-06-23 19:20:23.614","","","","","",""
"card-selection-trial","131","534374","0.0-25.0-1.30","909","false","img/card_backs/set1/green.gif","img/card_backs/set1/purple.gif","img/card_backs/set1/yellow.gif","img/card_backs/set1/red.gif","img/card_backs/set2/blue.gif","img/card_backs/set2/pink.gif","img/card_backs/set2/gray.gif","img/card_backs/set2/orange.gif","""event"",""trial"",""time""
""fullscreenenter"",""1"",""3615""
","
","
","""event"",""trial"",""time""
""fullscreenenter"",""1"",""3615""
","
","","6249.799999999814","","","","real_trial","2021-06-23 19:20:31.870","img/card_backs/set1/green.gif","0","-230","1","",""
"casino-fixation","132","534878","0.0-25.0-0.31","909","false","img/card_backs/set1/green.gif","img/card_backs/set1/purple.gif","img/card_backs/set1/yellow.gif","img/card_backs/set1/red.gif","img/card_backs/set2/blue.gif","img/card_backs/set2/pink.gif","img/card_backs/set2/gray.gif","img/card_backs/set2/orange.gif","""event"",""trial"",""time""
""fullscreenenter"",""1"",""3615""
","
","
","""event"",""trial"",""time""
""fullscreenenter"",""1"",""3615""
","
","","null","","null","","fixation","2021-06-23 19:20:32.374","","","","","",""
"card-selection-trial","133","539877","0.0-25.0-1.31","909","false","img/card_backs/set1/green.gif","img/card_backs/set1/purple.gif","img/card_backs/set1/yellow.gif","img/card_backs/set1/red.gif","img/card_backs/set2/blue.gif","img/card_backs/set2/pink.gif","img/card_backs/set2/gray.gif","img/card_backs/set2/orange.gif","""event"",""trial"",""time""
""fullscreenenter"",""1"",""3615""
","
","
","""event"",""trial"",""time""
""fullscreenenter"",""1"",""3615""
","
","","2991.5","","","","real_trial","2021-06-23 19:20:37.373","img/card_backs/set1/red.gif","3","110","1","",""
"casino-fixation","134","540381","0.0-25.0-0.32","909","false","img/card_backs/set1/green.gif","img/card_backs/set1/purple.gif","img/card_backs/set1/yellow.gif","img/card_backs/set1/red.gif","img/card_backs/set2/blue.gif","img/card_backs/set2/pink.gif","img/card_backs/set2/gray.gif","img/card_backs/set2/orange.gif","""event"",""trial"",""time""
""fullscreenenter"",""1"",""3615""
","
","
","""event"",""trial"",""time""
""fullscreenenter"",""1"",""3615""
","
","","null","","null","","fixation","2021-06-23 19:20:37.877","","","","","",""
"card-selection-trial","135","544549","0.0-25.0-1.32","909","false","img/card_backs/set1/green.gif","img/card_backs/set1/purple.gif","img/card_backs/set1/yellow.gif","img/card_backs/set1/red.gif","img/card_backs/set2/blue.gif","img/card_backs/set2/pink.gif","img/card_backs/set2/gray.gif","img/card_backs/set2/orange.gif","""event"",""trial"",""time""
""fullscreenenter"",""1"",""3615""
","
","
","""event"",""trial"",""time""
""fullscreenenter"",""1"",""3615""
","
","","2158.3000000002794","","","","real_trial","2021-06-23 19:20:42.045","img/card_backs/set1/yellow.gif","0","-70","1","",""
"casino-fixation","136","545054","0.0-25.0-0.33","909","false","img/card_backs/set1/green.gif","img/card_backs/set1/purple.gif","img/card_backs/set1/yellow.gif","img/card_backs/set1/red.gif","img/card_backs/set2/blue.gif","img/card_backs/set2/pink.gif","img/card_backs/set2/gray.gif","img/card_backs/set2/orange.gif","""event"",""trial"",""time""
""fullscreenenter"",""1"",""3615""
","
","
","""event"",""trial"",""time""
""fullscreenenter"",""1"",""3615""
","
","","null","","null","","fixation","2021-06-23 19:20:42.550","","","","","",""
"card-selection-trial","137","548949","0.0-25.0-1.33","909","false","img/card_backs/set1/green.gif","img/card_backs/set1/purple.gif","img/card_backs/set1/yellow.gif","img/card_backs/set1/red.gif","img/card_backs/set2/blue.gif","img/card_backs/set2/pink.gif","img/card_backs/set2/gray.gif","img/card_backs/set2/orange.gif","""event"",""trial"",""time""
""fullscreenenter"",""1"",""3615""
","
","
","""event"",""trial"",""time""
""fullscreenenter"",""1"",""3615""
","
","","1885.2000000001863","","","","real_trial","2021-06-23 19:20:46.445","img/card_backs/set1/purple.gif","2","180","1","",""
"casino-fixation","138","549454","0.0-25.0-0.34","909","false","img/card_backs/set1/green.gif","img/card_backs/set1/purple.gif","img/card_backs/set1/yellow.gif","img/card_backs/set1/red.gif","img/card_backs/set2/blue.gif","img/card_backs/set2/pink.gif","img/card_backs/set2/gray.gif","img/card_backs/set2/orange.gif","""event"",""trial"",""time""
""fullscreenenter"",""1"",""3615""
","
","
","""event"",""trial"",""time""
""fullscreenenter"",""1"",""3615""
","
","","null","","null","","fixation","2021-06-23 19:20:46.950","","","","","",""
"card-selection-trial","139","561023","0.0-25.0-1.34","909","false","img/card_backs/set1/green.gif","img/card_backs/set1/purple.gif","img/card_backs/set1/yellow.gif","img/card_backs/set1/red.gif","img/card_backs/set2/blue.gif","img/card_backs/set2/pink.gif","img/card_backs/set2/gray.gif","img/card_backs/set2/orange.gif","""event"",""trial"",""time""
""fullscreenenter"",""1"",""3615""
","
","
","""event"",""trial"",""time""
""fullscreenenter"",""1"",""3615""
","
","","9560.200000000186","","","","real_trial","2021-06-23 19:20:58.520","img/card_backs/set1/green.gif","0","180","1","",""
"casino-fixation","140","561528","0.0-25.0-0.35","909","false","img/card_backs/set1/green.gif","img/card_backs/set1/purple.gif","img/card_backs/set1/yellow.gif","img/card_backs/set1/red.gif","img/card_backs/set2/blue.gif","img/card_backs/set2/pink.gif","img/card_backs/set2/gray.gif","img/card_backs/set2/orange.gif","""event"",""trial"",""time""
""fullscreenenter"",""1"",""3615""
","
","
","""event"",""trial"",""time""
""fullscreenenter"",""1"",""3615""
","
","","null","","null","","fixation","2021-06-23 19:20:59.024","","","","","",""
"card-selection-trial","141","565586","0.0-25.0-1.35","909","false","img/card_backs/set1/green.gif","img/card_backs/set1/purple.gif","img/card_backs/set1/yellow.gif","img/card_backs/set1/red.gif","img/card_backs/set2/blue.gif","img/card_backs/set2/pink.gif","img/card_backs/set2/gray.gif","img/card_backs/set2/orange.gif","""event"",""trial"",""time""
""fullscreenenter"",""1"",""3615""
","
","
","""event"",""trial"",""time""
""fullscreenenter"",""1"",""3615""
","
","","2052.600000000093","","","","real_trial","2021-06-23 19:21:03.082","img/card_backs/set1/yellow.gif","1","-70","1","",""
"casino-fixation","142","566091","0.0-25.0-0.36","909","false","img/card_backs/set1/green.gif","img/card_backs/set1/purple.gif","img/card_backs/set1/yellow.gif","img/card_backs/set1/red.gif","img/card_backs/set2/blue.gif","img/card_backs/set2/pink.gif","img/card_backs/set2/gray.gif","img/card_backs/set2/orange.gif","""event"",""trial"",""time""
""fullscreenenter"",""1"",""3615""
","
","
","""event"",""trial"",""time""
""fullscreenenter"",""1"",""3615""
","
","","null","","null","","fixation","2021-06-23 19:21:03.587","","","","","",""
"card-selection-trial","143","575092","0.0-25.0-1.36","909","false","img/card_backs/set1/green.gif","img/card_backs/set1/purple.gif","img/card_backs/set1/yellow.gif","img/card_backs/set1/red.gif","img/card_backs/set2/blue.gif","img/card_backs/set2/pink.gif","img/card_backs/set2/gray.gif","img/card_backs/set2/orange.gif","""event"",""trial"",""time""
""fullscreenenter"",""1"",""3615""
","
","
","""event"",""trial"",""time""
""fullscreenenter"",""1"",""3615""
","
","","6992.5999999996275","","","","real_trial","2021-06-23 19:21:12.588","img/card_backs/set1/purple.gif","3","-230","1","",""
"casino-fixation","144","575596","0.0-25.0-0.37","909","false","img/card_backs/set1/green.gif","img/card_backs/set1/purple.gif","img/card_backs/set1/yellow.gif","img/card_backs/set1/red.gif","img/card_backs/set2/blue.gif","img/card_backs/set2/pink.gif","img/card_backs/set2/gray.gif","img/card_backs/set2/orange.gif","""event"",""trial"",""time""
""fullscreenenter"",""1"",""3615""
","
","
","""event"",""trial"",""time""
""fullscreenenter"",""1"",""3615""
","
","","null","","null","","fixation","2021-06-23 19:21:13.092","","","","","",""
"card-selection-trial","145","582426","0.0-25.0-1.37","909","false","img/card_backs/set1/green.gif","img/card_backs/set1/purple.gif","img/card_backs/set1/yellow.gif","img/card_backs/set1/red.gif","img/card_backs/set2/blue.gif","img/card_backs/set2/pink.gif","img/card_backs/set2/gray.gif","img/card_backs/set2/orange.gif","""event"",""trial"",""time""
""fullscreenenter"",""1"",""3615""
","
","
","""event"",""trial"",""time""
""fullscreenenter"",""1"",""3615""
","
","","4824.300000000279","","","","real_trial","2021-06-23 19:21:19.922","img/card_backs/set1/yellow.gif","1","-60","1","",""
"casino-fixation","146","582931","0.0-25.0-0.38","909","false","img/card_backs/set1/green.gif","img/card_backs/set1/purple.gif","img/card_backs/set1/yellow.gif","img/card_backs/set1/red.gif","img/card_backs/set2/blue.gif","img/card_backs/set2/pink.gif","img/card_backs/set2/gray.gif","img/card_backs/set2/orange.gif","""event"",""trial"",""time""
""fullscreenenter"",""1"",""3615""
","
","
","""event"",""trial"",""time""
""fullscreenenter"",""1"",""3615""
","
","","null","","null","","fixation","2021-06-23 19:21:20.427","","","","","",""
"card-selection-trial","147","589560","0.0-25.0-1.38","909","false","img/card_backs/set1/green.gif","img/card_backs/set1/purple.gif","img/card_backs/set1/yellow.gif","img/card_backs/set1/red.gif","img/card_backs/set2/blue.gif","img/card_backs/set2/pink.gif","img/card_backs/set2/gray.gif","img/card_backs/set2/orange.gif","""event"",""trial"",""time""
""fullscreenenter"",""1"",""3615""
","
","
","""event"",""trial"",""time""
""fullscreenenter"",""1"",""3615""
","
","","4620","","","","real_trial","2021-06-23 19:21:27.056","img/card_backs/set1/yellow.gif","0","110","1","",""
"casino-fixation","148","590065","0.0-25.0-0.39","909","false","img/card_backs/set1/green.gif","img/card_backs/set1/purple.gif","img/card_backs/set1/yellow.gif","img/card_backs/set1/red.gif","img/card_backs/set2/blue.gif","img/card_backs/set2/pink.gif","img/card_backs/set2/gray.gif","img/card_backs/set2/orange.gif","""event"",""trial"",""time""
""fullscreenenter"",""1"",""3615""
","
","
","""event"",""trial"",""time""
""fullscreenenter"",""1"",""3615""
","
","","null","","null","","fixation","2021-06-23 19:21:27.561","","","","","",""
"card-selection-trial","149","595074","0.0-25.0-1.39","909","false","img/card_backs/set1/green.gif","img/card_backs/set1/purple.gif","img/card_backs/set1/yellow.gif","img/card_backs/set1/red.gif","img/card_backs/set2/blue.gif","img/card_backs/set2/pink.gif","img/card_backs/set2/gray.gif","img/card_backs/set2/orange.gif","""event"",""trial"",""time""
""fullscreenenter"",""1"",""3615""
","
","
","""event"",""trial"",""time""
""fullscreenenter"",""1"",""3615""
","
","","3001","","","","real_trial","2021-06-23 19:21:32.571","img/card_backs/set1/purple.gif","3","200","1","",""
"casino-fixation","150","595579","0.0-25.0-0.40","909","false","img/card_backs/set1/green.gif","img/card_backs/set1/purple.gif","img/card_backs/set1/yellow.gif","img/card_backs/set1/red.gif","img/card_backs/set2/blue.gif","img/card_backs/set2/pink.gif","img/card_backs/set2/gray.gif","img/card_backs/set2/orange.gif","""event"",""trial"",""time""
""fullscreenenter"",""1"",""3615""
","
","
","""event"",""trial"",""time""
""fullscreenenter"",""1"",""3615""
","
","","null","","null","","fixation","2021-06-23 19:21:33.075","","","","","",""
"card-selection-trial","151","601262","0.0-25.0-1.40","909","false","img/card_backs/set1/green.gif","img/card_backs/set1/purple.gif","img/card_backs/set1/yellow.gif","img/card_backs/set1/red.gif","img/card_backs/set2/blue.gif","img/card_backs/set2/pink.gif","img/card_backs/set2/gray.gif","img/card_backs/set2/orange.gif","""event"",""trial"",""time""
""fullscreenenter"",""1"",""3615""
","
","
","""event"",""trial"",""time""
""fullscreenenter"",""1"",""3615""
","
","","3674","","","","real_trial","2021-06-23 19:21:38.758","img/card_backs/set1/purple.gif","2","-250","1","",""
"casino-fixation","152","601767","0.0-25.0-0.41","909","false","img/card_backs/set1/green.gif","img/card_backs/set1/purple.gif","img/card_backs/set1/yellow.gif","img/card_backs/set1/red.gif","img/card_backs/set2/blue.gif","img/card_backs/set2/pink.gif","img/card_backs/set2/gray.gif","img/card_backs/set2/orange.gif","""event"",""trial"",""time""
""fullscreenenter"",""1"",""3615""
","
","
","""event"",""trial"",""time""
""fullscreenenter"",""1"",""3615""
","
","","null","","null","","fixation","2021-06-23 19:21:39.263","","","","","",""
"card-selection-trial","153","605733","0.0-25.0-1.41","909","false","img/card_backs/set1/green.gif","img/card_backs/set1/purple.gif","img/card_backs/set1/yellow.gif","img/card_backs/set1/red.gif","img/card_backs/set2/blue.gif","img/card_backs/set2/pink.gif","img/card_backs/set2/gray.gif","img/card_backs/set2/orange.gif","""event"",""trial"",""time""
""fullscreenenter"",""1"",""3615""
","
","
","""event"",""trial"",""time""
""fullscreenenter"",""1"",""3615""
","
","","1957.1999999997206","","","","real_trial","2021-06-23 19:21:43.229","img/card_backs/set1/green.gif","1","200","1","",""
"casino-fixation","154","606237","0.0-25.0-0.42","909","false","img/card_backs/set1/green.gif","img/card_backs/set1/purple.gif","img/card_backs/set1/yellow.gif","img/card_backs/set1/red.gif","img/card_backs/set2/blue.gif","img/card_backs/set2/pink.gif","img/card_backs/set2/gray.gif","img/card_backs/set2/orange.gif","""event"",""trial"",""time""
""fullscreenenter"",""1"",""3615""
","
","
","""event"",""trial"",""time""
""fullscreenenter"",""1"",""3615""
","
","","null","","null","","fixation","2021-06-23 19:21:43.733","","","","","",""
"card-selection-trial","155","609935","0.0-25.0-1.42","909","false","img/card_backs/set1/green.gif","img/card_backs/set1/purple.gif","img/card_backs/set1/yellow.gif","img/card_backs/set1/red.gif","img/card_backs/set2/blue.gif","img/card_backs/set2/pink.gif","img/card_backs/set2/gray.gif","img/card_backs/set2/orange.gif","""event"",""trial"",""time""
""fullscreenenter"",""1"",""3615""
","
","
","""event"",""trial"",""time""
""fullscreenenter"",""1"",""3615""
","
","","1692.6999999997206","","","","real_trial","2021-06-23 19:21:47.431","img/card_backs/set1/red.gif","0","-50","1","",""
"casino-fixation","156","610439","0.0-25.0-0.43","909","false","img/card_backs/set1/green.gif","img/card_backs/set1/purple.gif","img/card_backs/set1/yellow.gif","img/card_backs/set1/red.gif","img/card_backs/set2/blue.gif","img/card_backs/set2/pink.gif","img/card_backs/set2/gray.gif","img/card_backs/set2/orange.gif","""event"",""trial"",""time""
""fullscreenenter"",""1"",""3615""
","
","
","""event"",""trial"",""time""
""fullscreenenter"",""1"",""3615""
","
","","null","","null","","fixation","2021-06-23 19:21:47.936","","","","","",""
"card-selection-trial","157","615589","0.0-25.0-1.43","909","false","img/card_backs/set1/green.gif","img/card_backs/set1/purple.gif","img/card_backs/set1/yellow.gif","img/card_backs/set1/red.gif","img/card_backs/set2/blue.gif","img/card_backs/set2/pink.gif","img/card_backs/set2/gray.gif","img/card_backs/set2/orange.gif","""event"",""trial"",""time""
""fullscreenenter"",""1"",""3615""
","
","
","""event"",""trial"",""time""
""fullscreenenter"",""1"",""3615""
","
","","3140.7999999998137","","","","real_trial","2021-06-23 19:21:53.085","img/card_backs/set1/purple.gif","0","180","1","",""
"casino-fixation","158","616093","0.0-25.0-0.44","909","false","img/card_backs/set1/green.gif","img/card_backs/set1/purple.gif","img/card_backs/set1/yellow.gif","img/card_backs/set1/red.gif","img/card_backs/set2/blue.gif","img/card_backs/set2/pink.gif","img/card_backs/set2/gray.gif","img/card_backs/set2/orange.gif","""event"",""trial"",""time""
""fullscreenenter"",""1"",""3615""
","
","
","""event"",""trial"",""time""
""fullscreenenter"",""1"",""3615""
","
","","null","","null","","fixation","2021-06-23 19:21:53.589","","","","","",""
"card-selection-trial","159","620807","0.0-25.0-1.44","909","false","img/card_backs/set1/green.gif","img/card_backs/set1/purple.gif","img/card_backs/set1/yellow.gif","img/card_backs/set1/red.gif","img/card_backs/set2/blue.gif","img/card_backs/set2/pink.gif","img/card_backs/set2/gray.gif","img/card_backs/set2/orange.gif","""event"",""trial"",""time""
""fullscreenenter"",""1"",""3615""
","
","
","""event"",""trial"",""time""
""fullscreenenter"",""1"",""3615""
","
","","2709","","","","real_trial","2021-06-23 19:21:58.303","img/card_backs/set1/red.gif","3","-60","1","",""
"casino-fixation","160","621311","0.0-25.0-0.45","909","false","img/card_backs/set1/green.gif","img/card_backs/set1/purple.gif","img/card_backs/set1/yellow.gif","img/card_backs/set1/red.gif","img/card_backs/set2/blue.gif","img/card_backs/set2/pink.gif","img/card_backs/set2/gray.gif","img/card_backs/set2/orange.gif","""event"",""trial"",""time""
""fullscreenenter"",""1"",""3615""
","
","
","""event"",""trial"",""time""
""fullscreenenter"",""1"",""3615""
","
","","null","","null","","fixation","2021-06-23 19:21:58.808","","","","","",""
"card-selection-trial","161","627279","0.0-25.0-1.45","909","false","img/card_backs/set1/green.gif","img/card_backs/set1/purple.gif","img/card_backs/set1/yellow.gif","img/card_backs/set1/red.gif","img/card_backs/set2/blue.gif","img/card_backs/set2/pink.gif","img/card_backs/set2/gray.gif","img/card_backs/set2/orange.gif","""event"",""trial"",""time""
""fullscreenenter"",""1"",""3615""
","
","
","""event"",""trial"",""time""
""fullscreenenter"",""1"",""3615""
","
","","3960.2999999998137","","","","real_trial","2021-06-23 19:22:04.776","img/card_backs/set1/yellow.gif","2","-50","1","",""
"casino-fixation","162","627784","0.0-25.0-0.46","909","false","img/card_backs/set1/green.gif","img/card_backs/set1/purple.gif","img/card_backs/set1/yellow.gif","img/card_backs/set1/red.gif","img/card_backs/set2/blue.gif","img/card_backs/set2/pink.gif","img/card_backs/set2/gray.gif","img/card_backs/set2/orange.gif","""event"",""trial"",""time""
""fullscreenenter"",""1"",""3615""
","
","
","""event"",""trial"",""time""
""fullscreenenter"",""1"",""3615""
","
","","null","","null","","fixation","2021-06-23 19:22:05.280","","","","","",""
"card-selection-trial","163","632341","0.0-25.0-1.46","909","false","img/card_backs/set1/green.gif","img/card_backs/set1/purple.gif","img/card_backs/set1/yellow.gif","img/card_backs/set1/red.gif","img/card_backs/set2/blue.gif","img/card_backs/set2/pink.gif","img/card_backs/set2/gray.gif","img/card_backs/set2/orange.gif","""event"",""trial"",""time""
""fullscreenenter"",""1"",""3615""
","
","
","""event"",""trial"",""time""
""fullscreenenter"",""1"",""3615""
","
","","2548.7000000001863","","","","real_trial","2021-06-23 19:22:09.837","img/card_backs/set1/red.gif","0","-60","1","",""
"casino-fixation","164","632846","0.0-25.0-0.47","909","false","img/card_backs/set1/green.gif","img/card_backs/set1/purple.gif","img/card_backs/set1/yellow.gif","img/card_backs/set1/red.gif","img/card_backs/set2/blue.gif","img/card_backs/set2/pink.gif","img/card_backs/set2/gray.gif","img/card_backs/set2/orange.gif","""event"",""trial"",""time""
""fullscreenenter"",""1"",""3615""
","
","
","""event"",""trial"",""time""
""fullscreenenter"",""1"",""3615""
","
","","null","","null","","fixation","2021-06-23 19:22:10.342","","","","","",""
"card-selection-trial","165","637786","0.0-25.0-1.47","909","false","img/card_backs/set1/green.gif","img/card_backs/set1/purple.gif","img/card_backs/set1/yellow.gif","img/card_backs/set1/red.gif","img/card_backs/set2/blue.gif","img/card_backs/set2/pink.gif","img/card_backs/set2/gray.gif","img/card_backs/set2/orange.gif","""event"",""trial"",""time""
""fullscreenenter"",""1"",""3615""
","
","
","""event"",""trial"",""time""
""fullscreenenter"",""1"",""3615""
","
","","2935","","","","real_trial","2021-06-23 19:22:15.282","img/card_backs/set1/purple.gif","1","200","1","",""
"casino-fixation","166","638291","0.0-25.0-0.48","909","false","img/card_backs/set1/green.gif","img/card_backs/set1/purple.gif","img/card_backs/set1/yellow.gif","img/card_backs/set1/red.gif","img/card_backs/set2/blue.gif","img/card_backs/set2/pink.gif","img/card_backs/set2/gray.gif","img/card_backs/set2/orange.gif","""event"",""trial"",""time""
""fullscreenenter"",""1"",""3615""
","
","
","""event"",""trial"",""time""
""fullscreenenter"",""1"",""3615""
","
","","null","","null","","fixation","2021-06-23 19:22:15.787","","","","","",""
"card-selection-trial","167","643906","0.0-25.0-1.48","909","false","img/card_backs/set1/green.gif","img/card_backs/set1/purple.gif","img/card_backs/set1/yellow.gif","img/card_backs/set1/red.gif","img/card_backs/set2/blue.gif","img/card_backs/set2/pink.gif","img/card_backs/set2/gray.gif","img/card_backs/set2/orange.gif","""event"",""trial"",""time""
""fullscreenenter"",""1"",""3615""
","
","
","""event"",""trial"",""time""
""fullscreenenter"",""1"",""3615""
","
