"trial_type","trial_index","time_elapsed","internal_node_id","sub_id","risk_good_first","block1_A","block1_B","block1_C","block1_D","block2_A","block2_B","block2_C","block2_D","interactions","blur_events","focus_events","fullscreenenter_events","fullscreenexit_events","success","rt","stimulus","key_press","button_pressed","task_part","timestamp","card_choice","choice_position","points_earned","block","correct","response"
"pavlovia","0","12","0.0-0.0","923","true","img/card_backs/set1/red.gif","img/card_backs/set1/green.gif","img/card_backs/set1/yellow.gif","img/card_backs/set1/purple.gif","img/card_backs/set2/orange.gif","img/card_backs/set2/blue.gif","img/card_backs/set2/pink.gif","img/card_backs/set2/gray.gif","""event"",""trial"",""time""
""fullscreenenter"",""1"",""3717""
","
","
","""event"",""trial"",""time""
""fullscreenenter"",""1"",""3717""
","
","","","","","","","","","","","","",""
"fullscreen","1","4672","0.0-1.0","923","true","img/card_backs/set1/red.gif","img/card_backs/set1/green.gif","img/card_backs/set1/yellow.gif","img/card_backs/set1/purple.gif","img/card_backs/set2/orange.gif","img/card_backs/set2/blue.gif","img/card_backs/set2/pink.gif","img/card_backs/set2/gray.gif","""event"",""trial"",""time""
""fullscreenenter"",""1"",""3717""
","
","
","""event"",""trial"",""time""
""fullscreenenter"",""1"",""3717""
","
","true","","","","","","","","","","","",""
"audio-keyboard-response","2","7349","0.0-2.0","923","true","img/card_backs/set1/red.gif","img/card_backs/set1/green.gif","img/card_backs/set1/yellow.gif","img/card_backs/set1/purple.gif","img/card_backs/set2/orange.gif","img/card_backs/set2/blue.gif","img/card_backs/set2/pink.gif","img/card_backs/set2/gray.gif","""event"",""trial"",""time""
""fullscreenenter"",""1"",""3717""
","
","
","""event"",""trial"",""time""
""fullscreenenter"",""1"",""3717""
","
","","2581","audio/beep_loop.wav","32","","","","","","","","",""
"audio-button-response","3","10630","0.0-3.0","923","true","img/card_backs/set1/red.gif","img/card_backs/set1/green.gif","img/card_backs/set1/yellow.gif","img/card_backs/set1/purple.gif","img/card_backs/set2/orange.gif","img/card_backs/set2/blue.gif","img/card_backs/set2/pink.gif","img/card_backs/set2/gray.gif","""event"",""trial"",""time""
""fullscreenenter"",""1"",""3717""
","
","
","""event"",""trial"",""time""
""fullscreenenter"",""1"",""3717""
","
","","NaN","audio/turtle.mp3","","3","","","","","","","",""
"audio-button-response","4","12981","0.0-4.0","923","true","img/card_backs/set1/red.gif","img/card_backs/set1/green.gif","img/card_backs/set1/yellow.gif","img/card_backs/set1/purple.gif","img/card_backs/set2/orange.gif","img/card_backs/set2/blue.gif","img/card_backs/set2/pink.gif","img/card_backs/set2/gray.gif","""event"",""trial"",""time""
""fullscreenenter"",""1"",""3717""
","
","
","""event"",""trial"",""time""
""fullscreenenter"",""1"",""3717""
","
","","NaN","audio/shark.mp3","","2","","","","","","","",""
"fullscreen","5","16156","0.0-5.0","923","true","img/card_backs/set1/red.gif","img/card_backs/set1/green.gif","img/card_backs/set1/yellow.gif","img/card_backs/set1/purple.gif","img/card_backs/set2/orange.gif","img/card_backs/set2/blue.gif","img/card_backs/set2/pink.gif","img/card_backs/set2/gray.gif","""event"",""trial"",""time""
""fullscreenenter"",""1"",""3717""
","
","
","""event"",""trial"",""time""
""fullscreenenter"",""1"",""3717""
","
","true","","","","","","","","","","","",""
"casino-keyboard-response","6","19403","0.0-6.0-0.0","923","true","img/card_backs/set1/red.gif","img/card_backs/set1/green.gif","img/card_backs/set1/yellow.gif","img/card_backs/set1/purple.gif","img/card_backs/set2/orange.gif","img/card_backs/set2/blue.gif","img/card_backs/set2/pink.gif","img/card_backs/set2/gray.gif","""event"",""trial"",""time""
""fullscreenenter"",""1"",""3717""
","
","
","""event"",""trial"",""time""
""fullscreenenter"",""1"",""3717""
","
","","3242.460000095889","Welcome to the casino!","71","","instructions","2021-07-01 00:35:38.122","","","","","",""
"casino-keyboard-response","7","28650","0.0-6.0-0.1","923","true","img/card_backs/set1/red.gif","img/card_backs/set1/green.gif","img/card_backs/set1/yellow.gif","img/card_backs/set1/purple.gif","img/card_backs/set2/orange.gif","img/card_backs/set2/blue.gif","img/card_backs/set2/pink.gif","img/card_backs/set2/gray.gif","""event"",""trial"",""time""
""fullscreenenter"",""1"",""3717""
","
","
","""event"",""trial"",""time""
""fullscreenenter"",""1"",""3717""
","
","","9245.124999899417","Today you will be playing a game to earn tokens. </br> At the end of the experiment, you will be paid a bonus based on how many tokens you win. ","69","","instructions","2021-07-01 00:35:47.369","","","","","",""
"casino-keyboard-response","8","36790","0.0-6.0-0.2","923","true","img/card_backs/set1/red.gif","img/card_backs/set1/green.gif","img/card_backs/set1/yellow.gif","img/card_backs/set1/purple.gif","img/card_backs/set2/orange.gif","img/card_backs/set2/blue.gif","img/card_backs/set2/pink.gif","img/card_backs/set2/gray.gif","""event"",""trial"",""time""
""fullscreenenter"",""1"",""3717""
","
","
","""event"",""trial"",""time""
""fullscreenenter"",""1"",""3717""
","
","","8138.365000020713","On every turn, you will be shown four different decks of cards. </br> You need to select a card from one of the four decks.  ","75","","instructions","2021-07-01 00:35:55.509","","","","","",""
"casino-keyboard-response","9","41744","0.0-6.0-0.3","923","true","img/card_backs/set1/red.gif","img/card_backs/set1/green.gif","img/card_backs/set1/yellow.gif","img/card_backs/set1/purple.gif","img/card_backs/set2/orange.gif","img/card_backs/set2/blue.gif","img/card_backs/set2/pink.gif","img/card_backs/set2/gray.gif","""event"",""trial"",""time""
""fullscreenenter"",""1"",""3717""
","
","
","""event"",""trial"",""time""
""fullscreenenter"",""1"",""3717""
","
","","4952.959999907762","On the next screen, you will see what the decks will look like. ","66","","instructions","2021-07-01 00:36:00.463","","","","","",""
"card-selection-trial","10","45768","0.0-7.0-0.0","923","true","img/card_backs/set1/red.gif","img/card_backs/set1/green.gif","img/card_backs/set1/yellow.gif","img/card_backs/set1/purple.gif","img/card_backs/set2/orange.gif","img/card_backs/set2/blue.gif","img/card_backs/set2/pink.gif","img/card_backs/set2/gray.gif","""event"",""trial"",""time""
""fullscreenenter"",""1"",""3717""
","
","
","""event"",""trial"",""time""
""fullscreenenter"",""1"",""3717""
","
","","null","","","","practice","2021-07-01 00:36:04.488","null","null","null","0","",""
"casino-keyboard-response","11","53740","0.0-8.0-0.0","923","true","img/card_backs/set1/red.gif","img/card_backs/set1/green.gif","img/card_backs/set1/yellow.gif","img/card_backs/set1/purple.gif","img/card_backs/set2/orange.gif","img/card_backs/set2/blue.gif","img/card_backs/set2/pink.gif","img/card_backs/set2/gray.gif","""event"",""trial"",""time""
""fullscreenenter"",""1"",""3717""
","
","
","""event"",""trial"",""time""
""fullscreenenter"",""1"",""3717""
","
","","8010.645000031218","You should pick a card from a deck using the '2', '4', '6', and '8' keys at the top of the keyboard.","85","","instructions","2021-07-01 00:36:12.459","","","","","",""
"casino-keyboard-response","12","59612","0.0-8.0-0.1","923","true","img/card_backs/set1/red.gif","img/card_backs/set1/green.gif","img/card_backs/set1/yellow.gif","img/card_backs/set1/purple.gif","img/card_backs/set2/orange.gif","img/card_backs/set2/blue.gif","img/card_backs/set2/pink.gif","img/card_backs/set2/gray.gif","""event"",""trial"",""time""
""fullscreenenter"",""1"",""3717""
","
","
","""event"",""trial"",""time""
""fullscreenenter"",""1"",""3717""
","
","","5871.349999913946","Once you select a card, it will turn over and you will see how many tokens you earned.","83","","instructions","2021-07-01 00:36:18.332","","","","","",""
"casino-keyboard-response","13","74638","0.0-8.0-0.2","923","true","img/card_backs/set1/red.gif","img/card_backs/set1/green.gif","img/card_backs/set1/yellow.gif","img/card_backs/set1/purple.gif","img/card_backs/set2/orange.gif","img/card_backs/set2/blue.gif","img/card_backs/set2/pink.gif","img/card_backs/set2/gray.gif","""event"",""trial"",""time""
""fullscreenenter"",""1"",""3717""
","
","
","""event"",""trial"",""time""
""fullscreenenter"",""1"",""3717""
","
","","15024.3049999699","Let's try practicing that! </br> First, try to put your fingers over the '2', '4', '6', and '8' keys. </br>  You can use whatever fingers are most comfortable for you. Try to find a comfortable position now. ","50","","instructions","2021-07-01 00:36:33.357","","","","","",""
"casino-keyboard-response","14","80448","0.0-8.0-0.3","923","true","img/card_backs/set1/red.gif","img/card_backs/set1/green.gif","img/card_backs/set1/yellow.gif","img/card_backs/set1/purple.gif","img/card_backs/set2/orange.gif","img/card_backs/set2/blue.gif","img/card_backs/set2/pink.gif","img/card_backs/set2/gray.gif","""event"",""trial"",""time""
""fullscreenenter"",""1"",""3717""
","
","
","""event"",""trial"",""time""
""fullscreenenter"",""1"",""3717""
","
","","5807.349999900907","Okay ready? </br> On the next screen, press '2' to select the left deck. ","50","","instructions","2021-07-01 00:36:39.167","","","","","",""
"card-selection-trial","15","83565","0.0-9.0-0.0","923","true","img/card_backs/set1/red.gif","img/card_backs/set1/green.gif","img/card_backs/set1/yellow.gif","img/card_backs/set1/purple.gif","img/card_backs/set2/orange.gif","img/card_backs/set2/blue.gif","img/card_backs/set2/pink.gif","img/card_backs/set2/gray.gif","""event"",""trial"",""time""
""fullscreenenter"",""1"",""3717""
","
","
","""event"",""trial"",""time""
""fullscreenenter"",""1"",""3717""
","
","","746.0799999535084","","","","practice_card_selection","2021-07-01 00:36:42.284","img/practice_cards/backs/dark_green.gif","0","200","","",""
"casino-keyboard-response","16","89338","0.0-10.0-0.0","923","true","img/card_backs/set1/red.gif","img/card_backs/set1/green.gif","img/card_backs/set1/yellow.gif","img/card_backs/set1/purple.gif","img/card_backs/set2/orange.gif","img/card_backs/set2/blue.gif","img/card_backs/set2/pink.gif","img/card_backs/set2/gray.gif","""event"",""trial"",""time""
""fullscreenenter"",""1"",""3717""
","
","
","""event"",""trial"",""time""
""fullscreenenter"",""1"",""3717""
","
","","5771.355000091717","Great! Now on the next screen, try pressing '6' to select the third deck.","54","","instructions","2021-07-01 00:36:48.057","","","","","",""
"card-selection-trial","17","95876","0.0-11.0-0.0","923","true","img/card_backs/set1/red.gif","img/card_backs/set1/green.gif","img/card_backs/set1/yellow.gif","img/card_backs/set1/purple.gif","img/card_backs/set2/orange.gif","img/card_backs/set2/blue.gif","img/card_backs/set2/pink.gif","img/card_backs/set2/gray.gif","""event"",""trial"",""time""
""fullscreenenter"",""1"",""3717""
","
","
","""event"",""trial"",""time""
""fullscreenenter"",""1"",""3717""
","
","","4529.2149998713285","","","","practice_card_selection","2021-07-01 00:36:54.595","img/practice_cards/backs/dark_blue.gif","2","-200","","",""
"casino-keyboard-response","18","100534","0.0-12.0-0.0","923","true","img/card_backs/set1/red.gif","img/card_backs/set1/green.gif","img/card_backs/set1/yellow.gif","img/card_backs/set1/purple.gif","img/card_backs/set2/orange.gif","img/card_backs/set2/blue.gif","img/card_backs/set2/pink.gif","img/card_backs/set2/gray.gif","""event"",""trial"",""time""
""fullscreenenter"",""1"",""3717""
","
","
","""event"",""trial"",""time""
""fullscreenenter"",""1"",""3717""
","
","","4656.260000076145","Now on the next screen, try pressing '4' to select the second deck.","52","","instructions","2021-07-01 00:36:59.253","","","","","",""
"card-selection-trial","19","103435","0.0-13.0-0.0","923","true","img/card_backs/set1/red.gif","img/card_backs/set1/green.gif","img/card_backs/set1/yellow.gif","img/card_backs/set1/purple.gif","img/card_backs/set2/orange.gif","img/card_backs/set2/blue.gif","img/card_backs/set2/pink.gif","img/card_backs/set2/gray.gif","""event"",""trial"",""time""
""fullscreenenter"",""1"",""3717""
","
","
","""event"",""trial"",""time""
""fullscreenenter"",""1"",""3717""
","
","","877.0299998577684","","","","practice_card_selection","2021-07-01 00:37:02.154","img/practice_cards/backs/brown.gif","1","-100","","",""
"casino-keyboard-response","20","109249","0.0-14.0-0.0","923","true","img/card_backs/set1/red.gif","img/card_backs/set1/green.gif","img/card_backs/set1/yellow.gif","img/card_backs/set1/purple.gif","img/card_backs/set2/orange.gif","img/card_backs/set2/blue.gif","img/card_backs/set2/pink.gif","img/card_backs/set2/gray.gif","""event"",""trial"",""time""
""fullscreenenter"",""1"",""3717""
","
","
","""event"",""trial"",""time""
""fullscreenenter"",""1"",""3717""
","
","","5811.8400000967085","Finally, try pressing '8' to select the deck all the way on the right.","56","","instructions","2021-07-01 00:37:07.968","","","","","",""
"card-selection-trial","21","111940","0.0-15.0-0.0","923","true","img/card_backs/set1/red.gif","img/card_backs/set1/green.gif","img/card_backs/set1/yellow.gif","img/card_backs/set1/purple.gif","img/card_backs/set2/orange.gif","img/card_backs/set2/blue.gif","img/card_backs/set2/pink.gif","img/card_backs/set2/gray.gif","""event"",""trial"",""time""
""fullscreenenter"",""1"",""3717""
","
","
","""event"",""trial"",""time""
""fullscreenenter"",""1"",""3717""
","
","","753.885000012815","","","","practice_card_selection","2021-07-01 00:37:10.659","img/practice_cards/backs/dark_green.gif","3","-200","","",""
"casino-keyboard-response","22","116778","0.0-16.0-0.0","923","true","img/card_backs/set1/red.gif","img/card_backs/set1/green.gif","img/card_backs/set1/yellow.gif","img/card_backs/set1/purple.gif","img/card_backs/set2/orange.gif","img/card_backs/set2/blue.gif","img/card_backs/set2/pink.gif","img/card_backs/set2/gray.gif","""event"",""trial"",""time""
""fullscreenenter"",""1"",""3717""
","
","
","""event"",""trial"",""time""
""fullscreenenter"",""1"",""3717""
","
","","4836.634999839589","Great! It seems like you are getting the hang of this.","80","","instructions","2021-07-01 00:37:15.497","","","","","",""
"casino-keyboard-response","23","124242","0.0-16.0-0.1","923","true","img/card_backs/set1/red.gif","img/card_backs/set1/green.gif","img/card_backs/set1/yellow.gif","img/card_backs/set1/purple.gif","img/card_backs/set2/orange.gif","img/card_backs/set2/blue.gif","img/card_backs/set2/pink.gif","img/card_backs/set2/gray.gif","""event"",""trial"",""time""
""fullscreenenter"",""1"",""3717""
","
","
","""event"",""trial"",""time""
""fullscreenenter"",""1"",""3717""
","
","","7462.25000009872","You may have noticed that some cards will cause you to <b> win </b> tokens while other cards will cause you to <b> lose </b>  tokens.","70","","instructions","2021-07-01 00:37:22.962","","","","","",""
"casino-keyboard-response","24","133281","0.0-16.0-0.2","923","true","img/card_backs/set1/red.gif","img/card_backs/set1/green.gif","img/card_backs/set1/yellow.gif","img/card_backs/set1/purple.gif","img/card_backs/set2/orange.gif","img/card_backs/set2/blue.gif","img/card_backs/set2/pink.gif","img/card_backs/set2/gray.gif","""event"",""trial"",""time""
""fullscreenenter"",""1"",""3717""
","
","
","""event"",""trial"",""time""
""fullscreenenter"",""1"",""3717""
","
","","9036.890000104904","Each deck has a mix of cards that will cause you to win and lose tokens. </br> However, the cards in each colored deck are different.","73","","instructions","2021-07-01 00:37:32.000","","","","","",""
"casino-keyboard-response","25","141840","0.0-16.0-0.3","923","true","img/card_backs/set1/red.gif","img/card_backs/set1/green.gif","img/card_backs/set1/yellow.gif","img/card_backs/set1/purple.gif","img/card_backs/set2/orange.gif","img/card_backs/set2/blue.gif","img/card_backs/set2/pink.gif","img/card_backs/set2/gray.gif","""event"",""trial"",""time""
""fullscreenenter"",""1"",""3717""
","
","
","""event"",""trial"",""time""
""fullscreenenter"",""1"",""3717""
","
","","8556.899999966845","Some colored decks are luckier than others. </br> If you choose the lucky decks, you will earn more tokens than if you choose the unlucky decks.","69","","instructions","2021-07-01 00:37:40.559","","","","","",""
"casino-keyboard-response","26","149211","0.0-16.0-0.4","923","true","img/card_backs/set1/red.gif","img/card_backs/set1/green.gif","img/card_backs/set1/yellow.gif","img/card_backs/set1/purple.gif","img/card_backs/set2/orange.gif","img/card_backs/set2/blue.gif","img/card_backs/set2/pink.gif","img/card_backs/set2/gray.gif","""event"",""trial"",""time""
""fullscreenenter"",""1"",""3717""
","
","
","""event"",""trial"",""time""
""fullscreenenter"",""1"",""3717""
","
","","7369.279999984428","You should try to figure out which decks are lucky. </br> Then, try to choose the lucky decks so you can win the most tokens.","87","","instructions","2021-07-01 00:37:47.930","","","","","",""
"casino-keyboard-response","27","161214","0.0-16.0-0.5","923","true","img/card_backs/set1/red.gif","img/card_backs/set1/green.gif","img/card_backs/set1/yellow.gif","img/card_backs/set1/purple.gif","img/card_backs/set2/orange.gif","img/card_backs/set2/blue.gif","img/card_backs/set2/pink.gif","img/card_backs/set2/gray.gif","""event"",""trial"",""time""
""fullscreenenter"",""1"",""3717""
","
","
","""event"",""trial"",""time""
""fullscreenenter"",""1"",""3717""
","
","","12001.274999929592","To make it trickier, the casino dealer will switch the locations of the decks on every turn. </br> The color of the deck determines how lucky it is. The location does not matter.","88","","instructions","2021-07-01 00:37:59.933","","","","","",""
"casino-keyboard-response","28","172275","0.0-16.0-0.6","923","true","img/card_backs/set1/red.gif","img/card_backs/set1/green.gif","img/card_backs/set1/yellow.gif","img/card_backs/set1/purple.gif","img/card_backs/set2/orange.gif","img/card_backs/set2/blue.gif","img/card_backs/set2/pink.gif","img/card_backs/set2/gray.gif","""event"",""trial"",""time""
""fullscreenenter"",""1"",""3717""
","
","
","""event"",""trial"",""time""
""fullscreenenter"",""1"",""3717""
","
","","11135.639999993145","The mix of cards in each colored deck will stay the same throughout the game. </br> That means that a deck that is lucky early on will stay lucky.","79","","instructions","2021-07-01 00:38:10.994","","","","","",""
"casino-keyboard-response","29","181166","0.0-16.0-0.7","923","true","img/card_backs/set1/red.gif","img/card_backs/set1/green.gif","img/card_backs/set1/yellow.gif","img/card_backs/set1/purple.gif","img/card_backs/set2/orange.gif","img/card_backs/set2/blue.gif","img/card_backs/set2/pink.gif","img/card_backs/set2/gray.gif","""event"",""trial"",""time""
""fullscreenenter"",""1"",""3717""
","
","
","""event"",""trial"",""time""
""fullscreenenter"",""1"",""3717""
","
","","8886.154999956489","Remember though, all the decks have a <b> mix </b> of both <b> good </b> and <b> bad </b> cards so it may take a couple of turns to figure out if a deck is lucky.","69","","instructions","2021-07-01 00:38:19.885","","","","","",""
"casino-keyboard-response","30","189730","0.0-16.0-0.8","923","true","img/card_backs/set1/red.gif","img/card_backs/set1/green.gif","img/card_backs/set1/yellow.gif","img/card_backs/set1/purple.gif","img/card_backs/set2/orange.gif","img/card_backs/set2/blue.gif","img/card_backs/set2/pink.gif","img/card_backs/set2/gray.gif","""event"",""trial"",""time""
""fullscreenenter"",""1"",""3717""
","
","
","""event"",""trial"",""time""
""fullscreenenter"",""1"",""3717""
","
","","8559.580000117421","At the end of the game, you will be paid bonus money based on how many tokens you win. </br> If you win more tokens, you will earn more money!","72","","instructions","2021-07-01 00:38:28.449","","","","","",""
"casino-keyboard-response","31","200018","0.0-16.0-0.9","923","true","img/card_backs/set1/red.gif","img/card_backs/set1/green.gif","img/card_backs/set1/yellow.gif","img/card_backs/set1/purple.gif","img/card_backs/set2/orange.gif","img/card_backs/set2/blue.gif","img/card_backs/set2/pink.gif","img/card_backs/set2/gray.gif","""event"",""trial"",""time""
""fullscreenenter"",""1"",""3717""
","
","
","""event"",""trial"",""time""
""fullscreenenter"",""1"",""3717""
","
","","10286.169999977574","You will never <b> lose </b> money. </br> If you end up with fewer than 0 tokens, you will earn $0 of bonus money, but you will still be paid for playing the game.","83","","instructions","2021-07-01 00:38:38.737","","","","","",""
"casino-keyboard-response","32","204285","0.0-16.0-0.10","923","true","img/card_backs/set1/red.gif","img/card_backs/set1/green.gif","img/card_backs/set1/yellow.gif","img/card_backs/set1/purple.gif","img/card_backs/set2/orange.gif","img/card_backs/set2/blue.gif","img/card_backs/set2/pink.gif","img/card_backs/set2/gray.gif","""event"",""trial"",""time""
""fullscreenenter"",""1"",""3717""
","
","
","""event"",""trial"",""time""
""fullscreenenter"",""1"",""3717""
","
","","4265.125000150874","You will have 10 seconds to make each choice.","82","","instructions","2021-07-01 00:38:43.004","","","","","",""
"casino-keyboard-response","33","213012","0.0-16.0-0.11","923","true","img/card_backs/set1/red.gif","img/card_backs/set1/green.gif","img/card_backs/set1/yellow.gif","img/card_backs/set1/purple.gif","img/card_backs/set2/orange.gif","img/card_backs/set2/blue.gif","img/card_backs/set2/pink.gif","img/card_backs/set2/gray.gif","""event"",""trial"",""time""
""fullscreenenter"",""1"",""3717""
","
","
","""event"",""trial"",""time""
""fullscreenenter"",""1"",""3717""
","
","","8718.400000128895","Before you play the game for real, you will play with practice decks. </br> The tokens you earn during practice won't count toward your total.","86","","instructions","2021-07-01 00:38:51.731","","","","","",""
"casino-keyboard-response","34","224639","0.0-16.0-0.12","923","true","img/card_backs/set1/red.gif","img/card_backs/set1/green.gif","img/card_backs/set1/yellow.gif","img/card_backs/set1/purple.gif","img/card_backs/set2/orange.gif","img/card_backs/set2/blue.gif","img/card_backs/set2/pink.gif","img/card_backs/set2/gray.gif","""event"",""trial"",""time""
""fullscreenenter"",""1"",""3717""
","
","
","""event"",""trial"",""time""
""fullscreenenter"",""1"",""3717""
","
","","11625.179999973625","Ready? Remember, use the '2', '4', '6', and '8' keys to select the decks. </br> Put your fingers on those keys now and then press '2' to begin.","50","","instructions","2021-07-01 00:39:03.358","","","","","",""
"casino-fixation","35","225142","0.0-17.0-0.0","923","true","img/card_backs/set1/red.gif","img/card_backs/set1/green.gif","img/card_backs/set1/yellow.gif","img/card_backs/set1/purple.gif","img/card_backs/set2/orange.gif","img/card_backs/set2/blue.gif","img/card_backs/set2/pink.gif","img/card_backs/set2/gray.gif","""event"",""trial"",""time""
""fullscreenenter"",""1"",""3717""
","
","
","""event"",""trial"",""time""
""fullscreenenter"",""1"",""3717""
","
","","null","","null","","fixation","2021-07-01 00:39:03.862","","","","","",""
"card-selection-trial","36","228914","0.0-17.0-1.0","923","true","img/card_backs/set1/red.gif","img/card_backs/set1/green.gif","img/card_backs/set1/yellow.gif","img/card_backs/set1/purple.gif","img/card_backs/set2/orange.gif","img/card_backs/set2/blue.gif","img/card_backs/set2/pink.gif","img/card_backs/set2/gray.gif","""event"",""trial"",""time""
""fullscreenenter"",""1"",""3717""
","
","
","""event"",""trial"",""time""
""fullscreenenter"",""1"",""3717""
","
","","1749.9100000131875","","","","practice","2021-07-01 00:39:07.633","img/practice_cards/backs/brown.gif","0","100","0","",""
"casino-fixation","37","229433","0.0-17.0-0.1","923","true","img/card_backs/set1/red.gif","img/card_backs/set1/green.gif","img/card_backs/set1/yellow.gif","img/card_backs/set1/purple.gif","img/card_backs/set2/orange.gif","img/card_backs/set2/blue.gif","img/card_backs/set2/pink.gif","img/card_backs/set2/gray.gif","""event"",""trial"",""time""
""fullscreenenter"",""1"",""3717""
","
","
","""event"",""trial"",""time""
""fullscreenenter"",""1"",""3717""
","
","","null","","null","","fixation","2021-07-01 00:39:08.152","","","","","",""
"card-selection-trial","38","232825","0.0-17.0-1.1","923","true","img/card_backs/set1/red.gif","img/card_backs/set1/green.gif","img/card_backs/set1/yellow.gif","img/card_backs/set1/purple.gif","img/card_backs/set2/orange.gif","img/card_backs/set2/blue.gif","img/card_backs/set2/pink.gif","img/card_backs/set2/gray.gif","""event"",""trial"",""time""
""fullscreenenter"",""1"",""3717""
","
","
","""event"",""trial"",""time""
""fullscreenenter"",""1"",""3717""
","
","","1457.6999999117106","","","","practice","2021-07-01 00:39:11.544","img/practice_cards/backs/brown.gif","2","-100","0","",""
"casino-fixation","39","233344","0.0-17.0-0.2","923","true","img/card_backs/set1/red.gif","img/card_backs/set1/green.gif","img/card_backs/set1/yellow.gif","img/card_backs/set1/purple.gif","img/card_backs/set2/orange.gif","img/card_backs/set2/blue.gif","img/card_backs/set2/pink.gif","img/card_backs/set2/gray.gif","""event"",""trial"",""time""
""fullscreenenter"",""1"",""3717""
","
","
","""event"",""trial"",""time""
""fullscreenenter"",""1"",""3717""
","
","","null","","null","","fixation","2021-07-01 00:39:12.063","","","","","",""
"card-selection-trial","40","236619","0.0-17.0-1.2","923","true","img/card_backs/set1/red.gif","img/card_backs/set1/green.gif","img/card_backs/set1/yellow.gif","img/card_backs/set1/purple.gif","img/card_backs/set2/orange.gif","img/card_backs/set2/blue.gif","img/card_backs/set2/pink.gif","img/card_backs/set2/gray.gif","""event"",""trial"",""time""
""fullscreenenter"",""1"",""3717""
","
","
","""event"",""trial"",""time""
""fullscreenenter"",""1"",""3717""
","
","","1268.2499999646097","","","","practice","2021-07-01 00:39:15.339","img/practice_cards/backs/brown.gif","0","-100","0","",""
"casino-fixation","41","237127","0.0-17.0-0.3","923","true","img/card_backs/set1/red.gif","img/card_backs/set1/green.gif","img/card_backs/set1/yellow.gif","img/card_backs/set1/purple.gif","img/card_backs/set2/orange.gif","img/card_backs/set2/blue.gif","img/card_backs/set2/pink.gif","img/card_backs/set2/gray.gif","""event"",""trial"",""time""
""fullscreenenter"",""1"",""3717""
","
","
","""event"",""trial"",""time""
""fullscreenenter"",""1"",""3717""
","
","","null","","null","","fixation","2021-07-01 00:39:15.847","","","","","",""
"card-selection-trial","42","240006","0.0-17.0-1.3","923","true","img/card_backs/set1/red.gif","img/card_backs/set1/green.gif","img/card_backs/set1/yellow.gif","img/card_backs/set1/purple.gif","img/card_backs/set2/orange.gif","img/card_backs/set2/blue.gif","img/card_backs/set2/pink.gif","img/card_backs/set2/gray.gif","""event"",""trial"",""time""
""fullscreenenter"",""1"",""3717""
","
","
","""event"",""trial"",""time""
""fullscreenenter"",""1"",""3717""
","
","","854.7100001014769","","","","practice","2021-07-01 00:39:18.726","img/practice_cards/backs/brown.gif","0","100","0","",""
"casino-fixation","43","240526","0.0-17.0-0.4","923","true","img/card_backs/set1/red.gif","img/card_backs/set1/green.gif","img/card_backs/set1/yellow.gif","img/card_backs/set1/purple.gif","img/card_backs/set2/orange.gif","img/card_backs/set2/blue.gif","img/card_backs/set2/pink.gif","img/card_backs/set2/gray.gif","""event"",""trial"",""time""
""fullscreenenter"",""1"",""3717""
","
","
","""event"",""trial"",""time""
""fullscreenenter"",""1"",""3717""
","
","","null","","null","","fixation","2021-07-01 00:39:19.245","","","","","",""
"card-selection-trial","44","244026","0.0-17.0-1.4","923","true","img/card_backs/set1/red.gif","img/card_backs/set1/green.gif","img/card_backs/set1/yellow.gif","img/card_backs/set1/purple.gif","img/card_backs/set2/orange.gif","img/card_backs/set2/blue.gif","img/card_backs/set2/pink.gif","img/card_backs/set2/gray.gif","""event"",""trial"",""time""
""fullscreenenter"",""1"",""3717""
","
","
","""event"",""trial"",""time""
""fullscreenenter"",""1"",""3717""
","
","","1489.6949999965727","","","","practice","2021-07-01 00:39:22.745","img/practice_cards/backs/brown.gif","1","100","0","",""
"casino-fixation","45","244535","0.0-17.0-0.5","923","true","img/card_backs/set1/red.gif","img/card_backs/set1/green.gif","img/card_backs/set1/yellow.gif","img/card_backs/set1/purple.gif","img/card_backs/set2/orange.gif","img/card_backs/set2/blue.gif","img/card_backs/set2/pink.gif","img/card_backs/set2/gray.gif","""event"",""trial"",""time""
""fullscreenenter"",""1"",""3717""
","
","
","""event"",""trial"",""time""
""fullscreenenter"",""1"",""3717""
","
","","null","","null","","fixation","2021-07-01 00:39:23.254","","","","","",""
"card-selection-trial","46","247434","0.0-17.0-1.5","923","true","img/card_backs/set1/red.gif","img/card_backs/set1/green.gif","img/card_backs/set1/yellow.gif","img/card_backs/set1/purple.gif","img/card_backs/set2/orange.gif","img/card_backs/set2/blue.gif","img/card_backs/set2/pink.gif","img/card_backs/set2/gray.gif","""event"",""trial"",""time""
""fullscreenenter"",""1"",""3717""
","
","
","""event"",""trial"",""time""
""fullscreenenter"",""1"",""3717""
","
","","886.6500000003725","","","","practice","2021-07-01 00:39:26.153","img/practice_cards/backs/brown.gif","0","100","0","",""
"casino-fixation","47","247955","0.0-17.0-0.6","923","true","img/card_backs/set1/red.gif","img/card_backs/set1/green.gif","img/card_backs/set1/yellow.gif","img/card_backs/set1/purple.gif","img/card_backs/set2/orange.gif","img/card_backs/set2/blue.gif","img/card_backs/set2/pink.gif","img/card_backs/set2/gray.gif","""event"",""trial"",""time""
""fullscreenenter"",""1"",""3717""
","
","
","""event"",""trial"",""time""
""fullscreenenter"",""1"",""3717""
","
","","null","","null","","fixation","2021-07-01 00:39:26.674","","","","","",""
"card-selection-trial","48","251600","0.0-17.0-1.6","923","true","img/card_backs/set1/red.gif","img/card_backs/set1/green.gif","img/card_backs/set1/yellow.gif","img/card_backs/set1/purple.gif","img/card_backs/set2/orange.gif","img/card_backs/set2/blue.gif","img/card_backs/set2/pink.gif","img/card_backs/set2/gray.gif","""event"",""trial"",""time""
""fullscreenenter"",""1"",""3717""
","
","
","""event"",""trial"",""time""
""fullscreenenter"",""1"",""3717""
","
","","1630.8849998749793","","","","practice","2021-07-01 00:39:30.319","img/practice_cards/backs/brown.gif","1","-100","0","",""
"casino-fixation","49","252106","0.0-17.0-0.7","923","true","img/card_backs/set1/red.gif","img/card_backs/set1/green.gif","img/card_backs/set1/yellow.gif","img/card_backs/set1/purple.gif","img/card_backs/set2/orange.gif","img/card_backs/set2/blue.gif","img/card_backs/set2/pink.gif","img/card_backs/set2/gray.gif","""event"",""trial"",""time""
""fullscreenenter"",""1"",""3717""
","
","
","""event"",""trial"",""time""
""fullscreenenter"",""1"",""3717""
","
","","null","","null","","fixation","2021-07-01 00:39:30.825","","","","","",""
"card-selection-trial","50","255922","0.0-17.0-1.7","923","true","img/card_backs/set1/red.gif","img/card_backs/set1/green.gif","img/card_backs/set1/yellow.gif","img/card_backs/set1/purple.gif","img/card_backs/set2/orange.gif","img/card_backs/set2/blue.gif","img/card_backs/set2/pink.gif","img/card_backs/set2/gray.gif","""event"",""trial"",""time""
""fullscreenenter"",""1"",""3717""
","
","
","""event"",""trial"",""time""
""fullscreenenter"",""1"",""3717""
","
","","1807.9450000077486","","","","practice","2021-07-01 00:39:34.642","img/practice_cards/backs/brown.gif","3","-100","0","",""
"casino-fixation","51","256429","0.0-17.0-0.8","923","true","img/card_backs/set1/red.gif","img/card_backs/set1/green.gif","img/card_backs/set1/yellow.gif","img/card_backs/set1/purple.gif","img/card_backs/set2/orange.gif","img/card_backs/set2/blue.gif","img/card_backs/set2/pink.gif","img/card_backs/set2/gray.gif","""event"",""trial"",""time""
""fullscreenenter"",""1"",""3717""
","
","
","""event"",""trial"",""time""
""fullscreenenter"",""1"",""3717""
","
","","null","","null","","fixation","2021-07-01 00:39:35.148","","","","","",""
"card-selection-trial","52","260083","0.0-17.0-1.8","923","true","img/card_backs/set1/red.gif","img/card_backs/set1/green.gif","img/card_backs/set1/yellow.gif","img/card_backs/set1/purple.gif","img/card_backs/set2/orange.gif","img/card_backs/set2/blue.gif","img/card_backs/set2/pink.gif","img/card_backs/set2/gray.gif","""event"",""trial"",""time""
""fullscreenenter"",""1"",""3717""
","
","
","""event"",""trial"",""time""
""fullscreenenter"",""1"",""3717""
","
","","1648.0749999172986","","","","practice","2021-07-01 00:39:38.802","img/practice_cards/backs/dark_green.gif","2","-200","0","",""
"casino-fixation","53","260584","0.0-17.0-0.9","923","true","img/card_backs/set1/red.gif","img/card_backs/set1/green.gif","img/card_backs/set1/yellow.gif","img/card_backs/set1/purple.gif","img/card_backs/set2/orange.gif","img/card_backs/set2/blue.gif","img/card_backs/set2/pink.gif","img/card_backs/set2/gray.gif","""event"",""trial"",""time""
""fullscreenenter"",""1"",""3717""
","
","
","""event"",""trial"",""time""
""fullscreenenter"",""1"",""3717""
","
","","null","","null","","fixation","2021-07-01 00:39:39.303","","","","","",""
"card-selection-trial","54","264131","0.0-17.0-1.9","923","true","img/card_backs/set1/red.gif","img/card_backs/set1/green.gif","img/card_backs/set1/yellow.gif","img/card_backs/set1/purple.gif","img/card_backs/set2/orange.gif","img/card_backs/set2/blue.gif","img/card_backs/set2/pink.gif","img/card_backs/set2/gray.gif","""event"",""trial"",""time""
""fullscreenenter"",""1"",""3717""
","
","
","""event"",""trial"",""time""
""fullscreenenter"",""1"",""3717""
","
","","1541.6800000239164","","","","practice","2021-07-01 00:39:42.850","img/practice_cards/backs/dark_green.gif","2","-200","0","",""
"casino-keyboard-response","55","267294","0.0-18.0","923","true","img/card_backs/set1/red.gif","img/card_backs/set1/green.gif","img/card_backs/set1/yellow.gif","img/card_backs/set1/purple.gif","img/card_backs/set2/orange.gif","img/card_backs/set2/blue.gif","img/card_backs/set2/pink.gif","img/card_backs/set2/gray.gif","""event"",""trial"",""time""
""fullscreenenter"",""1"",""3717""
","
","
","""event"",""trial"",""time""
""fullscreenenter"",""1"",""3717""
","
","","3162.4900000169873","You earned -400 tokens during the practice round!","82","","","2021-07-01 00:39:46.013","","","","","",""
"casino-keyboard-response","56","272122","0.0-19.0-0.0","923","true","img/card_backs/set1/red.gif","img/card_backs/set1/green.gif","img/card_backs/set1/yellow.gif","img/card_backs/set1/purple.gif","img/card_backs/set2/orange.gif","img/card_backs/set2/blue.gif","img/card_backs/set2/pink.gif","img/card_backs/set2/gray.gif","""event"",""trial"",""time""
""fullscreenenter"",""1"",""3717""
","
","
","""event"",""trial"",""time""
""fullscreenenter"",""1"",""3717""
","
","","4826.424999861047","Nice job! You are almost ready to play the real game.","86","","instructions","2021-07-01 00:39:50.841","","","","","",""
"casino-keyboard-response","57","278408","0.0-19.0-0.1","923","true","img/card_backs/set1/red.gif","img/card_backs/set1/green.gif","img/card_backs/set1/yellow.gif","img/card_backs/set1/purple.gif","img/card_backs/set2/orange.gif","img/card_backs/set2/blue.gif","img/card_backs/set2/pink.gif","img/card_backs/set2/gray.gif","""event"",""trial"",""time""
""fullscreenenter"",""1"",""3717""
","
","
","""event"",""trial"",""time""
""fullscreenenter"",""1"",""3717""
","
","","6284.084999933839","You will play two rounds of the real game. In each round, you will pick 100 cards in total.","73","","instructions","2021-07-01 00:39:57.127","","","","","",""
"casino-keyboard-response","58","282542","0.0-19.0-0.2","923","true","img/card_backs/set1/red.gif","img/card_backs/set1/green.gif","img/card_backs/set1/yellow.gif","img/card_backs/set1/purple.gif","img/card_backs/set2/orange.gif","img/card_backs/set2/blue.gif","img/card_backs/set2/pink.gif","img/card_backs/set2/gray.gif","""event"",""trial"",""time""
""fullscreenenter"",""1"",""3717""
","
","
","""event"",""trial"",""time""
""fullscreenenter"",""1"",""3717""
","
","","4132.805000059307","We are now going to ask you some questions about how the game works.","66","","instructions","2021-07-01 00:40:01.262","","","","","",""
"casino-keyboard-response","59","288673","0.0-19.0-0.3","923","true","img/card_backs/set1/red.gif","img/card_backs/set1/green.gif","img/card_backs/set1/yellow.gif","img/card_backs/set1/purple.gif","img/card_backs/set2/orange.gif","img/card_backs/set2/blue.gif","img/card_backs/set2/pink.gif","img/card_backs/set2/gray.gif","""event"",""trial"",""time""
""fullscreenenter"",""1"",""3717""
","
","
","""event"",""trial"",""time""
""fullscreenenter"",""1"",""3717""
","
","","6129.239999921992","Answer carefully. You will not be able to begin the game until you answer them correctly.","67","","instructions","2021-07-01 00:40:07.392","","","","","",""
"casino-comp_q","60","293668","0.0-20.0-0.0","923","true","img/card_backs/set1/red.gif","img/card_backs/set1/green.gif","img/card_backs/set1/yellow.gif","img/card_backs/set1/purple.gif","img/card_backs/set2/orange.gif","img/card_backs/set2/blue.gif","img/card_backs/set2/pink.gif","img/card_backs/set2/gray.gif","""event"",""trial"",""time""
""fullscreenenter"",""1"",""3717""
","
","
","""event"",""trial"",""time""
""fullscreenenter"",""1"",""3717""
","
","","5069.069999968633","True or False: All the decks have some cards that cause you to win tokens and some cards that cause you to lose tokens.","84","","","2021-07-01 00:40:12.387","","","","","",""
"casino-keyboard-response","61","297025","0.0-20.0-1.0","923","true","img/card_backs/set1/red.gif","img/card_backs/set1/green.gif","img/card_backs/set1/yellow.gif","img/card_backs/set1/purple.gif","img/card_backs/set2/orange.gif","img/card_backs/set2/blue.gif","img/card_backs/set2/pink.gif","img/card_backs/set2/gray.gif","""event"",""trial"",""time""
""fullscreenenter"",""1"",""3717""
","
","
","""event"",""trial"",""time""
""fullscreenenter"",""1"",""3717""
","
","","3354.994999943301","True is correct! All the decks have a mix of winning and losing cards.","77","","","2021-07-01 00:40:15.744","","","","","true",""
"casino-comp_q","62","300219","0.0-21.0-0.0","923","true","img/card_backs/set1/red.gif","img/card_backs/set1/green.gif","img/card_backs/set1/yellow.gif","img/card_backs/set1/purple.gif","img/card_backs/set2/orange.gif","img/card_backs/set2/blue.gif","img/card_backs/set2/pink.gif","img/card_backs/set2/gray.gif","""event"",""trial"",""time""
""fullscreenenter"",""1"",""3717""
","
","
","""event"",""trial"",""time""
""fullscreenenter"",""1"",""3717""
","
","","3191.965000005439","True or False: You will have as much time as you want to make your response.","70","","","2021-07-01 00:40:18.938","","","","","",""
"casino-keyboard-response","63","303194","0.0-21.0-1.0","923","true","img/card_backs/set1/red.gif","img/card_backs/set1/green.gif","img/card_backs/set1/yellow.gif","img/card_backs/set1/purple.gif","img/card_backs/set2/orange.gif","img/card_backs/set2/blue.gif","img/card_backs/set2/pink.gif","img/card_backs/set2/gray.gif","""event"",""trial"",""time""
""fullscreenenter"",""1"",""3717""
","
","
","""event"",""trial"",""time""
""fullscreenenter"",""1"",""3717""
","
","","2967.6099999342114","False is correct! You will only have 10 seconds to make each choice.","75","","","2021-07-01 00:40:21.914","","","","","true",""
"casino-comp_q","64","306340","0.0-22.0-0.0","923","true","img/card_backs/set1/red.gif","img/card_backs/set1/green.gif","img/card_backs/set1/yellow.gif","img/card_backs/set1/purple.gif","img/card_backs/set2/orange.gif","img/card_backs/set2/blue.gif","img/card_backs/set2/pink.gif","img/card_backs/set2/gray.gif","""event"",""trial"",""time""
""fullscreenenter"",""1"",""3717""
","
","
","""event"",""trial"",""time""
""fullscreenenter"",""1"",""3717""
","
","","3144.384999992326","True or False: The location of the deck determines how lucky it is.","70","","","2021-07-01 00:40:25.060","","","","","",""
"casino-keyboard-response","65","310025","0.0-22.0-1.0","923","true","img/card_backs/set1/red.gif","img/card_backs/set1/green.gif","img/card_backs/set1/yellow.gif","img/card_backs/set1/purple.gif","img/card_backs/set2/orange.gif","img/card_backs/set2/blue.gif","img/card_backs/set2/pink.gif","img/card_backs/set2/gray.gif","""event"",""trial"",""time""
""fullscreenenter"",""1"",""3717""
","
","
","""event"",""trial"",""time""
""fullscreenenter"",""1"",""3717""
","
","","3665.6799998600036","False is correct! The <i>color</i>  of the deck determines how lucky or unlucky it is.","68","","","2021-07-01 00:40:28.745","","","","","true",""
"casino-keyboard-response","66","314265","0.0-23.0-0.0","923","true","img/card_backs/set1/red.gif","img/card_backs/set1/green.gif","img/card_backs/set1/yellow.gif","img/card_backs/set1/purple.gif","img/card_backs/set2/orange.gif","img/card_backs/set2/blue.gif","img/card_backs/set2/pink.gif","img/card_backs/set2/gray.gif","""event"",""trial"",""time""
""fullscreenenter"",""1"",""3717""
","
","
","""event"",""trial"",""time""
""fullscreenenter"",""1"",""3717""
","
","","4237.620000028983","Great job! Now it's time to start the real game.","82","","instructions","2021-07-01 00:40:32.984","","","","","",""
"casino-keyboard-response","67","319368","0.0-23.0-0.1","923","true","img/card_backs/set1/red.gif","img/card_backs/set1/green.gif","img/card_backs/set1/yellow.gif","img/card_backs/set1/purple.gif","img/card_backs/set2/orange.gif","img/card_backs/set2/blue.gif","img/card_backs/set2/pink.gif","img/card_backs/set2/gray.gif","""event"",""trial"",""time""
""fullscreenenter"",""1"",""3717""
","
","
","""event"",""trial"",""time""
""fullscreenenter"",""1"",""3717""
","
","","5101.4149999246","Before we start, we're going to head into a new room of the casino.","86","","instructions","2021-07-01 00:40:38.088","","","","","",""
"casino-keyboard-response","68","325551","0.0-24.0-0.0","923","true","img/card_backs/set1/red.gif","img/card_backs/set1/green.gif","img/card_backs/set1/yellow.gif","img/card_backs/set1/purple.gif","img/card_backs/set2/orange.gif","img/card_backs/set2/blue.gif","img/card_backs/set2/pink.gif","img/card_backs/set2/gray.gif","""event"",""trial"",""time""
""fullscreenenter"",""1"",""3717""
","
","
","""event"",""trial"",""time""
""fullscreenenter"",""1"",""3717""
","
","","6179.145000176504","Here we are! The real game will use different cards, but the rules will be the same.","71","","instructions","2021-07-01 00:40:44.270","","","","","",""
"casino-keyboard-response","69","334657","0.0-24.0-0.1","923","true","img/card_backs/set1/red.gif","img/card_backs/set1/green.gif","img/card_backs/set1/yellow.gif","img/card_backs/set1/purple.gif","img/card_backs/set2/orange.gif","img/card_backs/set2/blue.gif","img/card_backs/set2/pink.gif","img/card_backs/set2/gray.gif","""event"",""trial"",""time""
""fullscreenenter"",""1"",""3717""
","
","
","""event"",""trial"",""time""
""fullscreenenter"",""1"",""3717""
","
","","9104.224999900907","Ready? Put your fingers over the '2', '4', 6', and '8' keys so you are ready to play the game. </br> Then press 2 to start.","50","","instructions","2021-07-01 00:40:53.376","","","","","",""
"casino-fixation","70","335167","0.0-25.0-0.0","923","true","img/card_backs/set1/red.gif","img/card_backs/set1/green.gif","img/card_backs/set1/yellow.gif","img/card_backs/set1/purple.gif","img/card_backs/set2/orange.gif","img/card_backs/set2/blue.gif","img/card_backs/set2/pink.gif","img/card_backs/set2/gray.gif","""event"",""trial"",""time""
""fullscreenenter"",""1"",""3717""
","
","
","""event"",""trial"",""time""
""fullscreenenter"",""1"",""3717""
","
","","null","","null","","fixation","2021-07-01 00:40:53.887","","","","","",""
"card-selection-trial","71","338788","0.0-25.0-1.0","923","true","img/card_backs/set1/red.gif","img/card_backs/set1/green.gif","img/card_backs/set1/yellow.gif","img/card_backs/set1/purple.gif","img/card_backs/set2/orange.gif","img/card_backs/set2/blue.gif","img/card_backs/set2/pink.gif","img/card_backs/set2/gray.gif","""event"",""trial"",""time""
""fullscreenenter"",""1"",""3717""
","
","
","""event"",""trial"",""time""
""fullscreenenter"",""1"",""3717""
","
","","1613.1599999498576","","","","real_trial","2021-07-01 00:40:57.508","img/card_backs/set1/green.gif","0","-210","1","",""
"casino-fixation","72","339298","0.0-25.0-0.1","923","true","img/card_backs/set1/red.gif","img/card_backs/set1/green.gif","img/card_backs/set1/yellow.gif","img/card_backs/set1/purple.gif","img/card_backs/set2/orange.gif","img/card_backs/set2/blue.gif","img/card_backs/set2/pink.gif","img/card_backs/set2/gray.gif","""event"",""trial"",""time""
""fullscreenenter"",""1"",""3717""
","
","
","""event"",""trial"",""time""
""fullscreenenter"",""1"",""3717""
","
","","null","","null","","fixation","2021-07-01 00:40:58.017","","","","","",""
"card-selection-trial","73","342418","0.0-25.0-1.1","923","true","img/card_backs/set1/red.gif","img/card_backs/set1/green.gif","img/card_backs/set1/yellow.gif","img/card_backs/set1/purple.gif","img/card_backs/set2/orange.gif","img/card_backs/set2/blue.gif","img/card_backs/set2/pink.gif","img/card_backs/set2/gray.gif","""event"",""trial"",""time""
""fullscreenenter"",""1"",""3717""
","
","
","""event"",""trial"",""time""
""fullscreenenter"",""1"",""3717""
","
","","1112.5450001563877","","","","real_trial","2021-07-01 00:41:01.137","img/card_backs/set1/green.gif","2","250","1","",""
"casino-fixation","74","342927","0.0-25.0-0.2","923","true","img/card_backs/set1/red.gif","img/card_backs/set1/green.gif","img/card_backs/set1/yellow.gif","img/card_backs/set1/purple.gif","img/card_backs/set2/orange.gif","img/card_backs/set2/blue.gif","img/card_backs/set2/pink.gif","img/card_backs/set2/gray.gif","""event"",""trial"",""time""
""fullscreenenter"",""1"",""3717""
","
","
","""event"",""trial"",""time""
""fullscreenenter"",""1"",""3717""
","
","","null","","null","","fixation","2021-07-01 00:41:01.646","","","","","",""
"card-selection-trial","75","346088","0.0-25.0-1.2","923","true","img/card_backs/set1/red.gif","img/card_backs/set1/green.gif","img/card_backs/set1/yellow.gif","img/card_backs/set1/purple.gif","img/card_backs/set2/orange.gif","img/card_backs/set2/blue.gif","img/card_backs/set2/pink.gif","img/card_backs/set2/gray.gif","""event"",""trial"",""time""
""fullscreenenter"",""1"",""3717""
","
","
","""event"",""trial"",""time""
""fullscreenenter"",""1"",""3717""
","
","","1135.4900000151247","","","","real_trial","2021-07-01 00:41:04.808","img/card_backs/set1/green.gif","2","-200","1","",""
"casino-fixation","76","346598","0.0-25.0-0.3","923","true","img/card_backs/set1/red.gif","img/card_backs/set1/green.gif","img/card_backs/set1/yellow.gif","img/card_backs/set1/purple.gif","img/card_backs/set2/orange.gif","img/card_backs/set2/blue.gif","img/card_backs/set2/pink.gif","img/card_backs/set2/gray.gif","""event"",""trial"",""time""
""fullscreenenter"",""1"",""3717""
","
","
","""event"",""trial"",""time""
""fullscreenenter"",""1"",""3717""
","
","","null","","null","","fixation","2021-07-01 00:41:05.317","","","","","",""
"card-selection-trial","77","350008","0.0-25.0-1.3","923","true","img/card_backs/set1/red.gif","img/card_backs/set1/green.gif","img/card_backs/set1/yellow.gif","img/card_backs/set1/purple.gif","img/card_backs/set2/orange.gif","img/card_backs/set2/blue.gif","img/card_backs/set2/pink.gif","img/card_backs/set2/gray.gif","""event"",""trial"",""time""
""fullscreenenter"",""1"",""3717""
","
","
","""event"",""trial"",""time""
""fullscreenenter"",""1"",""3717""
","
","","1403.154999949038","","","","real_trial","2021-07-01 00:41:08.727","img/card_backs/set1/green.gif","2","-190","1","",""
"casino-fixation","78","350513","0.0-25.0-0.4","923","true","img/card_backs/set1/red.gif","img/card_backs/set1/green.gif","img/card_backs/set1/yellow.gif","img/card_backs/set1/purple.gif","img/card_backs/set2/orange.gif","img/card_backs/set2/blue.gif","img/card_backs/set2/pink.gif","img/card_backs/set2/gray.gif","""event"",""trial"",""time""
""fullscreenenter"",""1"",""3717""
","
","
","""event"",""trial"",""time""
""fullscreenenter"",""1"",""3717""
","
","","null","","null","","fixation","2021-07-01 00:41:09.232","","","","","",""
"card-selection-trial","79","353841","0.0-25.0-1.4","923","true","img/card_backs/set1/red.gif","img/card_backs/set1/green.gif","img/card_backs/set1/yellow.gif","img/card_backs/set1/purple.gif","img/card_backs/set2/orange.gif","img/card_backs/set2/blue.gif","img/card_backs/set2/pink.gif","img/card_backs/set2/gray.gif","""event"",""trial"",""time""
""fullscreenenter"",""1"",""3717""
","
","
","""event"",""trial"",""time""
""fullscreenenter"",""1"",""3717""
","
","","1351.7350000329316","","","","real_trial","2021-07-01 00:41:12.560","img/card_backs/set1/green.gif","3","-200","1","",""
"casino-fixation","80","354346","0.0-25.0-0.5","923","true","img/card_backs/set1/red.gif","img/card_backs/set1/green.gif","img/card_backs/set1/yellow.gif","img/card_backs/set1/purple.gif","img/card_backs/set2/orange.gif","img/card_backs/set2/blue.gif","img/card_backs/set2/pink.gif","img/card_backs/set2/gray.gif","""event"",""trial"",""time""
""fullscreenenter"",""1"",""3717""
","
","
","""event"",""trial"",""time""
""fullscreenenter"",""1"",""3717""
","
","","null","","null","","fixation","2021-07-01 00:41:13.065","","","","","",""
"card-selection-trial","81","358580","0.0-25.0-1.5","923","true","img/card_backs/set1/red.gif","img/card_backs/set1/green.gif","img/card_backs/set1/yellow.gif","img/card_backs/set1/purple.gif","img/card_backs/set2/orange.gif","img/card_backs/set2/blue.gif","img/card_backs/set2/pink.gif","img/card_backs/set2/gray.gif","""event"",""trial"",""time""
""fullscreenenter"",""1"",""3717""
","
","
","""event"",""trial"",""time""
""fullscreenenter"",""1"",""3717""
","
","","2223.00500003621","","","","real_trial","2021-07-01 00:41:17.299","img/card_backs/set1/yellow.gif","2","50","1","",""
"casino-fixation","82","359095","0.0-25.0-0.6","923","true","img/card_backs/set1/red.gif","img/card_backs/set1/green.gif","img/card_backs/set1/yellow.gif","img/card_backs/set1/purple.gif","img/card_backs/set2/orange.gif","img/card_backs/set2/blue.gif","img/card_backs/set2/pink.gif","img/card_backs/set2/gray.gif","""event"",""trial"",""time""
""fullscreenenter"",""1"",""3717""
","
","
","""event"",""trial"",""time""
""fullscreenenter"",""1"",""3717""
","
","","null","","null","","fixation","2021-07-01 00:41:17.815","","","","","",""
"card-selection-trial","83","362366","0.0-25.0-1.6","923","true","img/card_backs/set1/red.gif","img/card_backs/set1/green.gif","img/card_backs/set1/yellow.gif","img/card_backs/set1/purple.gif","img/card_backs/set2/orange.gif","img/card_backs/set2/blue.gif","img/card_backs/set2/pink.gif","img/card_backs/set2/gray.gif","""event"",""trial"",""time""
""fullscreenenter"",""1"",""3717""
","
","
","""event"",""trial"",""time""
""fullscreenenter"",""1"",""3717""
","
","","1249.650000128895","","","","real_trial","2021-07-01 00:41:21.085","img/card_backs/set1/yellow.gif","1","-100","1","",""
"casino-fixation","84","362876","0.0-25.0-0.7","923","true","img/card_backs/set1/red.gif","img/card_backs/set1/green.gif","img/card_backs/set1/yellow.gif","img/card_backs/set1/purple.gif","img/card_backs/set2/orange.gif","img/card_backs/set2/blue.gif","img/card_backs/set2/pink.gif","img/card_backs/set2/gray.gif","""event"",""trial"",""time""
""fullscreenenter"",""1"",""3717""
","
","
","""event"",""trial"",""time""
""fullscreenenter"",""1"",""3717""
","
","","null","","null","","fixation","2021-07-01 00:41:21.595","","","","","",""
"card-selection-trial","85","365989","0.0-25.0-1.7","923","true","img/card_backs/set1/red.gif","img/card_backs/set1/green.gif","img/card_backs/set1/yellow.gif","img/card_backs/set1/purple.gif","img/card_backs/set2/orange.gif","img/card_backs/set2/blue.gif","img/card_backs/set2/pink.gif","img/card_backs/set2/gray.gif","""event"",""trial"",""time""
""fullscreenenter"",""1"",""3717""
","
","
","""event"",""trial"",""time""
""fullscreenenter"",""1"",""3717""
","
","","1107.344999909401","","","","real_trial","2021-07-01 00:41:24.708","img/card_backs/set1/yellow.gif","2","-100","1","",""
"casino-fixation","86","366490","0.0-25.0-0.8","923","true","img/card_backs/set1/red.gif","img/card_backs/set1/green.gif","img/card_backs/set1/yellow.gif","img/card_backs/set1/purple.gif","img/card_backs/set2/orange.gif","img/card_backs/set2/blue.gif","img/card_backs/set2/pink.gif","img/card_backs/set2/gray.gif","""event"",""trial"",""time""
""fullscreenenter"",""1"",""3717""
","
","
","""event"",""trial"",""time""
""fullscreenenter"",""1"",""3717""
","
","","null","","null","","fixation","2021-07-01 00:41:25.209","","","","","",""
"card-selection-trial","87","369323","0.0-25.0-1.8","923","true","img/card_backs/set1/red.gif","img/card_backs/set1/green.gif","img/card_backs/set1/yellow.gif","img/card_backs/set1/purple.gif","img/card_backs/set2/orange.gif","img/card_backs/set2/blue.gif","img/card_backs/set2/pink.gif","img/card_backs/set2/gray.gif","""event"",""trial"",""time""
""fullscreenenter"",""1"",""3717""
","
","
","""event"",""trial"",""time""
""fullscreenenter"",""1"",""3717""
","
","","823.1099999975413","","","","real_trial","2021-07-01 00:41:28.042","img/card_backs/set1/yellow.gif","2","-110","1","",""
"casino-fixation","88","369825","0.0-25.0-0.9","923","true","img/card_backs/set1/red.gif","img/card_backs/set1/green.gif","img/card_backs/set1/yellow.gif","img/card_backs/set1/purple.gif","img/card_backs/set2/orange.gif","img/card_backs/set2/blue.gif","img/card_backs/set2/pink.gif","img/card_backs/set2/gray.gif","""event"",""trial"",""time""
""fullscreenenter"",""1"",""3717""
","
","
","""event"",""trial"",""time""
""fullscreenenter"",""1"",""3717""
","
","","null","","null","","fixation","2021-07-01 00:41:28.544","","","","","",""
"card-selection-trial","89","372941","0.0-25.0-1.9","923","true","img/card_backs/set1/red.gif","img/card_backs/set1/green.gif","img/card_backs/set1/yellow.gif","img/card_backs/set1/purple.gif","img/card_backs/set2/orange.gif","img/card_backs/set2/blue.gif","img/card_backs/set2/pink.gif","img/card_backs/set2/gray.gif","""event"",""trial"",""time""
""fullscreenenter"",""1"",""3717""
","
","
","""event"",""trial"",""time""
""fullscreenenter"",""1"",""3717""
","
","","1112.3550001066178","","","","real_trial","2021-07-01 00:41:31.660","img/card_backs/set1/yellow.gif","3","-90","1","",""
"casino-fixation","90","373443","0.0-25.0-0.10","923","true","img/card_backs/set1/red.gif","img/card_backs/set1/green.gif","img/card_backs/set1/yellow.gif","img/card_backs/set1/purple.gif","img/card_backs/set2/orange.gif","img/card_backs/set2/blue.gif","img/card_backs/set2/pink.gif","img/card_backs/set2/gray.gif","""event"",""trial"",""time""
""fullscreenenter"",""1"",""3717""
","
","
","""event"",""trial"",""time""
""fullscreenenter"",""1"",""3717""
","
","","null","","null","","fixation","2021-07-01 00:41:32.162","","","","","",""
"card-selection-trial","91","379061","0.0-25.0-1.10","923","true","img/card_backs/set1/red.gif","img/card_backs/set1/green.gif","img/card_backs/set1/yellow.gif","img/card_backs/set1/purple.gif","img/card_backs/set2/orange.gif","img/card_backs/set2/blue.gif","img/card_backs/set2/pink.gif","img/card_backs/set2/gray.gif","""event"",""trial"",""time""
""fullscreenenter"",""1"",""3717""
","
","
","""event"",""trial"",""time""
""fullscreenenter"",""1"",""3717""
","
","","3611.1750002019107","","","","real_trial","2021-07-01 00:41:37.780","img/card_backs/set1/red.gif","2","260","1","",""
"casino-fixation","92","379562","0.0-25.0-0.11","923","true","img/card_backs/set1/red.gif","img/card_backs/set1/green.gif","img/card_backs/set1/yellow.gif","img/card_backs/set1/purple.gif","img/card_backs/set2/orange.gif","img/card_backs/set2/blue.gif","img/card_backs/set2/pink.gif","img/card_backs/set2/gray.gif","""event"",""trial"",""time""
""fullscreenenter"",""1"",""3717""
","
","
","""event"",""trial"",""time""
""fullscreenenter"",""1"",""3717""
","
","","null","","null","","fixation","2021-07-01 00:41:38.282","","","","","",""
"card-selection-trial","93","382623","0.0-25.0-1.11","923","true","img/card_backs/set1/red.gif","img/card_backs/set1/green.gif","img/card_backs/set1/yellow.gif","img/card_backs/set1/purple.gif","img/card_backs/set2/orange.gif","img/card_backs/set2/blue.gif","img/card_backs/set2/pink.gif","img/card_backs/set2/gray.gif","""event"",""trial"",""time""
""fullscreenenter"",""1"",""3717""
","
","
","""event"",""trial"",""time""
""fullscreenenter"",""1"",""3717""
","
","","1054.8949998337775","","","","real_trial","2021-07-01 00:41:41.342","img/card_backs/set1/red.gif","0","260","1","",""
"casino-fixation","94","383127","0.0-25.0-0.12","923","true","img/card_backs/set1/red.gif","img/card_backs/set1/green.gif","img/card_backs/set1/yellow.gif","img/card_backs/set1/purple.gif","img/card_backs/set2/orange.gif","img/card_backs/set2/blue.gif","img/card_backs/set2/pink.gif","img/card_backs/set2/gray.gif","""event"",""trial"",""time""
""fullscreenenter"",""1"",""3717""
","
","
","""event"",""trial"",""time""
""fullscreenenter"",""1"",""3717""
","
","","null","","null","","fixation","2021-07-01 00:41:41.846","","","","","",""
"card-selection-trial","95","386393","0.0-25.0-1.12","923","true","img/card_backs/set1/red.gif","img/card_backs/set1/green.gif","img/card_backs/set1/yellow.gif","img/card_backs/set1/purple.gif","img/card_backs/set2/orange.gif","img/card_backs/set2/blue.gif","img/card_backs/set2/pink.gif","img/card_backs/set2/gray.gif","""event"",""trial"",""time""
""fullscreenenter"",""1"",""3717""
","
","
","""event"",""trial"",""time""
""fullscreenenter"",""1"",""3717""
","
","","1261.6350001189858","","","","real_trial","2021-07-01 00:41:45.112","img/card_backs/set1/red.gif","3","250","1","",""
"casino-fixation","96","386894","0.0-25.0-0.13","923","true","img/card_backs/set1/red.gif","img/card_backs/set1/green.gif","img/card_backs/set1/yellow.gif","img/card_backs/set1/purple.gif","img/card_backs/set2/orange.gif","img/card_backs/set2/blue.gif","img/card_backs/set2/pink.gif","img/card_backs/set2/gray.gif","""event"",""trial"",""time""
""fullscreenenter"",""1"",""3717""
","
","
","""event"",""trial"",""time""
""fullscreenenter"",""1"",""3717""
","
","","null","","null","","fixation","2021-07-01 00:41:45.614","","","","","",""
"card-selection-trial","97","390013","0.0-25.0-1.13","923","true","img/card_backs/set1/red.gif","img/card_backs/set1/green.gif","img/card_backs/set1/yellow.gif","img/card_backs/set1/purple.gif","img/card_backs/set2/orange.gif","img/card_backs/set2/blue.gif","img/card_backs/set2/pink.gif","img/card_backs/set2/gray.gif","""event"",""trial"",""time""
""fullscreenenter"",""1"",""3717""
","
","
","""event"",""trial"",""time""
""fullscreenenter"",""1"",""3717""
","
","","1113.975000102073","","","","real_trial","2021-07-01 00:41:48.733","img/card_backs/set1/red.gif","3","-190","1","",""
"casino-fixation","98","390515","0.0-25.0-0.14","923","true","img/card_backs/set1/red.gif","img/card_backs/set1/green.gif","img/card_backs/set1/yellow.gif","img/card_backs/set1/purple.gif","img/card_backs/set2/orange.gif","img/card_backs/set2/blue.gif","img/card_backs/set2/pink.gif","img/card_backs/set2/gray.gif","""event"",""trial"",""time""
""fullscreenenter"",""1"",""3717""
","
","
","""event"",""trial"",""time""
""fullscreenenter"",""1"",""3717""
","
","","null","","null","","fixation","2021-07-01 00:41:49.234","","","","","",""
"card-selection-trial","99","393588","0.0-25.0-1.14","923","true","img/card_backs/set1/red.gif","img/card_backs/set1/green.gif","img/card_backs/set1/yellow.gif","img/card_backs/set1/purple.gif","img/card_backs/set2/orange.gif","img/card_backs/set2/blue.gif","img/card_backs/set2/pink.gif","img/card_backs/set2/gray.gif","""event"",""trial"",""time""
""fullscreenenter"",""1"",""3717""
","
","
","""event"",""trial"",""time""
""fullscreenenter"",""1"",""3717""
","
","","1067.1500000171363","","","","real_trial","2021-07-01 00:41:52.307","img/card_backs/set1/red.gif","3","250","1","",""
"casino-fixation","100","394089","0.0-25.0-0.15","923","true","img/card_backs/set1/red.gif","img/card_backs/set1/green.gif","img/card_backs/set1/yellow.gif","img/card_backs/set1/purple.gif","img/card_backs/set2/orange.gif","img/card_backs/set2/blue.gif","img/card_backs/set2/pink.gif","img/card_backs/set2/gray.gif","""event"",""trial"",""time""
""fullscreenenter"",""1"",""3717""
","
","
","""event"",""trial"",""time""
""fullscreenenter"",""1"",""3717""
","
","","null","","null","","fixation","2021-07-01 00:41:52.809","","","","","",""
"card-selection-trial","101","396667","0.0-25.0-1.15","923","true","img/card_backs/set1/red.gif","img/card_backs/set1/green.gif","img/card_backs/set1/yellow.gif","img/card_backs/set1/purple.gif","img/card_backs/set2/orange.gif","img/card_backs/set2/blue.gif","img/card_backs/set2/pink.gif","img/card_backs/set2/gray.gif","""event"",""trial"",""time""
""fullscreenenter"",""1"",""3717""
","
","
","""event"",""trial"",""time""
""fullscreenenter"",""1"",""3717""
","
","","573.8750000018626","","","","real_trial","2021-07-01 00:41:55.386","img/card_backs/set1/red.gif","3","250","1","",""
"casino-fixation","102","397170","0.0-25.0-0.16","923","true","img/card_backs/set1/red.gif","img/card_backs/set1/green.gif","img/card_backs/set1/yellow.gif","img/card_backs/set1/purple.gif","img/card_backs/set2/orange.gif","img/card_backs/set2/blue.gif","img/card_backs/set2/pink.gif","img/card_backs/set2/gray.gif","""event"",""trial"",""time""
""fullscreenenter"",""1"",""3717""
","
","
","""event"",""trial"",""time""
""fullscreenenter"",""1"",""3717""
","
","","null","","null","","fixation","2021-07-01 00:41:55.889","","","","","",""
"card-selection-trial","103","399862","0.0-25.0-1.16","923","true","img/card_backs/set1/red.gif","img/card_backs/set1/green.gif","img/card_backs/set1/yellow.gif","img/card_backs/set1/purple.gif","img/card_backs/set2/orange.gif","img/card_backs/set2/blue.gif","img/card_backs/set2/pink.gif","img/card_backs/set2/gray.gif","""event"",""trial"",""time""
""fullscreenenter"",""1"",""3717""
","
","
","""event"",""trial"",""time""
""fullscreenenter"",""1"",""3717""
","
","","686.3200000952929","","","","real_trial","2021-07-01 00:41:58.581","img/card_backs/set1/red.gif","3","260","1","",""
"casino-fixation","104","400364","0.0-25.0-0.17","923","true","img/card_backs/set1/red.gif","img/card_backs/set1/green.gif","img/card_backs/set1/yellow.gif","img/card_backs/set1/purple.gif","img/card_backs/set2/orange.gif","img/card_backs/set2/blue.gif","img/card_backs/set2/pink.gif","img/card_backs/set2/gray.gif","""event"",""trial"",""time""
""fullscreenenter"",""1"",""3717""
","
","
","""event"",""trial"",""time""
""fullscreenenter"",""1"",""3717""
","
","","null","","null","","fixation","2021-07-01 00:41:59.083","","","","","",""
"card-selection-trial","105","403609","0.0-25.0-1.17","923","true","img/card_backs/set1/red.gif","img/card_backs/set1/green.gif","img/card_backs/set1/yellow.gif","img/card_backs/set1/purple.gif","img/card_backs/set2/orange.gif","img/card_backs/set2/blue.gif","img/card_backs/set2/pink.gif","img/card_backs/set2/gray.gif","""event"",""trial"",""time""
""fullscreenenter"",""1"",""3717""
","
","
","""event"",""trial"",""time""
""fullscreenenter"",""1"",""3717""
","
","","1238.954999949783","","","","real_trial","2021-07-01 00:42:02.328","img/card_backs/set1/red.gif","0","260","1","",""
"casino-fixation","106","404112","0.0-25.0-0.18","923","true","img/card_backs/set1/red.gif","img/card_backs/set1/green.gif","img/card_backs/set1/yellow.gif","img/card_backs/set1/purple.gif","img/card_backs/set2/orange.gif","img/card_backs/set2/blue.gif","img/card_backs/set2/pink.gif","img/card_backs/set2/gray.gif","""event"",""trial"",""time""
""fullscreenenter"",""1"",""3717""
","
","
","""event"",""trial"",""time""
""fullscreenenter"",""1"",""3717""
","
","","null","","null","","fixation","2021-07-01 00:42:02.831","","","","","",""
"card-selection-trial","107","406930","0.0-25.0-1.18","923","true","img/card_backs/set1/red.gif","img/card_backs/set1/green.gif","img/card_backs/set1/yellow.gif","img/card_backs/set1/purple.gif","img/card_backs/set2/orange.gif","img/card_backs/set2/blue.gif","img/card_backs/set2/pink.gif","img/card_backs/set2/gray.gif","""event"",""trial"",""time""
""fullscreenenter"",""1"",""3717""
","
","
","""event"",""trial"",""time""
""fullscreenenter"",""1"",""3717""
","
","","798.1849999632686","","","","real_trial","2021-07-01 00:42:05.649","img/card_backs/set1/red.gif","0","240","1","",""
"casino-fixation","108","407433","0.0-25.0-0.19","923","true","img/card_backs/set1/red.gif","img/card_backs/set1/green.gif","img/card_backs/set1/yellow.gif","img/card_backs/set1/purple.gif","img/card_backs/set2/orange.gif","img/card_backs/set2/blue.gif","img/card_backs/set2/pink.gif","img/card_backs/set2/gray.gif","""event"",""trial"",""time""
""fullscreenenter"",""1"",""3717""
","
","
","""event"",""trial"",""time""
""fullscreenenter"",""1"",""3717""
","
","","null","","null","","fixation","2021-07-01 00:42:06.152","","","","","",""
"card-selection-trial","109","410392","0.0-25.0-1.19","923","true","img/card_backs/set1/red.gif","img/card_backs/set1/green.gif","img/card_backs/set1/yellow.gif","img/card_backs/set1/purple.gif","img/card_backs/set2/orange.gif","img/card_backs/set2/blue.gif","img/card_backs/set2/pink.gif","img/card_backs/set2/gray.gif","""event"",""trial"",""time""
""fullscreenenter"",""1"",""3717""
","
","
","""event"",""trial"",""time""
""fullscreenenter"",""1"",""3717""
","
","","953.2999999355525","","","","real_trial","2021-07-01 00:42:09.111","img/card_backs/set1/red.gif","3","-190","1","",""
"casino-fixation","110","410894","0.0-25.0-0.20","923","true","img/card_backs/set1/red.gif","img/card_backs/set1/green.gif","img/card_backs/set1/yellow.gif","img/card_backs/set1/purple.gif","img/card_backs/set2/orange.gif","img/card_backs/set2/blue.gif","img/card_backs/set2/pink.gif","img/card_backs/set2/gray.gif","""event"",""trial"",""time""
""fullscreenenter"",""1"",""3717""
","
","
","""event"",""trial"",""time""
""fullscreenenter"",""1"",""3717""
","
","","null","","null","","fixation","2021-07-01 00:42:09.613","","","","","",""
"card-selection-trial","111","414015","0.0-25.0-1.20","923","true","img/card_backs/set1/red.gif","img/card_backs/set1/green.gif","img/card_backs/set1/yellow.gif","img/card_backs/set1/purple.gif","img/card_backs/set2/orange.gif","img/card_backs/set2/blue.gif","img/card_backs/set2/pink.gif","img/card_backs/set2/gray.gif","""event"",""trial"",""time""
""fullscreenenter"",""1"",""3717""
","
","
","""event"",""trial"",""time""
""fullscreenenter"",""1"",""3717""
","
","","1111.9849998503923","","","","real_trial","2021-07-01 00:42:12.734","img/card_backs/set1/red.gif","3","250","1","",""
"casino-fixation","112","414517","0.0-25.0-0.21","923","true","img/card_backs/set1/red.gif","img/card_backs/set1/green.gif","img/card_backs/set1/yellow.gif","img/card_backs/set1/purple.gif","img/card_backs/set2/orange.gif","img/card_backs/set2/blue.gif","img/card_backs/set2/pink.gif","img/card_backs/set2/gray.gif","""event"",""trial"",""time""
""fullscreenenter"",""1"",""3717""
","
","
","""event"",""trial"",""time""
""fullscreenenter"",""1"",""3717""
","
","","null","","null","","fixation","2021-07-01 00:42:13.236","","","","","",""
"card-selection-trial","113","417618","0.0-25.0-1.21","923","true","img/card_backs/set1/red.gif","img/card_backs/set1/green.gif","img/card_backs/set1/yellow.gif","img/card_backs/set1/purple.gif","img/card_backs/set2/orange.gif","img/card_backs/set2/blue.gif","img/card_backs/set2/pink.gif","img/card_backs/set2/gray.gif","""event"",""trial"",""time""
""fullscreenenter"",""1"",""3717""
","
","
","""event"",""trial"",""time""
""fullscreenenter"",""1"",""3717""
","
","","1096.3000000920147","","","","real_trial","2021-07-01 00:42:16.337","img/card_backs/set1/red.gif","3","-200","1","",""
"casino-fixation","114","418120","0.0-25.0-0.22","923","true","img/card_backs/set1/red.gif","img/card_backs/set1/green.gif","img/card_backs/set1/yellow.gif","img/card_backs/set1/purple.gif","img/card_backs/set2/orange.gif","img/card_backs/set2/blue.gif","img/card_backs/set2/pink.gif","img/card_backs/set2/gray.gif","""event"",""trial"",""time""
""fullscreenenter"",""1"",""3717""
","
","
","""event"",""trial"",""time""
""fullscreenenter"",""1"",""3717""
","
","","null","","null","","fixation","2021-07-01 00:42:16.840","","","","","",""
"card-selection-trial","115","420751","0.0-25.0-1.22","923","true","img/card_backs/set1/red.gif","img/card_backs/set1/green.gif","img/card_backs/set1/yellow.gif","img/card_backs/set1/purple.gif","img/card_backs/set2/orange.gif","img/card_backs/set2/blue.gif","img/card_backs/set2/pink.gif","img/card_backs/set2/gray.gif","""event"",""trial"",""time""
""fullscreenenter"",""1"",""3717""
","
","
","""event"",""trial"",""time""
""fullscreenenter"",""1"",""3717""
","
","","627.2999998182058","","","","real_trial","2021-07-01 00:42:19.470","img/card_backs/set1/red.gif","3","260","1","",""
"casino-fixation","116","421253","0.0-25.0-0.23","923","true","img/card_backs/set1/red.gif","img/card_backs/set1/green.gif","img/card_backs/set1/yellow.gif","img/card_backs/set1/purple.gif","img/card_backs/set2/orange.gif","img/card_backs/set2/blue.gif","img/card_backs/set2/pink.gif","img/card_backs/set2/gray.gif","""event"",""trial"",""time""
""fullscreenenter"",""1"",""3717""
","
","
","""event"",""trial"",""time""
""fullscreenenter"",""1"",""3717""
","
","","null","","null","","fixation","2021-07-01 00:42:19.972","","","","","",""
"card-selection-trial","117","423980","0.0-25.0-1.23","923","true","img/card_backs/set1/red.gif","img/card_backs/set1/green.gif","img/card_backs/set1/yellow.gif","img/card_backs/set1/purple.gif","img/card_backs/set2/orange.gif","img/card_backs/set2/blue.gif","img/card_backs/set2/pink.gif","img/card_backs/set2/gray.gif","""event"",""trial"",""time""
""fullscreenenter"",""1"",""3717""
","
","
","""event"",""trial"",""time""
""fullscreenenter"",""1"",""3717""
","
","","722.4700001534075","","","","real_trial","2021-07-01 00:42:22.699","img/card_backs/set1/red.gif","0","260","1","",""
"casino-fixation","118","424481","0.0-25.0-0.24","923","true","img/card_backs/set1/red.gif","img/card_backs/set1/green.gif","img/card_backs/set1/yellow.gif","img/card_backs/set1/purple.gif","img/card_backs/set2/orange.gif","img/card_backs/set2/blue.gif","img/card_backs/set2/pink.gif","img/card_backs/set2/gray.gif","""event"",""trial"",""time""
""fullscreenenter"",""1"",""3717""
","
","
","""event"",""trial"",""time""
""fullscreenenter"",""1"",""3717""
","
","","null","","null","","fixation","2021-07-01 00:42:23.200","","","","","",""
"card-selection-trial","119","427581","0.0-25.0-1.24","923","true","img/card_backs/set1/red.gif","img/card_backs/set1/green.gif","img/card_backs/set1/yellow.gif","img/card_backs/set1/purple.gif","img/card_backs/set2/orange.gif","img/card_backs/set2/blue.gif","img/card_backs/set2/pink.gif","img/card_backs/set2/gray.gif","""event"",""trial"",""time""
""fullscreenenter"",""1"",""3717""
","
","
","""event"",""trial"",""time""
""fullscreenenter"",""1"",""3717""
","
","","1095.8449998870492","","","","real_trial","2021-07-01 00:42:26.300","img/card_backs/set1/red.gif","3","250","1","",""
"casino-fixation","120","428083","0.0-25.0-0.25","923","true","img/card_backs/set1/red.gif","img/card_backs/set1/green.gif","img/card_backs/set1/yellow.gif","img/card_backs/set1/purple.gif","img/card_backs/set2/orange.gif","img/card_backs/set2/blue.gif","img/card_backs/set2/pink.gif","img/card_backs/set2/gray.gif","""event"",""trial"",""time""
""fullscreenenter"",""1"",""3717""
","
","
","""event"",""trial"",""time""
""fullscreenenter"",""1"",""3717""
","
","","null","","null","","fixation","2021-07-01 00:42:26.802","","","","","",""
"card-selection-trial","121","430860","0.0-25.0-1.25","923","true","img/card_backs/set1/red.gif","img/card_backs/set1/green.gif","img/card_backs/set1/yellow.gif","img/card_backs/set1/purple.gif","img/card_backs/set2/orange.gif","img/card_backs/set2/blue.gif","img/card_backs/set2/pink.gif","img/card_backs/set2/gray.gif","""event"",""trial"",""time""
""fullscreenenter"",""1"",""3717""
","
","
","""event"",""trial"",""time""
""fullscreenenter"",""1"",""3717""
","
","","772.690000012517","","","","real_trial","2021-07-01 00:42:29.580","img/card_backs/set1/red.gif","3","-200","1","",""
"casino-fixation","122","431363","0.0-25.0-0.26","923","true","img/card_backs/set1/red.gif","img/card_backs/set1/green.gif","img/card_backs/set1/yellow.gif","img/card_backs/set1/purple.gif","img/card_backs/set2/orange.gif","img/card_backs/set2/blue.gif","img/card_backs/set2/pink.gif","img/card_backs/set2/gray.gif","""event"",""trial"",""time""
""fullscreenenter"",""1"",""3717""
","
","
","""event"",""trial"",""time""
""fullscreenenter"",""1"",""3717""
","
","","null","","null","","fixation","2021-07-01 00:42:30.082","","","","","",""
"card-selection-trial","123","434054","0.0-25.0-1.26","923","true","img/card_backs/set1/red.gif","img/card_backs/set1/green.gif","img/card_backs/set1/yellow.gif","img/card_backs/set1/purple.gif","img/card_backs/set2/orange.gif","img/card_backs/set2/blue.gif","img/card_backs/set2/pink.gif","img/card_backs/set2/gray.gif","""event"",""trial"",""time""
""fullscreenenter"",""1"",""3717""
","
","
","""event"",""trial"",""time""
""fullscreenenter"",""1"",""3717""
","
","","686.2049999181181","","","","real_trial","2021-07-01 00:42:32.773","img/card_backs/set1/red.gif","3","-210","1","",""
"casino-fixation","124","434555","0.0-25.0-0.27","923","true","img/card_backs/set1/red.gif","img/card_backs/set1/green.gif","img/card_backs/set1/yellow.gif","img/card_backs/set1/purple.gif","img/card_backs/set2/orange.gif","img/card_backs/set2/blue.gif","img/card_backs/set2/pink.gif","img/card_backs/set2/gray.gif","""event"",""trial"",""time""
""fullscreenenter"",""1"",""3717""
","
","
","""event"",""trial"",""time""
""fullscreenenter"",""1"",""3717""
","
","","null","","null","","fixation","2021-07-01 00:42:33.275","","","","","",""
"card-selection-trial","125","437224","0.0-25.0-1.27","923","true","img/card_backs/set1/red.gif","img/card_backs/set1/green.gif","img/card_backs/set1/yellow.gif","img/card_backs/set1/purple.gif","img/card_backs/set2/orange.gif","img/card_backs/set2/blue.gif","img/card_backs/set2/pink.gif","img/card_backs/set2/gray.gif","""event"",""trial"",""time""
""fullscreenenter"",""1"",""3717""
","
","
","""event"",""trial"",""time""
""fullscreenenter"",""1"",""3717""
","
","","664.5849999040365","","","","real_trial","2021-07-01 00:42:35.943","img/card_backs/set1/red.gif","0","-200","1","",""
"casino-fixation","126","437727","0.0-25.0-0.28","923","true","img/card_backs/set1/red.gif","img/card_backs/set1/green.gif","img/card_backs/set1/yellow.gif","img/card_backs/set1/purple.gif","img/card_backs/set2/orange.gif","img/card_backs/set2/blue.gif","img/card_backs/set2/pink.gif","img/card_backs/set2/gray.gif","""event"",""trial"",""time""
""fullscreenenter"",""1"",""3717""
","
","
","""event"",""trial"",""time""
""fullscreenenter"",""1"",""3717""
","
","","null","","null","","fixation","2021-07-01 00:42:36.446","","","","","",""
"card-selection-trial","127","440973","0.0-25.0-1.28","923","true","img/card_backs/set1/red.gif","img/card_backs/set1/green.gif","img/card_backs/set1/yellow.gif","img/card_backs/set1/purple.gif","img/card_backs/set2/orange.gif","img/card_backs/set2/blue.gif","img/card_backs/set2/pink.gif","img/card_backs/set2/gray.gif","""event"",""trial"",""time""
""fullscreenenter"",""1"",""3717""
","
","
","""event"",""trial"",""time""
""fullscreenenter"",""1"",""3717""
","
","","1241.4349999744445","","","","real_trial","2021-07-01 00:42:39.693","img/card_backs/set1/red.gif","2","-200","1","",""
"casino-fixation","128","441476","0.0-25.0-0.29","923","true","img/card_backs/set1/red.gif","img/card_backs/set1/green.gif","img/card_backs/set1/yellow.gif","img/card_backs/set1/purple.gif","img/card_backs/set2/orange.gif","img/card_backs/set2/blue.gif","img/card_backs/set2/pink.gif","img/card_backs/set2/gray.gif","""event"",""trial"",""time""
""fullscreenenter"",""1"",""3717""
","
","
","""event"",""trial"",""time""
""fullscreenenter"",""1"",""3717""
","
","","null","","null","","fixation","2021-07-01 00:42:40.195","","","","","",""
"card-selection-trial","129","444461","0.0-25.0-1.29","923","true","img/card_backs/set1/red.gif","img/card_backs/set1/green.gif","img/card_backs/set1/yellow.gif","img/card_backs/set1/purple.gif","img/card_backs/set2/orange.gif","img/card_backs/set2/blue.gif","img/card_backs/set2/pink.gif","img/card_backs/set2/gray.gif","""event"",""trial"",""time""
""fullscreenenter"",""1"",""3717""
","
","
","""event"",""trial"",""time""
""fullscreenenter"",""1"",""3717""
","
","","979.1999999433756","","","","real_trial","2021-07-01 00:42:43.180","img/card_backs/set1/red.gif","2","-190","1","",""
"casino-fixation","130","444964","0.0-25.0-0.30","923","true","img/card_backs/set1/red.gif","img/card_backs/set1/green.gif","img/card_backs/set1/yellow.gif","img/card_backs/set1/purple.gif","img/card_backs/set2/orange.gif","img/card_backs/set2/blue.gif","img/card_backs/set2/pink.gif","img/card_backs/set2/gray.gif","""event"",""trial"",""time""
""fullscreenenter"",""1"",""3717""
","
","
","""event"",""trial"",""time""
""fullscreenenter"",""1"",""3717""
","
","","null","","null","","fixation","2021-07-01 00:42:43.683","","","","","",""
"card-selection-trial","131","448093","0.0-25.0-1.30","923","true","img/card_backs/set1/red.gif","img/card_backs/set1/green.gif","img/card_backs/set1/yellow.gif","img/card_backs/set1/purple.gif","img/card_backs/set2/orange.gif","img/card_backs/set2/blue.gif","img/card_backs/set2/pink.gif","img/card_backs/set2/gray.gif","""event"",""trial"",""time""
""fullscreenenter"",""1"",""3717""
","
","
","""event"",""trial"",""time""
""fullscreenenter"",""1"",""3717""
","
","","1119.9000000488013","","","","real_trial","2021-07-01 00:42:46.813","img/card_backs/set1/purple.gif","3","50","1","",""
"casino-fixation","132","448596","0.0-25.0-0.31","923","true","img/card_backs/set1/red.gif","img/card_backs/set1/green.gif","img/card_backs/set1/yellow.gif","img/card_backs/set1/purple.gif","img/card_backs/set2/orange.gif","img/card_backs/set2/blue.gif","img/card_backs/set2/pink.gif","img/card_backs/set2/gray.gif","""event"",""trial"",""time""
""fullscreenenter"",""1"",""3717""
","
","
","""event"",""trial"",""time""
""fullscreenenter"",""1"",""3717""
","
","","null","","null","","fixation","2021-07-01 00:42:47.315","","","","","",""
"card-selection-trial","133","451594","0.0-25.0-1.31","923","true","img/card_backs/set1/red.gif","img/card_backs/set1/green.gif","img/card_backs/set1/yellow.gif","img/card_backs/set1/purple.gif","img/card_backs/set2/orange.gif","img/card_backs/set2/blue.gif","img/card_backs/set2/pink.gif","img/card_backs/set2/gray.gif","""event"",""trial"",""time""
""fullscreenenter"",""1"",""3717""
","
","
","""event"",""trial"",""time""
""fullscreenenter"",""1"",""3717""
","
","","991.1600002087653","","","","real_trial","2021-07-01 00:42:50.313","img/card_backs/set1/purple.gif","0","-100","1","",""
"casino-fixation","134","452100","0.0-25.0-0.32","923","true","img/card_backs/set1/red.gif","img/card_backs/set1/green.gif","img/card_backs/set1/yellow.gif","img/card_backs/set1/purple.gif","img/card_backs/set2/orange.gif","img/card_backs/set2/blue.gif","img/card_backs/set2/pink.gif","img/card_backs/set2/gray.gif","""event"",""trial"",""time""
""fullscreenenter"",""1"",""3717""
","
","
","""event"",""trial"",""time""
""fullscreenenter"",""1"",""3717""
","
","","null","","null","","fixation","2021-07-01 00:42:50.819","","","","","",""
"card-selection-trial","135","455491","0.0-25.0-1.32","923","true","img/card_backs/set1/red.gif","img/card_backs/set1/green.gif","img/card_backs/set1/yellow.gif","img/card_backs/set1/purple.gif","img/card_backs/set2/orange.gif","img/card_backs/set2/blue.gif","img/card_backs/set2/pink.gif","img/card_backs/set2/gray.gif","""event"",""trial"",""time""
""fullscreenenter"",""1"",""3717""
","
","
","""event"",""trial"",""time""
""fullscreenenter"",""1"",""3717""
","
","","1385.5449999682605","","","","real_trial","2021-07-01 00:42:54.210","img/card_backs/set1/purple.gif","2","-90","1","",""
"casino-fixation","136","455993","0.0-25.0-0.33","923","true","img/card_backs/set1/red.gif","img/card_backs/set1/green.gif","img/card_backs/set1/yellow.gif","img/card_backs/set1/purple.gif","img/card_backs/set2/orange.gif","img/card_backs/set2/blue.gif","img/card_backs/set2/pink.gif","img/card_backs/set2/gray.gif","""event"",""trial"",""time""
""fullscreenenter"",""1"",""3717""
","
","
","""event"",""trial"",""time""
""fullscreenenter"",""1"",""3717""
","
","","null","","null","","fixation","2021-07-01 00:42:54.713","","","","","",""
"card-selection-trial","137","459200","0.0-25.0-1.33","923","true","img/card_backs/set1/red.gif","img/card_backs/set1/green.gif","img/card_backs/set1/yellow.gif","img/card_backs/set1/purple.gif","img/card_backs/set2/orange.gif","img/card_backs/set2/blue.gif","img/card_backs/set2/pink.gif","img/card_backs/set2/gray.gif","""event"",""trial"",""time""
""fullscreenenter"",""1"",""3717""
","
","
","""event"",""trial"",""time""
""fullscreenenter"",""1"",""3717""
","
","","1179.6649999450892","","","","real_trial","2021-07-01 00:42:57.919","img/card_backs/set1/purple.gif","1","50","1","",""
"casino-fixation","138","459701","0.0-25.0-0.34","923","true","img/card_backs/set1/red.gif","img/card_backs/set1/green.gif","img/card_backs/set1/yellow.gif","img/card_backs/set1/purple.gif","img/card_backs/set2/orange.gif","img/card_backs/set2/blue.gif","img/card_backs/set2/pink.gif","img/card_backs/set2/gray.gif","""event"",""trial"",""time""
""fullscreenenter"",""1"",""3717""
","
","
","""event"",""trial"",""time""
""fullscreenenter"",""1"",""3717""
","
","","null","","null","","fixation","2021-07-01 00:42:58.421","","","","","",""
"card-selection-trial","139","462748","0.0-25.0-1.34","923","true","img/card_backs/set1/red.gif","img/card_backs/set1/green.gif","img/card_backs/set1/yellow.gif","img/card_backs/set1/purple.gif","img/card_backs/set2/orange.gif","img/card_backs/set2/blue.gif","img/card_backs/set2/pink.gif","img/card_backs/set2/gray.gif","""event"",""trial"",""time""
""fullscreenenter"",""1"",""3717""
","
","
","""event"",""trial"",""time""
""fullscreenenter"",""1"",""3717""
","
","","1040.9750000108033","","","","real_trial","2021-07-01 00:43:01.467","img/card_backs/set1/red.gif","0","-210","1","",""
"casino-fixation","140","463250","0.0-25.0-0.35","923","true","img/card_backs/set1/red.gif","img/card_backs/set1/green.gif","img/card_backs/set1/yellow.gif","img/card_backs/set1/purple.gif","img/card_backs/set2/orange.gif","img/card_backs/set2/blue.gif","img/card_backs/set2/pink.gif","img/card_backs/set2/gray.gif","""event"",""trial"",""time""
""fullscreenenter"",""1"",""3717""
","
","
","""event"",""trial"",""time""
""fullscreenenter"",""1"",""3717""
","
","","null","","null","","fixation","2021-07-01 00:43:01.969","","","","","",""
"card-selection-trial","141","467198","0.0-25.0-1.35","923","true","img/card_backs/set1/red.gif","img/card_backs/set1/green.gif","img/card_backs/set1/yellow.gif","img/card_backs/set1/purple.gif","img/card_backs/set2/orange.gif","img/card_backs/set2/blue.gif","img/card_backs/set2/pink.gif","img/card_backs/set2/gray.gif","""event"",""trial"",""time""
""fullscreenenter"",""1"",""3717""
","
","
","""event"",""trial"",""time""
""fullscreenenter"",""1"",""3717""
","
","","1937.9200001712888","","","","real_trial","2021-07-01 00:43:05.917","img/card_backs/set1/red.gif","1","-210","1","",""
"casino-fixation","142","467702","0.0-25.0-0.36","923","true","img/card_backs/set1/red.gif","img/card_backs/set1/green.gif","img/card_backs/set1/yellow.gif","img/card_backs/set1/purple.gif","img/card_backs/set2/orange.gif","img/card_backs/set2/blue.gif","img/card_backs/set2/pink.gif","img/card_backs/set2/gray.gif","""event"",""trial"",""time""
""fullscreenenter"",""1"",""3717""
","
","
","""event"",""trial"",""time""
""fullscreenenter"",""1"",""3717""
","
","","null","","null","","fixation","2021-07-01 00:43:06.421","","","","","",""
"card-selection-trial","143","471123","0.0-25.0-1.36","923","true","img/card_backs/set1/red.gif","img/card_backs/set1/green.gif","img/card_backs/set1/yellow.gif","img/card_backs/set1/purple.gif","img/card_backs/set2/orange.gif","img/card_backs/set2/blue.gif","img/card_backs/set2/pink.gif","img/card_backs/set2/gray.gif","""event"",""trial"",""time""
""fullscreenenter"",""1"",""3717""
","
","
","""event"",""trial"",""time""
""fullscreenenter"",""1"",""3717""
","
","","1405.9150000102818","","","","real_trial","2021-07-01 00:43:09.843","img/card_backs/set1/green.gif","0","-190","1","",""
"casino-fixation","144","471630","0.0-25.0-0.37","923","true","img/card_backs/set1/red.gif","img/card_backs/set1/green.gif","img/card_backs/set1/yellow.gif","img/card_backs/set1/purple.gif","img/card_backs/set2/orange.gif","img/card_backs/set2/blue.gif","img/card_backs/set2/pink.gif","img/card_backs/set2/gray.gif","""event"",""trial"",""time""
""fullscreenenter"",""1"",""3717""
","
","
","""event"",""trial"",""time""
""fullscreenenter"",""1"",""3717""
","
","","null","","null","","fixation","2021-07-01 00:43:10.349","","","","","",""
"card-selection-trial","145","474152","0.0-25.0-1.37","923","true","img/card_backs/set1/red.gif","img/card_backs/set1/green.gif","img/card_backs/set1/yellow.gif","img/card_backs/set1/purple.gif","img/card_backs/set2/orange.gif","img/card_backs/set2/blue.gif","img/card_backs/set2/pink.gif","img/card_backs/set2/gray.gif","""event"",""trial"",""time""
""fullscreenenter"",""1"",""3717""
","
","
","""event"",""trial"",""time""
""fullscreenenter"",""1"",""3717""
","
","","515.7749999780208","","","","real_trial","2021-07-01 00:43:12.871","img/card_backs/set1/green.gif","0","260","1","",""
"casino-fixation","146","474654","0.0-25.0-0.38","923","true","img/card_backs/set1/red.gif","img/card_backs/set1/green.gif","img/card_backs/set1/yellow.gif","img/card_backs/set1/purple.gif","img/card_backs/set2/orange.gif","img/card_backs/set2/blue.gif","img/card_backs/set2/pink.gif","img/card_backs/set2/gray.gif","""event"",""trial"",""time""
""fullscreenenter"",""1"",""3717""
","
","
","""event"",""trial"",""time""
""fullscreenenter"",""1"",""3717""
","
","","null","","null","","fixation","2021-07-01 00:43:13.373","","","","","",""
"card-selection-trial","147","477171","0.0-25.0-1.38","923","true","img/card_backs/set1/red.gif","img/card_backs/set1/green.gif","img/card_backs/set1/yellow.gif","img/card_backs/set1/purple.gif","img/card_backs/set2/orange.gif","img/card_backs/set2/blue.gif","img/card_backs/set2/pink.gif","img/card_backs/set2/gray.gif","""event"",""trial"",""time""
""fullscreenenter"",""1"",""3717""
","
","
","""event"",""trial"",""time""
""fullscreenenter"",""1"",""3717""
","
","","495.45000004582107","","","","real_trial","2021-07-01 00:43:15.890","img/card_backs/set1/green.gif","0","-210","1","",""
"casino-fixation","148","477673","0.0-25.0-0.39","923","true","img/card_backs/set1/red.gif","img/card_backs/set1/green.gif","img/card_backs/set1/yellow.gif","img/card_backs/set1/purple.gif","img/card_backs/set2/orange.gif","img/card_backs/set2/blue.gif","img/card_backs/set2/pink.gif","img/card_backs/set2/gray.gif","""event"",""trial"",""time""
""fullscreenenter"",""1"",""3717""
","
","
","""event"",""trial"",""time""
""fullscreenenter"",""1"",""3717""
","
","","null","","null","","fixation","2021-07-01 00:43:16.393","","","","","",""
"card-selection-trial","149","480611","0.0-25.0-1.39","923","true","img/card_backs/set1/red.gif","img/card_backs/set1/green.gif","img/card_backs/set1/yellow.gif","img/card_backs/set1/purple.gif","img/card_backs/set2/orange.gif","img/card_backs/set2/blue.gif","img/card_backs/set2/pink.gif","img/card_backs/set2/gray.gif","""event"",""trial"",""time""
""fullscreenenter"",""1"",""3717""
","
","
","""event"",""trial"",""time""
""fullscreenenter"",""1"",""3717""
","
","","930.835000006482","","","","real_trial","2021-07-01 00:43:19.330","img/card_backs/set1/red.gif","1","-210","1","",""
"casino-fixation","150","481115","0.0-25.0-0.40","923","true","img/card_backs/set1/red.gif","img/card_backs/set1/green.gif","img/card_backs/set1/yellow.gif","img/card_backs/set1/purple.gif","img/card_backs/set2/orange.gif","img/card_backs/set2/blue.gif","img/card_backs/set2/pink.gif","img/card_backs/set2/gray.gif","""event"",""trial"",""time""
""fullscreenenter"",""1"",""3717""
","
","
","""event"",""trial"",""time""
""fullscreenenter"",""1"",""3717""
","
","","null","","null","","fixation","2021-07-01 00:43:19.834","","","","","",""
"card-selection-trial","151","484370","0.0-25.0-1.40","923","true","img/card_backs/set1/red.gif","img/card_backs/set1/green.gif","img/card_backs/set1/yellow.gif","img/card_backs/set1/purple.gif","img/card_backs/set2/orange.gif","img/card_backs/set2/blue.gif","img/card_backs/set2/pink.gif","img/card_backs/set2/gray.gif","""event"",""trial"",""time""
""fullscreenenter"",""1"",""3717""
","
","
","""event"",""trial"",""time""
""fullscreenenter"",""1"",""3717""
","
","","1242.7199999801815","","","","real_trial","2021-07-01 00:43:23.089","img/card_backs/set1/red.gif","3","260","1","",""
"casino-fixation","152","484873","0.0-25.0-0.41","923","true","img/card_backs/set1/red.gif","img/card_backs/set1/green.gif","img/card_backs/set1/yellow.gif","img/card_backs/set1/purple.gif","img/card_backs/set2/orange.gif","img/card_backs/set2/blue.gif","img/card_backs/set2/pink.gif","img/card_backs/set2/gray.gif","""event"",""trial"",""time""
""fullscreenenter"",""1"",""3717""
","
","
","""event"",""trial"",""time""
""fullscreenenter"",""1"",""3717""
","
","","null","","null","","fixation","2021-07-01 00:43:23.592","","","","","",""
"card-selection-trial","153","487981","0.0-25.0-1.41","923","true","img/card_backs/set1/red.gif","img/card_backs/set1/green.gif","img/card_backs/set1/yellow.gif","img/card_backs/set1/purple.gif","img/card_backs/set2/orange.gif","img/card_backs/set2/blue.gif","img/card_backs/set2/pink.gif","img/card_backs/set2/gray.gif","""event"",""trial"",""time""
""fullscreenenter"",""1"",""3717""
","
","
","""event"",""trial"",""time""
""fullscreenenter"",""1"",""3717""
","
","","1087.0600000489503","","","","real_trial","2021-07-01 00:43:26.700","img/card_backs/set1/red.gif","2","240","1","",""
"casino-fixation","154","488483","0.0-25.0-0.42","923","true","img/card_backs/set1/red.gif","img/card_backs/set1/green.gif","img/card_backs/set1/yellow.gif","img/card_backs/set1/purple.gif","img/card_backs/set2/orange.gif","img/card_backs/set2/blue.gif","img/card_backs/set2/pink.gif","img/card_backs/set2/gray.gif","""event"",""trial"",""time""
""fullscreenenter"",""1"",""3717""
","
","
","""event"",""trial"",""time""
""fullscreenenter"",""1"",""3717""
","
","","null","","null","","fixation","2021-07-01 00:43:27.202","","","","","",""
"card-selection-trial","155","491359","0.0-25.0-1.42","923","true","img/card_backs/set1/red.gif","img/card_backs/set1/green.gif","img/card_backs/set1/yellow.gif","img/card_backs/set1/purple.gif","img/card_backs/set2/orange.gif","img/card_backs/set2/blue.gif","img/card_backs/set2/pink.gif","img/card_backs/set2/gray.gif","""event"",""trial"",""time""
""fullscreenenter"",""1"",""3717""
","
","
","""event"",""trial"",""time""
""fullscreenenter"",""1"",""3717""
","
","","868.019999936223","","","","real_trial","2021-07-01 00:43:30.078","img/card_backs/set1/red.gif","3","240","1","",""
"casino-fixation","156","491862","0.0-25.0-0.43","923","true","img/card_backs/set1/red.gif","img/card_backs/set1/green.gif","img/card_backs/set1/yellow.gif","img/card_backs/set1/purple.gif","img/card_backs/set2/orange.gif","img/card_backs/set2/blue.gif","img/card_backs/set2/pink.gif","img/card_backs/set2/gray.gif","""event"",""trial"",""time""
""fullscreenenter"",""1"",""3717""
","
","
","""event"",""trial"",""time""
""fullscreenenter"",""1"",""3717""
","
","","null","","null","","fixation","2021-07-01 00:43:30.582","","","","","",""
"card-selection-trial","157","494809","0.0-25.0-1.43","923","true","img/card_backs/set1/red.gif","img/card_backs/set1/green.gif","img/card_backs/set1/yellow.gif","img/card_backs/set1/purple.gif","img/card_backs/set2/orange.gif","img/card_backs/set2/blue.gif","img/card_backs/set2/pink.gif","img/card_backs/set2/gray.gif","""event"",""trial"",""time""
""fullscreenenter"",""1"",""3717""
","
","
","""event"",""trial"",""time""
""fullscreenenter"",""1"",""3717""
","
","","936.6800000425428","","","","real_trial","2021-07-01 00:43:33.528","img/card_backs/set1/red.gif","2","240","1","",""
"casino-fixation","158","495310","0.0-25.0-0.44","923","true","img/card_backs/set1/red.gif","img/card_backs/set1/green.gif","img/card_backs/set1/yellow.gif","img/card_backs/set1/purple.gif","img/card_backs/set2/orange.gif","img/card_backs/set2/blue.gif","img/card_backs/set2/pink.gif","img/card_backs/set2/gray.gif","""event"",""trial"",""time""
""fullscreenenter"",""1"",""3717""
","
","
","""event"",""trial"",""time""
""fullscreenenter"",""1"",""3717""
","
","","null","","null","","fixation","2021-07-01 00:43:34.029","","","","","",""
"card-selection-trial","159","498359","0.0-25.0-1.44","923","true","img/card_backs/set1/red.gif","img/card_backs/set1/green.gif","img/card_backs/set1/yellow.gif","img/card_backs/set1/purple.gif","img/card_backs/set2/orange.gif","img/card_backs/set2/blue.gif","img/card_backs/set2/pink.gif","img/card_backs/set2/gray.gif","""event"",""trial"",""time""
""fullscreenenter"",""1"",""3717""
","
","
","""event"",""trial"",""time""
""fullscreenenter"",""1"",""3717""
","
","","1043.0149999447167","","","","real_trial","2021-07-01 00:43:37.079","img/card_backs/set1/red.gif","3","240","1","",""
"casino-fixation","160","498862","0.0-25.0-0.45","923","true","img/card_backs/set1/red.gif","img/card_backs/set1/green.gif","img/card_backs/set1/yellow.gif","img/card_backs/set1/purple.gif","img/card_backs/set2/orange.gif","img/card_backs/set2/blue.gif","img/card_backs/set2/pink.gif","img/card_backs/set2/gray.gif","""event"",""trial"",""time""
""fullscreenenter"",""1"",""3717""
","
","
","""event"",""trial"",""time""
""fullscreenenter"",""1"",""3717""
","
","","null","","null","","fixation","2021-07-01 00:43:37.581","","","","","",""
"card-selection-trial","161","501744","0.0-25.0-1.45","923","true","img/card_backs/set1/red.gif","img/card_backs/set1/green.gif","img/card_backs/set1/yellow.gif","img/card_backs/set1/purple.gif","img/card_backs/set2/orange.gif","img/card_backs/set2/blue.gif","img/card_backs/set2/pink.gif","img/card_backs/set2/gray.gif","""event"",""trial"",""time""
""fullscreenenter"",""1"",""3717""
","
","
","""event"",""trial"",""time""
""fullscreenenter"",""1"",""3717""
","
","","876.6149999573827","","","","real_trial","2021-07-01 00:43:40.463","img/card_backs/set1/red.gif","0","-210","1","",""
"casino-fixation","162","502247","0.0-25.0-0.46","923","true","img/card_backs/set1/red.gif","img/card_backs/set1/green.gif","img/card_backs/set1/yellow.gif","img/card_backs/set1/purple.gif","img/card_backs/set2/orange.gif","img/card_backs/set2/blue.gif","img/card_backs/set2/pink.gif","img/card_backs/set2/gray.gif","""event"",""trial"",""time""
""fullscreenenter"",""1"",""3717""
","
","
","""event"",""trial"",""time""
""fullscreenenter"",""1"",""3717""
","
","","null","","null","","fixation","2021-07-01 00:43:40.966","","","","","",""
"card-selection-trial","163","505587","0.0-25.0-1.46","923","true","img/card_backs/set1/red.gif","img/card_backs/set1/green.gif","img/card_backs/set1/yellow.gif","img/card_backs/set1/purple.gif","img/card_backs/set2/orange.gif","img/card_backs/set2/blue.gif","img/card_backs/set2/pink.gif","img/card_backs/set2/gray.gif","""event"",""trial"",""time""
""fullscreenenter"",""1"",""3717""
","
","
","""event"",""trial"",""time""
""fullscreenenter"",""1"",""3717""
","
","","1329.6149999368936","","","","real_trial","2021-07-01 00:43:44.306","img/card_backs/set1/red.gif","3","240","1","",""
"casino-fixation","164","506090","0.0-25.0-0.47","923","true","img/card_backs/set1/red.gif","img/card_backs/set1/green.gif","img/card_backs/set1/yellow.gif","img/card_backs/set1/purple.gif","img/card_backs/set2/orange.gif","img/card_backs/set2/blue.gif","img/card_backs/set2/pink.gif","img/card_backs/set2/gray.gif","""event"",""trial"",""time""
""fullscreenenter"",""1"",""3717""
","
","
","""event"",""trial"",""time""
""fullscreenenter"",""1"",""3717""
","
","","null","","null","","fixation","2021-07-01 00:43:44.809","","","","","",""
"card-selection-trial","165","509348","0.0-25.0-1.47","923","true","img/card_backs/set1/red.gif","img/card_backs/set1/green.gif","img/card_backs/set1/yellow.gif","img/card_backs/set1/purple.gif","img/card_backs/set2/orange.gif","img/card_backs/set2/blue.gif","img/card_backs/set2/pink.gif","img/card_backs/set2/gray.gif","""event"",""trial"",""time""
""fullscreenenter"",""1"",""3717""
","
","
","""event"",""trial"",""time""
""fullscreenenter"",""1"",""3717""
","
","","1245.134999975562","","","","real_trial","2021-07-01 00:43:48.067","img/card_backs/set1/red.gif","2","240","1","",""
"casino-fixation","166","509852","0.0-25.0-0.48","923","true","img/card_backs/set1/red.gif","img/card_backs/set1/green.gif","img/card_backs/set1/yellow.gif","img/card_backs/set1/purple.gif","img/card_backs/set2/orange.gif","img/card_backs/set2/blue.gif","img/card_backs/set2/pink.gif","img/card_backs/set2/gray.gif","""event"",""trial"",""time""
""fullscreenenter"",""1"",""3717""
","
","
","""event"",""trial"",""time""
""fullscreenenter"",""1"",""3717""
","
","","null","","null","","fixation","2021-07-01 00:43:48.571","","","","","",""
"card-selection-trial","167","512864","0.0-25.0-1.48","923","true","img/card_backs/set1/red.gif","img/card_backs/set1/green.gif","img/card_backs/set1/yellow.gif","img/card_backs/set1/purple.gif","img/card_backs/set2/orange.gif","img/card_backs/set2/blue.gif","img/card_backs/set2/pink.gif","img/card_backs/set2/gray.gif","""event"",""trial"",""time""
""fullscreenenter"",""1"",""3717""
","
","
","""event"",""trial"",""time""
""fullscreenenter"",""1"",""3717""
","
