"trial_type","trial_index","time_elapsed","internal_node_id","sub_id","risk_good_first","block1_A","block1_B","block1_C","block1_D","block2_A","block2_B","block2_C","block2_D","interactions","blur_events","focus_events","fullscreenenter_events","fullscreenexit_events","success","rt","stimulus","key_press","button_pressed","task_part","timestamp","card_choice","choice_position","points_earned","block","correct","response"
"pavlovia","0","5","0.0-0.0","139","true","img/card_backs/set1/yellow.gif","img/card_backs/set1/red.gif","img/card_backs/set1/green.gif","img/card_backs/set1/purple.gif","img/card_backs/set2/orange.gif","img/card_backs/set2/pink.gif","img/card_backs/set2/blue.gif","img/card_backs/set2/gray.gif","""event"",""trial"",""time""
""fullscreenenter"",""1"",""5328""
","
","
","""event"",""trial"",""time""
""fullscreenenter"",""1"",""5328""
","
","","","","","","","","","","","","",""
"fullscreen","1","6312","0.0-1.0","139","true","img/card_backs/set1/yellow.gif","img/card_backs/set1/red.gif","img/card_backs/set1/green.gif","img/card_backs/set1/purple.gif","img/card_backs/set2/orange.gif","img/card_backs/set2/pink.gif","img/card_backs/set2/blue.gif","img/card_backs/set2/gray.gif","""event"",""trial"",""time""
""fullscreenenter"",""1"",""5328""
","
","
","""event"",""trial"",""time""
""fullscreenenter"",""1"",""5328""
","
","true","","","","","","","","","","","",""
"audio-keyboard-response","2","10144","0.0-2.0","139","true","img/card_backs/set1/yellow.gif","img/card_backs/set1/red.gif","img/card_backs/set1/green.gif","img/card_backs/set1/purple.gif","img/card_backs/set2/orange.gif","img/card_backs/set2/pink.gif","img/card_backs/set2/blue.gif","img/card_backs/set2/gray.gif","""event"",""trial"",""time""
""fullscreenenter"",""1"",""5328""
","
","
","""event"",""trial"",""time""
""fullscreenenter"",""1"",""5328""
","
","","3789","audio/beep_loop.wav","32","","","","","","","","",""
"audio-button-response","3","13615","0.0-3.0","139","true","img/card_backs/set1/yellow.gif","img/card_backs/set1/red.gif","img/card_backs/set1/green.gif","img/card_backs/set1/purple.gif","img/card_backs/set2/orange.gif","img/card_backs/set2/pink.gif","img/card_backs/set2/blue.gif","img/card_backs/set2/gray.gif","""event"",""trial"",""time""
""fullscreenenter"",""1"",""5328""
","
","
","""event"",""trial"",""time""
""fullscreenenter"",""1"",""5328""
","
","","NaN","audio/turtle.mp3","","3","","","","","","","",""
"audio-button-response","4","15983","0.0-4.0","139","true","img/card_backs/set1/yellow.gif","img/card_backs/set1/red.gif","img/card_backs/set1/green.gif","img/card_backs/set1/purple.gif","img/card_backs/set2/orange.gif","img/card_backs/set2/pink.gif","img/card_backs/set2/blue.gif","img/card_backs/set2/gray.gif","""event"",""trial"",""time""
""fullscreenenter"",""1"",""5328""
","
","
","""event"",""trial"",""time""
""fullscreenenter"",""1"",""5328""
","
","","NaN","audio/shark.mp3","","2","","","","","","","",""
"fullscreen","5","19851","0.0-5.0","139","true","img/card_backs/set1/yellow.gif","img/card_backs/set1/red.gif","img/card_backs/set1/green.gif","img/card_backs/set1/purple.gif","img/card_backs/set2/orange.gif","img/card_backs/set2/pink.gif","img/card_backs/set2/blue.gif","img/card_backs/set2/gray.gif","""event"",""trial"",""time""
""fullscreenenter"",""1"",""5328""
","
","
","""event"",""trial"",""time""
""fullscreenenter"",""1"",""5328""
","
","true","","","","","","","","","","","",""
"casino-keyboard-response","6","24097","0.0-6.0-0.0","139","true","img/card_backs/set1/yellow.gif","img/card_backs/set1/red.gif","img/card_backs/set1/green.gif","img/card_backs/set1/purple.gif","img/card_backs/set2/orange.gif","img/card_backs/set2/pink.gif","img/card_backs/set2/blue.gif","img/card_backs/set2/gray.gif","""event"",""trial"",""time""
""fullscreenenter"",""1"",""5328""
","
","
","""event"",""trial"",""time""
""fullscreenenter"",""1"",""5328""
","
","","4242.59999999986","Welcome to the casino!","71","","instructions","2021-06-22 20:19:15.009","","","","","",""
"casino-keyboard-response","7","34377","0.0-6.0-0.1","139","true","img/card_backs/set1/yellow.gif","img/card_backs/set1/red.gif","img/card_backs/set1/green.gif","img/card_backs/set1/purple.gif","img/card_backs/set2/orange.gif","img/card_backs/set2/pink.gif","img/card_backs/set2/blue.gif","img/card_backs/set2/gray.gif","""event"",""trial"",""time""
""fullscreenenter"",""1"",""5328""
","
","
","""event"",""trial"",""time""
""fullscreenenter"",""1"",""5328""
","
","","10278.59999999986","Today you will be playing a game to earn tokens. </br> At the end of the experiment, you will be paid a bonus based on how many tokens you win. ","69","","instructions","2021-06-22 20:19:25.289","","","","","",""
"casino-keyboard-response","8","63020","0.0-6.0-0.2","139","true","img/card_backs/set1/yellow.gif","img/card_backs/set1/red.gif","img/card_backs/set1/green.gif","img/card_backs/set1/purple.gif","img/card_backs/set2/orange.gif","img/card_backs/set2/pink.gif","img/card_backs/set2/blue.gif","img/card_backs/set2/gray.gif","""event"",""trial"",""time""
""fullscreenenter"",""1"",""5328""
","
","
","""event"",""trial"",""time""
""fullscreenenter"",""1"",""5328""
","
","","28640.59999999986","On every turn, you will be shown four different decks of cards. </br> You need to select a card from one of the four decks.  ","75","","instructions","2021-06-22 20:19:53.932","","","","","",""
"casino-keyboard-response","9","68547","0.0-6.0-0.3","139","true","img/card_backs/set1/yellow.gif","img/card_backs/set1/red.gif","img/card_backs/set1/green.gif","img/card_backs/set1/purple.gif","img/card_backs/set2/orange.gif","img/card_backs/set2/pink.gif","img/card_backs/set2/blue.gif","img/card_backs/set2/gray.gif","""event"",""trial"",""time""
""fullscreenenter"",""1"",""5328""
","
","
","""event"",""trial"",""time""
""fullscreenenter"",""1"",""5328""
","
","","5526.399999999907","On the next screen, you will see what the decks will look like. ","66","","instructions","2021-06-22 20:19:59.460","","","","","",""
"card-selection-trial","10","72569","0.0-7.0-0.0","139","true","img/card_backs/set1/yellow.gif","img/card_backs/set1/red.gif","img/card_backs/set1/green.gif","img/card_backs/set1/purple.gif","img/card_backs/set2/orange.gif","img/card_backs/set2/pink.gif","img/card_backs/set2/blue.gif","img/card_backs/set2/gray.gif","""event"",""trial"",""time""
""fullscreenenter"",""1"",""5328""
","
","
","""event"",""trial"",""time""
""fullscreenenter"",""1"",""5328""
","
","","null","","","","practice","2021-06-22 20:20:03.481","null","null","null","0","",""
"casino-keyboard-response","11","80757","0.0-8.0-0.0","139","true","img/card_backs/set1/yellow.gif","img/card_backs/set1/red.gif","img/card_backs/set1/green.gif","img/card_backs/set1/purple.gif","img/card_backs/set2/orange.gif","img/card_backs/set2/pink.gif","img/card_backs/set2/blue.gif","img/card_backs/set2/gray.gif","""event"",""trial"",""time""
""fullscreenenter"",""1"",""5328""
","
","
","""event"",""trial"",""time""
""fullscreenenter"",""1"",""5328""
","
","","8186.5","You should pick a card from a deck using the '2', '4', '6', and '8' keys at the top of the keyboard.","85","","instructions","2021-06-22 20:20:11.669","","","","","",""
"casino-keyboard-response","12","87877","0.0-8.0-0.1","139","true","img/card_backs/set1/yellow.gif","img/card_backs/set1/red.gif","img/card_backs/set1/green.gif","img/card_backs/set1/purple.gif","img/card_backs/set2/orange.gif","img/card_backs/set2/pink.gif","img/card_backs/set2/blue.gif","img/card_backs/set2/gray.gif","""event"",""trial"",""time""
""fullscreenenter"",""1"",""5328""
","
","
","""event"",""trial"",""time""
""fullscreenenter"",""1"",""5328""
","
","","7119","Once you select a card, it will turn over and you will see how many tokens you earned.","83","","instructions","2021-06-22 20:20:18.789","","","","","",""
"casino-keyboard-response","13","102694","0.0-8.0-0.2","139","true","img/card_backs/set1/yellow.gif","img/card_backs/set1/red.gif","img/card_backs/set1/green.gif","img/card_backs/set1/purple.gif","img/card_backs/set2/orange.gif","img/card_backs/set2/pink.gif","img/card_backs/set2/blue.gif","img/card_backs/set2/gray.gif","""event"",""trial"",""time""
""fullscreenenter"",""1"",""5328""
","
","
","""event"",""trial"",""time""
""fullscreenenter"",""1"",""5328""
","
","","14815.800000000047","Let's try practicing that! </br> First, try to put your fingers over the '2', '4', '6', and '8' keys. </br>  You can use whatever fingers are most comfortable for you. Try to find a comfortable position now. ","50","","instructions","2021-06-22 20:20:33.606","","","","","",""
"casino-keyboard-response","14","108494","0.0-8.0-0.3","139","true","img/card_backs/set1/yellow.gif","img/card_backs/set1/red.gif","img/card_backs/set1/green.gif","img/card_backs/set1/purple.gif","img/card_backs/set2/orange.gif","img/card_backs/set2/pink.gif","img/card_backs/set2/blue.gif","img/card_backs/set2/gray.gif","""event"",""trial"",""time""
""fullscreenenter"",""1"",""5328""
","
","
","""event"",""trial"",""time""
""fullscreenenter"",""1"",""5328""
","
","","5798.399999999907","Okay ready? </br> On the next screen, press '2' to select the left deck. ","50","","instructions","2021-06-22 20:20:39.406","","","","","",""
"card-selection-trial","15","111468","0.0-9.0-0.0","139","true","img/card_backs/set1/yellow.gif","img/card_backs/set1/red.gif","img/card_backs/set1/green.gif","img/card_backs/set1/purple.gif","img/card_backs/set2/orange.gif","img/card_backs/set2/pink.gif","img/card_backs/set2/blue.gif","img/card_backs/set2/gray.gif","""event"",""trial"",""time""
""fullscreenenter"",""1"",""5328""
","
","
","""event"",""trial"",""time""
""fullscreenenter"",""1"",""5328""
","
","","945.3000000000466","","","","practice_card_selection","2021-06-22 20:20:42.380","img/practice_cards/backs/dark_green.gif","0","200","","",""
"casino-keyboard-response","16","116999","0.0-10.0-0.0","139","true","img/card_backs/set1/yellow.gif","img/card_backs/set1/red.gif","img/card_backs/set1/green.gif","img/card_backs/set1/purple.gif","img/card_backs/set2/orange.gif","img/card_backs/set2/pink.gif","img/card_backs/set2/blue.gif","img/card_backs/set2/gray.gif","""event"",""trial"",""time""
""fullscreenenter"",""1"",""5328""
","
","
","""event"",""trial"",""time""
""fullscreenenter"",""1"",""5328""
","
","","5529.899999999907","Great! Now on the next screen, try pressing '6' to select the third deck.","54","","instructions","2021-06-22 20:20:47.911","","","","","",""
"card-selection-trial","17","119964","0.0-11.0-0.0","139","true","img/card_backs/set1/yellow.gif","img/card_backs/set1/red.gif","img/card_backs/set1/green.gif","img/card_backs/set1/purple.gif","img/card_backs/set2/orange.gif","img/card_backs/set2/pink.gif","img/card_backs/set2/blue.gif","img/card_backs/set2/gray.gif","""event"",""trial"",""time""
""fullscreenenter"",""1"",""5328""
","
","
","""event"",""trial"",""time""
""fullscreenenter"",""1"",""5328""
","
","","946.1999999999534","","","","practice_card_selection","2021-06-22 20:20:50.876","img/practice_cards/backs/brown.gif","2","100","","",""
"casino-keyboard-response","18","124496","0.0-12.0-0.0","139","true","img/card_backs/set1/yellow.gif","img/card_backs/set1/red.gif","img/card_backs/set1/green.gif","img/card_backs/set1/purple.gif","img/card_backs/set2/orange.gif","img/card_backs/set2/pink.gif","img/card_backs/set2/blue.gif","img/card_backs/set2/gray.gif","""event"",""trial"",""time""
""fullscreenenter"",""1"",""5328""
","
","
","""event"",""trial"",""time""
""fullscreenenter"",""1"",""5328""
","
","","4530.699999999953","Now on the next screen, try pressing '4' to select the second deck.","52","","instructions","2021-06-22 20:20:55.408","","","","","",""
"card-selection-trial","19","126779","0.0-13.0-0.0","139","true","img/card_backs/set1/yellow.gif","img/card_backs/set1/red.gif","img/card_backs/set1/green.gif","img/card_backs/set1/purple.gif","img/card_backs/set2/orange.gif","img/card_backs/set2/pink.gif","img/card_backs/set2/blue.gif","img/card_backs/set2/gray.gif","""event"",""trial"",""time""
""fullscreenenter"",""1"",""5328""
","
","
","""event"",""trial"",""time""
""fullscreenenter"",""1"",""5328""
","
","","265.39999999990687","","","","practice_card_selection","2021-06-22 20:20:57.692","img/practice_cards/backs/dark_blue.gif","1","-200","","",""
"casino-keyboard-response","20","131480","0.0-14.0-0.0","139","true","img/card_backs/set1/yellow.gif","img/card_backs/set1/red.gif","img/card_backs/set1/green.gif","img/card_backs/set1/purple.gif","img/card_backs/set2/orange.gif","img/card_backs/set2/pink.gif","img/card_backs/set2/blue.gif","img/card_backs/set2/gray.gif","""event"",""trial"",""time""
""fullscreenenter"",""1"",""5328""
","
","
","""event"",""trial"",""time""
""fullscreenenter"",""1"",""5328""
","
","","4699.699999999953","Finally, try pressing '8' to select the deck all the way on the right.","56","","instructions","2021-06-22 20:21:02.392","","","","","",""
"card-selection-trial","21","134074","0.0-15.0-0.0","139","true","img/card_backs/set1/yellow.gif","img/card_backs/set1/red.gif","img/card_backs/set1/green.gif","img/card_backs/set1/purple.gif","img/card_backs/set2/orange.gif","img/card_backs/set2/pink.gif","img/card_backs/set2/blue.gif","img/card_backs/set2/gray.gif","""event"",""trial"",""time""
""fullscreenenter"",""1"",""5328""
","
","
","""event"",""trial"",""time""
""fullscreenenter"",""1"",""5328""
","
","","576.3999999999069","","","","practice_card_selection","2021-06-22 20:21:04.986","img/practice_cards/backs/dark_blue.gif","3","-200","","",""
"casino-keyboard-response","22","141457","0.0-16.0-0.0","139","true","img/card_backs/set1/yellow.gif","img/card_backs/set1/red.gif","img/card_backs/set1/green.gif","img/card_backs/set1/purple.gif","img/card_backs/set2/orange.gif","img/card_backs/set2/pink.gif","img/card_backs/set2/blue.gif","img/card_backs/set2/gray.gif","""event"",""trial"",""time""
""fullscreenenter"",""1"",""5328""
","
","
","""event"",""trial"",""time""
""fullscreenenter"",""1"",""5328""
","
","","7381.300000000047","Great! It seems like you are getting the hang of this.","80","","instructions","2021-06-22 20:21:12.369","","","","","",""
"casino-keyboard-response","23","150042","0.0-16.0-0.1","139","true","img/card_backs/set1/yellow.gif","img/card_backs/set1/red.gif","img/card_backs/set1/green.gif","img/card_backs/set1/purple.gif","img/card_backs/set2/orange.gif","img/card_backs/set2/pink.gif","img/card_backs/set2/blue.gif","img/card_backs/set2/gray.gif","""event"",""trial"",""time""
""fullscreenenter"",""1"",""5328""
","
","
","""event"",""trial"",""time""
""fullscreenenter"",""1"",""5328""
","
","","8583.5","You may have noticed that some cards will cause you to <b> win </b> tokens while other cards will cause you to <b> lose </b>  tokens.","70","","instructions","2021-06-22 20:21:20.954","","","","","",""
"casino-keyboard-response","24","159650","0.0-16.0-0.2","139","true","img/card_backs/set1/yellow.gif","img/card_backs/set1/red.gif","img/card_backs/set1/green.gif","img/card_backs/set1/purple.gif","img/card_backs/set2/orange.gif","img/card_backs/set2/pink.gif","img/card_backs/set2/blue.gif","img/card_backs/set2/gray.gif","""event"",""trial"",""time""
""fullscreenenter"",""1"",""5328""
","
","
","""event"",""trial"",""time""
""fullscreenenter"",""1"",""5328""
","
","","9606.600000000093","Each deck has a mix of cards that will cause you to win and lose tokens. </br> However, the cards in each colored deck are different.","73","","instructions","2021-06-22 20:21:30.562","","","","","",""
"casino-keyboard-response","25","168539","0.0-16.0-0.3","139","true","img/card_backs/set1/yellow.gif","img/card_backs/set1/red.gif","img/card_backs/set1/green.gif","img/card_backs/set1/purple.gif","img/card_backs/set2/orange.gif","img/card_backs/set2/pink.gif","img/card_backs/set2/blue.gif","img/card_backs/set2/gray.gif","""event"",""trial"",""time""
""fullscreenenter"",""1"",""5328""
","
","
","""event"",""trial"",""time""
""fullscreenenter"",""1"",""5328""
","
","","8887.5","Some colored decks are luckier than others. </br> If you choose the lucky decks, you will earn more tokens than if you choose the unlucky decks.","69","","instructions","2021-06-22 20:21:39.451","","","","","",""
"casino-keyboard-response","26","176771","0.0-16.0-0.4","139","true","img/card_backs/set1/yellow.gif","img/card_backs/set1/red.gif","img/card_backs/set1/green.gif","img/card_backs/set1/purple.gif","img/card_backs/set2/orange.gif","img/card_backs/set2/pink.gif","img/card_backs/set2/blue.gif","img/card_backs/set2/gray.gif","""event"",""trial"",""time""
""fullscreenenter"",""1"",""5328""
","
","
","""event"",""trial"",""time""
""fullscreenenter"",""1"",""5328""
","
","","8230.600000000093","You should try to figure out which decks are lucky. </br> Then, try to choose the lucky decks so you can win the most tokens.","87","","instructions","2021-06-22 20:21:47.683","","","","","",""
"casino-keyboard-response","27","188276","0.0-16.0-0.5","139","true","img/card_backs/set1/yellow.gif","img/card_backs/set1/red.gif","img/card_backs/set1/green.gif","img/card_backs/set1/purple.gif","img/card_backs/set2/orange.gif","img/card_backs/set2/pink.gif","img/card_backs/set2/blue.gif","img/card_backs/set2/gray.gif","""event"",""trial"",""time""
""fullscreenenter"",""1"",""5328""
","
","
","""event"",""trial"",""time""
""fullscreenenter"",""1"",""5328""
","
","","11503.5","To make it trickier, the casino dealer will switch the locations of the decks on every turn. </br> The color of the deck determines how lucky it is. The location does not matter.","88","","instructions","2021-06-22 20:21:59.188","","","","","",""
"casino-keyboard-response","28","199684","0.0-16.0-0.6","139","true","img/card_backs/set1/yellow.gif","img/card_backs/set1/red.gif","img/card_backs/set1/green.gif","img/card_backs/set1/purple.gif","img/card_backs/set2/orange.gif","img/card_backs/set2/pink.gif","img/card_backs/set2/blue.gif","img/card_backs/set2/gray.gif","""event"",""trial"",""time""
""fullscreenenter"",""1"",""5328""
","
","
","""event"",""trial"",""time""
""fullscreenenter"",""1"",""5328""
","
","","11407.40000000014","The mix of cards in each colored deck will stay the same throughout the game. </br> That means that a deck that is lucky early on will stay lucky.","79","","instructions","2021-06-22 20:22:10.596","","","","","",""
"casino-keyboard-response","29","208117","0.0-16.0-0.7","139","true","img/card_backs/set1/yellow.gif","img/card_backs/set1/red.gif","img/card_backs/set1/green.gif","img/card_backs/set1/purple.gif","img/card_backs/set2/orange.gif","img/card_backs/set2/pink.gif","img/card_backs/set2/blue.gif","img/card_backs/set2/gray.gif","""event"",""trial"",""time""
""fullscreenenter"",""1"",""5328""
","
","
","""event"",""trial"",""time""
""fullscreenenter"",""1"",""5328""
","
","","8431.09999999986","Remember though, all the decks have a <b> mix </b> of both <b> good </b> and <b> bad </b> cards so it may take a couple of turns to figure out if a deck is lucky.","69","","instructions","2021-06-22 20:22:19.029","","","","","",""
"casino-keyboard-response","30","217198","0.0-16.0-0.8","139","true","img/card_backs/set1/yellow.gif","img/card_backs/set1/red.gif","img/card_backs/set1/green.gif","img/card_backs/set1/purple.gif","img/card_backs/set2/orange.gif","img/card_backs/set2/pink.gif","img/card_backs/set2/blue.gif","img/card_backs/set2/gray.gif","""event"",""trial"",""time""
""fullscreenenter"",""1"",""5328""
","
","
","""event"",""trial"",""time""
""fullscreenenter"",""1"",""5328""
","
","","9079.300000000047","At the end of the game, you will be paid bonus money based on how many tokens you win. </br> If you win more tokens, you will earn more money!","72","","instructions","2021-06-22 20:22:28.110","","","","","",""
"casino-keyboard-response","31","229111","0.0-16.0-0.9","139","true","img/card_backs/set1/yellow.gif","img/card_backs/set1/red.gif","img/card_backs/set1/green.gif","img/card_backs/set1/purple.gif","img/card_backs/set2/orange.gif","img/card_backs/set2/pink.gif","img/card_backs/set2/blue.gif","img/card_backs/set2/gray.gif","""event"",""trial"",""time""
""fullscreenenter"",""1"",""5328""
","
","
","""event"",""trial"",""time""
""fullscreenenter"",""1"",""5328""
","
","","11910.799999999814","You will never <b> lose </b> money. </br> If you end up with fewer than 0 tokens, you will earn $0 of bonus money, but you will still be paid for playing the game.","83","","instructions","2021-06-22 20:22:40.023","","","","","",""
"casino-keyboard-response","32","233663","0.0-16.0-0.10","139","true","img/card_backs/set1/yellow.gif","img/card_backs/set1/red.gif","img/card_backs/set1/green.gif","img/card_backs/set1/purple.gif","img/card_backs/set2/orange.gif","img/card_backs/set2/pink.gif","img/card_backs/set2/blue.gif","img/card_backs/set2/gray.gif","""event"",""trial"",""time""
""fullscreenenter"",""1"",""5328""
","
","
","""event"",""trial"",""time""
""fullscreenenter"",""1"",""5328""
","
","","4550.300000000047","You will have 10 seconds to make each choice.","82","","instructions","2021-06-22 20:22:44.575","","","","","",""
"casino-keyboard-response","33","242240","0.0-16.0-0.11","139","true","img/card_backs/set1/yellow.gif","img/card_backs/set1/red.gif","img/card_backs/set1/green.gif","img/card_backs/set1/purple.gif","img/card_backs/set2/orange.gif","img/card_backs/set2/pink.gif","img/card_backs/set2/blue.gif","img/card_backs/set2/gray.gif","""event"",""trial"",""time""
""fullscreenenter"",""1"",""5328""
","
","
","""event"",""trial"",""time""
""fullscreenenter"",""1"",""5328""
","
","","8574.59999999986","Before you play the game for real, you will play with practice decks. </br> The tokens you earn during practice won't count toward your total.","86","","instructions","2021-06-22 20:22:53.152","","","","","",""
"casino-keyboard-response","34","246448","0.0-16.0-0.12","139","true","img/card_backs/set1/yellow.gif","img/card_backs/set1/red.gif","img/card_backs/set1/green.gif","img/card_backs/set1/purple.gif","img/card_backs/set2/orange.gif","img/card_backs/set2/pink.gif","img/card_backs/set2/blue.gif","img/card_backs/set2/gray.gif","""event"",""trial"",""time""
""fullscreenenter"",""1"",""5328""
","
","
","""event"",""trial"",""time""
""fullscreenenter"",""1"",""5328""
","
","","4206","Ready? Remember, use the '2', '4', '6', and '8' keys to select the decks. </br> Put your fingers on those keys now and then press '2' to begin.","50","","instructions","2021-06-22 20:22:57.360","","","","","",""
"casino-fixation","35","246956","0.0-17.0-0.0","139","true","img/card_backs/set1/yellow.gif","img/card_backs/set1/red.gif","img/card_backs/set1/green.gif","img/card_backs/set1/purple.gif","img/card_backs/set2/orange.gif","img/card_backs/set2/pink.gif","img/card_backs/set2/blue.gif","img/card_backs/set2/gray.gif","""event"",""trial"",""time""
""fullscreenenter"",""1"",""5328""
","
","
","""event"",""trial"",""time""
""fullscreenenter"",""1"",""5328""
","
","","null","","null","","fixation","2021-06-22 20:22:57.869","","","","","",""
"card-selection-trial","36","249997","0.0-17.0-1.0","139","true","img/card_backs/set1/yellow.gif","img/card_backs/set1/red.gif","img/card_backs/set1/green.gif","img/card_backs/set1/purple.gif","img/card_backs/set2/orange.gif","img/card_backs/set2/pink.gif","img/card_backs/set2/blue.gif","img/card_backs/set2/gray.gif","""event"",""trial"",""time""
""fullscreenenter"",""1"",""5328""
","
","
","""event"",""trial"",""time""
""fullscreenenter"",""1"",""5328""
","
","","1029","","","","practice","2021-06-22 20:23:00.909","img/practice_cards/backs/dark_blue.gif","0","-200","0","",""
"casino-fixation","37","250517","0.0-17.0-0.1","139","true","img/card_backs/set1/yellow.gif","img/card_backs/set1/red.gif","img/card_backs/set1/green.gif","img/card_backs/set1/purple.gif","img/card_backs/set2/orange.gif","img/card_backs/set2/pink.gif","img/card_backs/set2/blue.gif","img/card_backs/set2/gray.gif","""event"",""trial"",""time""
""fullscreenenter"",""1"",""5328""
","
","
","""event"",""trial"",""time""
""fullscreenenter"",""1"",""5328""
","
","","null","","null","","fixation","2021-06-22 20:23:01.429","","","","","",""
"card-selection-trial","38","253878","0.0-17.0-1.1","139","true","img/card_backs/set1/yellow.gif","img/card_backs/set1/red.gif","img/card_backs/set1/green.gif","img/card_backs/set1/purple.gif","img/card_backs/set2/orange.gif","img/card_backs/set2/pink.gif","img/card_backs/set2/blue.gif","img/card_backs/set2/gray.gif","""event"",""trial"",""time""
""fullscreenenter"",""1"",""5328""
","
","
","""event"",""trial"",""time""
""fullscreenenter"",""1"",""5328""
","
","","1350.4000000001397","","","","practice","2021-06-22 20:23:04.790","img/practice_cards/backs/dark_blue.gif","1","-200","0","",""
"casino-fixation","39","254397","0.0-17.0-0.2","139","true","img/card_backs/set1/yellow.gif","img/card_backs/set1/red.gif","img/card_backs/set1/green.gif","img/card_backs/set1/purple.gif","img/card_backs/set2/orange.gif","img/card_backs/set2/pink.gif","img/card_backs/set2/blue.gif","img/card_backs/set2/gray.gif","""event"",""trial"",""time""
""fullscreenenter"",""1"",""5328""
","
","
","""event"",""trial"",""time""
""fullscreenenter"",""1"",""5328""
","
","","null","","null","","fixation","2021-06-22 20:23:05.309","","","","","",""
"card-selection-trial","40","258358","0.0-17.0-1.2","139","true","img/card_backs/set1/yellow.gif","img/card_backs/set1/red.gif","img/card_backs/set1/green.gif","img/card_backs/set1/purple.gif","img/card_backs/set2/orange.gif","img/card_backs/set2/pink.gif","img/card_backs/set2/blue.gif","img/card_backs/set2/gray.gif","""event"",""trial"",""time""
""fullscreenenter"",""1"",""5328""
","
","
","""event"",""trial"",""time""
""fullscreenenter"",""1"",""5328""
","
","","1940.8000000000466","","","","practice","2021-06-22 20:23:09.270","img/practice_cards/backs/brown.gif","2","-100","0","",""
"casino-fixation","41","258873","0.0-17.0-0.3","139","true","img/card_backs/set1/yellow.gif","img/card_backs/set1/red.gif","img/card_backs/set1/green.gif","img/card_backs/set1/purple.gif","img/card_backs/set2/orange.gif","img/card_backs/set2/pink.gif","img/card_backs/set2/blue.gif","img/card_backs/set2/gray.gif","""event"",""trial"",""time""
""fullscreenenter"",""1"",""5328""
","
","
","""event"",""trial"",""time""
""fullscreenenter"",""1"",""5328""
","
","","null","","null","","fixation","2021-06-22 20:23:09.785","","","","","",""
"card-selection-trial","42","262798","0.0-17.0-1.3","139","true","img/card_backs/set1/yellow.gif","img/card_backs/set1/red.gif","img/card_backs/set1/green.gif","img/card_backs/set1/purple.gif","img/card_backs/set2/orange.gif","img/card_backs/set2/pink.gif","img/card_backs/set2/blue.gif","img/card_backs/set2/gray.gif","""event"",""trial"",""time""
""fullscreenenter"",""1"",""5328""
","
","
","""event"",""trial"",""time""
""fullscreenenter"",""1"",""5328""
","
","","1912.9000000001397","","","","practice","2021-06-22 20:23:13.710","img/practice_cards/backs/black.gif","2","100","0","",""
"casino-fixation","43","263303","0.0-17.0-0.4","139","true","img/card_backs/set1/yellow.gif","img/card_backs/set1/red.gif","img/card_backs/set1/green.gif","img/card_backs/set1/purple.gif","img/card_backs/set2/orange.gif","img/card_backs/set2/pink.gif","img/card_backs/set2/blue.gif","img/card_backs/set2/gray.gif","""event"",""trial"",""time""
""fullscreenenter"",""1"",""5328""
","
","
","""event"",""trial"",""time""
""fullscreenenter"",""1"",""5328""
","
","","null","","null","","fixation","2021-06-22 20:23:14.215","","","","","",""
"card-selection-trial","44","266640","0.0-17.0-1.4","139","true","img/card_backs/set1/yellow.gif","img/card_backs/set1/red.gif","img/card_backs/set1/green.gif","img/card_backs/set1/purple.gif","img/card_backs/set2/orange.gif","img/card_backs/set2/pink.gif","img/card_backs/set2/blue.gif","img/card_backs/set2/gray.gif","""event"",""trial"",""time""
""fullscreenenter"",""1"",""5328""
","
","
","""event"",""trial"",""time""
""fullscreenenter"",""1"",""5328""
","
","","1311.5","","","","practice","2021-06-22 20:23:17.552","img/practice_cards/backs/dark_green.gif","0","-200","0","",""
"casino-fixation","45","267149","0.0-17.0-0.5","139","true","img/card_backs/set1/yellow.gif","img/card_backs/set1/red.gif","img/card_backs/set1/green.gif","img/card_backs/set1/purple.gif","img/card_backs/set2/orange.gif","img/card_backs/set2/pink.gif","img/card_backs/set2/blue.gif","img/card_backs/set2/gray.gif","""event"",""trial"",""time""
""fullscreenenter"",""1"",""5328""
","
","
","""event"",""trial"",""time""
""fullscreenenter"",""1"",""5328""
","
","","null","","null","","fixation","2021-06-22 20:23:18.061","","","","","",""
"card-selection-trial","46","270395","0.0-17.0-1.5","139","true","img/card_backs/set1/yellow.gif","img/card_backs/set1/red.gif","img/card_backs/set1/green.gif","img/card_backs/set1/purple.gif","img/card_backs/set2/orange.gif","img/card_backs/set2/pink.gif","img/card_backs/set2/blue.gif","img/card_backs/set2/gray.gif","""event"",""trial"",""time""
""fullscreenenter"",""1"",""5328""
","
","
","""event"",""trial"",""time""
""fullscreenenter"",""1"",""5328""
","
","","1220.6999999999534","","","","practice","2021-06-22 20:23:21.307","img/practice_cards/backs/dark_green.gif","1","-200","0","",""
"casino-fixation","47","270919","0.0-17.0-0.6","139","true","img/card_backs/set1/yellow.gif","img/card_backs/set1/red.gif","img/card_backs/set1/green.gif","img/card_backs/set1/purple.gif","img/card_backs/set2/orange.gif","img/card_backs/set2/pink.gif","img/card_backs/set2/blue.gif","img/card_backs/set2/gray.gif","""event"",""trial"",""time""
""fullscreenenter"",""1"",""5328""
","
","
","""event"",""trial"",""time""
""fullscreenenter"",""1"",""5328""
","
","","null","","null","","fixation","2021-06-22 20:23:21.831","","","","","",""
"card-selection-trial","48","274730","0.0-17.0-1.6","139","true","img/card_backs/set1/yellow.gif","img/card_backs/set1/red.gif","img/card_backs/set1/green.gif","img/card_backs/set1/purple.gif","img/card_backs/set2/orange.gif","img/card_backs/set2/pink.gif","img/card_backs/set2/blue.gif","img/card_backs/set2/gray.gif","""event"",""trial"",""time""
""fullscreenenter"",""1"",""5328""
","
","
","""event"",""trial"",""time""
""fullscreenenter"",""1"",""5328""
","
","","1794.6999999999534","","","","practice","2021-06-22 20:23:25.642","img/practice_cards/backs/dark_blue.gif","0","200","0","",""
"casino-fixation","49","275239","0.0-17.0-0.7","139","true","img/card_backs/set1/yellow.gif","img/card_backs/set1/red.gif","img/card_backs/set1/green.gif","img/card_backs/set1/purple.gif","img/card_backs/set2/orange.gif","img/card_backs/set2/pink.gif","img/card_backs/set2/blue.gif","img/card_backs/set2/gray.gif","""event"",""trial"",""time""
""fullscreenenter"",""1"",""5328""
","
","
","""event"",""trial"",""time""
""fullscreenenter"",""1"",""5328""
","
","","null","","null","","fixation","2021-06-22 20:23:26.152","","","","","",""
"card-selection-trial","50","278828","0.0-17.0-1.7","139","true","img/card_backs/set1/yellow.gif","img/card_backs/set1/red.gif","img/card_backs/set1/green.gif","img/card_backs/set1/purple.gif","img/card_backs/set2/orange.gif","img/card_backs/set2/pink.gif","img/card_backs/set2/blue.gif","img/card_backs/set2/gray.gif","""event"",""trial"",""time""
""fullscreenenter"",""1"",""5328""
","
","
","""event"",""trial"",""time""
""fullscreenenter"",""1"",""5328""
","
","","1580.3000000000466","","","","practice","2021-06-22 20:23:29.741","img/practice_cards/backs/dark_blue.gif","2","200","0","",""
"casino-fixation","51","279331","0.0-17.0-0.8","139","true","img/card_backs/set1/yellow.gif","img/card_backs/set1/red.gif","img/card_backs/set1/green.gif","img/card_backs/set1/purple.gif","img/card_backs/set2/orange.gif","img/card_backs/set2/pink.gif","img/card_backs/set2/blue.gif","img/card_backs/set2/gray.gif","""event"",""trial"",""time""
""fullscreenenter"",""1"",""5328""
","
","
","""event"",""trial"",""time""
""fullscreenenter"",""1"",""5328""
","
","","null","","null","","fixation","2021-06-22 20:23:30.243","","","","","",""
"card-selection-trial","52","283244","0.0-17.0-1.8","139","true","img/card_backs/set1/yellow.gif","img/card_backs/set1/red.gif","img/card_backs/set1/green.gif","img/card_backs/set1/purple.gif","img/card_backs/set2/orange.gif","img/card_backs/set2/pink.gif","img/card_backs/set2/blue.gif","img/card_backs/set2/gray.gif","""event"",""trial"",""time""
""fullscreenenter"",""1"",""5328""
","
","
","""event"",""trial"",""time""
""fullscreenenter"",""1"",""5328""
","
","","1900.6999999999534","","","","practice","2021-06-22 20:23:34.156","img/practice_cards/backs/dark_blue.gif","0","200","0","",""
"casino-fixation","53","283747","0.0-17.0-0.9","139","true","img/card_backs/set1/yellow.gif","img/card_backs/set1/red.gif","img/card_backs/set1/green.gif","img/card_backs/set1/purple.gif","img/card_backs/set2/orange.gif","img/card_backs/set2/pink.gif","img/card_backs/set2/blue.gif","img/card_backs/set2/gray.gif","""event"",""trial"",""time""
""fullscreenenter"",""1"",""5328""
","
","
","""event"",""trial"",""time""
""fullscreenenter"",""1"",""5328""
","
","","null","","null","","fixation","2021-06-22 20:23:34.659","","","","","",""
"card-selection-trial","54","287190","0.0-17.0-1.9","139","true","img/card_backs/set1/yellow.gif","img/card_backs/set1/red.gif","img/card_backs/set1/green.gif","img/card_backs/set1/purple.gif","img/card_backs/set2/orange.gif","img/card_backs/set2/pink.gif","img/card_backs/set2/blue.gif","img/card_backs/set2/gray.gif","""event"",""trial"",""time""
""fullscreenenter"",""1"",""5328""
","
","
","""event"",""trial"",""time""
""fullscreenenter"",""1"",""5328""
","
","","1431.9000000001397","","","","practice","2021-06-22 20:23:38.102","img/practice_cards/backs/dark_blue.gif","3","200","0","",""
"casino-keyboard-response","55","290260","0.0-18.0","139","true","img/card_backs/set1/yellow.gif","img/card_backs/set1/red.gif","img/card_backs/set1/green.gif","img/card_backs/set1/purple.gif","img/card_backs/set2/orange.gif","img/card_backs/set2/pink.gif","img/card_backs/set2/blue.gif","img/card_backs/set2/gray.gif","""event"",""trial"",""time""
""fullscreenenter"",""1"",""5328""
","
","
","""event"",""trial"",""time""
""fullscreenenter"",""1"",""5328""
","
","","3067.8000000000466","You earned 0 tokens during the practice round!","82","","","2021-06-22 20:23:41.172","","","","","",""
"casino-keyboard-response","56","295260","0.0-19.0-0.0","139","true","img/card_backs/set1/yellow.gif","img/card_backs/set1/red.gif","img/card_backs/set1/green.gif","img/card_backs/set1/purple.gif","img/card_backs/set2/orange.gif","img/card_backs/set2/pink.gif","img/card_backs/set2/blue.gif","img/card_backs/set2/gray.gif","""event"",""trial"",""time""
""fullscreenenter"",""1"",""5328""
","
","
","""event"",""trial"",""time""
""fullscreenenter"",""1"",""5328""
","
","","4999.199999999953","Nice job! You are almost ready to play the real game.","86","","instructions","2021-06-22 20:23:46.172","","","","","",""
"casino-keyboard-response","57","303653","0.0-19.0-0.1","139","true","img/card_backs/set1/yellow.gif","img/card_backs/set1/red.gif","img/card_backs/set1/green.gif","img/card_backs/set1/purple.gif","img/card_backs/set2/orange.gif","img/card_backs/set2/pink.gif","img/card_backs/set2/blue.gif","img/card_backs/set2/gray.gif","""event"",""trial"",""time""
""fullscreenenter"",""1"",""5328""
","
","
","""event"",""trial"",""time""
""fullscreenenter"",""1"",""5328""
","
","","8390.90000000014","You will play two rounds of the real game. In each round, you will pick 100 cards in total.","73","","instructions","2021-06-22 20:23:54.565","","","","","",""
"casino-keyboard-response","58","308949","0.0-19.0-0.2","139","true","img/card_backs/set1/yellow.gif","img/card_backs/set1/red.gif","img/card_backs/set1/green.gif","img/card_backs/set1/purple.gif","img/card_backs/set2/orange.gif","img/card_backs/set2/pink.gif","img/card_backs/set2/blue.gif","img/card_backs/set2/gray.gif","""event"",""trial"",""time""
""fullscreenenter"",""1"",""5328""
","
","
","""event"",""trial"",""time""
""fullscreenenter"",""1"",""5328""
","
","","5293.700000000186","We are now going to ask you some questions about how the game works.","66","","instructions","2021-06-22 20:23:59.861","","","","","",""
"casino-keyboard-response","59","315365","0.0-19.0-0.3","139","true","img/card_backs/set1/yellow.gif","img/card_backs/set1/red.gif","img/card_backs/set1/green.gif","img/card_backs/set1/purple.gif","img/card_backs/set2/orange.gif","img/card_backs/set2/pink.gif","img/card_backs/set2/blue.gif","img/card_backs/set2/gray.gif","""event"",""trial"",""time""
""fullscreenenter"",""1"",""5328""
","
","
","""event"",""trial"",""time""
""fullscreenenter"",""1"",""5328""
","
","","6414","Answer carefully. You will not be able to begin the game until you answer them correctly.","67","","instructions","2021-06-22 20:24:06.277","","","","","",""
"casino-comp_q","60","321718","0.0-20.0-0.0","139","true","img/card_backs/set1/yellow.gif","img/card_backs/set1/red.gif","img/card_backs/set1/green.gif","img/card_backs/set1/purple.gif","img/card_backs/set2/orange.gif","img/card_backs/set2/pink.gif","img/card_backs/set2/blue.gif","img/card_backs/set2/gray.gif","""event"",""trial"",""time""
""fullscreenenter"",""1"",""5328""
","
","
","""event"",""trial"",""time""
""fullscreenenter"",""1"",""5328""
","
","","6351.09999999986","True or False: All the decks have some cards that cause you to win tokens and some cards that cause you to lose tokens.","84","","","2021-06-22 20:24:12.630","","","","","",""
"casino-keyboard-response","61","325942","0.0-20.0-1.0","139","true","img/card_backs/set1/yellow.gif","img/card_backs/set1/red.gif","img/card_backs/set1/green.gif","img/card_backs/set1/purple.gif","img/card_backs/set2/orange.gif","img/card_backs/set2/pink.gif","img/card_backs/set2/blue.gif","img/card_backs/set2/gray.gif","""event"",""trial"",""time""
""fullscreenenter"",""1"",""5328""
","
","
","""event"",""trial"",""time""
""fullscreenenter"",""1"",""5328""
","
","","4221.899999999907","True is correct! All the decks have a mix of winning and losing cards.","77","","","2021-06-22 20:24:16.854","","","","","true",""
"casino-comp_q","62","330062","0.0-21.0-0.0","139","true","img/card_backs/set1/yellow.gif","img/card_backs/set1/red.gif","img/card_backs/set1/green.gif","img/card_backs/set1/purple.gif","img/card_backs/set2/orange.gif","img/card_backs/set2/pink.gif","img/card_backs/set2/blue.gif","img/card_backs/set2/gray.gif","""event"",""trial"",""time""
""fullscreenenter"",""1"",""5328""
","
","
","""event"",""trial"",""time""
""fullscreenenter"",""1"",""5328""
","
","","4118.300000000047","True or False: You will have as much time as you want to make your response.","70","","","2021-06-22 20:24:20.974","","","","","",""
"casino-keyboard-response","63","333735","0.0-21.0-1.0","139","true","img/card_backs/set1/yellow.gif","img/card_backs/set1/red.gif","img/card_backs/set1/green.gif","img/card_backs/set1/purple.gif","img/card_backs/set2/orange.gif","img/card_backs/set2/pink.gif","img/card_backs/set2/blue.gif","img/card_backs/set2/gray.gif","""event"",""trial"",""time""
""fullscreenenter"",""1"",""5328""
","
","
","""event"",""trial"",""time""
""fullscreenenter"",""1"",""5328""
","
","","3669.5","False is correct! You will only have 10 seconds to make each choice.","75","","","2021-06-22 20:24:24.647","","","","","true",""
"casino-comp_q","64","338862","0.0-22.0-0.0","139","true","img/card_backs/set1/yellow.gif","img/card_backs/set1/red.gif","img/card_backs/set1/green.gif","img/card_backs/set1/purple.gif","img/card_backs/set2/orange.gif","img/card_backs/set2/pink.gif","img/card_backs/set2/blue.gif","img/card_backs/set2/gray.gif","""event"",""trial"",""time""
""fullscreenenter"",""1"",""5328""
","
","
","""event"",""trial"",""time""
""fullscreenenter"",""1"",""5328""
","
","","5126.199999999953","True or False: The location of the deck determines how lucky it is.","84","","","2021-06-22 20:24:29.774","","","","","",""
"casino-keyboard-response","65","342279","0.0-22.0-1.0","139","true","img/card_backs/set1/yellow.gif","img/card_backs/set1/red.gif","img/card_backs/set1/green.gif","img/card_backs/set1/purple.gif","img/card_backs/set2/orange.gif","img/card_backs/set2/pink.gif","img/card_backs/set2/blue.gif","img/card_backs/set2/gray.gif","""event"",""trial"",""time""
""fullscreenenter"",""1"",""5328""
","
","
","""event"",""trial"",""time""
""fullscreenenter"",""1"",""5328""
","
","","3414.8000000000466","True is incorrect. The <i>color</i> of the deck determines how lucky or unlucky it is.","68","","","2021-06-22 20:24:33.191","","","","","false",""
"casino-comp_q","66","346615","0.0-22.1-0.1","139","true","img/card_backs/set1/yellow.gif","img/card_backs/set1/red.gif","img/card_backs/set1/green.gif","img/card_backs/set1/purple.gif","img/card_backs/set2/orange.gif","img/card_backs/set2/pink.gif","img/card_backs/set2/blue.gif","img/card_backs/set2/gray.gif","""event"",""trial"",""time""
""fullscreenenter"",""1"",""5328""
","
","
","""event"",""trial"",""time""
""fullscreenenter"",""1"",""5328""
","
","","4335.199999999953","True or False: The location of the deck determines how lucky it is.","70","","","2021-06-22 20:24:37.527","","","","","",""
"casino-keyboard-response","67","349776","0.0-22.1-1.1","139","true","img/card_backs/set1/yellow.gif","img/card_backs/set1/red.gif","img/card_backs/set1/green.gif","img/card_backs/set1/purple.gif","img/card_backs/set2/orange.gif","img/card_backs/set2/pink.gif","img/card_backs/set2/blue.gif","img/card_backs/set2/gray.gif","""event"",""trial"",""time""
""fullscreenenter"",""1"",""5328""
","
","
","""event"",""trial"",""time""
""fullscreenenter"",""1"",""5328""
","
","","3158.600000000093","False is correct! The <i>color</i>  of the deck determines how lucky or unlucky it is.","68","","","2021-06-22 20:24:40.688","","","","","true",""
"casino-keyboard-response","68","354144","0.0-23.0-0.0","139","true","img/card_backs/set1/yellow.gif","img/card_backs/set1/red.gif","img/card_backs/set1/green.gif","img/card_backs/set1/purple.gif","img/card_backs/set2/orange.gif","img/card_backs/set2/pink.gif","img/card_backs/set2/blue.gif","img/card_backs/set2/gray.gif","""event"",""trial"",""time""
""fullscreenenter"",""1"",""5328""
","
","
","""event"",""trial"",""time""
""fullscreenenter"",""1"",""5328""
","
","","4366.800000000047","Great job! Now it's time to start the real game.","82","","instructions","2021-06-22 20:24:45.056","","","","","",""
"casino-keyboard-response","69","359561","0.0-23.0-0.1","139","true","img/card_backs/set1/yellow.gif","img/card_backs/set1/red.gif","img/card_backs/set1/green.gif","img/card_backs/set1/purple.gif","img/card_backs/set2/orange.gif","img/card_backs/set2/pink.gif","img/card_backs/set2/blue.gif","img/card_backs/set2/gray.gif","""event"",""trial"",""time""
""fullscreenenter"",""1"",""5328""
","
","
","""event"",""trial"",""time""
""fullscreenenter"",""1"",""5328""
","
","","5415.399999999907","Before we start, we're going to head into a new room of the casino.","86","","instructions","2021-06-22 20:24:50.473","","","","","",""
"casino-keyboard-response","70","366401","0.0-24.0-0.0","139","true","img/card_backs/set1/yellow.gif","img/card_backs/set1/red.gif","img/card_backs/set1/green.gif","img/card_backs/set1/purple.gif","img/card_backs/set2/orange.gif","img/card_backs/set2/pink.gif","img/card_backs/set2/blue.gif","img/card_backs/set2/gray.gif","""event"",""trial"",""time""
""fullscreenenter"",""1"",""5328""
","
","
","""event"",""trial"",""time""
""fullscreenenter"",""1"",""5328""
","
","","6838.300000000047","Here we are! The real game will use different cards, but the rules will be the same.","71","","instructions","2021-06-22 20:24:57.313","","","","","",""
"casino-keyboard-response","71","371225","0.0-24.0-0.1","139","true","img/card_backs/set1/yellow.gif","img/card_backs/set1/red.gif","img/card_backs/set1/green.gif","img/card_backs/set1/purple.gif","img/card_backs/set2/orange.gif","img/card_backs/set2/pink.gif","img/card_backs/set2/blue.gif","img/card_backs/set2/gray.gif","""event"",""trial"",""time""
""fullscreenenter"",""1"",""5328""
","
","
","""event"",""trial"",""time""
""fullscreenenter"",""1"",""5328""
","
","","4822.799999999814","Ready? Put your fingers over the '2', '4', 6', and '8' keys so you are ready to play the game. </br> Then press 2 to start.","50","","instructions","2021-06-22 20:25:02.137","","","","","",""
"casino-fixation","72","371740","0.0-25.0-0.0","139","true","img/card_backs/set1/yellow.gif","img/card_backs/set1/red.gif","img/card_backs/set1/green.gif","img/card_backs/set1/purple.gif","img/card_backs/set2/orange.gif","img/card_backs/set2/pink.gif","img/card_backs/set2/blue.gif","img/card_backs/set2/gray.gif","""event"",""trial"",""time""
""fullscreenenter"",""1"",""5328""
","
","
","""event"",""trial"",""time""
""fullscreenenter"",""1"",""5328""
","
","","null","","null","","fixation","2021-06-22 20:25:02.652","","","","","",""
"card-selection-trial","73","375155","0.0-25.0-1.0","139","true","img/card_backs/set1/yellow.gif","img/card_backs/set1/red.gif","img/card_backs/set1/green.gif","img/card_backs/set1/purple.gif","img/card_backs/set2/orange.gif","img/card_backs/set2/pink.gif","img/card_backs/set2/blue.gif","img/card_backs/set2/gray.gif","""event"",""trial"",""time""
""fullscreenenter"",""1"",""5328""
","
","
","""event"",""trial"",""time""
""fullscreenenter"",""1"",""5328""
","
","","1404.5999999998603","","","","real_trial","2021-06-22 20:25:06.067","img/card_backs/set1/purple.gif","0","-100","1","",""
"casino-fixation","74","375659","0.0-25.0-0.1","139","true","img/card_backs/set1/yellow.gif","img/card_backs/set1/red.gif","img/card_backs/set1/green.gif","img/card_backs/set1/purple.gif","img/card_backs/set2/orange.gif","img/card_backs/set2/pink.gif","img/card_backs/set2/blue.gif","img/card_backs/set2/gray.gif","""event"",""trial"",""time""
""fullscreenenter"",""1"",""5328""
","
","
","""event"",""trial"",""time""
""fullscreenenter"",""1"",""5328""
","
","","null","","null","","fixation","2021-06-22 20:25:06.571","","","","","",""
"card-selection-trial","75","378950","0.0-25.0-1.1","139","true","img/card_backs/set1/yellow.gif","img/card_backs/set1/red.gif","img/card_backs/set1/green.gif","img/card_backs/set1/purple.gif","img/card_backs/set2/orange.gif","img/card_backs/set2/pink.gif","img/card_backs/set2/blue.gif","img/card_backs/set2/gray.gif","""event"",""trial"",""time""
""fullscreenenter"",""1"",""5328""
","
","
","""event"",""trial"",""time""
""fullscreenenter"",""1"",""5328""
","
","","1279.8999999999069","","","","real_trial","2021-06-22 20:25:09.862","img/card_backs/set1/green.gif","1","40","1","",""
"casino-fixation","76","379465","0.0-25.0-0.2","139","true","img/card_backs/set1/yellow.gif","img/card_backs/set1/red.gif","img/card_backs/set1/green.gif","img/card_backs/set1/purple.gif","img/card_backs/set2/orange.gif","img/card_backs/set2/pink.gif","img/card_backs/set2/blue.gif","img/card_backs/set2/gray.gif","""event"",""trial"",""time""
""fullscreenenter"",""1"",""5328""
","
","
","""event"",""trial"",""time""
""fullscreenenter"",""1"",""5328""
","
","","null","","null","","fixation","2021-06-22 20:25:10.377","","","","","",""
"card-selection-trial","77","383301","0.0-25.0-1.2","139","true","img/card_backs/set1/yellow.gif","img/card_backs/set1/red.gif","img/card_backs/set1/green.gif","img/card_backs/set1/purple.gif","img/card_backs/set2/orange.gif","img/card_backs/set2/pink.gif","img/card_backs/set2/blue.gif","img/card_backs/set2/gray.gif","""event"",""trial"",""time""
""fullscreenenter"",""1"",""5328""
","
","
","""event"",""trial"",""time""
""fullscreenenter"",""1"",""5328""
","
","","1822.6999999999534","","","","real_trial","2021-06-22 20:25:14.213","img/card_backs/set1/red.gif","1","250","1","",""
"casino-fixation","78","383815","0.0-25.0-0.3","139","true","img/card_backs/set1/yellow.gif","img/card_backs/set1/red.gif","img/card_backs/set1/green.gif","img/card_backs/set1/purple.gif","img/card_backs/set2/orange.gif","img/card_backs/set2/pink.gif","img/card_backs/set2/blue.gif","img/card_backs/set2/gray.gif","""event"",""trial"",""time""
""fullscreenenter"",""1"",""5328""
","
","
","""event"",""trial"",""time""
""fullscreenenter"",""1"",""5328""
","
","","null","","null","","fixation","2021-06-22 20:25:14.727","","","","","",""
"card-selection-trial","79","386521","0.0-25.0-1.3","139","true","img/card_backs/set1/yellow.gif","img/card_backs/set1/red.gif","img/card_backs/set1/green.gif","img/card_backs/set1/purple.gif","img/card_backs/set2/orange.gif","img/card_backs/set2/pink.gif","img/card_backs/set2/blue.gif","img/card_backs/set2/gray.gif","""event"",""trial"",""time""
""fullscreenenter"",""1"",""5328""
","
","
","""event"",""trial"",""time""
""fullscreenenter"",""1"",""5328""
","
","","692.1999999999534","","","","real_trial","2021-06-22 20:25:17.433","img/card_backs/set1/yellow.gif","1","260","1","",""
"casino-fixation","80","387041","0.0-25.0-0.4","139","true","img/card_backs/set1/yellow.gif","img/card_backs/set1/red.gif","img/card_backs/set1/green.gif","img/card_backs/set1/purple.gif","img/card_backs/set2/orange.gif","img/card_backs/set2/pink.gif","img/card_backs/set2/blue.gif","img/card_backs/set2/gray.gif","""event"",""trial"",""time""
""fullscreenenter"",""1"",""5328""
","
","
","""event"",""trial"",""time""
""fullscreenenter"",""1"",""5328""
","
","","null","","null","","fixation","2021-06-22 20:25:17.953","","","","","",""
"card-selection-trial","81","391422","0.0-25.0-1.4","139","true","img/card_backs/set1/yellow.gif","img/card_backs/set1/red.gif","img/card_backs/set1/green.gif","img/card_backs/set1/purple.gif","img/card_backs/set2/orange.gif","img/card_backs/set2/pink.gif","img/card_backs/set2/blue.gif","img/card_backs/set2/gray.gif","""event"",""trial"",""time""
""fullscreenenter"",""1"",""5328""
","
","
","""event"",""trial"",""time""
""fullscreenenter"",""1"",""5328""
","
","","2366","","","","real_trial","2021-06-22 20:25:22.334","img/card_backs/set1/red.gif","1","-190","1","",""
"casino-fixation","82","391932","0.0-25.0-0.5","139","true","img/card_backs/set1/yellow.gif","img/card_backs/set1/red.gif","img/card_backs/set1/green.gif","img/card_backs/set1/purple.gif","img/card_backs/set2/orange.gif","img/card_backs/set2/pink.gif","img/card_backs/set2/blue.gif","img/card_backs/set2/gray.gif","""event"",""trial"",""time""
""fullscreenenter"",""1"",""5328""
","
","
","""event"",""trial"",""time""
""fullscreenenter"",""1"",""5328""
","
","","null","","null","","fixation","2021-06-22 20:25:22.844","","","","","",""
"card-selection-trial","83","395902","0.0-25.0-1.5","139","true","img/card_backs/set1/yellow.gif","img/card_backs/set1/red.gif","img/card_backs/set1/green.gif","img/card_backs/set1/purple.gif","img/card_backs/set2/orange.gif","img/card_backs/set2/pink.gif","img/card_backs/set2/blue.gif","img/card_backs/set2/gray.gif","""event"",""trial"",""time""
""fullscreenenter"",""1"",""5328""
","
","
","""event"",""trial"",""time""
""fullscreenenter"",""1"",""5328""
","
","","1959.2999999998137","","","","real_trial","2021-06-22 20:25:26.814","img/card_backs/set1/yellow.gif","2","250","1","",""
"casino-fixation","84","396422","0.0-25.0-0.6","139","true","img/card_backs/set1/yellow.gif","img/card_backs/set1/red.gif","img/card_backs/set1/green.gif","img/card_backs/set1/purple.gif","img/card_backs/set2/orange.gif","img/card_backs/set2/pink.gif","img/card_backs/set2/blue.gif","img/card_backs/set2/gray.gif","""event"",""trial"",""time""
""fullscreenenter"",""1"",""5328""
","
","
","""event"",""trial"",""time""
""fullscreenenter"",""1"",""5328""
","
","","null","","null","","fixation","2021-06-22 20:25:27.334","","","","","",""
"card-selection-trial","85","399903","0.0-25.0-1.6","139","true","img/card_backs/set1/yellow.gif","img/card_backs/set1/red.gif","img/card_backs/set1/green.gif","img/card_backs/set1/purple.gif","img/card_backs/set2/orange.gif","img/card_backs/set2/pink.gif","img/card_backs/set2/blue.gif","img/card_backs/set2/gray.gif","""event"",""trial"",""time""
""fullscreenenter"",""1"",""5328""
","
","
","""event"",""trial"",""time""
""fullscreenenter"",""1"",""5328""
","
","","1461.4000000001397","","","","real_trial","2021-06-22 20:25:30.815","img/card_backs/set1/green.gif","2","40","1","",""
"casino-fixation","86","400422","0.0-25.0-0.7","139","true","img/card_backs/set1/yellow.gif","img/card_backs/set1/red.gif","img/card_backs/set1/green.gif","img/card_backs/set1/purple.gif","img/card_backs/set2/orange.gif","img/card_backs/set2/pink.gif","img/card_backs/set2/blue.gif","img/card_backs/set2/gray.gif","""event"",""trial"",""time""
""fullscreenenter"",""1"",""5328""
","
","
","""event"",""trial"",""time""
""fullscreenenter"",""1"",""5328""
","
","","null","","null","","fixation","2021-06-22 20:25:31.334","","","","","",""
"card-selection-trial","87","403732","0.0-25.0-1.7","139","true","img/card_backs/set1/yellow.gif","img/card_backs/set1/red.gif","img/card_backs/set1/green.gif","img/card_backs/set1/purple.gif","img/card_backs/set2/orange.gif","img/card_backs/set2/pink.gif","img/card_backs/set2/blue.gif","img/card_backs/set2/gray.gif","""event"",""trial"",""time""
""fullscreenenter"",""1"",""5328""
","
","
","""event"",""trial"",""time""
""fullscreenenter"",""1"",""5328""
","
","","1296.8999999999069","","","","real_trial","2021-06-22 20:25:34.644","img/card_backs/set1/purple.gif","3","-100","1","",""
"casino-fixation","88","404235","0.0-25.0-0.8","139","true","img/card_backs/set1/yellow.gif","img/card_backs/set1/red.gif","img/card_backs/set1/green.gif","img/card_backs/set1/purple.gif","img/card_backs/set2/orange.gif","img/card_backs/set2/pink.gif","img/card_backs/set2/blue.gif","img/card_backs/set2/gray.gif","""event"",""trial"",""time""
""fullscreenenter"",""1"",""5328""
","
","
","""event"",""trial"",""time""
""fullscreenenter"",""1"",""5328""
","
","","null","","null","","fixation","2021-06-22 20:25:35.147","","","","","",""
"card-selection-trial","89","407517","0.0-25.0-1.8","139","true","img/card_backs/set1/yellow.gif","img/card_backs/set1/red.gif","img/card_backs/set1/green.gif","img/card_backs/set1/purple.gif","img/card_backs/set2/orange.gif","img/card_backs/set2/pink.gif","img/card_backs/set2/blue.gif","img/card_backs/set2/gray.gif","""event"",""trial"",""time""
""fullscreenenter"",""1"",""5328""
","
","
","""event"",""trial"",""time""
""fullscreenenter"",""1"",""5328""
","
","","1272.5","","","","real_trial","2021-06-22 20:25:38.429","img/card_backs/set1/purple.gif","0","40","1","",""
"casino-fixation","90","408019","0.0-25.0-0.9","139","true","img/card_backs/set1/yellow.gif","img/card_backs/set1/red.gif","img/card_backs/set1/green.gif","img/card_backs/set1/purple.gif","img/card_backs/set2/orange.gif","img/card_backs/set2/pink.gif","img/card_backs/set2/blue.gif","img/card_backs/set2/gray.gif","""event"",""trial"",""time""
""fullscreenenter"",""1"",""5328""
","
","
","""event"",""trial"",""time""
""fullscreenenter"",""1"",""5328""
","
","","null","","null","","fixation","2021-06-22 20:25:38.931","","","","","",""
"card-selection-trial","91","411236","0.0-25.0-1.9","139","true","img/card_backs/set1/yellow.gif","img/card_backs/set1/red.gif","img/card_backs/set1/green.gif","img/card_backs/set1/purple.gif","img/card_backs/set2/orange.gif","img/card_backs/set2/pink.gif","img/card_backs/set2/blue.gif","img/card_backs/set2/gray.gif","""event"",""trial"",""time""
""fullscreenenter"",""1"",""5328""
","
","
","""event"",""trial"",""time""
""fullscreenenter"",""1"",""5328""
","
","","1209.2999999998137","","","","real_trial","2021-06-22 20:25:42.148","img/card_backs/set1/green.gif","1","50","1","",""
"casino-fixation","92","411738","0.0-25.0-0.10","139","true","img/card_backs/set1/yellow.gif","img/card_backs/set1/red.gif","img/card_backs/set1/green.gif","img/card_backs/set1/purple.gif","img/card_backs/set2/orange.gif","img/card_backs/set2/pink.gif","img/card_backs/set2/blue.gif","img/card_backs/set2/gray.gif","""event"",""trial"",""time""
""fullscreenenter"",""1"",""5328""
","
","
","""event"",""trial"",""time""
""fullscreenenter"",""1"",""5328""
","
","","null","","null","","fixation","2021-06-22 20:25:42.650","","","","","",""
"card-selection-trial","93","414773","0.0-25.0-1.10","139","true","img/card_backs/set1/yellow.gif","img/card_backs/set1/red.gif","img/card_backs/set1/green.gif","img/card_backs/set1/purple.gif","img/card_backs/set2/orange.gif","img/card_backs/set2/pink.gif","img/card_backs/set2/blue.gif","img/card_backs/set2/gray.gif","""event"",""trial"",""time""
""fullscreenenter"",""1"",""5328""
","
","
","""event"",""trial"",""time""
""fullscreenenter"",""1"",""5328""
","
","","1027.5","","","","real_trial","2021-06-22 20:25:45.686","img/card_backs/set1/green.gif","2","-110","1","",""
"casino-fixation","94","415275","0.0-25.0-0.11","139","true","img/card_backs/set1/yellow.gif","img/card_backs/set1/red.gif","img/card_backs/set1/green.gif","img/card_backs/set1/purple.gif","img/card_backs/set2/orange.gif","img/card_backs/set2/pink.gif","img/card_backs/set2/blue.gif","img/card_backs/set2/gray.gif","""event"",""trial"",""time""
""fullscreenenter"",""1"",""5328""
","
","
","""event"",""trial"",""time""
""fullscreenenter"",""1"",""5328""
","
","","null","","null","","fixation","2021-06-22 20:25:46.187","","","","","",""
"card-selection-trial","95","418190","0.0-25.0-1.11","139","true","img/card_backs/set1/yellow.gif","img/card_backs/set1/red.gif","img/card_backs/set1/green.gif","img/card_backs/set1/purple.gif","img/card_backs/set2/orange.gif","img/card_backs/set2/pink.gif","img/card_backs/set2/blue.gif","img/card_backs/set2/gray.gif","""event"",""trial"",""time""
""fullscreenenter"",""1"",""5328""
","
","
","""event"",""trial"",""time""
""fullscreenenter"",""1"",""5328""
","
","","889.7999999998137","","","","real_trial","2021-06-22 20:25:49.102","img/card_backs/set1/green.gif","0","-100","1","",""
"casino-fixation","96","418695","0.0-25.0-0.12","139","true","img/card_backs/set1/yellow.gif","img/card_backs/set1/red.gif","img/card_backs/set1/green.gif","img/card_backs/set1/purple.gif","img/card_backs/set2/orange.gif","img/card_backs/set2/pink.gif","img/card_backs/set2/blue.gif","img/card_backs/set2/gray.gif","""event"",""trial"",""time""
""fullscreenenter"",""1"",""5328""
","
","
","""event"",""trial"",""time""
""fullscreenenter"",""1"",""5328""
","
","","null","","null","","fixation","2021-06-22 20:25:49.607","","","","","",""
"card-selection-trial","97","421702","0.0-25.0-1.12","139","true","img/card_backs/set1/yellow.gif","img/card_backs/set1/red.gif","img/card_backs/set1/green.gif","img/card_backs/set1/purple.gif","img/card_backs/set2/orange.gif","img/card_backs/set2/pink.gif","img/card_backs/set2/blue.gif","img/card_backs/set2/gray.gif","""event"",""trial"",""time""
""fullscreenenter"",""1"",""5328""
","
","
","""event"",""trial"",""time""
""fullscreenenter"",""1"",""5328""
","
","","999.8999999999069","","","","real_trial","2021-06-22 20:25:52.614","img/card_backs/set1/yellow.gif","1","260","1","",""
"casino-fixation","98","422204","0.0-25.0-0.13","139","true","img/card_backs/set1/yellow.gif","img/card_backs/set1/red.gif","img/card_backs/set1/green.gif","img/card_backs/set1/purple.gif","img/card_backs/set2/orange.gif","img/card_backs/set2/pink.gif","img/card_backs/set2/blue.gif","img/card_backs/set2/gray.gif","""event"",""trial"",""time""
""fullscreenenter"",""1"",""5328""
","
","
","""event"",""trial"",""time""
""fullscreenenter"",""1"",""5328""
","
","","null","","null","","fixation","2021-06-22 20:25:53.116","","","","","",""
"card-selection-trial","99","426111","0.0-25.0-1.13","139","true","img/card_backs/set1/yellow.gif","img/card_backs/set1/red.gif","img/card_backs/set1/green.gif","img/card_backs/set1/purple.gif","img/card_backs/set2/orange.gif","img/card_backs/set2/pink.gif","img/card_backs/set2/blue.gif","img/card_backs/set2/gray.gif","""event"",""trial"",""time""
""fullscreenenter"",""1"",""5328""
","
","
","""event"",""trial"",""time""
""fullscreenenter"",""1"",""5328""
","
","","1893.7000000001863","","","","real_trial","2021-06-22 20:25:57.023","img/card_backs/set1/red.gif","0","240","1","",""
"casino-fixation","100","426614","0.0-25.0-0.14","139","true","img/card_backs/set1/yellow.gif","img/card_backs/set1/red.gif","img/card_backs/set1/green.gif","img/card_backs/set1/purple.gif","img/card_backs/set2/orange.gif","img/card_backs/set2/pink.gif","img/card_backs/set2/blue.gif","img/card_backs/set2/gray.gif","""event"",""trial"",""time""
""fullscreenenter"",""1"",""5328""
","
","
","""event"",""trial"",""time""
""fullscreenenter"",""1"",""5328""
","
","","null","","null","","fixation","2021-06-22 20:25:57.526","","","","","",""
"card-selection-trial","101","429799","0.0-25.0-1.14","139","true","img/card_backs/set1/yellow.gif","img/card_backs/set1/red.gif","img/card_backs/set1/green.gif","img/card_backs/set1/purple.gif","img/card_backs/set2/orange.gif","img/card_backs/set2/pink.gif","img/card_backs/set2/blue.gif","img/card_backs/set2/gray.gif","""event"",""trial"",""time""
""fullscreenenter"",""1"",""5328""
","
","
","""event"",""trial"",""time""
""fullscreenenter"",""1"",""5328""
","
","","1175.0999999998603","","","","real_trial","2021-06-22 20:26:00.711","img/card_backs/set1/red.gif","0","-200","1","",""
"casino-fixation","102","430302","0.0-25.0-0.15","139","true","img/card_backs/set1/yellow.gif","img/card_backs/set1/red.gif","img/card_backs/set1/green.gif","img/card_backs/set1/purple.gif","img/card_backs/set2/orange.gif","img/card_backs/set2/pink.gif","img/card_backs/set2/blue.gif","img/card_backs/set2/gray.gif","""event"",""trial"",""time""
""fullscreenenter"",""1"",""5328""
","
","
","""event"",""trial"",""time""
""fullscreenenter"",""1"",""5328""
","
","","null","","null","","fixation","2021-06-22 20:26:01.214","","","","","",""
"card-selection-trial","103","433415","0.0-25.0-1.15","139","true","img/card_backs/set1/yellow.gif","img/card_backs/set1/red.gif","img/card_backs/set1/green.gif","img/card_backs/set1/purple.gif","img/card_backs/set2/orange.gif","img/card_backs/set2/pink.gif","img/card_backs/set2/blue.gif","img/card_backs/set2/gray.gif","""event"",""trial"",""time""
""fullscreenenter"",""1"",""5328""
","
","
","""event"",""trial"",""time""
""fullscreenenter"",""1"",""5328""
","
","","1098.2999999998137","","","","real_trial","2021-06-22 20:26:04.327","img/card_backs/set1/red.gif","1","-200","1","",""
"casino-fixation","104","433917","0.0-25.0-0.16","139","true","img/card_backs/set1/yellow.gif","img/card_backs/set1/red.gif","img/card_backs/set1/green.gif","img/card_backs/set1/purple.gif","img/card_backs/set2/orange.gif","img/card_backs/set2/pink.gif","img/card_backs/set2/blue.gif","img/card_backs/set2/gray.gif","""event"",""trial"",""time""
""fullscreenenter"",""1"",""5328""
","
","
","""event"",""trial"",""time""
""fullscreenenter"",""1"",""5328""
","
","","null","","null","","fixation","2021-06-22 20:26:04.829","","","","","",""
"card-selection-trial","105","437158","0.0-25.0-1.16","139","true","img/card_backs/set1/yellow.gif","img/card_backs/set1/red.gif","img/card_backs/set1/green.gif","img/card_backs/set1/purple.gif","img/card_backs/set2/orange.gif","img/card_backs/set2/pink.gif","img/card_backs/set2/blue.gif","img/card_backs/set2/gray.gif","""event"",""trial"",""time""
""fullscreenenter"",""1"",""5328""
","
","
","""event"",""trial"",""time""
""fullscreenenter"",""1"",""5328""
","
","","1233.1000000000931","","","","real_trial","2021-06-22 20:26:08.071","img/card_backs/set1/purple.gif","0","-100","1","",""
"casino-fixation","106","437661","0.0-25.0-0.17","139","true","img/card_backs/set1/yellow.gif","img/card_backs/set1/red.gif","img/card_backs/set1/green.gif","img/card_backs/set1/purple.gif","img/card_backs/set2/orange.gif","img/card_backs/set2/pink.gif","img/card_backs/set2/blue.gif","img/card_backs/set2/gray.gif","""event"",""trial"",""time""
""fullscreenenter"",""1"",""5328""
","
","
","""event"",""trial"",""time""
""fullscreenenter"",""1"",""5328""
","
","","null","","null","","fixation","2021-06-22 20:26:08.573","","","","","",""
"card-selection-trial","107","440711","0.0-25.0-1.17","139","true","img/card_backs/set1/yellow.gif","img/card_backs/set1/red.gif","img/card_backs/set1/green.gif","img/card_backs/set1/purple.gif","img/card_backs/set2/orange.gif","img/card_backs/set2/pink.gif","img/card_backs/set2/blue.gif","img/card_backs/set2/gray.gif","""event"",""trial"",""time""
""fullscreenenter"",""1"",""5328""
","
","
","""event"",""trial"",""time""
""fullscreenenter"",""1"",""5328""
","
","","1042.0999999998603","","","","real_trial","2021-06-22 20:26:11.623","img/card_backs/set1/yellow.gif","2","240","1","",""
"casino-fixation","108","441213","0.0-25.0-0.18","139","true","img/card_backs/set1/yellow.gif","img/card_backs/set1/red.gif","img/card_backs/set1/green.gif","img/card_backs/set1/purple.gif","img/card_backs/set2/orange.gif","img/card_backs/set2/pink.gif","img/card_backs/set2/blue.gif","img/card_backs/set2/gray.gif","""event"",""trial"",""time""
""fullscreenenter"",""1"",""5328""
","
","
","""event"",""trial"",""time""
""fullscreenenter"",""1"",""5328""
","
","","null","","null","","fixation","2021-06-22 20:26:12.125","","","","","",""
"card-selection-trial","109","444439","0.0-25.0-1.18","139","true","img/card_backs/set1/yellow.gif","img/card_backs/set1/red.gif","img/card_backs/set1/green.gif","img/card_backs/set1/purple.gif","img/card_backs/set2/orange.gif","img/card_backs/set2/pink.gif","img/card_backs/set2/blue.gif","img/card_backs/set2/gray.gif","""event"",""trial"",""time""
""fullscreenenter"",""1"",""5328""
","
","
","""event"",""trial"",""time""
""fullscreenenter"",""1"",""5328""
","
","","1214.3999999999069","","","","real_trial","2021-06-22 20:26:15.351","img/card_backs/set1/purple.gif","1","-100","1","",""
"casino-fixation","110","444949","0.0-25.0-0.19","139","true","img/card_backs/set1/yellow.gif","img/card_backs/set1/red.gif","img/card_backs/set1/green.gif","img/card_backs/set1/purple.gif","img/card_backs/set2/orange.gif","img/card_backs/set2/pink.gif","img/card_backs/set2/blue.gif","img/card_backs/set2/gray.gif","""event"",""trial"",""time""
""fullscreenenter"",""1"",""5328""
","
","
","""event"",""trial"",""time""
""fullscreenenter"",""1"",""5328""
","
","","null","","null","","fixation","2021-06-22 20:26:15.861","","","","","",""
"card-selection-trial","111","447871","0.0-25.0-1.19","139","true","img/card_backs/set1/yellow.gif","img/card_backs/set1/red.gif","img/card_backs/set1/green.gif","img/card_backs/set1/purple.gif","img/card_backs/set2/orange.gif","img/card_backs/set2/pink.gif","img/card_backs/set2/blue.gif","img/card_backs/set2/gray.gif","""event"",""trial"",""time""
""fullscreenenter"",""1"",""5328""
","
","
","""event"",""trial"",""time""
""fullscreenenter"",""1"",""5328""
","
","","914.8000000000466","","","","real_trial","2021-06-22 20:26:18.783","img/card_backs/set1/yellow.gif","0","-190","1","",""
"casino-fixation","112","448373","0.0-25.0-0.20","139","true","img/card_backs/set1/yellow.gif","img/card_backs/set1/red.gif","img/card_backs/set1/green.gif","img/card_backs/set1/purple.gif","img/card_backs/set2/orange.gif","img/card_backs/set2/pink.gif","img/card_backs/set2/blue.gif","img/card_backs/set2/gray.gif","""event"",""trial"",""time""
""fullscreenenter"",""1"",""5328""
","
","
","""event"",""trial"",""time""
""fullscreenenter"",""1"",""5328""
","
","","null","","null","","fixation","2021-06-22 20:26:19.285","","","","","",""
"card-selection-trial","113","450784","0.0-25.0-1.20","139","true","img/card_backs/set1/yellow.gif","img/card_backs/set1/red.gif","img/card_backs/set1/green.gif","img/card_backs/set1/purple.gif","img/card_backs/set2/orange.gif","img/card_backs/set2/pink.gif","img/card_backs/set2/blue.gif","img/card_backs/set2/gray.gif","""event"",""trial"",""time""
""fullscreenenter"",""1"",""5328""
","
","
","""event"",""trial"",""time""
""fullscreenenter"",""1"",""5328""
","
","","402.79999999981374","","","","real_trial","2021-06-22 20:26:21.696","img/card_backs/set1/yellow.gif","3","-200","1","",""
"casino-fixation","114","451286","0.0-25.0-0.21","139","true","img/card_backs/set1/yellow.gif","img/card_backs/set1/red.gif","img/card_backs/set1/green.gif","img/card_backs/set1/purple.gif","img/card_backs/set2/orange.gif","img/card_backs/set2/pink.gif","img/card_backs/set2/blue.gif","img/card_backs/set2/gray.gif","""event"",""trial"",""time""
""fullscreenenter"",""1"",""5328""
","
","
","""event"",""trial"",""time""
""fullscreenenter"",""1"",""5328""
","
","","null","","null","","fixation","2021-06-22 20:26:22.199","","","","","",""
"card-selection-trial","115","454104","0.0-25.0-1.21","139","true","img/card_backs/set1/yellow.gif","img/card_backs/set1/red.gif","img/card_backs/set1/green.gif","img/card_backs/set1/purple.gif","img/card_backs/set2/orange.gif","img/card_backs/set2/pink.gif","img/card_backs/set2/blue.gif","img/card_backs/set2/gray.gif","""event"",""trial"",""time""
""fullscreenenter"",""1"",""5328""
","
","
","""event"",""trial"",""time""
""fullscreenenter"",""1"",""5328""
","
","","807.6999999999534","","","","real_trial","2021-06-22 20:26:25.016","img/card_backs/set1/red.gif","2","-190","1","",""
"casino-fixation","116","454607","0.0-25.0-0.22","139","true","img/card_backs/set1/yellow.gif","img/card_backs/set1/red.gif","img/card_backs/set1/green.gif","img/card_backs/set1/purple.gif","img/card_backs/set2/orange.gif","img/card_backs/set2/pink.gif","img/card_backs/set2/blue.gif","img/card_backs/set2/gray.gif","""event"",""trial"",""time""
""fullscreenenter"",""1"",""5328""
","
","
","""event"",""trial"",""time""
""fullscreenenter"",""1"",""5328""
","
","","null","","null","","fixation","2021-06-22 20:26:25.519","","","","","",""
"card-selection-trial","117","457832","0.0-25.0-1.22","139","true","img/card_backs/set1/yellow.gif","img/card_backs/set1/red.gif","img/card_backs/set1/green.gif","img/card_backs/set1/purple.gif","img/card_backs/set2/orange.gif","img/card_backs/set2/pink.gif","img/card_backs/set2/blue.gif","img/card_backs/set2/gray.gif","""event"",""trial"",""time""
""fullscreenenter"",""1"",""5328""
","
","
","""event"",""trial"",""time""
""fullscreenenter"",""1"",""5328""
","
","","1217","","","","real_trial","2021-06-22 20:26:28.745","img/card_backs/set1/purple.gif","0","-90","1","",""
"casino-fixation","118","458337","0.0-25.0-0.23","139","true","img/card_backs/set1/yellow.gif","img/card_backs/set1/red.gif","img/card_backs/set1/green.gif","img/card_backs/set1/purple.gif","img/card_backs/set2/orange.gif","img/card_backs/set2/pink.gif","img/card_backs/set2/blue.gif","img/card_backs/set2/gray.gif","""event"",""trial"",""time""
""fullscreenenter"",""1"",""5328""
","
","
","""event"",""trial"",""time""
""fullscreenenter"",""1"",""5328""
","
","","null","","null","","fixation","2021-06-22 20:26:29.249","","","","","",""
"card-selection-trial","119","461426","0.0-25.0-1.23","139","true","img/card_backs/set1/yellow.gif","img/card_backs/set1/red.gif","img/card_backs/set1/green.gif","img/card_backs/set1/purple.gif","img/card_backs/set2/orange.gif","img/card_backs/set2/pink.gif","img/card_backs/set2/blue.gif","img/card_backs/set2/gray.gif","""event"",""trial"",""time""
""fullscreenenter"",""1"",""5328""
","
","
","""event"",""trial"",""time""
""fullscreenenter"",""1"",""5328""
","
","","1076.5","","","","real_trial","2021-06-22 20:26:32.338","img/card_backs/set1/yellow.gif","2","250","1","",""
"casino-fixation","120","461928","0.0-25.0-0.24","139","true","img/card_backs/set1/yellow.gif","img/card_backs/set1/red.gif","img/card_backs/set1/green.gif","img/card_backs/set1/purple.gif","img/card_backs/set2/orange.gif","img/card_backs/set2/pink.gif","img/card_backs/set2/blue.gif","img/card_backs/set2/gray.gif","""event"",""trial"",""time""
""fullscreenenter"",""1"",""5328""
","
","
","""event"",""trial"",""time""
""fullscreenenter"",""1"",""5328""
","
","","null","","null","","fixation","2021-06-22 20:26:32.840","","","","","",""
"card-selection-trial","121","464553","0.0-25.0-1.24","139","true","img/card_backs/set1/yellow.gif","img/card_backs/set1/red.gif","img/card_backs/set1/green.gif","img/card_backs/set1/purple.gif","img/card_backs/set2/orange.gif","img/card_backs/set2/pink.gif","img/card_backs/set2/blue.gif","img/card_backs/set2/gray.gif","""event"",""trial"",""time""
""fullscreenenter"",""1"",""5328""
","
","
","""event"",""trial"",""time""
""fullscreenenter"",""1"",""5328""
","
","","615.7000000001863","","","","real_trial","2021-06-22 20:26:35.465","img/card_backs/set1/yellow.gif","2","260","1","",""
"casino-fixation","122","465055","0.0-25.0-0.25","139","true","img/card_backs/set1/yellow.gif","img/card_backs/set1/red.gif","img/card_backs/set1/green.gif","img/card_backs/set1/purple.gif","img/card_backs/set2/orange.gif","img/card_backs/set2/pink.gif","img/card_backs/set2/blue.gif","img/card_backs/set2/gray.gif","""event"",""trial"",""time""
""fullscreenenter"",""1"",""5328""
","
","
","""event"",""trial"",""time""
""fullscreenenter"",""1"",""5328""
","
","","null","","null","","fixation","2021-06-22 20:26:35.967","","","","","",""
"card-selection-trial","123","469425","0.0-25.0-1.25","139","true","img/card_backs/set1/yellow.gif","img/card_backs/set1/red.gif","img/card_backs/set1/green.gif","img/card_backs/set1/purple.gif","img/card_backs/set2/orange.gif","img/card_backs/set2/pink.gif","img/card_backs/set2/blue.gif","img/card_backs/set2/gray.gif","""event"",""trial"",""time""
""fullscreenenter"",""1"",""5328""
","
","
","""event"",""trial"",""time""
""fullscreenenter"",""1"",""5328""
","
","","2356.899999999907","","","","real_trial","2021-06-22 20:26:40.337","img/card_backs/set1/purple.gif","2","40","1","",""
"casino-fixation","124","469928","0.0-25.0-0.26","139","true","img/card_backs/set1/yellow.gif","img/card_backs/set1/red.gif","img/card_backs/set1/green.gif","img/card_backs/set1/purple.gif","img/card_backs/set2/orange.gif","img/card_backs/set2/pink.gif","img/card_backs/set2/blue.gif","img/card_backs/set2/gray.gif","""event"",""trial"",""time""
""fullscreenenter"",""1"",""5328""
","
","
","""event"",""trial"",""time""
""fullscreenenter"",""1"",""5328""
","
","","null","","null","","fixation","2021-06-22 20:26:40.840","","","","","",""
"card-selection-trial","125","472409","0.0-25.0-1.26","139","true","img/card_backs/set1/yellow.gif","img/card_backs/set1/red.gif","img/card_backs/set1/green.gif","img/card_backs/set1/purple.gif","img/card_backs/set2/orange.gif","img/card_backs/set2/pink.gif","img/card_backs/set2/blue.gif","img/card_backs/set2/gray.gif","""event"",""trial"",""time""
""fullscreenenter"",""1"",""5328""
","
","
","""event"",""trial"",""time""
""fullscreenenter"",""1"",""5328""
","
","","472.29999999981374","","","","real_trial","2021-06-22 20:26:43.321","img/card_backs/set1/green.gif","2","60","1","",""
"casino-fixation","126","472910","0.0-25.0-0.27","139","true","img/card_backs/set1/yellow.gif","img/card_backs/set1/red.gif","img/card_backs/set1/green.gif","img/card_backs/set1/purple.gif","img/card_backs/set2/orange.gif","img/card_backs/set2/pink.gif","img/card_backs/set2/blue.gif","img/card_backs/set2/gray.gif","""event"",""trial"",""time""
""fullscreenenter"",""1"",""5328""
","
","
","""event"",""trial"",""time""
""fullscreenenter"",""1"",""5328""
","
","","null","","null","","fixation","2021-06-22 20:26:43.823","","","","","",""
"card-selection-trial","127","475553","0.0-25.0-1.27","139","true","img/card_backs/set1/yellow.gif","img/card_backs/set1/red.gif","img/card_backs/set1/green.gif","img/card_backs/set1/purple.gif","img/card_backs/set2/orange.gif","img/card_backs/set2/pink.gif","img/card_backs/set2/blue.gif","img/card_backs/set2/gray.gif","""event"",""trial"",""time""
""fullscreenenter"",""1"",""5328""
","
","
","""event"",""trial"",""time""
""fullscreenenter"",""1"",""5328""
","
","","634.3999999999069","","","","real_trial","2021-06-22 20:26:46.465","img/card_backs/set1/yellow.gif","2","-210","1","",""
"casino-fixation","128","476056","0.0-25.0-0.28","139","true","img/card_backs/set1/yellow.gif","img/card_backs/set1/red.gif","img/card_backs/set1/green.gif","img/card_backs/set1/purple.gif","img/card_backs/set2/orange.gif","img/card_backs/set2/pink.gif","img/card_backs/set2/blue.gif","img/card_backs/set2/gray.gif","""event"",""trial"",""time""
""fullscreenenter"",""1"",""5328""
","
","
","""event"",""trial"",""time""
""fullscreenenter"",""1"",""5328""
","
","","null","","null","","fixation","2021-06-22 20:26:46.968","","","","","",""
"card-selection-trial","129","480297","0.0-25.0-1.28","139","true","img/card_backs/set1/yellow.gif","img/card_backs/set1/red.gif","img/card_backs/set1/green.gif","img/card_backs/set1/purple.gif","img/card_backs/set2/orange.gif","img/card_backs/set2/pink.gif","img/card_backs/set2/blue.gif","img/card_backs/set2/gray.gif","""event"",""trial"",""time""
""fullscreenenter"",""1"",""5328""
","
","
","""event"",""trial"",""time""
""fullscreenenter"",""1"",""5328""
","
","","2234.6999999999534","","","","real_trial","2021-06-22 20:26:51.209","img/card_backs/set1/red.gif","1","-200","1","",""
"casino-fixation","130","480799","0.0-25.0-0.29","139","true","img/card_backs/set1/yellow.gif","img/card_backs/set1/red.gif","img/card_backs/set1/green.gif","img/card_backs/set1/purple.gif","img/card_backs/set2/orange.gif","img/card_backs/set2/pink.gif","img/card_backs/set2/blue.gif","img/card_backs/set2/gray.gif","""event"",""trial"",""time""
""fullscreenenter"",""1"",""5328""
","
","
","""event"",""trial"",""time""
""fullscreenenter"",""1"",""5328""
","
","","null","","null","","fixation","2021-06-22 20:26:51.711","","","","","",""
"card-selection-trial","131","483587","0.0-25.0-1.29","139","true","img/card_backs/set1/yellow.gif","img/card_backs/set1/red.gif","img/card_backs/set1/green.gif","img/card_backs/set1/purple.gif","img/card_backs/set2/orange.gif","img/card_backs/set2/pink.gif","img/card_backs/set2/blue.gif","img/card_backs/set2/gray.gif","""event"",""trial"",""time""
""fullscreenenter"",""1"",""5328""
","
","
","""event"",""trial"",""time""
""fullscreenenter"",""1"",""5328""
","
","","778.5","","","","real_trial","2021-06-22 20:26:54.499","img/card_backs/set1/green.gif","0","-110","1","",""
"casino-fixation","132","484089","0.0-25.0-0.30","139","true","img/card_backs/set1/yellow.gif","img/card_backs/set1/red.gif","img/card_backs/set1/green.gif","img/card_backs/set1/purple.gif","img/card_backs/set2/orange.gif","img/card_backs/set2/pink.gif","img/card_backs/set2/blue.gif","img/card_backs/set2/gray.gif","""event"",""trial"",""time""
""fullscreenenter"",""1"",""5328""
","
","
","""event"",""trial"",""time""
""fullscreenenter"",""1"",""5328""
","
","","null","","null","","fixation","2021-06-22 20:26:55.001","","","","","",""
"card-selection-trial","133","486571","0.0-25.0-1.30","139","true","img/card_backs/set1/yellow.gif","img/card_backs/set1/red.gif","img/card_backs/set1/green.gif","img/card_backs/set1/purple.gif","img/card_backs/set2/orange.gif","img/card_backs/set2/pink.gif","img/card_backs/set2/blue.gif","img/card_backs/set2/gray.gif","""event"",""trial"",""time""
""fullscreenenter"",""1"",""5328""
","
","
","""event"",""trial"",""time""
""fullscreenenter"",""1"",""5328""
","
","","472.80000000004657","","","","real_trial","2021-06-22 20:26:57.483","img/card_backs/set1/green.gif","1","-110","1","",""
"casino-fixation","134","487072","0.0-25.0-0.31","139","true","img/card_backs/set1/yellow.gif","img/card_backs/set1/red.gif","img/card_backs/set1/green.gif","img/card_backs/set1/purple.gif","img/card_backs/set2/orange.gif","img/card_backs/set2/pink.gif","img/card_backs/set2/blue.gif","img/card_backs/set2/gray.gif","""event"",""trial"",""time""
""fullscreenenter"",""1"",""5328""
","
","
","""event"",""trial"",""time""
""fullscreenenter"",""1"",""5328""
","
","","null","","null","","fixation","2021-06-22 20:26:57.984","","","","","",""
"card-selection-trial","135","489762","0.0-25.0-1.31","139","true","img/card_backs/set1/yellow.gif","img/card_backs/set1/red.gif","img/card_backs/set1/green.gif","img/card_backs/set1/purple.gif","img/card_backs/set2/orange.gif","img/card_backs/set2/pink.gif","img/card_backs/set2/blue.gif","img/card_backs/set2/gray.gif","""event"",""trial"",""time""
""fullscreenenter"",""1"",""5328""
","
","
","""event"",""trial"",""time""
""fullscreenenter"",""1"",""5328""
","
","","681.4000000001397","","","","real_trial","2021-06-22 20:27:00.674","img/card_backs/set1/yellow.gif","2","-200","1","",""
"casino-fixation","136","490264","0.0-25.0-0.32","139","true","img/card_backs/set1/yellow.gif","img/card_backs/set1/red.gif","img/card_backs/set1/green.gif","img/card_backs/set1/purple.gif","img/card_backs/set2/orange.gif","img/card_backs/set2/pink.gif","img/card_backs/set2/blue.gif","img/card_backs/set2/gray.gif","""event"",""trial"",""time""
""fullscreenenter"",""1"",""5328""
","
","
","""event"",""trial"",""time""
""fullscreenenter"",""1"",""5328""
","
","","null","","null","","fixation","2021-06-22 20:27:01.176","","","","","",""
"card-selection-trial","137","492666","0.0-25.0-1.32","139","true","img/card_backs/set1/yellow.gif","img/card_backs/set1/red.gif","img/card_backs/set1/green.gif","img/card_backs/set1/purple.gif","img/card_backs/set2/orange.gif","img/card_backs/set2/pink.gif","img/card_backs/set2/blue.gif","img/card_backs/set2/gray.gif","""event"",""trial"",""time""
""fullscreenenter"",""1"",""5328""
","
","
","""event"",""trial"",""time""
""fullscreenenter"",""1"",""5328""
","
","","393.89999999990687","","","","real_trial","2021-06-22 20:27:03.578","img/card_backs/set1/red.gif","3","250","1","",""
"casino-fixation","138","493169","0.0-25.0-0.33","139","true","img/card_backs/set1/yellow.gif","img/card_backs/set1/red.gif","img/card_backs/set1/green.gif","img/card_backs/set1/purple.gif","img/card_backs/set2/orange.gif","img/card_backs/set2/pink.gif","img/card_backs/set2/blue.gif","img/card_backs/set2/gray.gif","""event"",""trial"",""time""
""fullscreenenter"",""1"",""5328""
","
","
","""event"",""trial"",""time""
""fullscreenenter"",""1"",""5328""
","
","","null","","null","","fixation","2021-06-22 20:27:04.081","","","","","",""
"card-selection-trial","139","496418","0.0-25.0-1.33","139","true","img/card_backs/set1/yellow.gif","img/card_backs/set1/red.gif","img/card_backs/set1/green.gif","img/card_backs/set1/purple.gif","img/card_backs/set2/orange.gif","img/card_backs/set2/pink.gif","img/card_backs/set2/blue.gif","img/card_backs/set2/gray.gif","""event"",""trial"",""time""
""fullscreenenter"",""1"",""5328""
","
","
","""event"",""trial"",""time""
""fullscreenenter"",""1"",""5328""
","
","","1241.1000000000931","","","","real_trial","2021-06-22 20:27:07.331","img/card_backs/set1/red.gif","0","260","1","",""
"casino-fixation","140","496921","0.0-25.0-0.34","139","true","img/card_backs/set1/yellow.gif","img/card_backs/set1/red.gif","img/card_backs/set1/green.gif","img/card_backs/set1/purple.gif","img/card_backs/set2/orange.gif","img/card_backs/set2/pink.gif","img/card_backs/set2/blue.gif","img/card_backs/set2/gray.gif","""event"",""trial"",""time""
""fullscreenenter"",""1"",""5328""
","
","
","""event"",""trial"",""time""
""fullscreenenter"",""1"",""5328""
","
","","null","","null","","fixation","2021-06-22 20:27:07.833","","","","","",""
"card-selection-trial","141","499898","0.0-25.0-1.34","139","true","img/card_backs/set1/yellow.gif","img/card_backs/set1/red.gif","img/card_backs/set1/green.gif","img/card_backs/set1/purple.gif","img/card_backs/set2/orange.gif","img/card_backs/set2/pink.gif","img/card_backs/set2/blue.gif","img/card_backs/set2/gray.gif","""event"",""trial"",""time""
""fullscreenenter"",""1"",""5328""
","
","
","""event"",""trial"",""time""
""fullscreenenter"",""1"",""5328""
","
","","966","","","","real_trial","2021-06-22 20:27:10.810","img/card_backs/set1/red.gif","2","-210","1","",""
"casino-fixation","142","500400","0.0-25.0-0.35","139","true","img/card_backs/set1/yellow.gif","img/card_backs/set1/red.gif","img/card_backs/set1/green.gif","img/card_backs/set1/purple.gif","img/card_backs/set2/orange.gif","img/card_backs/set2/pink.gif","img/card_backs/set2/blue.gif","img/card_backs/set2/gray.gif","""event"",""trial"",""time""
""fullscreenenter"",""1"",""5328""
","
","
","""event"",""trial"",""time""
""fullscreenenter"",""1"",""5328""
","
","","null","","null","","fixation","2021-06-22 20:27:11.312","","","","","",""
"card-selection-trial","143","502843","0.0-25.0-1.35","139","true","img/card_backs/set1/yellow.gif","img/card_backs/set1/red.gif","img/card_backs/set1/green.gif","img/card_backs/set1/purple.gif","img/card_backs/set2/orange.gif","img/card_backs/set2/pink.gif","img/card_backs/set2/blue.gif","img/card_backs/set2/gray.gif","""event"",""trial"",""time""
""fullscreenenter"",""1"",""5328""
","
","
","""event"",""trial"",""time""
""fullscreenenter"",""1"",""5328""
","
","","430.9000000001397","","","","real_trial","2021-06-22 20:27:13.755","img/card_backs/set1/green.gif","3","-100","1","",""
"casino-fixation","144","503345","0.0-25.0-0.36","139","true","img/card_backs/set1/yellow.gif","img/card_backs/set1/red.gif","img/card_backs/set1/green.gif","img/card_backs/set1/purple.gif","img/card_backs/set2/orange.gif","img/card_backs/set2/pink.gif","img/card_backs/set2/blue.gif","img/card_backs/set2/gray.gif","""event"",""trial"",""time""
""fullscreenenter"",""1"",""5328""
","
","
","""event"",""trial"",""time""
""fullscreenenter"",""1"",""5328""
","
","","null","","null","","fixation","2021-06-22 20:27:14.257","","","","","",""
"card-selection-trial","145","506435","0.0-25.0-1.36","139","true","img/card_backs/set1/yellow.gif","img/card_backs/set1/red.gif","img/card_backs/set1/green.gif","img/card_backs/set1/purple.gif","img/card_backs/set2/orange.gif","img/card_backs/set2/pink.gif","img/card_backs/set2/blue.gif","img/card_backs/set2/gray.gif","""event"",""trial"",""time""
""fullscreenenter"",""1"",""5328""
","
","
","""event"",""trial"",""time""
""fullscreenenter"",""1"",""5328""
","
","","1079.4000000001397","","","","real_trial","2021-06-22 20:27:17.347","img/card_backs/set1/red.gif","1","-210","1","",""
"casino-fixation","146","506937","0.0-25.0-0.37","139","true","img/card_backs/set1/yellow.gif","img/card_backs/set1/red.gif","img/card_backs/set1/green.gif","img/card_backs/set1/purple.gif","img/card_backs/set2/orange.gif","img/card_backs/set2/pink.gif","img/card_backs/set2/blue.gif","img/card_backs/set2/gray.gif","""event"",""trial"",""time""
""fullscreenenter"",""1"",""5328""
","
","
","""event"",""trial"",""time""
""fullscreenenter"",""1"",""5328""
","
","","null","","null","","fixation","2021-06-22 20:27:17.849","","","","","",""
"card-selection-trial","147","509595","0.0-25.0-1.37","139","true","img/card_backs/set1/yellow.gif","img/card_backs/set1/red.gif","img/card_backs/set1/green.gif","img/card_backs/set1/purple.gif","img/card_backs/set2/orange.gif","img/card_backs/set2/pink.gif","img/card_backs/set2/blue.gif","img/card_backs/set2/gray.gif","""event"",""trial"",""time""
""fullscreenenter"",""1"",""5328""
","
","
","""event"",""trial"",""time""
""fullscreenenter"",""1"",""5328""
","
","","651.5999999998603","","","","real_trial","2021-06-22 20:27:20.507","img/card_backs/set1/yellow.gif","0","-200","1","",""
"casino-fixation","148","510096","0.0-25.0-0.38","139","true","img/card_backs/set1/yellow.gif","img/card_backs/set1/red.gif","img/card_backs/set1/green.gif","img/card_backs/set1/purple.gif","img/card_backs/set2/orange.gif","img/card_backs/set2/pink.gif","img/card_backs/set2/blue.gif","img/card_backs/set2/gray.gif","""event"",""trial"",""time""
""fullscreenenter"",""1"",""5328""
","
","
","""event"",""trial"",""time""
""fullscreenenter"",""1"",""5328""
","
","","null","","null","","fixation","2021-06-22 20:27:21.008","","","","","",""
"card-selection-trial","149","512595","0.0-25.0-1.38","139","true","img/card_backs/set1/yellow.gif","img/card_backs/set1/red.gif","img/card_backs/set1/green.gif","img/card_backs/set1/purple.gif","img/card_backs/set2/orange.gif","img/card_backs/set2/pink.gif","img/card_backs/set2/blue.gif","img/card_backs/set2/gray.gif","""event"",""trial"",""time""
""fullscreenenter"",""1"",""5328""
","
","
","""event"",""trial"",""time""
""fullscreenenter"",""1"",""5328""
","
","","489.89999999990687","","","","real_trial","2021-06-22 20:27:23.507","img/card_backs/set1/green.gif","1","-100","1","",""
"casino-fixation","150","513097","0.0-25.0-0.39","139","true","img/card_backs/set1/yellow.gif","img/card_backs/set1/red.gif","img/card_backs/set1/green.gif","img/card_backs/set1/purple.gif","img/card_backs/set2/orange.gif","img/card_backs/set2/pink.gif","img/card_backs/set2/blue.gif","img/card_backs/set2/gray.gif","""event"",""trial"",""time""
""fullscreenenter"",""1"",""5328""
","
","
","""event"",""trial"",""time""
""fullscreenenter"",""1"",""5328""
","
","","null","","null","","fixation","2021-06-22 20:27:24.009","","","","","",""
"card-selection-trial","151","515436","0.0-25.0-1.39","139","true","img/card_backs/set1/yellow.gif","img/card_backs/set1/red.gif","img/card_backs/set1/green.gif","img/card_backs/set1/purple.gif","img/card_backs/set2/orange.gif","img/card_backs/set2/pink.gif","img/card_backs/set2/blue.gif","img/card_backs/set2/gray.gif","""event"",""trial"",""time""
""fullscreenenter"",""1"",""5328""
","
","
","""event"",""trial"",""time""
""fullscreenenter"",""1"",""5328""
","
","","328.4000000001397","","","","real_trial","2021-06-22 20:27:26.349","img/card_backs/set1/purple.gif","2","-90","1","",""
"casino-fixation","152","515949","0.0-25.0-0.40","139","true","img/card_backs/set1/yellow.gif","img/card_backs/set1/red.gif","img/card_backs/set1/green.gif","img/card_backs/set1/purple.gif","img/card_backs/set2/orange.gif","img/card_backs/set2/pink.gif","img/card_backs/set2/blue.gif","img/card_backs/set2/gray.gif","""event"",""trial"",""time""
""fullscreenenter"",""1"",""5328""
","
","
","""event"",""trial"",""time""
""fullscreenenter"",""1"",""5328""
","
","","null","","null","","fixation","2021-06-22 20:27:26.861","","","","","",""
"card-selection-trial","153","517972","0.0-25.0-1.40","139","true","img/card_backs/set1/yellow.gif","img/card_backs/set1/red.gif","img/card_backs/set1/green.gif","img/card_backs/set1/purple.gif","img/card_backs/set2/orange.gif","img/card_backs/set2/pink.gif","img/card_backs/set2/blue.gif","img/card_backs/set2/gray.gif","""event"",""trial"",""time""
""fullscreenenter"",""1"",""5328""
","
","
","""event"",""trial"",""time""
""fullscreenenter"",""1"",""5328""
","
","","13.399999999906868","","","","real_trial","2021-06-22 20:27:28.884","img/card_backs/set1/green.gif","2","-90","1","",""
"casino-fixation","154","518474","0.0-25.0-0.41","139","true","img/card_backs/set1/yellow.gif","img/card_backs/set1/red.gif","img/card_backs/set1/green.gif","img/card_backs/set1/purple.gif","img/card_backs/set2/orange.gif","img/card_backs/set2/pink.gif","img/card_backs/set2/blue.gif","img/card_backs/set2/gray.gif","""event"",""trial"",""time""
""fullscreenenter"",""1"",""5328""
","
","
","""event"",""trial"",""time""
""fullscreenenter"",""1"",""5328""
","
","","null","","null","","fixation","2021-06-22 20:27:29.386","","","","","",""
"card-selection-trial","155","520542","0.0-25.0-1.41","139","true","img/card_backs/set1/yellow.gif","img/card_backs/set1/red.gif","img/card_backs/set1/green.gif","img/card_backs/set1/purple.gif","img/card_backs/set2/orange.gif","img/card_backs/set2/pink.gif","img/card_backs/set2/blue.gif","img/card_backs/set2/gray.gif","""event"",""trial"",""time""
""fullscreenenter"",""1"",""5328""
","
","
","""event"",""trial"",""time""
""fullscreenenter"",""1"",""5328""
","
","","57.9000000001397","","","","real_trial","2021-06-22 20:27:31.454","img/card_backs/set1/green.gif","2","-90","1","",""
"casino-fixation","156","521046","0.0-25.0-0.42","139","true","img/card_backs/set1/yellow.gif","img/card_backs/set1/red.gif","img/card_backs/set1/green.gif","img/card_backs/set1/purple.gif","img/card_backs/set2/orange.gif","img/card_backs/set2/pink.gif","img/card_backs/set2/blue.gif","img/card_backs/set2/gray.gif","""event"",""trial"",""time""
""fullscreenenter"",""1"",""5328""
","
","
","""event"",""trial"",""time""
""fullscreenenter"",""1"",""5328""
","
","","null","","null","","fixation","2021-06-22 20:27:31.958","","","","","",""
"card-selection-trial","157","523532","0.0-25.0-1.42","139","true","img/card_backs/set1/yellow.gif","img/card_backs/set1/red.gif","img/card_backs/set1/green.gif","img/card_backs/set1/purple.gif","img/card_backs/set2/orange.gif","img/card_backs/set2/pink.gif","img/card_backs/set2/blue.gif","img/card_backs/set2/gray.gif","""event"",""trial"",""time""
""fullscreenenter"",""1"",""5328""
","
","
","""event"",""trial"",""time""
""fullscreenenter"",""1"",""5328""
","
","","476.19999999995343","","","","real_trial","2021-06-22 20:27:34.445","img/card_backs/set1/purple.gif","1","60","1","",""
"casino-fixation","158","524035","0.0-25.0-0.43","139","true","img/card_backs/set1/yellow.gif","img/card_backs/set1/red.gif","img/card_backs/set1/green.gif","img/card_backs/set1/purple.gif","img/card_backs/set2/orange.gif","img/card_backs/set2/pink.gif","img/card_backs/set2/blue.gif","img/card_backs/set2/gray.gif","""event"",""trial"",""time""
""fullscreenenter"",""1"",""5328""
","
","
","""event"",""trial"",""time""
""fullscreenenter"",""1"",""5328""
","
","","null","","null","","fixation","2021-06-22 20:27:34.947","","","","","",""
"card-selection-trial","159","526452","0.0-25.0-1.43","139","true","img/card_backs/set1/yellow.gif","img/card_backs/set1/red.gif","img/card_backs/set1/green.gif","img/card_backs/set1/purple.gif","img/card_backs/set2/orange.gif","img/card_backs/set2/pink.gif","img/card_backs/set2/blue.gif","img/card_backs/set2/gray.gif","""event"",""trial"",""time""
""fullscreenenter"",""1"",""5328""
","
","
","""event"",""trial"",""time""
""fullscreenenter"",""1"",""5328""
","
","","408.69999999995343","","","","real_trial","2021-06-22 20:27:37.364","img/card_backs/set1/purple.gif","1","50","1","",""
"casino-fixation","160","526954","0.0-25.0-0.44","139","true","img/card_backs/set1/yellow.gif","img/card_backs/set1/red.gif","img/card_backs/set1/green.gif","img/card_backs/set1/purple.gif","img/card_backs/set2/orange.gif","img/card_backs/set2/pink.gif","img/card_backs/set2/blue.gif","img/card_backs/set2/gray.gif","""event"",""trial"",""time""
""fullscreenenter"",""1"",""5328""
","
","
","""event"",""trial"",""time""
""fullscreenenter"",""1"",""5328""
","
","","null","","null","","fixation","2021-06-22 20:27:37.866","","","","","",""
"card-selection-trial","161","529710","0.0-25.0-1.44","139","true","img/card_backs/set1/yellow.gif","img/card_backs/set1/red.gif","img/card_backs/set1/green.gif","img/card_backs/set1/purple.gif","img/card_backs/set2/orange.gif","img/card_backs/set2/pink.gif","img/card_backs/set2/blue.gif","img/card_backs/set2/gray.gif","""event"",""trial"",""time""
""fullscreenenter"",""1"",""5328""
","
","
","""event"",""trial"",""time""
""fullscreenenter"",""1"",""5328""
","
","","745.5","","","","real_trial","2021-06-22 20:27:40.622","img/card_backs/set1/purple.gif","1","40","1","",""
"casino-fixation","162","530213","0.0-25.0-0.45","139","true","img/card_backs/set1/yellow.gif","img/card_backs/set1/red.gif","img/card_backs/set1/green.gif","img/card_backs/set1/purple.gif","img/card_backs/set2/orange.gif","img/card_backs/set2/pink.gif","img/card_backs/set2/blue.gif","img/card_backs/set2/gray.gif","""event"",""trial"",""time""
""fullscreenenter"",""1"",""5328""
","
","
","""event"",""trial"",""time""
""fullscreenenter"",""1"",""5328""
","
","","null","","null","","fixation","2021-06-22 20:27:41.125","","","","","",""
"card-selection-trial","163","533261","0.0-25.0-1.45","139","true","img/card_backs/set1/yellow.gif","img/card_backs/set1/red.gif","img/card_backs/set1/green.gif","img/card_backs/set1/purple.gif","img/card_backs/set2/orange.gif","img/card_backs/set2/pink.gif","img/card_backs/set2/blue.gif","img/card_backs/set2/gray.gif","""event"",""trial"",""time""
""fullscreenenter"",""1"",""5328""
","
","
","""event"",""trial"",""time""
""fullscreenenter"",""1"",""5328""
","
","","1037.3999999999069","","","","real_trial","2021-06-22 20:27:44.173","img/card_backs/set1/purple.gif","3","-110","1","",""
"casino-fixation","164","533764","0.0-25.0-0.46","139","true","img/card_backs/set1/yellow.gif","img/card_backs/set1/red.gif","img/card_backs/set1/green.gif","img/card_backs/set1/purple.gif","img/card_backs/set2/orange.gif","img/card_backs/set2/pink.gif","img/card_backs/set2/blue.gif","img/card_backs/set2/gray.gif","""event"",""trial"",""time""
""fullscreenenter"",""1"",""5328""
","
","
","""event"",""trial"",""time""
""fullscreenenter"",""1"",""5328""
","
","","null","","null","","fixation","2021-06-22 20:27:44.676","","","","","",""
"card-selection-trial","165","536158","0.0-25.0-1.46","139","true","img/card_backs/set1/yellow.gif","img/card_backs/set1/red.gif","img/card_backs/set1/green.gif","img/card_backs/set1/purple.gif","img/card_backs/set2/orange.gif","img/card_backs/set2/pink.gif","img/card_backs/set2/blue.gif","img/card_backs/set2/gray.gif","""event"",""trial"",""time""
""fullscreenenter"",""1"",""5328""
","
","
","""event"",""trial"",""time""
""fullscreenenter"",""1"",""5328""
","
","","385.30000000004657","","","","real_trial","2021-06-22 20:27:47.070","img/card_backs/set1/purple.gif","1","50","1","",""
"casino-fixation","166","536661","0.0-25.0-0.47","139","true","img/card_backs/set1/yellow.gif","img/card_backs/set1/red.gif","img/card_backs/set1/green.gif","img/card_backs/set1/purple.gif","img/card_backs/set2/orange.gif","img/card_backs/set2/pink.gif","img/card_backs/set2/blue.gif","img/card_backs/set2/gray.gif","""event"",""trial"",""time""
""fullscreenenter"",""1"",""5328""
","
","
","""event"",""trial"",""time""
""fullscreenenter"",""1"",""5328""
","
","","null","","null","","fixation","2021-06-22 20:27:47.573","","","","","",""
"card-selection-trial","167","539229","0.0-25.0-1.47","139","true","img/card_backs/set1/yellow.gif","img/card_backs/set1/red.gif","img/card_backs/set1/green.gif","img/card_backs/set1/purple.gif","img/card_backs/set2/orange.gif","img/card_backs/set2/pink.gif","img/card_backs/set2/blue.gif","img/card_backs/set2/gray.gif","""event"",""trial"",""time""
""fullscreenenter"",""1"",""5328""
","
","
","""event"",""trial"",""time""
""fullscreenenter"",""1"",""5328""
","
