"trial_type","trial_index","time_elapsed","internal_node_id","sub_id","risk_good_first","block1_A","block1_B","block1_C","block1_D","block2_A","block2_B","block2_C","block2_D","interactions","blur_events","focus_events","fullscreenenter_events","fullscreenexit_events","success","rt","stimulus","key_press","button_pressed","task_part","timestamp","card_choice","choice_position","points_earned","block","correct","response"
"pavlovia","0","36","0.0-0.0","890","true","img/card_backs/set1/red.gif","img/card_backs/set1/green.gif","img/card_backs/set1/yellow.gif","img/card_backs/set1/purple.gif","img/card_backs/set2/blue.gif","img/card_backs/set2/orange.gif","img/card_backs/set2/pink.gif","img/card_backs/set2/gray.gif","""event"",""trial"",""time""
""fullscreenenter"",""1"",""8976""
","
","
","""event"",""trial"",""time""
""fullscreenenter"",""1"",""8976""
","
","","","","","","","","","","","","",""
"fullscreen","1","9848","0.0-1.0","890","true","img/card_backs/set1/red.gif","img/card_backs/set1/green.gif","img/card_backs/set1/yellow.gif","img/card_backs/set1/purple.gif","img/card_backs/set2/blue.gif","img/card_backs/set2/orange.gif","img/card_backs/set2/pink.gif","img/card_backs/set2/gray.gif","""event"",""trial"",""time""
""fullscreenenter"",""1"",""8976""
","
","
","""event"",""trial"",""time""
""fullscreenenter"",""1"",""8976""
","
","true","","","","","","","","","","","",""
"audio-keyboard-response","2","12980","0.0-2.0","890","true","img/card_backs/set1/red.gif","img/card_backs/set1/green.gif","img/card_backs/set1/yellow.gif","img/card_backs/set1/purple.gif","img/card_backs/set2/blue.gif","img/card_backs/set2/orange.gif","img/card_backs/set2/pink.gif","img/card_backs/set2/gray.gif","""event"",""trial"",""time""
""fullscreenenter"",""1"",""8976""
","
","
","""event"",""trial"",""time""
""fullscreenenter"",""1"",""8976""
","
","","3077","audio/beep_loop.wav","32","","","","","","","","",""
"audio-button-response","3","17410","0.0-3.0","890","true","img/card_backs/set1/red.gif","img/card_backs/set1/green.gif","img/card_backs/set1/yellow.gif","img/card_backs/set1/purple.gif","img/card_backs/set2/blue.gif","img/card_backs/set2/orange.gif","img/card_backs/set2/pink.gif","img/card_backs/set2/gray.gif","""event"",""trial"",""time""
""fullscreenenter"",""1"",""8976""
","
","
","""event"",""trial"",""time""
""fullscreenenter"",""1"",""8976""
","
","","NaN","audio/turtle.mp3","","3","","","","","","","",""
"audio-button-response","4","20035","0.0-4.0","890","true","img/card_backs/set1/red.gif","img/card_backs/set1/green.gif","img/card_backs/set1/yellow.gif","img/card_backs/set1/purple.gif","img/card_backs/set2/blue.gif","img/card_backs/set2/orange.gif","img/card_backs/set2/pink.gif","img/card_backs/set2/gray.gif","""event"",""trial"",""time""
""fullscreenenter"",""1"",""8976""
","
","
","""event"",""trial"",""time""
""fullscreenenter"",""1"",""8976""
","
","","NaN","audio/shark.mp3","","2","","","","","","","",""
"fullscreen","5","23296","0.0-5.0","890","true","img/card_backs/set1/red.gif","img/card_backs/set1/green.gif","img/card_backs/set1/yellow.gif","img/card_backs/set1/purple.gif","img/card_backs/set2/blue.gif","img/card_backs/set2/orange.gif","img/card_backs/set2/pink.gif","img/card_backs/set2/gray.gif","""event"",""trial"",""time""
""fullscreenenter"",""1"",""8976""
","
","
","""event"",""trial"",""time""
""fullscreenenter"",""1"",""8976""
","
","true","","","","","","","","","","","",""
"casino-keyboard-response","6","26974","0.0-6.0-0.0","890","true","img/card_backs/set1/red.gif","img/card_backs/set1/green.gif","img/card_backs/set1/yellow.gif","img/card_backs/set1/purple.gif","img/card_backs/set2/blue.gif","img/card_backs/set2/orange.gif","img/card_backs/set2/pink.gif","img/card_backs/set2/gray.gif","""event"",""trial"",""time""
""fullscreenenter"",""1"",""8976""
","
","
","""event"",""trial"",""time""
""fullscreenenter"",""1"",""8976""
","
","","3649.60000000149","Welcome to the casino!","71","","instructions","2021-08-16 00:09:49.939","","","","","",""
"casino-keyboard-response","7","36928","0.0-6.0-0.1","890","true","img/card_backs/set1/red.gif","img/card_backs/set1/green.gif","img/card_backs/set1/yellow.gif","img/card_backs/set1/purple.gif","img/card_backs/set2/blue.gif","img/card_backs/set2/orange.gif","img/card_backs/set2/pink.gif","img/card_backs/set2/gray.gif","""event"",""trial"",""time""
""fullscreenenter"",""1"",""8976""
","
","
","""event"",""trial"",""time""
""fullscreenenter"",""1"",""8976""
","
","","9937.30000000447","Today you will be playing a game to earn tokens. </br> At the end of the experiment, you will be paid a bonus based on how many tokens you win. ","69","","instructions","2021-08-16 00:09:59.893","","","","","",""
"casino-keyboard-response","8","45175","0.0-6.0-0.2","890","true","img/card_backs/set1/red.gif","img/card_backs/set1/green.gif","img/card_backs/set1/yellow.gif","img/card_backs/set1/purple.gif","img/card_backs/set2/blue.gif","img/card_backs/set2/orange.gif","img/card_backs/set2/pink.gif","img/card_backs/set2/gray.gif","""event"",""trial"",""time""
""fullscreenenter"",""1"",""8976""
","
","
","""event"",""trial"",""time""
""fullscreenenter"",""1"",""8976""
","
","","8236.29999999702","On every turn, you will be shown four different decks of cards. </br> You need to select a card from one of the four decks.  ","75","","instructions","2021-08-16 00:10:08.139","","","","","",""
"casino-keyboard-response","9","51090","0.0-6.0-0.3","890","true","img/card_backs/set1/red.gif","img/card_backs/set1/green.gif","img/card_backs/set1/yellow.gif","img/card_backs/set1/purple.gif","img/card_backs/set2/blue.gif","img/card_backs/set2/orange.gif","img/card_backs/set2/pink.gif","img/card_backs/set2/gray.gif","""event"",""trial"",""time""
""fullscreenenter"",""1"",""8976""
","
","
","""event"",""trial"",""time""
""fullscreenenter"",""1"",""8976""
","
","","5903.60000000149","On the next screen, you will see what the decks will look like. ","66","","instructions","2021-08-16 00:10:14.054","","","","","",""
"card-selection-trial","10","55114","0.0-7.0-0.0","890","true","img/card_backs/set1/red.gif","img/card_backs/set1/green.gif","img/card_backs/set1/yellow.gif","img/card_backs/set1/purple.gif","img/card_backs/set2/blue.gif","img/card_backs/set2/orange.gif","img/card_backs/set2/pink.gif","img/card_backs/set2/gray.gif","""event"",""trial"",""time""
""fullscreenenter"",""1"",""8976""
","
","
","""event"",""trial"",""time""
""fullscreenenter"",""1"",""8976""
","
","","null","","","","practice","2021-08-16 00:10:18.077","null","null","null","0","",""
"casino-keyboard-response","11","64316","0.0-8.0-0.0","890","true","img/card_backs/set1/red.gif","img/card_backs/set1/green.gif","img/card_backs/set1/yellow.gif","img/card_backs/set1/purple.gif","img/card_backs/set2/blue.gif","img/card_backs/set2/orange.gif","img/card_backs/set2/pink.gif","img/card_backs/set2/gray.gif","""event"",""trial"",""time""
""fullscreenenter"",""1"",""8976""
","
","
","""event"",""trial"",""time""
""fullscreenenter"",""1"",""8976""
","
","","9195.09999999404","You should pick a card from a deck using the '2', '4', '6', and '8' keys at the top of the keyboard.","85","","instructions","2021-08-16 00:10:27.280","","","","","",""
"casino-keyboard-response","12","70521","0.0-8.0-0.1","890","true","img/card_backs/set1/red.gif","img/card_backs/set1/green.gif","img/card_backs/set1/yellow.gif","img/card_backs/set1/purple.gif","img/card_backs/set2/blue.gif","img/card_backs/set2/orange.gif","img/card_backs/set2/pink.gif","img/card_backs/set2/gray.gif","""event"",""trial"",""time""
""fullscreenenter"",""1"",""8976""
","
","
","""event"",""trial"",""time""
""fullscreenenter"",""1"",""8976""
","
","","6195.5","Once you select a card, it will turn over and you will see how many tokens you earned.","83","","instructions","2021-08-16 00:10:33.485","","","","","",""
"casino-keyboard-response","13","84648","0.0-8.0-0.2","890","true","img/card_backs/set1/red.gif","img/card_backs/set1/green.gif","img/card_backs/set1/yellow.gif","img/card_backs/set1/purple.gif","img/card_backs/set2/blue.gif","img/card_backs/set2/orange.gif","img/card_backs/set2/pink.gif","img/card_backs/set2/gray.gif","""event"",""trial"",""time""
""fullscreenenter"",""1"",""8976""
","
","
","""event"",""trial"",""time""
""fullscreenenter"",""1"",""8976""
","
","","14117.39999999851","Let's try practicing that! </br> First, try to put your fingers over the '2', '4', '6', and '8' keys. </br>  You can use whatever fingers are most comfortable for you. Try to find a comfortable position now. ","50","","instructions","2021-08-16 00:10:47.611","","","","","",""
"casino-keyboard-response","14","90419","0.0-8.0-0.3","890","true","img/card_backs/set1/red.gif","img/card_backs/set1/green.gif","img/card_backs/set1/yellow.gif","img/card_backs/set1/purple.gif","img/card_backs/set2/blue.gif","img/card_backs/set2/orange.gif","img/card_backs/set2/pink.gif","img/card_backs/set2/gray.gif","""event"",""trial"",""time""
""fullscreenenter"",""1"",""8976""
","
","
","""event"",""trial"",""time""
""fullscreenenter"",""1"",""8976""
","
","","5763.5","Okay ready? </br> On the next screen, press '2' to select the left deck. ","50","","instructions","2021-08-16 00:10:53.382","","","","","",""
"card-selection-trial","15","93204","0.0-9.0-0.0","890","true","img/card_backs/set1/red.gif","img/card_backs/set1/green.gif","img/card_backs/set1/yellow.gif","img/card_backs/set1/purple.gif","img/card_backs/set2/blue.gif","img/card_backs/set2/orange.gif","img/card_backs/set2/pink.gif","img/card_backs/set2/gray.gif","""event"",""trial"",""time""
""fullscreenenter"",""1"",""8976""
","
","
","""event"",""trial"",""time""
""fullscreenenter"",""1"",""8976""
","
","","752.2000000029802","","","","practice_card_selection","2021-08-16 00:10:56.170","img/practice_cards/backs/dark_blue.gif","0","200","","",""
"casino-keyboard-response","16","99133","0.0-10.0-0.0","890","true","img/card_backs/set1/red.gif","img/card_backs/set1/green.gif","img/card_backs/set1/yellow.gif","img/card_backs/set1/purple.gif","img/card_backs/set2/blue.gif","img/card_backs/set2/orange.gif","img/card_backs/set2/pink.gif","img/card_backs/set2/gray.gif","""event"",""trial"",""time""
""fullscreenenter"",""1"",""8976""
","
","
","""event"",""trial"",""time""
""fullscreenenter"",""1"",""8976""
","
","","5917.39999999851","Great! Now on the next screen, try pressing '6' to select the third deck.","54","","instructions","2021-08-16 00:11:02.097","","","","","",""
"card-selection-trial","17","101733","0.0-11.0-0.0","890","true","img/card_backs/set1/red.gif","img/card_backs/set1/green.gif","img/card_backs/set1/yellow.gif","img/card_backs/set1/purple.gif","img/card_backs/set2/blue.gif","img/card_backs/set2/orange.gif","img/card_backs/set2/pink.gif","img/card_backs/set2/gray.gif","""event"",""trial"",""time""
""fullscreenenter"",""1"",""8976""
","
","
","""event"",""trial"",""time""
""fullscreenenter"",""1"",""8976""
","
","","580.5999999940395","","","","practice_card_selection","2021-08-16 00:11:04.698","img/practice_cards/backs/dark_blue.gif","2","200","","",""
"casino-keyboard-response","18","106403","0.0-12.0-0.0","890","true","img/card_backs/set1/red.gif","img/card_backs/set1/green.gif","img/card_backs/set1/yellow.gif","img/card_backs/set1/purple.gif","img/card_backs/set2/blue.gif","img/card_backs/set2/orange.gif","img/card_backs/set2/pink.gif","img/card_backs/set2/gray.gif","""event"",""trial"",""time""
""fullscreenenter"",""1"",""8976""
","
","
","""event"",""trial"",""time""
""fullscreenenter"",""1"",""8976""
","
","","4659.5","Now on the next screen, try pressing '4' to select the second deck.","52","","instructions","2021-08-16 00:11:09.365","","","","","",""
"card-selection-trial","19","108810","0.0-13.0-0.0","890","true","img/card_backs/set1/red.gif","img/card_backs/set1/green.gif","img/card_backs/set1/yellow.gif","img/card_backs/set1/purple.gif","img/card_backs/set2/blue.gif","img/card_backs/set2/orange.gif","img/card_backs/set2/pink.gif","img/card_backs/set2/gray.gif","""event"",""trial"",""time""
""fullscreenenter"",""1"",""8976""
","
","
","""event"",""trial"",""time""
""fullscreenenter"",""1"",""8976""
","
","","392.6000000014901","","","","practice_card_selection","2021-08-16 00:11:11.775","img/practice_cards/backs/black.gif","1","-100","","",""
"casino-keyboard-response","20","112862","0.0-14.0-0.0","890","true","img/card_backs/set1/red.gif","img/card_backs/set1/green.gif","img/card_backs/set1/yellow.gif","img/card_backs/set1/purple.gif","img/card_backs/set2/blue.gif","img/card_backs/set2/orange.gif","img/card_backs/set2/pink.gif","img/card_backs/set2/gray.gif","""event"",""trial"",""time""
""fullscreenenter"",""1"",""8976""
","
","
","""event"",""trial"",""time""
""fullscreenenter"",""1"",""8976""
","
","","4041.10000000149","Finally, try pressing '8' to select the deck all the way on the right.","56","","instructions","2021-08-16 00:11:15.824","","","","","",""
"card-selection-trial","21","115540","0.0-15.0-0.0","890","true","img/card_backs/set1/red.gif","img/card_backs/set1/green.gif","img/card_backs/set1/yellow.gif","img/card_backs/set1/purple.gif","img/card_backs/set2/blue.gif","img/card_backs/set2/orange.gif","img/card_backs/set2/pink.gif","img/card_backs/set2/gray.gif","""event"",""trial"",""time""
""fullscreenenter"",""1"",""8976""
","
","
","""event"",""trial"",""time""
""fullscreenenter"",""1"",""8976""
","
","","660.5","","","","practice_card_selection","2021-08-16 00:11:18.505","img/practice_cards/backs/dark_blue.gif","3","200","","",""
"casino-keyboard-response","22","120084","0.0-16.0-0.0","890","true","img/card_backs/set1/red.gif","img/card_backs/set1/green.gif","img/card_backs/set1/yellow.gif","img/card_backs/set1/purple.gif","img/card_backs/set2/blue.gif","img/card_backs/set2/orange.gif","img/card_backs/set2/pink.gif","img/card_backs/set2/gray.gif","""event"",""trial"",""time""
""fullscreenenter"",""1"",""8976""
","
","
","""event"",""trial"",""time""
""fullscreenenter"",""1"",""8976""
","
","","4530.70000000298","Great! It seems like you are getting the hang of this.","80","","instructions","2021-08-16 00:11:23.048","","","","","",""
"casino-keyboard-response","23","127685","0.0-16.0-0.1","890","true","img/card_backs/set1/red.gif","img/card_backs/set1/green.gif","img/card_backs/set1/yellow.gif","img/card_backs/set1/purple.gif","img/card_backs/set2/blue.gif","img/card_backs/set2/orange.gif","img/card_backs/set2/pink.gif","img/card_backs/set2/gray.gif","""event"",""trial"",""time""
""fullscreenenter"",""1"",""8976""
","
","
","""event"",""trial"",""time""
""fullscreenenter"",""1"",""8976""
","
","","7587.10000000149","You may have noticed that some cards will cause you to <b> win </b> tokens while other cards will cause you to <b> lose </b>  tokens.","70","","instructions","2021-08-16 00:11:30.648","","","","","",""
"casino-keyboard-response","24","136357","0.0-16.0-0.2","890","true","img/card_backs/set1/red.gif","img/card_backs/set1/green.gif","img/card_backs/set1/yellow.gif","img/card_backs/set1/purple.gif","img/card_backs/set2/blue.gif","img/card_backs/set2/orange.gif","img/card_backs/set2/pink.gif","img/card_backs/set2/gray.gif","""event"",""trial"",""time""
""fullscreenenter"",""1"",""8976""
","
","
","""event"",""trial"",""time""
""fullscreenenter"",""1"",""8976""
","
","","8666.79999999702","Each deck has a mix of cards that will cause you to win and lose tokens. </br> However, the cards in each colored deck are different.","73","","instructions","2021-08-16 00:11:39.319","","","","","",""
"casino-keyboard-response","25","145206","0.0-16.0-0.3","890","true","img/card_backs/set1/red.gif","img/card_backs/set1/green.gif","img/card_backs/set1/yellow.gif","img/card_backs/set1/purple.gif","img/card_backs/set2/blue.gif","img/card_backs/set2/orange.gif","img/card_backs/set2/pink.gif","img/card_backs/set2/gray.gif","""event"",""trial"",""time""
""fullscreenenter"",""1"",""8976""
","
","
","""event"",""trial"",""time""
""fullscreenenter"",""1"",""8976""
","
","","8845.5","Some colored decks are luckier than others. </br> If you choose the lucky decks, you will earn more tokens than if you choose the unlucky decks.","69","","instructions","2021-08-16 00:11:48.168","","","","","",""
"casino-keyboard-response","26","153016","0.0-16.0-0.4","890","true","img/card_backs/set1/red.gif","img/card_backs/set1/green.gif","img/card_backs/set1/yellow.gif","img/card_backs/set1/purple.gif","img/card_backs/set2/blue.gif","img/card_backs/set2/orange.gif","img/card_backs/set2/pink.gif","img/card_backs/set2/gray.gif","""event"",""trial"",""time""
""fullscreenenter"",""1"",""8976""
","
","
","""event"",""trial"",""time""
""fullscreenenter"",""1"",""8976""
","
","","7806.5","You should try to figure out which decks are lucky. </br> Then, try to choose the lucky decks so you can win the most tokens.","87","","instructions","2021-08-16 00:11:55.978","","","","","",""
"casino-keyboard-response","27","165695","0.0-16.0-0.5","890","true","img/card_backs/set1/red.gif","img/card_backs/set1/green.gif","img/card_backs/set1/yellow.gif","img/card_backs/set1/purple.gif","img/card_backs/set2/blue.gif","img/card_backs/set2/orange.gif","img/card_backs/set2/pink.gif","img/card_backs/set2/gray.gif","""event"",""trial"",""time""
""fullscreenenter"",""1"",""8976""
","
","
","""event"",""trial"",""time""
""fullscreenenter"",""1"",""8976""
","
","","12675.5","To make it trickier, the casino dealer will switch the locations of the decks on every turn. </br> The color of the deck determines how lucky it is. The location does not matter.","88","","instructions","2021-08-16 00:12:08.657","","","","","",""
"casino-keyboard-response","28","176103","0.0-16.0-0.6","890","true","img/card_backs/set1/red.gif","img/card_backs/set1/green.gif","img/card_backs/set1/yellow.gif","img/card_backs/set1/purple.gif","img/card_backs/set2/blue.gif","img/card_backs/set2/orange.gif","img/card_backs/set2/pink.gif","img/card_backs/set2/gray.gif","""event"",""trial"",""time""
""fullscreenenter"",""1"",""8976""
","
","
","""event"",""trial"",""time""
""fullscreenenter"",""1"",""8976""
","
","","10405.19999999553","The mix of cards in each colored deck will stay the same throughout the game. </br> That means that a deck that is lucky early on will stay lucky.","79","","instructions","2021-08-16 00:12:19.065","","","","","",""
"casino-keyboard-response","29","184863","0.0-16.0-0.7","890","true","img/card_backs/set1/red.gif","img/card_backs/set1/green.gif","img/card_backs/set1/yellow.gif","img/card_backs/set1/purple.gif","img/card_backs/set2/blue.gif","img/card_backs/set2/orange.gif","img/card_backs/set2/pink.gif","img/card_backs/set2/gray.gif","""event"",""trial"",""time""
""fullscreenenter"",""1"",""8976""
","
","
","""event"",""trial"",""time""
""fullscreenenter"",""1"",""8976""
","
","","8756.39999999851","Remember though, all the decks have a <b> mix </b> of both <b> good </b> and <b> bad </b> cards so it may take a couple of turns to figure out if a deck is lucky.","69","","instructions","2021-08-16 00:12:27.825","","","","","",""
"casino-keyboard-response","30","193435","0.0-16.0-0.8","890","true","img/card_backs/set1/red.gif","img/card_backs/set1/green.gif","img/card_backs/set1/yellow.gif","img/card_backs/set1/purple.gif","img/card_backs/set2/blue.gif","img/card_backs/set2/orange.gif","img/card_backs/set2/pink.gif","img/card_backs/set2/gray.gif","""event"",""trial"",""time""
""fullscreenenter"",""1"",""8976""
","
","
","""event"",""trial"",""time""
""fullscreenenter"",""1"",""8976""
","
","","8568.89999999851","At the end of the game, you will be paid bonus money based on how many tokens you win. </br> If you win more tokens, you will earn more money!","72","","instructions","2021-08-16 00:12:36.398","","","","","",""
"casino-keyboard-response","31","203873","0.0-16.0-0.9","890","true","img/card_backs/set1/red.gif","img/card_backs/set1/green.gif","img/card_backs/set1/yellow.gif","img/card_backs/set1/purple.gif","img/card_backs/set2/blue.gif","img/card_backs/set2/orange.gif","img/card_backs/set2/pink.gif","img/card_backs/set2/gray.gif","""event"",""trial"",""time""
""fullscreenenter"",""1"",""8976""
","
","
","""event"",""trial"",""time""
""fullscreenenter"",""1"",""8976""
","
","","10424.39999999851","You will never <b> lose </b> money. </br> If you end up with fewer than 0 tokens, you will earn $0 of bonus money, but you will still be paid for playing the game.","83","","instructions","2021-08-16 00:12:46.836","","","","","",""
"casino-keyboard-response","32","208137","0.0-16.0-0.10","890","true","img/card_backs/set1/red.gif","img/card_backs/set1/green.gif","img/card_backs/set1/yellow.gif","img/card_backs/set1/purple.gif","img/card_backs/set2/blue.gif","img/card_backs/set2/orange.gif","img/card_backs/set2/pink.gif","img/card_backs/set2/gray.gif","""event"",""trial"",""time""
""fullscreenenter"",""1"",""8976""
","
","
","""event"",""trial"",""time""
""fullscreenenter"",""1"",""8976""
","
","","4259.70000000298","You will have 10 seconds to make each choice.","82","","instructions","2021-08-16 00:12:51.099","","","","","",""
"casino-keyboard-response","33","216784","0.0-16.0-0.11","890","true","img/card_backs/set1/red.gif","img/card_backs/set1/green.gif","img/card_backs/set1/yellow.gif","img/card_backs/set1/purple.gif","img/card_backs/set2/blue.gif","img/card_backs/set2/orange.gif","img/card_backs/set2/pink.gif","img/card_backs/set2/gray.gif","""event"",""trial"",""time""
""fullscreenenter"",""1"",""8976""
","
","
","""event"",""trial"",""time""
""fullscreenenter"",""1"",""8976""
","
","","8477.5","Before you play the game for real, you will play with practice decks. </br> The tokens you earn during practice won't count toward your total.","86","","instructions","2021-08-16 00:12:59.752","","","","","",""
"casino-keyboard-response","34","226761","0.0-16.0-0.12","890","true","img/card_backs/set1/red.gif","img/card_backs/set1/green.gif","img/card_backs/set1/yellow.gif","img/card_backs/set1/purple.gif","img/card_backs/set2/blue.gif","img/card_backs/set2/orange.gif","img/card_backs/set2/pink.gif","img/card_backs/set2/gray.gif","""event"",""trial"",""time""
""fullscreenenter"",""1"",""8976""
","
","
","""event"",""trial"",""time""
""fullscreenenter"",""1"",""8976""
","
","","9953.20000000298","Ready? Remember, use the '2', '4', '6', and '8' keys to select the decks. </br> Put your fingers on those keys now and then press '2' to begin.","50","","instructions","2021-08-16 00:13:09.725","","","","","",""
"casino-fixation","35","227273","0.0-17.0-0.0","890","true","img/card_backs/set1/red.gif","img/card_backs/set1/green.gif","img/card_backs/set1/yellow.gif","img/card_backs/set1/purple.gif","img/card_backs/set2/blue.gif","img/card_backs/set2/orange.gif","img/card_backs/set2/pink.gif","img/card_backs/set2/gray.gif","""event"",""trial"",""time""
""fullscreenenter"",""1"",""8976""
","
","
","""event"",""trial"",""time""
""fullscreenenter"",""1"",""8976""
","
","","null","","null","","fixation","2021-08-16 00:13:10.235","","","","","",""
"card-selection-trial","36","230166","0.0-17.0-1.0","890","true","img/card_backs/set1/red.gif","img/card_backs/set1/green.gif","img/card_backs/set1/yellow.gif","img/card_backs/set1/purple.gif","img/card_backs/set2/blue.gif","img/card_backs/set2/orange.gif","img/card_backs/set2/pink.gif","img/card_backs/set2/gray.gif","""event"",""trial"",""time""
""fullscreenenter"",""1"",""8976""
","
","
","""event"",""trial"",""time""
""fullscreenenter"",""1"",""8976""
","
","","870.4000000059605","","","","practice","2021-08-16 00:13:13.130","img/practice_cards/backs/black.gif","0","-100","0","",""
"casino-fixation","37","230673","0.0-17.0-0.1","890","true","img/card_backs/set1/red.gif","img/card_backs/set1/green.gif","img/card_backs/set1/yellow.gif","img/card_backs/set1/purple.gif","img/card_backs/set2/blue.gif","img/card_backs/set2/orange.gif","img/card_backs/set2/pink.gif","img/card_backs/set2/gray.gif","""event"",""trial"",""time""
""fullscreenenter"",""1"",""8976""
","
","
","""event"",""trial"",""time""
""fullscreenenter"",""1"",""8976""
","
","","null","","null","","fixation","2021-08-16 00:13:13.635","","","","","",""
"card-selection-trial","38","233417","0.0-17.0-1.1","890","true","img/card_backs/set1/red.gif","img/card_backs/set1/green.gif","img/card_backs/set1/yellow.gif","img/card_backs/set1/purple.gif","img/card_backs/set2/blue.gif","img/card_backs/set2/orange.gif","img/card_backs/set2/pink.gif","img/card_backs/set2/gray.gif","""event"",""trial"",""time""
""fullscreenenter"",""1"",""8976""
","
","
","""event"",""trial"",""time""
""fullscreenenter"",""1"",""8976""
","
","","727","","","","practice","2021-08-16 00:13:16.379","img/practice_cards/backs/dark_blue.gif","1","200","0","",""
"casino-fixation","39","233926","0.0-17.0-0.2","890","true","img/card_backs/set1/red.gif","img/card_backs/set1/green.gif","img/card_backs/set1/yellow.gif","img/card_backs/set1/purple.gif","img/card_backs/set2/blue.gif","img/card_backs/set2/orange.gif","img/card_backs/set2/pink.gif","img/card_backs/set2/gray.gif","""event"",""trial"",""time""
""fullscreenenter"",""1"",""8976""
","
","
","""event"",""trial"",""time""
""fullscreenenter"",""1"",""8976""
","
","","null","","null","","fixation","2021-08-16 00:13:16.888","","","","","",""
"card-selection-trial","40","236353","0.0-17.0-1.2","890","true","img/card_backs/set1/red.gif","img/card_backs/set1/green.gif","img/card_backs/set1/yellow.gif","img/card_backs/set1/purple.gif","img/card_backs/set2/blue.gif","img/card_backs/set2/orange.gif","img/card_backs/set2/pink.gif","img/card_backs/set2/gray.gif","""event"",""trial"",""time""
""fullscreenenter"",""1"",""8976""
","
","
","""event"",""trial"",""time""
""fullscreenenter"",""1"",""8976""
","
","","411.29999999701977","","","","practice","2021-08-16 00:13:19.316","img/practice_cards/backs/black.gif","2","100","0","",""
"casino-fixation","41","236858","0.0-17.0-0.3","890","true","img/card_backs/set1/red.gif","img/card_backs/set1/green.gif","img/card_backs/set1/yellow.gif","img/card_backs/set1/purple.gif","img/card_backs/set2/blue.gif","img/card_backs/set2/orange.gif","img/card_backs/set2/pink.gif","img/card_backs/set2/gray.gif","""event"",""trial"",""time""
""fullscreenenter"",""1"",""8976""
","
","
","""event"",""trial"",""time""
""fullscreenenter"",""1"",""8976""
","
","","null","","null","","fixation","2021-08-16 00:13:19.820","","","","","",""
"card-selection-trial","42","239250","0.0-17.0-1.3","890","true","img/card_backs/set1/red.gif","img/card_backs/set1/green.gif","img/card_backs/set1/yellow.gif","img/card_backs/set1/purple.gif","img/card_backs/set2/blue.gif","img/card_backs/set2/orange.gif","img/card_backs/set2/pink.gif","img/card_backs/set2/gray.gif","""event"",""trial"",""time""
""fullscreenenter"",""1"",""8976""
","
","
","""event"",""trial"",""time""
""fullscreenenter"",""1"",""8976""
","
","","375.79999999701977","","","","practice","2021-08-16 00:13:22.214","img/practice_cards/backs/brown.gif","3","-100","0","",""
"casino-fixation","43","239767","0.0-17.0-0.4","890","true","img/card_backs/set1/red.gif","img/card_backs/set1/green.gif","img/card_backs/set1/yellow.gif","img/card_backs/set1/purple.gif","img/card_backs/set2/blue.gif","img/card_backs/set2/orange.gif","img/card_backs/set2/pink.gif","img/card_backs/set2/gray.gif","""event"",""trial"",""time""
""fullscreenenter"",""1"",""8976""
","
","
","""event"",""trial"",""time""
""fullscreenenter"",""1"",""8976""
","
","","null","","null","","fixation","2021-08-16 00:13:22.731","","","","","",""
"card-selection-trial","44","243625","0.0-17.0-1.4","890","true","img/card_backs/set1/red.gif","img/card_backs/set1/green.gif","img/card_backs/set1/yellow.gif","img/card_backs/set1/purple.gif","img/card_backs/set2/blue.gif","img/card_backs/set2/orange.gif","img/card_backs/set2/pink.gif","img/card_backs/set2/gray.gif","""event"",""trial"",""time""
""fullscreenenter"",""1"",""8976""
","
","
","""event"",""trial"",""time""
""fullscreenenter"",""1"",""8976""
","
","","1840.1000000014901","","","","practice","2021-08-16 00:13:26.587","img/practice_cards/backs/black.gif","1","-100","0","",""
"casino-fixation","45","244137","0.0-17.0-0.5","890","true","img/card_backs/set1/red.gif","img/card_backs/set1/green.gif","img/card_backs/set1/yellow.gif","img/card_backs/set1/purple.gif","img/card_backs/set2/blue.gif","img/card_backs/set2/orange.gif","img/card_backs/set2/pink.gif","img/card_backs/set2/gray.gif","""event"",""trial"",""time""
""fullscreenenter"",""1"",""8976""
","
","
","""event"",""trial"",""time""
""fullscreenenter"",""1"",""8976""
","
","","null","","null","","fixation","2021-08-16 00:13:27.101","","","","","",""
"card-selection-trial","46","246584","0.0-17.0-1.5","890","true","img/card_backs/set1/red.gif","img/card_backs/set1/green.gif","img/card_backs/set1/yellow.gif","img/card_backs/set1/purple.gif","img/card_backs/set2/blue.gif","img/card_backs/set2/orange.gif","img/card_backs/set2/pink.gif","img/card_backs/set2/gray.gif","""event"",""trial"",""time""
""fullscreenenter"",""1"",""8976""
","
","
","""event"",""trial"",""time""
""fullscreenenter"",""1"",""8976""
","
","","428.80000000447035","","","","practice","2021-08-16 00:13:29.547","img/practice_cards/backs/black.gif","0","100","0","",""
"casino-fixation","47","247094","0.0-17.0-0.6","890","true","img/card_backs/set1/red.gif","img/card_backs/set1/green.gif","img/card_backs/set1/yellow.gif","img/card_backs/set1/purple.gif","img/card_backs/set2/blue.gif","img/card_backs/set2/orange.gif","img/card_backs/set2/pink.gif","img/card_backs/set2/gray.gif","""event"",""trial"",""time""
""fullscreenenter"",""1"",""8976""
","
","
","""event"",""trial"",""time""
""fullscreenenter"",""1"",""8976""
","
","","null","","null","","fixation","2021-08-16 00:13:30.056","","","","","",""
"card-selection-trial","48","250196","0.0-17.0-1.6","890","true","img/card_backs/set1/red.gif","img/card_backs/set1/green.gif","img/card_backs/set1/yellow.gif","img/card_backs/set1/purple.gif","img/card_backs/set2/blue.gif","img/card_backs/set2/orange.gif","img/card_backs/set2/pink.gif","img/card_backs/set2/gray.gif","""event"",""trial"",""time""
""fullscreenenter"",""1"",""8976""
","
","
","""event"",""trial"",""time""
""fullscreenenter"",""1"",""8976""
","
","","1087","","","","practice","2021-08-16 00:13:33.159","img/practice_cards/backs/brown.gif","2","-100","0","",""
"casino-fixation","49","250700","0.0-17.0-0.7","890","true","img/card_backs/set1/red.gif","img/card_backs/set1/green.gif","img/card_backs/set1/yellow.gif","img/card_backs/set1/purple.gif","img/card_backs/set2/blue.gif","img/card_backs/set2/orange.gif","img/card_backs/set2/pink.gif","img/card_backs/set2/gray.gif","""event"",""trial"",""time""
""fullscreenenter"",""1"",""8976""
","
","
","""event"",""trial"",""time""
""fullscreenenter"",""1"",""8976""
","
","","null","","null","","fixation","2021-08-16 00:13:33.662","","","","","",""
"card-selection-trial","50","253219","0.0-17.0-1.7","890","true","img/card_backs/set1/red.gif","img/card_backs/set1/green.gif","img/card_backs/set1/yellow.gif","img/card_backs/set1/purple.gif","img/card_backs/set2/blue.gif","img/card_backs/set2/orange.gif","img/card_backs/set2/pink.gif","img/card_backs/set2/gray.gif","""event"",""trial"",""time""
""fullscreenenter"",""1"",""8976""
","
","
","""event"",""trial"",""time""
""fullscreenenter"",""1"",""8976""
","
","","503.70000000298023","","","","practice","2021-08-16 00:13:36.182","img/practice_cards/backs/dark_blue.gif","3","200","0","",""
"casino-fixation","51","253736","0.0-17.0-0.8","890","true","img/card_backs/set1/red.gif","img/card_backs/set1/green.gif","img/card_backs/set1/yellow.gif","img/card_backs/set1/purple.gif","img/card_backs/set2/blue.gif","img/card_backs/set2/orange.gif","img/card_backs/set2/pink.gif","img/card_backs/set2/gray.gif","""event"",""trial"",""time""
""fullscreenenter"",""1"",""8976""
","
","
","""event"",""trial"",""time""
""fullscreenenter"",""1"",""8976""
","
","","null","","null","","fixation","2021-08-16 00:13:36.698","","","","","",""
"card-selection-trial","52","257109","0.0-17.0-1.8","890","true","img/card_backs/set1/red.gif","img/card_backs/set1/green.gif","img/card_backs/set1/yellow.gif","img/card_backs/set1/purple.gif","img/card_backs/set2/blue.gif","img/card_backs/set2/orange.gif","img/card_backs/set2/pink.gif","img/card_backs/set2/gray.gif","""event"",""trial"",""time""
""fullscreenenter"",""1"",""8976""
","
","
","""event"",""trial"",""time""
""fullscreenenter"",""1"",""8976""
","
","","1349.6000000014901","","","","practice","2021-08-16 00:13:40.074","img/practice_cards/backs/black.gif","0","100","0","",""
"casino-fixation","53","257627","0.0-17.0-0.9","890","true","img/card_backs/set1/red.gif","img/card_backs/set1/green.gif","img/card_backs/set1/yellow.gif","img/card_backs/set1/purple.gif","img/card_backs/set2/blue.gif","img/card_backs/set2/orange.gif","img/card_backs/set2/pink.gif","img/card_backs/set2/gray.gif","""event"",""trial"",""time""
""fullscreenenter"",""1"",""8976""
","
","
","""event"",""trial"",""time""
""fullscreenenter"",""1"",""8976""
","
","","null","","null","","fixation","2021-08-16 00:13:40.589","","","","","",""
"card-selection-trial","54","260114","0.0-17.0-1.9","890","true","img/card_backs/set1/red.gif","img/card_backs/set1/green.gif","img/card_backs/set1/yellow.gif","img/card_backs/set1/purple.gif","img/card_backs/set2/blue.gif","img/card_backs/set2/orange.gif","img/card_backs/set2/pink.gif","img/card_backs/set2/gray.gif","""event"",""trial"",""time""
""fullscreenenter"",""1"",""8976""
","
","
","""event"",""trial"",""time""
""fullscreenenter"",""1"",""8976""
","
","","464.29999999701977","","","","practice","2021-08-16 00:13:43.080","img/practice_cards/backs/black.gif","1","-100","0","",""
"casino-keyboard-response","55","263433","0.0-18.0","890","true","img/card_backs/set1/red.gif","img/card_backs/set1/green.gif","img/card_backs/set1/yellow.gif","img/card_backs/set1/purple.gif","img/card_backs/set2/blue.gif","img/card_backs/set2/orange.gif","img/card_backs/set2/pink.gif","img/card_backs/set2/gray.gif","""event"",""trial"",""time""
""fullscreenenter"",""1"",""8976""
","
","
","""event"",""trial"",""time""
""fullscreenenter"",""1"",""8976""
","
","","3303.3000000044703","You earned 200 tokens during the practice round!","82","","","2021-08-16 00:13:46.396","","","","","",""
"casino-keyboard-response","56","268486","0.0-19.0-0.0","890","true","img/card_backs/set1/red.gif","img/card_backs/set1/green.gif","img/card_backs/set1/yellow.gif","img/card_backs/set1/purple.gif","img/card_backs/set2/blue.gif","img/card_backs/set2/orange.gif","img/card_backs/set2/pink.gif","img/card_backs/set2/gray.gif","""event"",""trial"",""time""
""fullscreenenter"",""1"",""8976""
","
","
","""event"",""trial"",""time""
""fullscreenenter"",""1"",""8976""
","
","","5048.60000000149","Nice job! You are almost ready to play the real game.","86","","instructions","2021-08-16 00:13:51.449","","","","","",""
"casino-keyboard-response","57","275401","0.0-19.0-0.1","890","true","img/card_backs/set1/red.gif","img/card_backs/set1/green.gif","img/card_backs/set1/yellow.gif","img/card_backs/set1/purple.gif","img/card_backs/set2/blue.gif","img/card_backs/set2/orange.gif","img/card_backs/set2/pink.gif","img/card_backs/set2/gray.gif","""event"",""trial"",""time""
""fullscreenenter"",""1"",""8976""
","
","
","""event"",""trial"",""time""
""fullscreenenter"",""1"",""8976""
","
","","6909.5","You will play two rounds of the real game. In each round, you will pick 100 cards in total.","73","","instructions","2021-08-16 00:13:58.363","","","","","",""
"casino-keyboard-response","58","279894","0.0-19.0-0.2","890","true","img/card_backs/set1/red.gif","img/card_backs/set1/green.gif","img/card_backs/set1/yellow.gif","img/card_backs/set1/purple.gif","img/card_backs/set2/blue.gif","img/card_backs/set2/orange.gif","img/card_backs/set2/pink.gif","img/card_backs/set2/gray.gif","""event"",""trial"",""time""
""fullscreenenter"",""1"",""8976""
","
","
","""event"",""trial"",""time""
""fullscreenenter"",""1"",""8976""
","
","","4489","We are now going to ask you some questions about how the game works.","66","","instructions","2021-08-16 00:14:02.856","","","","","",""
"casino-keyboard-response","59","286263","0.0-19.0-0.3","890","true","img/card_backs/set1/red.gif","img/card_backs/set1/green.gif","img/card_backs/set1/yellow.gif","img/card_backs/set1/purple.gif","img/card_backs/set2/blue.gif","img/card_backs/set2/orange.gif","img/card_backs/set2/pink.gif","img/card_backs/set2/gray.gif","""event"",""trial"",""time""
""fullscreenenter"",""1"",""8976""
","
","
","""event"",""trial"",""time""
""fullscreenenter"",""1"",""8976""
","
","","6366.10000000149","Answer carefully. You will not be able to begin the game until you answer them correctly.","67","","instructions","2021-08-16 00:14:09.225","","","","","",""
"casino-comp_q","60","294711","0.0-20.0-0.0","890","true","img/card_backs/set1/red.gif","img/card_backs/set1/green.gif","img/card_backs/set1/yellow.gif","img/card_backs/set1/purple.gif","img/card_backs/set2/blue.gif","img/card_backs/set2/orange.gif","img/card_backs/set2/pink.gif","img/card_backs/set2/gray.gif","""event"",""trial"",""time""
""fullscreenenter"",""1"",""8976""
","
","
","""event"",""trial"",""time""
""fullscreenenter"",""1"",""8976""
","
","","8442.70000000298","True or False: All the decks have some cards that cause you to win tokens and some cards that cause you to lose tokens.","84","","","2021-08-16 00:14:17.673","","","","","",""
"casino-keyboard-response","61","299340","0.0-20.0-1.0","890","true","img/card_backs/set1/red.gif","img/card_backs/set1/green.gif","img/card_backs/set1/yellow.gif","img/card_backs/set1/purple.gif","img/card_backs/set2/blue.gif","img/card_backs/set2/orange.gif","img/card_backs/set2/pink.gif","img/card_backs/set2/gray.gif","""event"",""trial"",""time""
""fullscreenenter"",""1"",""8976""
","
","
","""event"",""trial"",""time""
""fullscreenenter"",""1"",""8976""
","
","","4625","True is correct! All the decks have a mix of winning and losing cards.","77","","","2021-08-16 00:14:22.303","","","","","true",""
"casino-comp_q","62","305361","0.0-21.0-0.0","890","true","img/card_backs/set1/red.gif","img/card_backs/set1/green.gif","img/card_backs/set1/yellow.gif","img/card_backs/set1/purple.gif","img/card_backs/set2/blue.gif","img/card_backs/set2/orange.gif","img/card_backs/set2/pink.gif","img/card_backs/set2/gray.gif","""event"",""trial"",""time""
""fullscreenenter"",""1"",""8976""
","
","
","""event"",""trial"",""time""
""fullscreenenter"",""1"",""8976""
","
","","6002.79999999702","True or False: You will have as much time as you want to make your response.","70","","","2021-08-16 00:14:28.324","","","","","",""
"casino-keyboard-response","63","309648","0.0-21.0-1.0","890","true","img/card_backs/set1/red.gif","img/card_backs/set1/green.gif","img/card_backs/set1/yellow.gif","img/card_backs/set1/purple.gif","img/card_backs/set2/blue.gif","img/card_backs/set2/orange.gif","img/card_backs/set2/pink.gif","img/card_backs/set2/gray.gif","""event"",""trial"",""time""
""fullscreenenter"",""1"",""8976""
","
","
","""event"",""trial"",""time""
""fullscreenenter"",""1"",""8976""
","
","","4122.29999999702","False is correct! You will only have 10 seconds to make each choice.","75","","","2021-08-16 00:14:32.612","","","","","true",""
"casino-comp_q","64","314713","0.0-22.0-0.0","890","true","img/card_backs/set1/red.gif","img/card_backs/set1/green.gif","img/card_backs/set1/yellow.gif","img/card_backs/set1/purple.gif","img/card_backs/set2/blue.gif","img/card_backs/set2/orange.gif","img/card_backs/set2/pink.gif","img/card_backs/set2/gray.gif","""event"",""trial"",""time""
""fullscreenenter"",""1"",""8976""
","
","
","""event"",""trial"",""time""
""fullscreenenter"",""1"",""8976""
","
","","5056.39999999851","True or False: The location of the deck determines how lucky it is.","70","","","2021-08-16 00:14:37.675","","","","","",""
"casino-keyboard-response","65","323943","0.0-22.0-1.0","890","true","img/card_backs/set1/red.gif","img/card_backs/set1/green.gif","img/card_backs/set1/yellow.gif","img/card_backs/set1/purple.gif","img/card_backs/set2/blue.gif","img/card_backs/set2/orange.gif","img/card_backs/set2/pink.gif","img/card_backs/set2/gray.gif","""event"",""trial"",""time""
""fullscreenenter"",""1"",""8976""
","
","
","""event"",""trial"",""time""
""fullscreenenter"",""1"",""8976""
","
","","9224.10000000149","False is correct! The <i>color</i>  of the deck determines how lucky or unlucky it is.","68","","","2021-08-16 00:14:46.905","","","","","true",""
"casino-keyboard-response","66","330110","0.0-23.0-0.0","890","true","img/card_backs/set1/red.gif","img/card_backs/set1/green.gif","img/card_backs/set1/yellow.gif","img/card_backs/set1/purple.gif","img/card_backs/set2/blue.gif","img/card_backs/set2/orange.gif","img/card_backs/set2/pink.gif","img/card_backs/set2/gray.gif","""event"",""trial"",""time""
""fullscreenenter"",""1"",""8976""
","
","
","""event"",""trial"",""time""
""fullscreenenter"",""1"",""8976""
","
","","6162.39999999851","Great job! Now it's time to start the real game.","82","","instructions","2021-08-16 00:14:53.072","","","","","",""
"casino-keyboard-response","67","335529","0.0-23.0-0.1","890","true","img/card_backs/set1/red.gif","img/card_backs/set1/green.gif","img/card_backs/set1/yellow.gif","img/card_backs/set1/purple.gif","img/card_backs/set2/blue.gif","img/card_backs/set2/orange.gif","img/card_backs/set2/pink.gif","img/card_backs/set2/gray.gif","""event"",""trial"",""time""
""fullscreenenter"",""1"",""8976""
","
","
","""event"",""trial"",""time""
""fullscreenenter"",""1"",""8976""
","
","","5414.69999999553","Before we start, we're going to head into a new room of the casino.","86","","instructions","2021-08-16 00:14:58.492","","","","","",""
"casino-keyboard-response","68","341855","0.0-24.0-0.0","890","true","img/card_backs/set1/red.gif","img/card_backs/set1/green.gif","img/card_backs/set1/yellow.gif","img/card_backs/set1/purple.gif","img/card_backs/set2/blue.gif","img/card_backs/set2/orange.gif","img/card_backs/set2/pink.gif","img/card_backs/set2/gray.gif","""event"",""trial"",""time""
""fullscreenenter"",""1"",""8976""
","
","
","""event"",""trial"",""time""
""fullscreenenter"",""1"",""8976""
","
","","6322","Here we are! The real game will use different cards, but the rules will be the same.","71","","instructions","2021-08-16 00:15:04.817","","","","","",""
"casino-keyboard-response","69","350708","0.0-24.0-0.1","890","true","img/card_backs/set1/red.gif","img/card_backs/set1/green.gif","img/card_backs/set1/yellow.gif","img/card_backs/set1/purple.gif","img/card_backs/set2/blue.gif","img/card_backs/set2/orange.gif","img/card_backs/set2/pink.gif","img/card_backs/set2/gray.gif","""event"",""trial"",""time""
""fullscreenenter"",""1"",""8976""
","
","
","""event"",""trial"",""time""
""fullscreenenter"",""1"",""8976""
","
","","8849.29999999702","Ready? Put your fingers over the '2', '4', 6', and '8' keys so you are ready to play the game. </br> Then press 2 to start.","50","","instructions","2021-08-16 00:15:13.670","","","","","",""
"casino-fixation","70","351213","0.0-25.0-0.0","890","true","img/card_backs/set1/red.gif","img/card_backs/set1/green.gif","img/card_backs/set1/yellow.gif","img/card_backs/set1/purple.gif","img/card_backs/set2/blue.gif","img/card_backs/set2/orange.gif","img/card_backs/set2/pink.gif","img/card_backs/set2/gray.gif","""event"",""trial"",""time""
""fullscreenenter"",""1"",""8976""
","
","
","""event"",""trial"",""time""
""fullscreenenter"",""1"",""8976""
","
","","null","","null","","fixation","2021-08-16 00:15:14.175","","","","","",""
"card-selection-trial","71","354548","0.0-25.0-1.0","890","true","img/card_backs/set1/red.gif","img/card_backs/set1/green.gif","img/card_backs/set1/yellow.gif","img/card_backs/set1/purple.gif","img/card_backs/set2/blue.gif","img/card_backs/set2/orange.gif","img/card_backs/set2/pink.gif","img/card_backs/set2/gray.gif","""event"",""trial"",""time""
""fullscreenenter"",""1"",""8976""
","
","
","""event"",""trial"",""time""
""fullscreenenter"",""1"",""8976""
","
","","1319","","","","real_trial","2021-08-16 00:15:17.511","img/card_backs/set1/green.gif","0","240","1","",""
"casino-fixation","72","355059","0.0-25.0-0.1","890","true","img/card_backs/set1/red.gif","img/card_backs/set1/green.gif","img/card_backs/set1/yellow.gif","img/card_backs/set1/purple.gif","img/card_backs/set2/blue.gif","img/card_backs/set2/orange.gif","img/card_backs/set2/pink.gif","img/card_backs/set2/gray.gif","""event"",""trial"",""time""
""fullscreenenter"",""1"",""8976""
","
","
","""event"",""trial"",""time""
""fullscreenenter"",""1"",""8976""
","
","","null","","null","","fixation","2021-08-16 00:15:18.021","","","","","",""
"card-selection-trial","73","358789","0.0-25.0-1.1","890","true","img/card_backs/set1/red.gif","img/card_backs/set1/green.gif","img/card_backs/set1/yellow.gif","img/card_backs/set1/purple.gif","img/card_backs/set2/blue.gif","img/card_backs/set2/orange.gif","img/card_backs/set2/pink.gif","img/card_backs/set2/gray.gif","""event"",""trial"",""time""
""fullscreenenter"",""1"",""8976""
","
","
","""event"",""trial"",""time""
""fullscreenenter"",""1"",""8976""
","
","","1714.7000000029802","","","","real_trial","2021-08-16 00:15:21.751","img/card_backs/set1/red.gif","1","-190","1","",""
"casino-fixation","74","359300","0.0-25.0-0.2","890","true","img/card_backs/set1/red.gif","img/card_backs/set1/green.gif","img/card_backs/set1/yellow.gif","img/card_backs/set1/purple.gif","img/card_backs/set2/blue.gif","img/card_backs/set2/orange.gif","img/card_backs/set2/pink.gif","img/card_backs/set2/gray.gif","""event"",""trial"",""time""
""fullscreenenter"",""1"",""8976""
","
","
","""event"",""trial"",""time""
""fullscreenenter"",""1"",""8976""
","
","","null","","null","","fixation","2021-08-16 00:15:22.265","","","","","",""
"card-selection-trial","75","363153","0.0-25.0-1.2","890","true","img/card_backs/set1/red.gif","img/card_backs/set1/green.gif","img/card_backs/set1/yellow.gif","img/card_backs/set1/purple.gif","img/card_backs/set2/blue.gif","img/card_backs/set2/orange.gif","img/card_backs/set2/pink.gif","img/card_backs/set2/gray.gif","""event"",""trial"",""time""
""fullscreenenter"",""1"",""8976""
","
","
","""event"",""trial"",""time""
""fullscreenenter"",""1"",""8976""
","
","","1830.5","","","","real_trial","2021-08-16 00:15:26.116","img/card_backs/set1/green.gif","0","-190","1","",""
"casino-fixation","76","363660","0.0-25.0-0.3","890","true","img/card_backs/set1/red.gif","img/card_backs/set1/green.gif","img/card_backs/set1/yellow.gif","img/card_backs/set1/purple.gif","img/card_backs/set2/blue.gif","img/card_backs/set2/orange.gif","img/card_backs/set2/pink.gif","img/card_backs/set2/gray.gif","""event"",""trial"",""time""
""fullscreenenter"",""1"",""8976""
","
","
","""event"",""trial"",""time""
""fullscreenenter"",""1"",""8976""
","
","","null","","null","","fixation","2021-08-16 00:15:26.622","","","","","",""
"card-selection-trial","77","368375","0.0-25.0-1.3","890","true","img/card_backs/set1/red.gif","img/card_backs/set1/green.gif","img/card_backs/set1/yellow.gif","img/card_backs/set1/purple.gif","img/card_backs/set2/blue.gif","img/card_backs/set2/orange.gif","img/card_backs/set2/pink.gif","img/card_backs/set2/gray.gif","""event"",""trial"",""time""
""fullscreenenter"",""1"",""8976""
","
","
","""event"",""trial"",""time""
""fullscreenenter"",""1"",""8976""
","
","","2698.89999999851","","","","real_trial","2021-08-16 00:15:31.337","img/card_backs/set1/purple.gif","1","50","1","",""
"casino-fixation","78","368881","0.0-25.0-0.4","890","true","img/card_backs/set1/red.gif","img/card_backs/set1/green.gif","img/card_backs/set1/yellow.gif","img/card_backs/set1/purple.gif","img/card_backs/set2/blue.gif","img/card_backs/set2/orange.gif","img/card_backs/set2/pink.gif","img/card_backs/set2/gray.gif","""event"",""trial"",""time""
""fullscreenenter"",""1"",""8976""
","
","
","""event"",""trial"",""time""
""fullscreenenter"",""1"",""8976""
","
","","null","","null","","fixation","2021-08-16 00:15:31.843","","","","","",""
"card-selection-trial","79","372485","0.0-25.0-1.4","890","true","img/card_backs/set1/red.gif","img/card_backs/set1/green.gif","img/card_backs/set1/yellow.gif","img/card_backs/set1/purple.gif","img/card_backs/set2/blue.gif","img/card_backs/set2/orange.gif","img/card_backs/set2/pink.gif","img/card_backs/set2/gray.gif","""event"",""trial"",""time""
""fullscreenenter"",""1"",""8976""
","
","
","""event"",""trial"",""time""
""fullscreenenter"",""1"",""8976""
","
","","1587.1000000014901","","","","real_trial","2021-08-16 00:15:35.447","img/card_backs/set1/yellow.gif","0","50","1","",""
"casino-fixation","80","372989","0.0-25.0-0.5","890","true","img/card_backs/set1/red.gif","img/card_backs/set1/green.gif","img/card_backs/set1/yellow.gif","img/card_backs/set1/purple.gif","img/card_backs/set2/blue.gif","img/card_backs/set2/orange.gif","img/card_backs/set2/pink.gif","img/card_backs/set2/gray.gif","""event"",""trial"",""time""
""fullscreenenter"",""1"",""8976""
","
","
","""event"",""trial"",""time""
""fullscreenenter"",""1"",""8976""
","
","","null","","null","","fixation","2021-08-16 00:15:35.951","","","","","",""
"card-selection-trial","81","376546","0.0-25.0-1.5","890","true","img/card_backs/set1/red.gif","img/card_backs/set1/green.gif","img/card_backs/set1/yellow.gif","img/card_backs/set1/purple.gif","img/card_backs/set2/blue.gif","img/card_backs/set2/orange.gif","img/card_backs/set2/pink.gif","img/card_backs/set2/gray.gif","""event"",""trial"",""time""
""fullscreenenter"",""1"",""8976""
","
","
","""event"",""trial"",""time""
""fullscreenenter"",""1"",""8976""
","
","","1540.2999999970198","","","","real_trial","2021-08-16 00:15:39.508","img/card_backs/set1/green.gif","3","250","1","",""
"casino-fixation","82","377055","0.0-25.0-0.6","890","true","img/card_backs/set1/red.gif","img/card_backs/set1/green.gif","img/card_backs/set1/yellow.gif","img/card_backs/set1/purple.gif","img/card_backs/set2/blue.gif","img/card_backs/set2/orange.gif","img/card_backs/set2/pink.gif","img/card_backs/set2/gray.gif","""event"",""trial"",""time""
""fullscreenenter"",""1"",""8976""
","
","
","""event"",""trial"",""time""
""fullscreenenter"",""1"",""8976""
","
","","null","","null","","fixation","2021-08-16 00:15:40.017","","","","","",""
"card-selection-trial","83","379798","0.0-25.0-1.6","890","true","img/card_backs/set1/red.gif","img/card_backs/set1/green.gif","img/card_backs/set1/yellow.gif","img/card_backs/set1/purple.gif","img/card_backs/set2/blue.gif","img/card_backs/set2/orange.gif","img/card_backs/set2/pink.gif","img/card_backs/set2/gray.gif","""event"",""trial"",""time""
""fullscreenenter"",""1"",""8976""
","
","
","""event"",""trial"",""time""
""fullscreenenter"",""1"",""8976""
","
","","727.8999999985099","","","","real_trial","2021-08-16 00:15:42.761","img/card_backs/set1/purple.gif","2","60","1","",""
"casino-fixation","84","380307","0.0-25.0-0.7","890","true","img/card_backs/set1/red.gif","img/card_backs/set1/green.gif","img/card_backs/set1/yellow.gif","img/card_backs/set1/purple.gif","img/card_backs/set2/blue.gif","img/card_backs/set2/orange.gif","img/card_backs/set2/pink.gif","img/card_backs/set2/gray.gif","""event"",""trial"",""time""
""fullscreenenter"",""1"",""8976""
","
","
","""event"",""trial"",""time""
""fullscreenenter"",""1"",""8976""
","
","","null","","null","","fixation","2021-08-16 00:15:43.269","","","","","",""
"card-selection-trial","85","383363","0.0-25.0-1.7","890","true","img/card_backs/set1/red.gif","img/card_backs/set1/green.gif","img/card_backs/set1/yellow.gif","img/card_backs/set1/purple.gif","img/card_backs/set2/blue.gif","img/card_backs/set2/orange.gif","img/card_backs/set2/pink.gif","img/card_backs/set2/gray.gif","""event"",""trial"",""time""
""fullscreenenter"",""1"",""8976""
","
","
","""event"",""trial"",""time""
""fullscreenenter"",""1"",""8976""
","
","","1045.1999999955297","","","","real_trial","2021-08-16 00:15:46.325","img/card_backs/set1/red.gif","1","240","1","",""
"casino-fixation","86","383870","0.0-25.0-0.8","890","true","img/card_backs/set1/red.gif","img/card_backs/set1/green.gif","img/card_backs/set1/yellow.gif","img/card_backs/set1/purple.gif","img/card_backs/set2/blue.gif","img/card_backs/set2/orange.gif","img/card_backs/set2/pink.gif","img/card_backs/set2/gray.gif","""event"",""trial"",""time""
""fullscreenenter"",""1"",""8976""
","
","
","""event"",""trial"",""time""
""fullscreenenter"",""1"",""8976""
","
","","null","","null","","fixation","2021-08-16 00:15:46.833","","","","","",""
"card-selection-trial","87","386638","0.0-25.0-1.8","890","true","img/card_backs/set1/red.gif","img/card_backs/set1/green.gif","img/card_backs/set1/yellow.gif","img/card_backs/set1/purple.gif","img/card_backs/set2/blue.gif","img/card_backs/set2/orange.gif","img/card_backs/set2/pink.gif","img/card_backs/set2/gray.gif","""event"",""trial"",""time""
""fullscreenenter"",""1"",""8976""
","
","
","""event"",""trial"",""time""
""fullscreenenter"",""1"",""8976""
","
","","689.5","","","","real_trial","2021-08-16 00:15:49.600","img/card_backs/set1/green.gif","0","250","1","",""
"casino-fixation","88","387142","0.0-25.0-0.9","890","true","img/card_backs/set1/red.gif","img/card_backs/set1/green.gif","img/card_backs/set1/yellow.gif","img/card_backs/set1/purple.gif","img/card_backs/set2/blue.gif","img/card_backs/set2/orange.gif","img/card_backs/set2/pink.gif","img/card_backs/set2/gray.gif","""event"",""trial"",""time""
""fullscreenenter"",""1"",""8976""
","
","
","""event"",""trial"",""time""
""fullscreenenter"",""1"",""8976""
","
","","null","","null","","fixation","2021-08-16 00:15:50.105","","","","","",""
"card-selection-trial","89","390041","0.0-25.0-1.9","890","true","img/card_backs/set1/red.gif","img/card_backs/set1/green.gif","img/card_backs/set1/yellow.gif","img/card_backs/set1/purple.gif","img/card_backs/set2/blue.gif","img/card_backs/set2/orange.gif","img/card_backs/set2/pink.gif","img/card_backs/set2/gray.gif","""event"",""trial"",""time""
""fullscreenenter"",""1"",""8976""
","
","
","""event"",""trial"",""time""
""fullscreenenter"",""1"",""8976""
","
","","881","","","","real_trial","2021-08-16 00:15:53.006","img/card_backs/set1/purple.gif","0","-110","1","",""
"casino-fixation","90","390558","0.0-25.0-0.10","890","true","img/card_backs/set1/red.gif","img/card_backs/set1/green.gif","img/card_backs/set1/yellow.gif","img/card_backs/set1/purple.gif","img/card_backs/set2/blue.gif","img/card_backs/set2/orange.gif","img/card_backs/set2/pink.gif","img/card_backs/set2/gray.gif","""event"",""trial"",""time""
""fullscreenenter"",""1"",""8976""
","
","
","""event"",""trial"",""time""
""fullscreenenter"",""1"",""8976""
","
","","null","","null","","fixation","2021-08-16 00:15:53.520","","","","","",""
"card-selection-trial","91","393646","0.0-25.0-1.10","890","true","img/card_backs/set1/red.gif","img/card_backs/set1/green.gif","img/card_backs/set1/yellow.gif","img/card_backs/set1/purple.gif","img/card_backs/set2/blue.gif","img/card_backs/set2/orange.gif","img/card_backs/set2/pink.gif","img/card_backs/set2/gray.gif","""event"",""trial"",""time""
""fullscreenenter"",""1"",""8976""
","
","
","""event"",""trial"",""time""
""fullscreenenter"",""1"",""8976""
","
","","1066.5","","","","real_trial","2021-08-16 00:15:56.608","img/card_backs/set1/green.gif","3","250","1","",""
"casino-fixation","92","394153","0.0-25.0-0.11","890","true","img/card_backs/set1/red.gif","img/card_backs/set1/green.gif","img/card_backs/set1/yellow.gif","img/card_backs/set1/purple.gif","img/card_backs/set2/blue.gif","img/card_backs/set2/orange.gif","img/card_backs/set2/pink.gif","img/card_backs/set2/gray.gif","""event"",""trial"",""time""
""fullscreenenter"",""1"",""8976""
","
","
","""event"",""trial"",""time""
""fullscreenenter"",""1"",""8976""
","
","","null","","null","","fixation","2021-08-16 00:15:57.115","","","","","",""
"card-selection-trial","93","397128","0.0-25.0-1.11","890","true","img/card_backs/set1/red.gif","img/card_backs/set1/green.gif","img/card_backs/set1/yellow.gif","img/card_backs/set1/purple.gif","img/card_backs/set2/blue.gif","img/card_backs/set2/orange.gif","img/card_backs/set2/pink.gif","img/card_backs/set2/gray.gif","""event"",""trial"",""time""
""fullscreenenter"",""1"",""8976""
","
","
","""event"",""trial"",""time""
""fullscreenenter"",""1"",""8976""
","
","","959","","","","real_trial","2021-08-16 00:16:00.091","img/card_backs/set1/red.gif","2","-200","1","",""
"casino-fixation","94","397635","0.0-25.0-0.12","890","true","img/card_backs/set1/red.gif","img/card_backs/set1/green.gif","img/card_backs/set1/yellow.gif","img/card_backs/set1/purple.gif","img/card_backs/set2/blue.gif","img/card_backs/set2/orange.gif","img/card_backs/set2/pink.gif","img/card_backs/set2/gray.gif","""event"",""trial"",""time""
""fullscreenenter"",""1"",""8976""
","
","
","""event"",""trial"",""time""
""fullscreenenter"",""1"",""8976""
","
","","null","","null","","fixation","2021-08-16 00:16:00.597","","","","","",""
"card-selection-trial","95","400643","0.0-25.0-1.12","890","true","img/card_backs/set1/red.gif","img/card_backs/set1/green.gif","img/card_backs/set1/yellow.gif","img/card_backs/set1/purple.gif","img/card_backs/set2/blue.gif","img/card_backs/set2/orange.gif","img/card_backs/set2/pink.gif","img/card_backs/set2/gray.gif","""event"",""trial"",""time""
""fullscreenenter"",""1"",""8976""
","
","
","""event"",""trial"",""time""
""fullscreenenter"",""1"",""8976""
","
","","995.3000000044703","","","","real_trial","2021-08-16 00:16:03.605","img/card_backs/set1/red.gif","3","-190","1","",""
"casino-fixation","96","401149","0.0-25.0-0.13","890","true","img/card_backs/set1/red.gif","img/card_backs/set1/green.gif","img/card_backs/set1/yellow.gif","img/card_backs/set1/purple.gif","img/card_backs/set2/blue.gif","img/card_backs/set2/orange.gif","img/card_backs/set2/pink.gif","img/card_backs/set2/gray.gif","""event"",""trial"",""time""
""fullscreenenter"",""1"",""8976""
","
","
","""event"",""trial"",""time""
""fullscreenenter"",""1"",""8976""
","
","","null","","null","","fixation","2021-08-16 00:16:04.111","","","","","",""
"card-selection-trial","97","403961","0.0-25.0-1.13","890","true","img/card_backs/set1/red.gif","img/card_backs/set1/green.gif","img/card_backs/set1/yellow.gif","img/card_backs/set1/purple.gif","img/card_backs/set2/blue.gif","img/card_backs/set2/orange.gif","img/card_backs/set2/pink.gif","img/card_backs/set2/gray.gif","""event"",""trial"",""time""
""fullscreenenter"",""1"",""8976""
","
","
","""event"",""trial"",""time""
""fullscreenenter"",""1"",""8976""
","
","","795","","","","real_trial","2021-08-16 00:16:06.923","img/card_backs/set1/green.gif","0","250","1","",""
"casino-fixation","98","404466","0.0-25.0-0.14","890","true","img/card_backs/set1/red.gif","img/card_backs/set1/green.gif","img/card_backs/set1/yellow.gif","img/card_backs/set1/purple.gif","img/card_backs/set2/blue.gif","img/card_backs/set2/orange.gif","img/card_backs/set2/pink.gif","img/card_backs/set2/gray.gif","""event"",""trial"",""time""
""fullscreenenter"",""1"",""8976""
","
","
","""event"",""trial"",""time""
""fullscreenenter"",""1"",""8976""
","
","","null","","null","","fixation","2021-08-16 00:16:07.429","","","","","",""
"card-selection-trial","99","407672","0.0-25.0-1.14","890","true","img/card_backs/set1/red.gif","img/card_backs/set1/green.gif","img/card_backs/set1/yellow.gif","img/card_backs/set1/purple.gif","img/card_backs/set2/blue.gif","img/card_backs/set2/orange.gif","img/card_backs/set2/pink.gif","img/card_backs/set2/gray.gif","""event"",""trial"",""time""
""fullscreenenter"",""1"",""8976""
","
","
","""event"",""trial"",""time""
""fullscreenenter"",""1"",""8976""
","
","","1191.1000000014901","","","","real_trial","2021-08-16 00:16:10.635","img/card_backs/set1/green.gif","3","-190","1","",""
"casino-fixation","100","408179","0.0-25.0-0.15","890","true","img/card_backs/set1/red.gif","img/card_backs/set1/green.gif","img/card_backs/set1/yellow.gif","img/card_backs/set1/purple.gif","img/card_backs/set2/blue.gif","img/card_backs/set2/orange.gif","img/card_backs/set2/pink.gif","img/card_backs/set2/gray.gif","""event"",""trial"",""time""
""fullscreenenter"",""1"",""8976""
","
","
","""event"",""trial"",""time""
""fullscreenenter"",""1"",""8976""
","
","","null","","null","","fixation","2021-08-16 00:16:11.141","","","","","",""
"card-selection-trial","101","411075","0.0-25.0-1.15","890","true","img/card_backs/set1/red.gif","img/card_backs/set1/green.gif","img/card_backs/set1/yellow.gif","img/card_backs/set1/purple.gif","img/card_backs/set2/blue.gif","img/card_backs/set2/orange.gif","img/card_backs/set2/pink.gif","img/card_backs/set2/gray.gif","""event"",""trial"",""time""
""fullscreenenter"",""1"",""8976""
","
","
","""event"",""trial"",""time""
""fullscreenenter"",""1"",""8976""
","
","","881.7999999970198","","","","real_trial","2021-08-16 00:16:14.037","img/card_backs/set1/green.gif","1","260","1","",""
"casino-fixation","102","411581","0.0-25.0-0.16","890","true","img/card_backs/set1/red.gif","img/card_backs/set1/green.gif","img/card_backs/set1/yellow.gif","img/card_backs/set1/purple.gif","img/card_backs/set2/blue.gif","img/card_backs/set2/orange.gif","img/card_backs/set2/pink.gif","img/card_backs/set2/gray.gif","""event"",""trial"",""time""
""fullscreenenter"",""1"",""8976""
","
","
","""event"",""trial"",""time""
""fullscreenenter"",""1"",""8976""
","
","","null","","null","","fixation","2021-08-16 00:16:14.544","","","","","",""
"card-selection-trial","103","414531","0.0-25.0-1.16","890","true","img/card_backs/set1/red.gif","img/card_backs/set1/green.gif","img/card_backs/set1/yellow.gif","img/card_backs/set1/purple.gif","img/card_backs/set2/blue.gif","img/card_backs/set2/orange.gif","img/card_backs/set2/pink.gif","img/card_backs/set2/gray.gif","""event"",""trial"",""time""
""fullscreenenter"",""1"",""8976""
","
","
","""event"",""trial"",""time""
""fullscreenenter"",""1"",""8976""
","
","","935.5","","","","real_trial","2021-08-16 00:16:17.493","img/card_backs/set1/green.gif","3","240","1","",""
"casino-fixation","104","415037","0.0-25.0-0.17","890","true","img/card_backs/set1/red.gif","img/card_backs/set1/green.gif","img/card_backs/set1/yellow.gif","img/card_backs/set1/purple.gif","img/card_backs/set2/blue.gif","img/card_backs/set2/orange.gif","img/card_backs/set2/pink.gif","img/card_backs/set2/gray.gif","""event"",""trial"",""time""
""fullscreenenter"",""1"",""8976""
","
","
","""event"",""trial"",""time""
""fullscreenenter"",""1"",""8976""
","
","","null","","null","","fixation","2021-08-16 00:16:18.000","","","","","",""
"card-selection-trial","105","419406","0.0-25.0-1.17","890","true","img/card_backs/set1/red.gif","img/card_backs/set1/green.gif","img/card_backs/set1/yellow.gif","img/card_backs/set1/purple.gif","img/card_backs/set2/blue.gif","img/card_backs/set2/orange.gif","img/card_backs/set2/pink.gif","img/card_backs/set2/gray.gif","""event"",""trial"",""time""
""fullscreenenter"",""1"",""8976""
","
","
","""event"",""trial"",""time""
""fullscreenenter"",""1"",""8976""
","
","","2352.10000000149","","","","real_trial","2021-08-16 00:16:22.368","img/card_backs/set1/yellow.gif","2","60","1","",""
"casino-fixation","106","419912","0.0-25.0-0.18","890","true","img/card_backs/set1/red.gif","img/card_backs/set1/green.gif","img/card_backs/set1/yellow.gif","img/card_backs/set1/purple.gif","img/card_backs/set2/blue.gif","img/card_backs/set2/orange.gif","img/card_backs/set2/pink.gif","img/card_backs/set2/gray.gif","""event"",""trial"",""time""
""fullscreenenter"",""1"",""8976""
","
","
","""event"",""trial"",""time""
""fullscreenenter"",""1"",""8976""
","
","","null","","null","","fixation","2021-08-16 00:16:22.874","","","","","",""
"card-selection-trial","107","423470","0.0-25.0-1.18","890","true","img/card_backs/set1/red.gif","img/card_backs/set1/green.gif","img/card_backs/set1/yellow.gif","img/card_backs/set1/purple.gif","img/card_backs/set2/blue.gif","img/card_backs/set2/orange.gif","img/card_backs/set2/pink.gif","img/card_backs/set2/gray.gif","""event"",""trial"",""time""
""fullscreenenter"",""1"",""8976""
","
","
","""event"",""trial"",""time""
""fullscreenenter"",""1"",""8976""
","
","","1541.2999999970198","","","","real_trial","2021-08-16 00:16:26.432","img/card_backs/set1/green.gif","1","260","1","",""
"casino-fixation","108","423976","0.0-25.0-0.19","890","true","img/card_backs/set1/red.gif","img/card_backs/set1/green.gif","img/card_backs/set1/yellow.gif","img/card_backs/set1/purple.gif","img/card_backs/set2/blue.gif","img/card_backs/set2/orange.gif","img/card_backs/set2/pink.gif","img/card_backs/set2/gray.gif","""event"",""trial"",""time""
""fullscreenenter"",""1"",""8976""
","
","
","""event"",""trial"",""time""
""fullscreenenter"",""1"",""8976""
","
","","null","","null","","fixation","2021-08-16 00:16:26.938","","","","","",""
"card-selection-trial","109","426550","0.0-25.0-1.19","890","true","img/card_backs/set1/red.gif","img/card_backs/set1/green.gif","img/card_backs/set1/yellow.gif","img/card_backs/set1/purple.gif","img/card_backs/set2/blue.gif","img/card_backs/set2/orange.gif","img/card_backs/set2/pink.gif","img/card_backs/set2/gray.gif","""event"",""trial"",""time""
""fullscreenenter"",""1"",""8976""
","
","
","""event"",""trial"",""time""
""fullscreenenter"",""1"",""8976""
","
","","561.6000000014901","","","","real_trial","2021-08-16 00:16:29.512","img/card_backs/set1/green.gif","1","-190","1","",""
"casino-fixation","110","427053","0.0-25.0-0.20","890","true","img/card_backs/set1/red.gif","img/card_backs/set1/green.gif","img/card_backs/set1/yellow.gif","img/card_backs/set1/purple.gif","img/card_backs/set2/blue.gif","img/card_backs/set2/orange.gif","img/card_backs/set2/pink.gif","img/card_backs/set2/gray.gif","""event"",""trial"",""time""
""fullscreenenter"",""1"",""8976""
","
","
","""event"",""trial"",""time""
""fullscreenenter"",""1"",""8976""
","
","","null","","null","","fixation","2021-08-16 00:16:30.015","","","","","",""
"card-selection-trial","111","430248","0.0-25.0-1.20","890","true","img/card_backs/set1/red.gif","img/card_backs/set1/green.gif","img/card_backs/set1/yellow.gif","img/card_backs/set1/purple.gif","img/card_backs/set2/blue.gif","img/card_backs/set2/orange.gif","img/card_backs/set2/pink.gif","img/card_backs/set2/gray.gif","""event"",""trial"",""time""
""fullscreenenter"",""1"",""8976""
","
","
","""event"",""trial"",""time""
""fullscreenenter"",""1"",""8976""
","
","","1179.6000000014901","","","","real_trial","2021-08-16 00:16:33.211","img/card_backs/set1/green.gif","2","250","1","",""
"casino-fixation","112","430754","0.0-25.0-0.21","890","true","img/card_backs/set1/red.gif","img/card_backs/set1/green.gif","img/card_backs/set1/yellow.gif","img/card_backs/set1/purple.gif","img/card_backs/set2/blue.gif","img/card_backs/set2/orange.gif","img/card_backs/set2/pink.gif","img/card_backs/set2/gray.gif","""event"",""trial"",""time""
""fullscreenenter"",""1"",""8976""
","
","
","""event"",""trial"",""time""
""fullscreenenter"",""1"",""8976""
","
","","null","","null","","fixation","2021-08-16 00:16:33.717","","","","","",""
"card-selection-trial","113","433406","0.0-25.0-1.21","890","true","img/card_backs/set1/red.gif","img/card_backs/set1/green.gif","img/card_backs/set1/yellow.gif","img/card_backs/set1/purple.gif","img/card_backs/set2/blue.gif","img/card_backs/set2/orange.gif","img/card_backs/set2/pink.gif","img/card_backs/set2/gray.gif","""event"",""trial"",""time""
""fullscreenenter"",""1"",""8976""
","
","
","""event"",""trial"",""time""
""fullscreenenter"",""1"",""8976""
","
","","635.7000000029802","","","","real_trial","2021-08-16 00:16:36.368","img/card_backs/set1/green.gif","2","-200","1","",""
"casino-fixation","114","433912","0.0-25.0-0.22","890","true","img/card_backs/set1/red.gif","img/card_backs/set1/green.gif","img/card_backs/set1/yellow.gif","img/card_backs/set1/purple.gif","img/card_backs/set2/blue.gif","img/card_backs/set2/orange.gif","img/card_backs/set2/pink.gif","img/card_backs/set2/gray.gif","""event"",""trial"",""time""
""fullscreenenter"",""1"",""8976""
","
","
","""event"",""trial"",""time""
""fullscreenenter"",""1"",""8976""
","
","","null","","null","","fixation","2021-08-16 00:16:36.874","","","","","",""
"card-selection-trial","115","437197","0.0-25.0-1.22","890","true","img/card_backs/set1/red.gif","img/card_backs/set1/green.gif","img/card_backs/set1/yellow.gif","img/card_backs/set1/purple.gif","img/card_backs/set2/blue.gif","img/card_backs/set2/orange.gif","img/card_backs/set2/pink.gif","img/card_backs/set2/gray.gif","""event"",""trial"",""time""
""fullscreenenter"",""1"",""8976""
","
","
","""event"",""trial"",""time""
""fullscreenenter"",""1"",""8976""
","
","","1270.3999999985099","","","","real_trial","2021-08-16 00:16:40.160","img/card_backs/set1/green.gif","3","-190","1","",""
"casino-fixation","116","437704","0.0-25.0-0.23","890","true","img/card_backs/set1/red.gif","img/card_backs/set1/green.gif","img/card_backs/set1/yellow.gif","img/card_backs/set1/purple.gif","img/card_backs/set2/blue.gif","img/card_backs/set2/orange.gif","img/card_backs/set2/pink.gif","img/card_backs/set2/gray.gif","""event"",""trial"",""time""
""fullscreenenter"",""1"",""8976""
","
","
","""event"",""trial"",""time""
""fullscreenenter"",""1"",""8976""
","
","","null","","null","","fixation","2021-08-16 00:16:40.666","","","","","",""
"card-selection-trial","117","440461","0.0-25.0-1.23","890","true","img/card_backs/set1/red.gif","img/card_backs/set1/green.gif","img/card_backs/set1/yellow.gif","img/card_backs/set1/purple.gif","img/card_backs/set2/blue.gif","img/card_backs/set2/orange.gif","img/card_backs/set2/pink.gif","img/card_backs/set2/gray.gif","""event"",""trial"",""time""
""fullscreenenter"",""1"",""8976""
","
","
","""event"",""trial"",""time""
""fullscreenenter"",""1"",""8976""
","
","","742","","","","real_trial","2021-08-16 00:16:43.424","img/card_backs/set1/yellow.gif","3","50","1","",""
"casino-fixation","118","440968","0.0-25.0-0.24","890","true","img/card_backs/set1/red.gif","img/card_backs/set1/green.gif","img/card_backs/set1/yellow.gif","img/card_backs/set1/purple.gif","img/card_backs/set2/blue.gif","img/card_backs/set2/orange.gif","img/card_backs/set2/pink.gif","img/card_backs/set2/gray.gif","""event"",""trial"",""time""
""fullscreenenter"",""1"",""8976""
","
","
","""event"",""trial"",""time""
""fullscreenenter"",""1"",""8976""
","
","","null","","null","","fixation","2021-08-16 00:16:43.930","","","","","",""
"card-selection-trial","119","444824","0.0-25.0-1.24","890","true","img/card_backs/set1/red.gif","img/card_backs/set1/green.gif","img/card_backs/set1/yellow.gif","img/card_backs/set1/purple.gif","img/card_backs/set2/blue.gif","img/card_backs/set2/orange.gif","img/card_backs/set2/pink.gif","img/card_backs/set2/gray.gif","""event"",""trial"",""time""
""fullscreenenter"",""1"",""8976""
","
","
","""event"",""trial"",""time""
""fullscreenenter"",""1"",""8976""
","
","","1840.5999999940395","","","","real_trial","2021-08-16 00:16:47.787","img/card_backs/set1/green.gif","1","-190","1","",""
"casino-fixation","120","445330","0.0-25.0-0.25","890","true","img/card_backs/set1/red.gif","img/card_backs/set1/green.gif","img/card_backs/set1/yellow.gif","img/card_backs/set1/purple.gif","img/card_backs/set2/blue.gif","img/card_backs/set2/orange.gif","img/card_backs/set2/pink.gif","img/card_backs/set2/gray.gif","""event"",""trial"",""time""
""fullscreenenter"",""1"",""8976""
","
","
","""event"",""trial"",""time""
""fullscreenenter"",""1"",""8976""
","
","","null","","null","","fixation","2021-08-16 00:16:48.293","","","","","",""
"card-selection-trial","121","449043","0.0-25.0-1.25","890","true","img/card_backs/set1/red.gif","img/card_backs/set1/green.gif","img/card_backs/set1/yellow.gif","img/card_backs/set1/purple.gif","img/card_backs/set2/blue.gif","img/card_backs/set2/orange.gif","img/card_backs/set2/pink.gif","img/card_backs/set2/gray.gif","""event"",""trial"",""time""
""fullscreenenter"",""1"",""8976""
","
","
","""event"",""trial"",""time""
""fullscreenenter"",""1"",""8976""
","
","","1697","","","","real_trial","2021-08-16 00:16:52.005","img/card_backs/set1/green.gif","2","-190","1","",""
"casino-fixation","122","449549","0.0-25.0-0.26","890","true","img/card_backs/set1/red.gif","img/card_backs/set1/green.gif","img/card_backs/set1/yellow.gif","img/card_backs/set1/purple.gif","img/card_backs/set2/blue.gif","img/card_backs/set2/orange.gif","img/card_backs/set2/pink.gif","img/card_backs/set2/gray.gif","""event"",""trial"",""time""
""fullscreenenter"",""1"",""8976""
","
","
","""event"",""trial"",""time""
""fullscreenenter"",""1"",""8976""
","
","","null","","null","","fixation","2021-08-16 00:16:52.511","","","","","",""
"card-selection-trial","123","452461","0.0-25.0-1.26","890","true","img/card_backs/set1/red.gif","img/card_backs/set1/green.gif","img/card_backs/set1/yellow.gif","img/card_backs/set1/purple.gif","img/card_backs/set2/blue.gif","img/card_backs/set2/orange.gif","img/card_backs/set2/pink.gif","img/card_backs/set2/gray.gif","""event"",""trial"",""time""
""fullscreenenter"",""1"",""8976""
","
","
","""event"",""trial"",""time""
""fullscreenenter"",""1"",""8976""
","
","","899.6000000014901","","","","real_trial","2021-08-16 00:16:55.424","img/card_backs/set1/yellow.gif","1","60","1","",""
"casino-fixation","124","452968","0.0-25.0-0.27","890","true","img/card_backs/set1/red.gif","img/card_backs/set1/green.gif","img/card_backs/set1/yellow.gif","img/card_backs/set1/purple.gif","img/card_backs/set2/blue.gif","img/card_backs/set2/orange.gif","img/card_backs/set2/pink.gif","img/card_backs/set2/gray.gif","""event"",""trial"",""time""
""fullscreenenter"",""1"",""8976""
","
","
","""event"",""trial"",""time""
""fullscreenenter"",""1"",""8976""
","
","","null","","null","","fixation","2021-08-16 00:16:55.930","","","","","",""
"card-selection-trial","125","456867","0.0-25.0-1.27","890","true","img/card_backs/set1/red.gif","img/card_backs/set1/green.gif","img/card_backs/set1/yellow.gif","img/card_backs/set1/purple.gif","img/card_backs/set2/blue.gif","img/card_backs/set2/orange.gif","img/card_backs/set2/pink.gif","img/card_backs/set2/gray.gif","""event"",""trial"",""time""
""fullscreenenter"",""1"",""8976""
","
","
","""event"",""trial"",""time""
""fullscreenenter"",""1"",""8976""
","
","","1886.1000000014901","","","","real_trial","2021-08-16 00:16:59.829","img/card_backs/set1/green.gif","3","260","1","",""
"casino-fixation","126","457373","0.0-25.0-0.28","890","true","img/card_backs/set1/red.gif","img/card_backs/set1/green.gif","img/card_backs/set1/yellow.gif","img/card_backs/set1/purple.gif","img/card_backs/set2/blue.gif","img/card_backs/set2/orange.gif","img/card_backs/set2/pink.gif","img/card_backs/set2/gray.gif","""event"",""trial"",""time""
""fullscreenenter"",""1"",""8976""
","
","
","""event"",""trial"",""time""
""fullscreenenter"",""1"",""8976""
","
","","null","","null","","fixation","2021-08-16 00:17:00.335","","","","","",""
"card-selection-trial","127","460253","0.0-25.0-1.28","890","true","img/card_backs/set1/red.gif","img/card_backs/set1/green.gif","img/card_backs/set1/yellow.gif","img/card_backs/set1/purple.gif","img/card_backs/set2/blue.gif","img/card_backs/set2/orange.gif","img/card_backs/set2/pink.gif","img/card_backs/set2/gray.gif","""event"",""trial"",""time""
""fullscreenenter"",""1"",""8976""
","
","
","""event"",""trial"",""time""
""fullscreenenter"",""1"",""8976""
","
","","862.6999999955297","","","","real_trial","2021-08-16 00:17:03.215","img/card_backs/set1/green.gif","3","260","1","",""
"casino-fixation","128","460760","0.0-25.0-0.29","890","true","img/card_backs/set1/red.gif","img/card_backs/set1/green.gif","img/card_backs/set1/yellow.gif","img/card_backs/set1/purple.gif","img/card_backs/set2/blue.gif","img/card_backs/set2/orange.gif","img/card_backs/set2/pink.gif","img/card_backs/set2/gray.gif","""event"",""trial"",""time""
""fullscreenenter"",""1"",""8976""
","
","
","""event"",""trial"",""time""
""fullscreenenter"",""1"",""8976""
","
","","null","","null","","fixation","2021-08-16 00:17:03.722","","","","","",""
"card-selection-trial","129","464013","0.0-25.0-1.29","890","true","img/card_backs/set1/red.gif","img/card_backs/set1/green.gif","img/card_backs/set1/yellow.gif","img/card_backs/set1/purple.gif","img/card_backs/set2/blue.gif","img/card_backs/set2/orange.gif","img/card_backs/set2/pink.gif","img/card_backs/set2/gray.gif","""event"",""trial"",""time""
""fullscreenenter"",""1"",""8976""
","
","
","""event"",""trial"",""time""
""fullscreenenter"",""1"",""8976""
","
","","1217.1000000014901","","","","real_trial","2021-08-16 00:17:06.976","img/card_backs/set1/green.gif","0","-210","1","",""
"casino-fixation","130","464520","0.0-25.0-0.30","890","true","img/card_backs/set1/red.gif","img/card_backs/set1/green.gif","img/card_backs/set1/yellow.gif","img/card_backs/set1/purple.gif","img/card_backs/set2/blue.gif","img/card_backs/set2/orange.gif","img/card_backs/set2/pink.gif","img/card_backs/set2/gray.gif","""event"",""trial"",""time""
""fullscreenenter"",""1"",""8976""
","
","
","""event"",""trial"",""time""
""fullscreenenter"",""1"",""8976""
","
","","null","","null","","fixation","2021-08-16 00:17:07.482","","","","","",""
"card-selection-trial","131","467240","0.0-25.0-1.30","890","true","img/card_backs/set1/red.gif","img/card_backs/set1/green.gif","img/card_backs/set1/yellow.gif","img/card_backs/set1/purple.gif","img/card_backs/set2/blue.gif","img/card_backs/set2/orange.gif","img/card_backs/set2/pink.gif","img/card_backs/set2/gray.gif","""event"",""trial"",""time""
""fullscreenenter"",""1"",""8976""
","
","
","""event"",""trial"",""time""
""fullscreenenter"",""1"",""8976""
","
","","704.1999999955297","","","","real_trial","2021-08-16 00:17:10.202","img/card_backs/set1/red.gif","0","250","1","",""
"casino-fixation","132","467746","0.0-25.0-0.31","890","true","img/card_backs/set1/red.gif","img/card_backs/set1/green.gif","img/card_backs/set1/yellow.gif","img/card_backs/set1/purple.gif","img/card_backs/set2/blue.gif","img/card_backs/set2/orange.gif","img/card_backs/set2/pink.gif","img/card_backs/set2/gray.gif","""event"",""trial"",""time""
""fullscreenenter"",""1"",""8976""
","
","
","""event"",""trial"",""time""
""fullscreenenter"",""1"",""8976""
","
","","null","","null","","fixation","2021-08-16 00:17:10.708","","","","","",""
"card-selection-trial","133","470605","0.0-25.0-1.31","890","true","img/card_backs/set1/red.gif","img/card_backs/set1/green.gif","img/card_backs/set1/yellow.gif","img/card_backs/set1/purple.gif","img/card_backs/set2/blue.gif","img/card_backs/set2/orange.gif","img/card_backs/set2/pink.gif","img/card_backs/set2/gray.gif","""event"",""trial"",""time""
""fullscreenenter"",""1"",""8976""
","
","
","""event"",""trial"",""time""
""fullscreenenter"",""1"",""8976""
","
","","844.6000000014901","","","","real_trial","2021-08-16 00:17:13.568","img/card_backs/set1/green.gif","3","-200","1","",""
"casino-fixation","134","471112","0.0-25.0-0.32","890","true","img/card_backs/set1/red.gif","img/card_backs/set1/green.gif","img/card_backs/set1/yellow.gif","img/card_backs/set1/purple.gif","img/card_backs/set2/blue.gif","img/card_backs/set2/orange.gif","img/card_backs/set2/pink.gif","img/card_backs/set2/gray.gif","""event"",""trial"",""time""
""fullscreenenter"",""1"",""8976""
","
","
","""event"",""trial"",""time""
""fullscreenenter"",""1"",""8976""
","
","","null","","null","","fixation","2021-08-16 00:17:14.074","","","","","",""
"card-selection-trial","135","474120","0.0-25.0-1.32","890","true","img/card_backs/set1/red.gif","img/card_backs/set1/green.gif","img/card_backs/set1/yellow.gif","img/card_backs/set1/purple.gif","img/card_backs/set2/blue.gif","img/card_backs/set2/orange.gif","img/card_backs/set2/pink.gif","img/card_backs/set2/gray.gif","""event"",""trial"",""time""
""fullscreenenter"",""1"",""8976""
","
","
","""event"",""trial"",""time""
""fullscreenenter"",""1"",""8976""
","
","","994.3000000044703","","","","real_trial","2021-08-16 00:17:17.082","img/card_backs/set1/green.gif","0","-210","1","",""
"casino-fixation","136","474626","0.0-25.0-0.33","890","true","img/card_backs/set1/red.gif","img/card_backs/set1/green.gif","img/card_backs/set1/yellow.gif","img/card_backs/set1/purple.gif","img/card_backs/set2/blue.gif","img/card_backs/set2/orange.gif","img/card_backs/set2/pink.gif","img/card_backs/set2/gray.gif","""event"",""trial"",""time""
""fullscreenenter"",""1"",""8976""
","
","
","""event"",""trial"",""time""
""fullscreenenter"",""1"",""8976""
","
","","null","","null","","fixation","2021-08-16 00:17:17.588","","","","","",""
"card-selection-trial","137","478024","0.0-25.0-1.33","890","true","img/card_backs/set1/red.gif","img/card_backs/set1/green.gif","img/card_backs/set1/yellow.gif","img/card_backs/set1/purple.gif","img/card_backs/set2/blue.gif","img/card_backs/set2/orange.gif","img/card_backs/set2/pink.gif","img/card_backs/set2/gray.gif","""event"",""trial"",""time""
""fullscreenenter"",""1"",""8976""
","
","
","""event"",""trial"",""time""
""fullscreenenter"",""1"",""8976""
","
","","1382.8999999985099","","","","real_trial","2021-08-16 00:17:20.986","img/card_backs/set1/purple.gif","1","50","1","",""
"casino-fixation","138","478530","0.0-25.0-0.34","890","true","img/card_backs/set1/red.gif","img/card_backs/set1/green.gif","img/card_backs/set1/yellow.gif","img/card_backs/set1/purple.gif","img/card_backs/set2/blue.gif","img/card_backs/set2/orange.gif","img/card_backs/set2/pink.gif","img/card_backs/set2/gray.gif","""event"",""trial"",""time""
""fullscreenenter"",""1"",""8976""
","
","
","""event"",""trial"",""time""
""fullscreenenter"",""1"",""8976""
","
","","null","","null","","fixation","2021-08-16 00:17:21.492","","","","","",""
"card-selection-trial","139","481762","0.0-25.0-1.34","890","true","img/card_backs/set1/red.gif","img/card_backs/set1/green.gif","img/card_backs/set1/yellow.gif","img/card_backs/set1/purple.gif","img/card_backs/set2/blue.gif","img/card_backs/set2/orange.gif","img/card_backs/set2/pink.gif","img/card_backs/set2/gray.gif","""event"",""trial"",""time""
""fullscreenenter"",""1"",""8976""
","
","
","""event"",""trial"",""time""
""fullscreenenter"",""1"",""8976""
","
","","1214.5","","","","real_trial","2021-08-16 00:17:24.725","img/card_backs/set1/yellow.gif","2","-110","1","",""
"casino-fixation","140","482269","0.0-25.0-0.35","890","true","img/card_backs/set1/red.gif","img/card_backs/set1/green.gif","img/card_backs/set1/yellow.gif","img/card_backs/set1/purple.gif","img/card_backs/set2/blue.gif","img/card_backs/set2/orange.gif","img/card_backs/set2/pink.gif","img/card_backs/set2/gray.gif","""event"",""trial"",""time""
""fullscreenenter"",""1"",""8976""
","
","
","""event"",""trial"",""time""
""fullscreenenter"",""1"",""8976""
","
","","null","","null","","fixation","2021-08-16 00:17:25.231","","","","","",""
"card-selection-trial","141","485848","0.0-25.0-1.35","890","true","img/card_backs/set1/red.gif","img/card_backs/set1/green.gif","img/card_backs/set1/yellow.gif","img/card_backs/set1/purple.gif","img/card_backs/set2/blue.gif","img/card_backs/set2/orange.gif","img/card_backs/set2/pink.gif","img/card_backs/set2/gray.gif","""event"",""trial"",""time""
""fullscreenenter"",""1"",""8976""
","
","
","""event"",""trial"",""time""
""fullscreenenter"",""1"",""8976""
","
","","1564","","","","real_trial","2021-08-16 00:17:28.810","img/card_backs/set1/green.gif","1","-190","1","",""
"casino-fixation","142","486354","0.0-25.0-0.36","890","true","img/card_backs/set1/red.gif","img/card_backs/set1/green.gif","img/card_backs/set1/yellow.gif","img/card_backs/set1/purple.gif","img/card_backs/set2/blue.gif","img/card_backs/set2/orange.gif","img/card_backs/set2/pink.gif","img/card_backs/set2/gray.gif","""event"",""trial"",""time""
""fullscreenenter"",""1"",""8976""
","
","
","""event"",""trial"",""time""
""fullscreenenter"",""1"",""8976""
","
","","null","","null","","fixation","2021-08-16 00:17:29.316","","","","","",""
"card-selection-trial","143","490669","0.0-25.0-1.36","890","true","img/card_backs/set1/red.gif","img/card_backs/set1/green.gif","img/card_backs/set1/yellow.gif","img/card_backs/set1/purple.gif","img/card_backs/set2/blue.gif","img/card_backs/set2/orange.gif","img/card_backs/set2/pink.gif","img/card_backs/set2/gray.gif","""event"",""trial"",""time""
""fullscreenenter"",""1"",""8976""
","
","
","""event"",""trial"",""time""
""fullscreenenter"",""1"",""8976""
","
","","2302.5","","","","real_trial","2021-08-16 00:17:33.632","img/card_backs/set1/green.gif","0","-210","1","",""
"casino-fixation","144","491175","0.0-25.0-0.37","890","true","img/card_backs/set1/red.gif","img/card_backs/set1/green.gif","img/card_backs/set1/yellow.gif","img/card_backs/set1/purple.gif","img/card_backs/set2/blue.gif","img/card_backs/set2/orange.gif","img/card_backs/set2/pink.gif","img/card_backs/set2/gray.gif","""event"",""trial"",""time""
""fullscreenenter"",""1"",""8976""
","
","
","""event"",""trial"",""time""
""fullscreenenter"",""1"",""8976""
","
","","null","","null","","fixation","2021-08-16 00:17:34.138","","","","","",""
"card-selection-trial","145","494712","0.0-25.0-1.37","890","true","img/card_backs/set1/red.gif","img/card_backs/set1/green.gif","img/card_backs/set1/yellow.gif","img/card_backs/set1/purple.gif","img/card_backs/set2/blue.gif","img/card_backs/set2/orange.gif","img/card_backs/set2/pink.gif","img/card_backs/set2/gray.gif","""event"",""trial"",""time""
""fullscreenenter"",""1"",""8976""
","
","
","""event"",""trial"",""time""
""fullscreenenter"",""1"",""8976""
","
","","1522.3999999985099","","","","real_trial","2021-08-16 00:17:37.674","img/card_backs/set1/purple.gif","1","50","1","",""
"casino-fixation","146","495216","0.0-25.0-0.38","890","true","img/card_backs/set1/red.gif","img/card_backs/set1/green.gif","img/card_backs/set1/yellow.gif","img/card_backs/set1/purple.gif","img/card_backs/set2/blue.gif","img/card_backs/set2/orange.gif","img/card_backs/set2/pink.gif","img/card_backs/set2/gray.gif","""event"",""trial"",""time""
""fullscreenenter"",""1"",""8976""
","
","
","""event"",""trial"",""time""
""fullscreenenter"",""1"",""8976""
","
","","null","","null","","fixation","2021-08-16 00:17:38.178","","","","","",""
"card-selection-trial","147","498008","0.0-25.0-1.38","890","true","img/card_backs/set1/red.gif","img/card_backs/set1/green.gif","img/card_backs/set1/yellow.gif","img/card_backs/set1/purple.gif","img/card_backs/set2/blue.gif","img/card_backs/set2/orange.gif","img/card_backs/set2/pink.gif","img/card_backs/set2/gray.gif","""event"",""trial"",""time""
""fullscreenenter"",""1"",""8976""
","
","
","""event"",""trial"",""time""
""fullscreenenter"",""1"",""8976""
","
","","780.5999999940395","","","","real_trial","2021-08-16 00:17:40.970","img/card_backs/set1/yellow.gif","2","40","1","",""
"casino-fixation","148","498514","0.0-25.0-0.39","890","true","img/card_backs/set1/red.gif","img/card_backs/set1/green.gif","img/card_backs/set1/yellow.gif","img/card_backs/set1/purple.gif","img/card_backs/set2/blue.gif","img/card_backs/set2/orange.gif","img/card_backs/set2/pink.gif","img/card_backs/set2/gray.gif","""event"",""trial"",""time""
""fullscreenenter"",""1"",""8976""
","
","
","""event"",""trial"",""time""
""fullscreenenter"",""1"",""8976""
","
","","null","","null","","fixation","2021-08-16 00:17:41.476","","","","","",""
"card-selection-trial","149","501288","0.0-25.0-1.39","890","true","img/card_backs/set1/red.gif","img/card_backs/set1/green.gif","img/card_backs/set1/yellow.gif","img/card_backs/set1/purple.gif","img/card_backs/set2/blue.gif","img/card_backs/set2/orange.gif","img/card_backs/set2/pink.gif","img/card_backs/set2/gray.gif","""event"",""trial"",""time""
""fullscreenenter"",""1"",""8976""
","
","
","""event"",""trial"",""time""
""fullscreenenter"",""1"",""8976""
","
","","758.1000000014901","","","","real_trial","2021-08-16 00:17:44.250","img/card_backs/set1/green.gif","2","260","1","",""
"casino-fixation","150","501794","0.0-25.0-0.40","890","true","img/card_backs/set1/red.gif","img/card_backs/set1/green.gif","img/card_backs/set1/yellow.gif","img/card_backs/set1/purple.gif","img/card_backs/set2/blue.gif","img/card_backs/set2/orange.gif","img/card_backs/set2/pink.gif","img/card_backs/set2/gray.gif","""event"",""trial"",""time""
""fullscreenenter"",""1"",""8976""
","
","
","""event"",""trial"",""time""
""fullscreenenter"",""1"",""8976""
","
","","null","","null","","fixation","2021-08-16 00:17:44.756","","","","","",""
"card-selection-trial","151","504936","0.0-25.0-1.40","890","true","img/card_backs/set1/red.gif","img/card_backs/set1/green.gif","img/card_backs/set1/yellow.gif","img/card_backs/set1/purple.gif","img/card_backs/set2/blue.gif","img/card_backs/set2/orange.gif","img/card_backs/set2/pink.gif","img/card_backs/set2/gray.gif","""event"",""trial"",""time""
""fullscreenenter"",""1"",""8976""
","
","
","""event"",""trial"",""time""
""fullscreenenter"",""1"",""8976""
","
","","1125","","","","real_trial","2021-08-16 00:17:47.898","img/card_backs/set1/green.gif","0","260","1","",""
"casino-fixation","152","505442","0.0-25.0-0.41","890","true","img/card_backs/set1/red.gif","img/card_backs/set1/green.gif","img/card_backs/set1/yellow.gif","img/card_backs/set1/purple.gif","img/card_backs/set2/blue.gif","img/card_backs/set2/orange.gif","img/card_backs/set2/pink.gif","img/card_backs/set2/gray.gif","""event"",""trial"",""time""
""fullscreenenter"",""1"",""8976""
","
","
","""event"",""trial"",""time""
""fullscreenenter"",""1"",""8976""
","
","","null","","null","","fixation","2021-08-16 00:17:48.404","","","","","",""
"card-selection-trial","153","509149","0.0-25.0-1.41","890","true","img/card_backs/set1/red.gif","img/card_backs/set1/green.gif","img/card_backs/set1/yellow.gif","img/card_backs/set1/purple.gif","img/card_backs/set2/blue.gif","img/card_backs/set2/orange.gif","img/card_backs/set2/pink.gif","img/card_backs/set2/gray.gif","""event"",""trial"",""time""
""fullscreenenter"",""1"",""8976""
","
","
","""event"",""trial"",""time""
""fullscreenenter"",""1"",""8976""
","
","","1669.2999999970198","","","","real_trial","2021-08-16 00:17:52.111","img/card_backs/set1/green.gif","3","260","1","",""
"casino-fixation","154","509660","0.0-25.0-0.42","890","true","img/card_backs/set1/red.gif","img/card_backs/set1/green.gif","img/card_backs/set1/yellow.gif","img/card_backs/set1/purple.gif","img/card_backs/set2/blue.gif","img/card_backs/set2/orange.gif","img/card_backs/set2/pink.gif","img/card_backs/set2/gray.gif","""event"",""trial"",""time""
""fullscreenenter"",""1"",""8976""
","
","
","""event"",""trial"",""time""
""fullscreenenter"",""1"",""8976""
","
","","null","","null","","fixation","2021-08-16 00:17:52.624","","","","","",""
"card-selection-trial","155","513603","0.0-25.0-1.42","890","true","img/card_backs/set1/red.gif","img/card_backs/set1/green.gif","img/card_backs/set1/yellow.gif","img/card_backs/set1/purple.gif","img/card_backs/set2/blue.gif","img/card_backs/set2/orange.gif","img/card_backs/set2/pink.gif","img/card_backs/set2/gray.gif","""event"",""trial"",""time""
""fullscreenenter"",""1"",""8976""
","
","
","""event"",""trial"",""time""
""fullscreenenter"",""1"",""8976""
","
","","1920.4000000059605","","","","real_trial","2021-08-16 00:17:56.566","img/card_backs/set1/green.gif","3","-200","1","",""
"casino-fixation","156","514114","0.0-25.0-0.43","890","true","img/card_backs/set1/red.gif","img/card_backs/set1/green.gif","img/card_backs/set1/yellow.gif","img/card_backs/set1/purple.gif","img/card_backs/set2/blue.gif","img/card_backs/set2/orange.gif","img/card_backs/set2/pink.gif","img/card_backs/set2/gray.gif","""event"",""trial"",""time""
""fullscreenenter"",""1"",""8976""
","
","
","""event"",""trial"",""time""
""fullscreenenter"",""1"",""8976""
","
","","null","","null","","fixation","2021-08-16 00:17:57.077","","","","","",""
"card-selection-trial","157","516914","0.0-25.0-1.43","890","true","img/card_backs/set1/red.gif","img/card_backs/set1/green.gif","img/card_backs/set1/yellow.gif","img/card_backs/set1/purple.gif","img/card_backs/set2/blue.gif","img/card_backs/set2/orange.gif","img/card_backs/set2/pink.gif","img/card_backs/set2/gray.gif","""event"",""trial"",""time""
""fullscreenenter"",""1"",""8976""
","
","
","""event"",""trial"",""time""
""fullscreenenter"",""1"",""8976""
","
","","787.1000000014901","","","","real_trial","2021-08-16 00:17:59.877","img/card_backs/set1/green.gif","3","250","1","",""
"casino-fixation","158","517421","0.0-25.0-0.44","890","true","img/card_backs/set1/red.gif","img/card_backs/set1/green.gif","img/card_backs/set1/yellow.gif","img/card_backs/set1/purple.gif","img/card_backs/set2/blue.gif","img/card_backs/set2/orange.gif","img/card_backs/set2/pink.gif","img/card_backs/set2/gray.gif","""event"",""trial"",""time""
""fullscreenenter"",""1"",""8976""
","
","
","""event"",""trial"",""time""
""fullscreenenter"",""1"",""8976""
","
","","null","","null","","fixation","2021-08-16 00:18:00.383","","","","","",""
"card-selection-trial","159","520418","0.0-25.0-1.44","890","true","img/card_backs/set1/red.gif","img/card_backs/set1/green.gif","img/card_backs/set1/yellow.gif","img/card_backs/set1/purple.gif","img/card_backs/set2/blue.gif","img/card_backs/set2/orange.gif","img/card_backs/set2/pink.gif","img/card_backs/set2/gray.gif","""event"",""trial"",""time""
""fullscreenenter"",""1"",""8976""
","
","
","""event"",""trial"",""time""
""fullscreenenter"",""1"",""8976""
","
","","980.8999999985099","","","","real_trial","2021-08-16 00:18:03.381","img/card_backs/set1/green.gif","0","260","1","",""
"casino-fixation","160","520925","0.0-25.0-0.45","890","true","img/card_backs/set1/red.gif","img/card_backs/set1/green.gif","img/card_backs/set1/yellow.gif","img/card_backs/set1/purple.gif","img/card_backs/set2/blue.gif","img/card_backs/set2/orange.gif","img/card_backs/set2/pink.gif","img/card_backs/set2/gray.gif","""event"",""trial"",""time""
""fullscreenenter"",""1"",""8976""
","
","
","""event"",""trial"",""time""
""fullscreenenter"",""1"",""8976""
","
","","null","","null","","fixation","2021-08-16 00:18:03.887","","","","","",""
"card-selection-trial","161","525048","0.0-25.0-1.45","890","true","img/card_backs/set1/red.gif","img/card_backs/set1/green.gif","img/card_backs/set1/yellow.gif","img/card_backs/set1/purple.gif","img/card_backs/set2/blue.gif","img/card_backs/set2/orange.gif","img/card_backs/set2/pink.gif","img/card_backs/set2/gray.gif","""event"",""trial"",""time""
""fullscreenenter"",""1"",""8976""
","
","
","""event"",""trial"",""time""
""fullscreenenter"",""1"",""8976""
","
","","2106.3000000044703","","","","real_trial","2021-08-16 00:18:08.010","img/card_backs/set1/green.gif","3","-210","1","",""
"casino-fixation","162","525554","0.0-25.0-0.46","890","true","img/card_backs/set1/red.gif","img/card_backs/set1/green.gif","img/card_backs/set1/yellow.gif","img/card_backs/set1/purple.gif","img/card_backs/set2/blue.gif","img/card_backs/set2/orange.gif","img/card_backs/set2/pink.gif","img/card_backs/set2/gray.gif","""event"",""trial"",""time""
""fullscreenenter"",""1"",""8976""
","
","
","""event"",""trial"",""time""
""fullscreenenter"",""1"",""8976""
","
","","null","","null","","fixation","2021-08-16 00:18:08.516","","","","","",""
"card-selection-trial","163","528104","0.0-25.0-1.46","890","true","img/card_backs/set1/red.gif","img/card_backs/set1/green.gif","img/card_backs/set1/yellow.gif","img/card_backs/set1/purple.gif","img/card_backs/set2/blue.gif","img/card_backs/set2/orange.gif","img/card_backs/set2/pink.gif","img/card_backs/set2/gray.gif","""event"",""trial"",""time""
""fullscreenenter"",""1"",""8976""
","
","
","""event"",""trial"",""time""
""fullscreenenter"",""1"",""8976""
","
","","535.6999999955297","","","","real_trial","2021-08-16 00:18:11.066","img/card_backs/set1/green.gif","0","-190","1","",""
"casino-fixation","164","528610","0.0-25.0-0.47","890","true","img/card_backs/set1/red.gif","img/card_backs/set1/green.gif","img/card_backs/set1/yellow.gif","img/card_backs/set1/purple.gif","img/card_backs/set2/blue.gif","img/card_backs/set2/orange.gif","img/card_backs/set2/pink.gif","img/card_backs/set2/gray.gif","""event"",""trial"",""time""
""fullscreenenter"",""1"",""8976""
","
","
","""event"",""trial"",""time""
""fullscreenenter"",""1"",""8976""
","
","","null","","null","","fixation","2021-08-16 00:18:11.572","","","","","",""
"card-selection-trial","165","531400","0.0-25.0-1.47","890","true","img/card_backs/set1/red.gif","img/card_backs/set1/green.gif","img/card_backs/set1/yellow.gif","img/card_backs/set1/purple.gif","img/card_backs/set2/blue.gif","img/card_backs/set2/orange.gif","img/card_backs/set2/pink.gif","img/card_backs/set2/gray.gif","""event"",""trial"",""time""
""fullscreenenter"",""1"",""8976""
","
","
","""event"",""trial"",""time""
""fullscreenenter"",""1"",""8976""
","
","","773.7999999970198","","","","real_trial","2021-08-16 00:18:14.362","img/card_backs/set1/yellow.gif","3","-100","1","",""
"casino-fixation","166","531906","0.0-25.0-0.48","890","true","img/card_backs/set1/red.gif","img/card_backs/set1/green.gif","img/card_backs/set1/yellow.gif","img/card_backs/set1/purple.gif","img/card_backs/set2/blue.gif","img/card_backs/set2/orange.gif","img/card_backs/set2/pink.gif","img/card_backs/set2/gray.gif","""event"",""trial"",""time""
""fullscreenenter"",""1"",""8976""
","
","
","""event"",""trial"",""time""
""fullscreenenter"",""1"",""8976""
","
","","null","","null","","fixation","2021-08-16 00:18:14.868","","","","","",""
"card-selection-trial","167","535320","0.0-25.0-1.48","890","true","img/card_backs/set1/red.gif","img/card_backs/set1/green.gif","img/card_backs/set1/yellow.gif","img/card_backs/set1/purple.gif","img/card_backs/set2/blue.gif","img/card_backs/set2/orange.gif","img/card_backs/set2/pink.gif","img/card_backs/set2/gray.gif","""event"",""trial"",""time""
""fullscreenenter"",""1"",""8976""
","
","
","""event"",""trial"",""time""
""fullscreenenter"",""1"",""8976""
","
","","1397.2000000029802","","","","real_trial","2021-08-16 00:18:18.282","img/card_backs/set1/green.gif","1","240","1","",""
