"trial_type","trial_index","time_elapsed","internal_node_id","sub_id","risk_good_first","block1_A","block1_B","block1_C","block1_D","block2_A","block2_B","block2_C","block2_D","interactions","blur_events","focus_events","fullscreenenter_events","fullscreenexit_events","success","rt","stimulus","key_press","button_pressed","task_part","timestamp","card_choice","choice_position","points_earned","block","correct","response"
"pavlovia","0","3","0.0-0.0","192","true","img/card_backs/set1/purple.gif","img/card_backs/set1/green.gif","img/card_backs/set1/red.gif","img/card_backs/set1/yellow.gif","img/card_backs/set2/gray.gif","img/card_backs/set2/orange.gif","img/card_backs/set2/pink.gif","img/card_backs/set2/blue.gif","""event"",""trial"",""time""
""fullscreenenter"",""1"",""5977""
","
","
","""event"",""trial"",""time""
""fullscreenenter"",""1"",""5977""
","
","","","","","","","","","","","","",""
"fullscreen","1","6836","0.0-1.0","192","true","img/card_backs/set1/purple.gif","img/card_backs/set1/green.gif","img/card_backs/set1/red.gif","img/card_backs/set1/yellow.gif","img/card_backs/set2/gray.gif","img/card_backs/set2/orange.gif","img/card_backs/set2/pink.gif","img/card_backs/set2/blue.gif","""event"",""trial"",""time""
""fullscreenenter"",""1"",""5977""
","
","
","""event"",""trial"",""time""
""fullscreenenter"",""1"",""5977""
","
","true","","","","","","","","","","","",""
"audio-keyboard-response","2","8337","0.0-2.0","192","true","img/card_backs/set1/purple.gif","img/card_backs/set1/green.gif","img/card_backs/set1/red.gif","img/card_backs/set1/yellow.gif","img/card_backs/set2/gray.gif","img/card_backs/set2/orange.gif","img/card_backs/set2/pink.gif","img/card_backs/set2/blue.gif","""event"",""trial"",""time""
""fullscreenenter"",""1"",""5977""
","
","
","""event"",""trial"",""time""
""fullscreenenter"",""1"",""5977""
","
","","1376","audio/beep_loop.wav","32","","","","","","","","",""
"audio-button-response","3","10645","0.0-3.0","192","true","img/card_backs/set1/purple.gif","img/card_backs/set1/green.gif","img/card_backs/set1/red.gif","img/card_backs/set1/yellow.gif","img/card_backs/set2/gray.gif","img/card_backs/set2/orange.gif","img/card_backs/set2/pink.gif","img/card_backs/set2/blue.gif","""event"",""trial"",""time""
""fullscreenenter"",""1"",""5977""
","
","
","""event"",""trial"",""time""
""fullscreenenter"",""1"",""5977""
","
","","NaN","audio/turtle.mp3","","3","","","","","","","",""
"audio-button-response","4","14320","0.0-4.0","192","true","img/card_backs/set1/purple.gif","img/card_backs/set1/green.gif","img/card_backs/set1/red.gif","img/card_backs/set1/yellow.gif","img/card_backs/set2/gray.gif","img/card_backs/set2/orange.gif","img/card_backs/set2/pink.gif","img/card_backs/set2/blue.gif","""event"",""trial"",""time""
""fullscreenenter"",""1"",""5977""
","
","
","""event"",""trial"",""time""
""fullscreenenter"",""1"",""5977""
","
","","NaN","audio/shark.mp3","","2","","","","","","","",""
"fullscreen","5","22362","0.0-5.0","192","true","img/card_backs/set1/purple.gif","img/card_backs/set1/green.gif","img/card_backs/set1/red.gif","img/card_backs/set1/yellow.gif","img/card_backs/set2/gray.gif","img/card_backs/set2/orange.gif","img/card_backs/set2/pink.gif","img/card_backs/set2/blue.gif","""event"",""trial"",""time""
""fullscreenenter"",""1"",""5977""
","
","
","""event"",""trial"",""time""
""fullscreenenter"",""1"",""5977""
","
","true","","","","","","","","","","","",""
"casino-keyboard-response","6","28272","0.0-6.0-0.0","192","true","img/card_backs/set1/purple.gif","img/card_backs/set1/green.gif","img/card_backs/set1/red.gif","img/card_backs/set1/yellow.gif","img/card_backs/set2/gray.gif","img/card_backs/set2/orange.gif","img/card_backs/set2/pink.gif","img/card_backs/set2/blue.gif","""event"",""trial"",""time""
""fullscreenenter"",""1"",""5977""
","
","
","""event"",""trial"",""time""
""fullscreenenter"",""1"",""5977""
","
","","5907.869999995455","Welcome to the casino!","71","","instructions","2021-04-05 22:54:01.351","","","","","",""
"casino-keyboard-response","7","38460","0.0-6.0-0.1","192","true","img/card_backs/set1/purple.gif","img/card_backs/set1/green.gif","img/card_backs/set1/red.gif","img/card_backs/set1/yellow.gif","img/card_backs/set2/gray.gif","img/card_backs/set2/orange.gif","img/card_backs/set2/pink.gif","img/card_backs/set2/blue.gif","""event"",""trial"",""time""
""fullscreenenter"",""1"",""5977""
","
","
","""event"",""trial"",""time""
""fullscreenenter"",""1"",""5977""
","
","","10186.729999957606","Today you will be playing a game to earn tokens. </br> At the end of the experiment, you will be paid a bonus based on how many tokens you win. ","69","","instructions","2021-04-05 22:54:11.539","","","","","",""
"casino-keyboard-response","8","45921","0.0-6.0-0.2","192","true","img/card_backs/set1/purple.gif","img/card_backs/set1/green.gif","img/card_backs/set1/red.gif","img/card_backs/set1/yellow.gif","img/card_backs/set2/gray.gif","img/card_backs/set2/orange.gif","img/card_backs/set2/pink.gif","img/card_backs/set2/blue.gif","""event"",""trial"",""time""
""fullscreenenter"",""1"",""5977""
","
","
","""event"",""trial"",""time""
""fullscreenenter"",""1"",""5977""
","
","","7460.729999933392","On every turn, you will be shown four different decks of cards. </br> You need to select a card from one of the four decks.  ","75","","instructions","2021-04-05 22:54:19.001","","","","","",""
"casino-keyboard-response","9","51608","0.0-6.0-0.3","192","true","img/card_backs/set1/purple.gif","img/card_backs/set1/green.gif","img/card_backs/set1/red.gif","img/card_backs/set1/yellow.gif","img/card_backs/set2/gray.gif","img/card_backs/set2/orange.gif","img/card_backs/set2/pink.gif","img/card_backs/set2/blue.gif","""event"",""trial"",""time""
""fullscreenenter"",""1"",""5977""
","
","
","""event"",""trial"",""time""
""fullscreenenter"",""1"",""5977""
","
","","5684.744999976829","On the next screen, you will see what the decks will look like. ","66","","instructions","2021-04-05 22:54:24.687","","","","","",""
"card-selection-trial","10","55613","0.0-7.0-0.0","192","true","img/card_backs/set1/purple.gif","img/card_backs/set1/green.gif","img/card_backs/set1/red.gif","img/card_backs/set1/yellow.gif","img/card_backs/set2/gray.gif","img/card_backs/set2/orange.gif","img/card_backs/set2/pink.gif","img/card_backs/set2/blue.gif","""event"",""trial"",""time""
""fullscreenenter"",""1"",""5977""
","
","
","""event"",""trial"",""time""
""fullscreenenter"",""1"",""5977""
","
","","null","","","","practice","2021-04-05 22:54:28.692","null","null","null","0","",""
"casino-keyboard-response","11","63013","0.0-8.0-0.0","192","true","img/card_backs/set1/purple.gif","img/card_backs/set1/green.gif","img/card_backs/set1/red.gif","img/card_backs/set1/yellow.gif","img/card_backs/set2/gray.gif","img/card_backs/set2/orange.gif","img/card_backs/set2/pink.gif","img/card_backs/set2/blue.gif","""event"",""trial"",""time""
""fullscreenenter"",""1"",""5977""
","
","
","""event"",""trial"",""time""
""fullscreenenter"",""1"",""5977""
","
","","7399.549999972805","You should pick a card from a deck using the '2', '4', '6', and '8' keys at the top of the keyboard.","85","","instructions","2021-04-05 22:54:36.092","","","","","",""
"casino-keyboard-response","12","68392","0.0-8.0-0.1","192","true","img/card_backs/set1/purple.gif","img/card_backs/set1/green.gif","img/card_backs/set1/red.gif","img/card_backs/set1/yellow.gif","img/card_backs/set2/gray.gif","img/card_backs/set2/orange.gif","img/card_backs/set2/pink.gif","img/card_backs/set2/blue.gif","""event"",""trial"",""time""
""fullscreenenter"",""1"",""5977""
","
","
","""event"",""trial"",""time""
""fullscreenenter"",""1"",""5977""
","
","","5377.309999894351","Once you select a card, it will turn over and you will see how many tokens you earned.","83","","instructions","2021-04-05 22:54:41.471","","","","","",""
"casino-keyboard-response","13","82646","0.0-8.0-0.2","192","true","img/card_backs/set1/purple.gif","img/card_backs/set1/green.gif","img/card_backs/set1/red.gif","img/card_backs/set1/yellow.gif","img/card_backs/set2/gray.gif","img/card_backs/set2/orange.gif","img/card_backs/set2/pink.gif","img/card_backs/set2/blue.gif","""event"",""trial"",""time""
""fullscreenenter"",""1"",""5977""
","
","
","""event"",""trial"",""time""
""fullscreenenter"",""1"",""5977""
","
","","14253.40999988839","Let's try practicing that! </br> First, try to put your fingers over the '2', '4', '6', and '8' keys. </br>  You can use whatever fingers are most comfortable for you. Try to find a comfortable position now. ","50","","instructions","2021-04-05 22:54:55.725","","","","","",""
"casino-keyboard-response","14","88293","0.0-8.0-0.3","192","true","img/card_backs/set1/purple.gif","img/card_backs/set1/green.gif","img/card_backs/set1/red.gif","img/card_backs/set1/yellow.gif","img/card_backs/set2/gray.gif","img/card_backs/set2/orange.gif","img/card_backs/set2/pink.gif","img/card_backs/set2/blue.gif","""event"",""trial"",""time""
""fullscreenenter"",""1"",""5977""
","
","
","""event"",""trial"",""time""
""fullscreenenter"",""1"",""5977""
","
","","5645.679999841377","Okay ready? </br> On the next screen, press '2' to select the left deck. ","50","","instructions","2021-04-05 22:55:01.372","","","","","",""
"card-selection-trial","15","90841","0.0-9.0-0.0","192","true","img/card_backs/set1/purple.gif","img/card_backs/set1/green.gif","img/card_backs/set1/red.gif","img/card_backs/set1/yellow.gif","img/card_backs/set2/gray.gif","img/card_backs/set2/orange.gif","img/card_backs/set2/pink.gif","img/card_backs/set2/blue.gif","""event"",""trial"",""time""
""fullscreenenter"",""1"",""5977""
","
","
","""event"",""trial"",""time""
""fullscreenenter"",""1"",""5977""
","
","","534.4849999528378","","","","practice_card_selection","2021-04-05 22:55:03.921","img/practice_cards/backs/dark_green.gif","0","-200","","",""
"casino-keyboard-response","16","96577","0.0-10.0-0.0","192","true","img/card_backs/set1/purple.gif","img/card_backs/set1/green.gif","img/card_backs/set1/red.gif","img/card_backs/set1/yellow.gif","img/card_backs/set2/gray.gif","img/card_backs/set2/orange.gif","img/card_backs/set2/pink.gif","img/card_backs/set2/blue.gif","""event"",""trial"",""time""
""fullscreenenter"",""1"",""5977""
","
","
","""event"",""trial"",""time""
""fullscreenenter"",""1"",""5977""
","
","","5734.73499994725","Great! Now on the next screen, try pressing '6' to select the third deck.","54","","instructions","2021-04-05 22:55:09.656","","","","","",""
"card-selection-trial","17","98974","0.0-11.0-0.0","192","true","img/card_backs/set1/purple.gif","img/card_backs/set1/green.gif","img/card_backs/set1/red.gif","img/card_backs/set1/yellow.gif","img/card_backs/set2/gray.gif","img/card_backs/set2/orange.gif","img/card_backs/set2/pink.gif","img/card_backs/set2/blue.gif","""event"",""trial"",""time""
""fullscreenenter"",""1"",""5977""
","
","
","""event"",""trial"",""time""
""fullscreenenter"",""1"",""5977""
","
","","390.2149999048561","","","","practice_card_selection","2021-04-05 22:55:12.053","img/practice_cards/backs/dark_blue.gif","2","200","","",""
"casino-keyboard-response","18","104094","0.0-12.0-0.0","192","true","img/card_backs/set1/purple.gif","img/card_backs/set1/green.gif","img/card_backs/set1/red.gif","img/card_backs/set1/yellow.gif","img/card_backs/set2/gray.gif","img/card_backs/set2/orange.gif","img/card_backs/set2/pink.gif","img/card_backs/set2/blue.gif","""event"",""trial"",""time""
""fullscreenenter"",""1"",""5977""
","
","
","""event"",""trial"",""time""
""fullscreenenter"",""1"",""5977""
","
","","5118.999999947846","Now on the next screen, try pressing '4' to select the second deck.","52","","instructions","2021-04-05 22:55:17.173","","","","","",""
"card-selection-trial","19","106871","0.0-13.0-0.0","192","true","img/card_backs/set1/purple.gif","img/card_backs/set1/green.gif","img/card_backs/set1/red.gif","img/card_backs/set1/yellow.gif","img/card_backs/set2/gray.gif","img/card_backs/set2/orange.gif","img/card_backs/set2/pink.gif","img/card_backs/set2/blue.gif","""event"",""trial"",""time""
""fullscreenenter"",""1"",""5977""
","
","
","""event"",""trial"",""time""
""fullscreenenter"",""1"",""5977""
","
","","770.2800000552088","","","","practice_card_selection","2021-04-05 22:55:19.950","img/practice_cards/backs/black.gif","1","100","","",""
"casino-keyboard-response","20","111187","0.0-14.0-0.0","192","true","img/card_backs/set1/purple.gif","img/card_backs/set1/green.gif","img/card_backs/set1/red.gif","img/card_backs/set1/yellow.gif","img/card_backs/set2/gray.gif","img/card_backs/set2/orange.gif","img/card_backs/set2/pink.gif","img/card_backs/set2/blue.gif","""event"",""trial"",""time""
""fullscreenenter"",""1"",""5977""
","
","
","""event"",""trial"",""time""
""fullscreenenter"",""1"",""5977""
","
","","4314.759999979287","Finally, try pressing '8' to select the deck all the way on the right.","56","","instructions","2021-04-05 22:55:24.266","","","","","",""
"card-selection-trial","21","113939","0.0-15.0-0.0","192","true","img/card_backs/set1/purple.gif","img/card_backs/set1/green.gif","img/card_backs/set1/red.gif","img/card_backs/set1/yellow.gif","img/card_backs/set2/gray.gif","img/card_backs/set2/orange.gif","img/card_backs/set2/pink.gif","img/card_backs/set2/blue.gif","""event"",""trial"",""time""
""fullscreenenter"",""1"",""5977""
","
","
","""event"",""trial"",""time""
""fullscreenenter"",""1"",""5977""
","
","","745.6249999813735","","","","practice_card_selection","2021-04-05 22:55:27.018","img/practice_cards/backs/black.gif","3","100","","",""
"casino-keyboard-response","22","120938","0.0-16.0-0.0","192","true","img/card_backs/set1/purple.gif","img/card_backs/set1/green.gif","img/card_backs/set1/red.gif","img/card_backs/set1/yellow.gif","img/card_backs/set2/gray.gif","img/card_backs/set2/orange.gif","img/card_backs/set2/pink.gif","img/card_backs/set2/blue.gif","""event"",""trial"",""time""
""fullscreenenter"",""1"",""5977""
","
","
","""event"",""trial"",""time""
""fullscreenenter"",""1"",""5977""
","
","","6999.104999937117","Great! It seems like you are getting the hang of this.","80","","instructions","2021-04-05 22:55:34.018","","","","","",""
"casino-keyboard-response","23","128900","0.0-16.0-0.1","192","true","img/card_backs/set1/purple.gif","img/card_backs/set1/green.gif","img/card_backs/set1/red.gif","img/card_backs/set1/yellow.gif","img/card_backs/set2/gray.gif","img/card_backs/set2/orange.gif","img/card_backs/set2/pink.gif","img/card_backs/set2/blue.gif","""event"",""trial"",""time""
""fullscreenenter"",""1"",""5977""
","
","
","""event"",""trial"",""time""
""fullscreenenter"",""1"",""5977""
","
","","7959.990000119433","You may have noticed that some cards will cause you to <b> win </b> tokens while other cards will cause you to <b> lose </b>  tokens.","70","","instructions","2021-04-05 22:55:41.979","","","","","",""
"casino-keyboard-response","24","138642","0.0-16.0-0.2","192","true","img/card_backs/set1/purple.gif","img/card_backs/set1/green.gif","img/card_backs/set1/red.gif","img/card_backs/set1/yellow.gif","img/card_backs/set2/gray.gif","img/card_backs/set2/orange.gif","img/card_backs/set2/pink.gif","img/card_backs/set2/blue.gif","""event"",""trial"",""time""
""fullscreenenter"",""1"",""5977""
","
","
","""event"",""trial"",""time""
""fullscreenenter"",""1"",""5977""
","
","","9741.820000112057","Each deck has a mix of cards that will cause you to win and lose tokens. </br> However, the cards in each colored deck are different.","73","","instructions","2021-04-05 22:55:51.722","","","","","",""
"casino-keyboard-response","25","147956","0.0-16.0-0.3","192","true","img/card_backs/set1/purple.gif","img/card_backs/set1/green.gif","img/card_backs/set1/red.gif","img/card_backs/set1/yellow.gif","img/card_backs/set2/gray.gif","img/card_backs/set2/orange.gif","img/card_backs/set2/pink.gif","img/card_backs/set2/blue.gif","""event"",""trial"",""time""
""fullscreenenter"",""1"",""5977""
","
","
","""event"",""trial"",""time""
""fullscreenenter"",""1"",""5977""
","
","","9312.525000190362","Some colored decks are luckier than others. </br> If you choose the lucky decks, you will earn more tokens than if you choose the unlucky decks.","69","","instructions","2021-04-05 22:56:01.035","","","","","",""
"casino-keyboard-response","26","155480","0.0-16.0-0.4","192","true","img/card_backs/set1/purple.gif","img/card_backs/set1/green.gif","img/card_backs/set1/red.gif","img/card_backs/set1/yellow.gif","img/card_backs/set2/gray.gif","img/card_backs/set2/orange.gif","img/card_backs/set2/pink.gif","img/card_backs/set2/blue.gif","""event"",""trial"",""time""
""fullscreenenter"",""1"",""5977""
","
","
","""event"",""trial"",""time""
""fullscreenenter"",""1"",""5977""
","
","","7522.510000038892","You should try to figure out which decks are lucky. </br> Then, try to choose the lucky decks so you can win the most tokens.","87","","instructions","2021-04-05 22:56:08.559","","","","","",""
"casino-keyboard-response","27","166960","0.0-16.0-0.5","192","true","img/card_backs/set1/purple.gif","img/card_backs/set1/green.gif","img/card_backs/set1/red.gif","img/card_backs/set1/yellow.gif","img/card_backs/set2/gray.gif","img/card_backs/set2/orange.gif","img/card_backs/set2/pink.gif","img/card_backs/set2/blue.gif","""event"",""trial"",""time""
""fullscreenenter"",""1"",""5977""
","
","
","""event"",""trial"",""time""
""fullscreenenter"",""1"",""5977""
","
","","11479.374999878928","To make it trickier, the casino dealer will switch the locations of the decks on every turn. </br> The color of the deck determines how lucky it is. The location does not matter.","88","","instructions","2021-04-05 22:56:20.039","","","","","",""
"casino-keyboard-response","28","176424","0.0-16.0-0.6","192","true","img/card_backs/set1/purple.gif","img/card_backs/set1/green.gif","img/card_backs/set1/red.gif","img/card_backs/set1/yellow.gif","img/card_backs/set2/gray.gif","img/card_backs/set2/orange.gif","img/card_backs/set2/pink.gif","img/card_backs/set2/blue.gif","""event"",""trial"",""time""
""fullscreenenter"",""1"",""5977""
","
","
","""event"",""trial"",""time""
""fullscreenenter"",""1"",""5977""
","
","","9462.754999985918","The mix of cards in each colored deck will stay the same throughout the game. </br> That means that a deck that is lucky early on will stay lucky.","79","","instructions","2021-04-05 22:56:29.503","","","","","",""
"casino-keyboard-response","29","184606","0.0-16.0-0.7","192","true","img/card_backs/set1/purple.gif","img/card_backs/set1/green.gif","img/card_backs/set1/red.gif","img/card_backs/set1/yellow.gif","img/card_backs/set2/gray.gif","img/card_backs/set2/orange.gif","img/card_backs/set2/pink.gif","img/card_backs/set2/blue.gif","""event"",""trial"",""time""
""fullscreenenter"",""1"",""5977""
","
","
","""event"",""trial"",""time""
""fullscreenenter"",""1"",""5977""
","
","","8180.129999993369","Remember though, all the decks have a <b> mix </b> of both <b> good </b> and <b> bad </b> cards so it may take a couple of turns to figure out if a deck is lucky.","69","","instructions","2021-04-05 22:56:37.685","","","","","",""
"casino-keyboard-response","30","192985","0.0-16.0-0.8","192","true","img/card_backs/set1/purple.gif","img/card_backs/set1/green.gif","img/card_backs/set1/red.gif","img/card_backs/set1/yellow.gif","img/card_backs/set2/gray.gif","img/card_backs/set2/orange.gif","img/card_backs/set2/pink.gif","img/card_backs/set2/blue.gif","""event"",""trial"",""time""
""fullscreenenter"",""1"",""5977""
","
","
","""event"",""trial"",""time""
""fullscreenenter"",""1"",""5977""
","
","","8377.775000175461","At the end of the game, you will be paid bonus money based on how many tokens you win. </br> If you win more tokens, you will earn more money!","72","","instructions","2021-04-05 22:56:46.064","","","","","",""
"casino-keyboard-response","31","203349","0.0-16.0-0.9","192","true","img/card_backs/set1/purple.gif","img/card_backs/set1/green.gif","img/card_backs/set1/red.gif","img/card_backs/set1/yellow.gif","img/card_backs/set2/gray.gif","img/card_backs/set2/orange.gif","img/card_backs/set2/pink.gif","img/card_backs/set2/blue.gif","""event"",""trial"",""time""
""fullscreenenter"",""1"",""5977""
","
","
","""event"",""trial"",""time""
""fullscreenenter"",""1"",""5977""
","
","","10363.01500000991","You will never <b> lose </b> money. </br> If you end up with fewer than 0 tokens, you will earn $0 of bonus money, but you will still be paid for playing the game.","83","","instructions","2021-04-05 22:56:56.428","","","","","",""
"casino-keyboard-response","32","207832","0.0-16.0-0.10","192","true","img/card_backs/set1/purple.gif","img/card_backs/set1/green.gif","img/card_backs/set1/red.gif","img/card_backs/set1/yellow.gif","img/card_backs/set2/gray.gif","img/card_backs/set2/orange.gif","img/card_backs/set2/pink.gif","img/card_backs/set2/blue.gif","""event"",""trial"",""time""
""fullscreenenter"",""1"",""5977""
","
","
","""event"",""trial"",""time""
""fullscreenenter"",""1"",""5977""
","
","","4480.720000108704","You will have 10 seconds to make each choice.","82","","instructions","2021-04-05 22:57:00.911","","","","","",""
"casino-keyboard-response","33","216159","0.0-16.0-0.11","192","true","img/card_backs/set1/purple.gif","img/card_backs/set1/green.gif","img/card_backs/set1/red.gif","img/card_backs/set1/yellow.gif","img/card_backs/set2/gray.gif","img/card_backs/set2/orange.gif","img/card_backs/set2/pink.gif","img/card_backs/set2/blue.gif","""event"",""trial"",""time""
""fullscreenenter"",""1"",""5977""
","
","
","""event"",""trial"",""time""
""fullscreenenter"",""1"",""5977""
","
","","8325.510000111535","Before you play the game for real, you will play with practice decks. </br> The tokens you earn during practice won't count toward your total.","86","","instructions","2021-04-05 22:57:09.238","","","","","",""
"casino-keyboard-response","34","225911","0.0-16.0-0.12","192","true","img/card_backs/set1/purple.gif","img/card_backs/set1/green.gif","img/card_backs/set1/red.gif","img/card_backs/set1/yellow.gif","img/card_backs/set2/gray.gif","img/card_backs/set2/orange.gif","img/card_backs/set2/pink.gif","img/card_backs/set2/blue.gif","""event"",""trial"",""time""
""fullscreenenter"",""1"",""5977""
","
","
","""event"",""trial"",""time""
""fullscreenenter"",""1"",""5977""
","
","","9751.265000086278","Ready? Remember, use the '2', '4', '6', and '8' keys to select the decks. </br> Put your fingers on those keys now and then press '2' to begin.","50","","instructions","2021-04-05 22:57:18.990","","","","","",""
"casino-fixation","35","226413","0.0-17.0-0.0","192","true","img/card_backs/set1/purple.gif","img/card_backs/set1/green.gif","img/card_backs/set1/red.gif","img/card_backs/set1/yellow.gif","img/card_backs/set2/gray.gif","img/card_backs/set2/orange.gif","img/card_backs/set2/pink.gif","img/card_backs/set2/blue.gif","""event"",""trial"",""time""
""fullscreenenter"",""1"",""5977""
","
","
","""event"",""trial"",""time""
""fullscreenenter"",""1"",""5977""
","
","","null","","null","","fixation","2021-04-05 22:57:19.492","","","","","",""
"card-selection-trial","36","229131","0.0-17.0-1.0","192","true","img/card_backs/set1/purple.gif","img/card_backs/set1/green.gif","img/card_backs/set1/red.gif","img/card_backs/set1/yellow.gif","img/card_backs/set2/gray.gif","img/card_backs/set2/orange.gif","img/card_backs/set2/pink.gif","img/card_backs/set2/blue.gif","""event"",""trial"",""time""
""fullscreenenter"",""1"",""5977""
","
","
","""event"",""trial"",""time""
""fullscreenenter"",""1"",""5977""
","
","","710.0399998016655","","","","practice","2021-04-05 22:57:22.210","img/practice_cards/backs/dark_green.gif","0","200","0","",""
"casino-fixation","37","229635","0.0-17.0-0.1","192","true","img/card_backs/set1/purple.gif","img/card_backs/set1/green.gif","img/card_backs/set1/red.gif","img/card_backs/set1/yellow.gif","img/card_backs/set2/gray.gif","img/card_backs/set2/orange.gif","img/card_backs/set2/pink.gif","img/card_backs/set2/blue.gif","""event"",""trial"",""time""
""fullscreenenter"",""1"",""5977""
","
","
","""event"",""trial"",""time""
""fullscreenenter"",""1"",""5977""
","
","","null","","null","","fixation","2021-04-05 22:57:22.714","","","","","",""
"card-selection-trial","38","232133","0.0-17.0-1.1","192","true","img/card_backs/set1/purple.gif","img/card_backs/set1/green.gif","img/card_backs/set1/red.gif","img/card_backs/set1/yellow.gif","img/card_backs/set2/gray.gif","img/card_backs/set2/orange.gif","img/card_backs/set2/pink.gif","img/card_backs/set2/blue.gif","""event"",""trial"",""time""
""fullscreenenter"",""1"",""5977""
","
","
","""event"",""trial"",""time""
""fullscreenenter"",""1"",""5977""
","
","","491.090000141412","","","","practice","2021-04-05 22:57:25.212","img/practice_cards/backs/dark_green.gif","0","-200","0","",""
"casino-fixation","39","232634","0.0-17.0-0.2","192","true","img/card_backs/set1/purple.gif","img/card_backs/set1/green.gif","img/card_backs/set1/red.gif","img/card_backs/set1/yellow.gif","img/card_backs/set2/gray.gif","img/card_backs/set2/orange.gif","img/card_backs/set2/pink.gif","img/card_backs/set2/blue.gif","""event"",""trial"",""time""
""fullscreenenter"",""1"",""5977""
","
","
","""event"",""trial"",""time""
""fullscreenenter"",""1"",""5977""
","
","","null","","null","","fixation","2021-04-05 22:57:25.713","","","","","",""
"card-selection-trial","40","234909","0.0-17.0-1.2","192","true","img/card_backs/set1/purple.gif","img/card_backs/set1/green.gif","img/card_backs/set1/red.gif","img/card_backs/set1/yellow.gif","img/card_backs/set2/gray.gif","img/card_backs/set2/orange.gif","img/card_backs/set2/pink.gif","img/card_backs/set2/blue.gif","""event"",""trial"",""time""
""fullscreenenter"",""1"",""5977""
","
","
","""event"",""trial"",""time""
""fullscreenenter"",""1"",""5977""
","
","","267.3349999822676","","","","practice","2021-04-05 22:57:27.988","img/practice_cards/backs/dark_green.gif","0","-200","0","",""
"casino-fixation","41","235410","0.0-17.0-0.3","192","true","img/card_backs/set1/purple.gif","img/card_backs/set1/green.gif","img/card_backs/set1/red.gif","img/card_backs/set1/yellow.gif","img/card_backs/set2/gray.gif","img/card_backs/set2/orange.gif","img/card_backs/set2/pink.gif","img/card_backs/set2/blue.gif","""event"",""trial"",""time""
""fullscreenenter"",""1"",""5977""
","
","
","""event"",""trial"",""time""
""fullscreenenter"",""1"",""5977""
","
","","null","","null","","fixation","2021-04-05 22:57:28.489","","","","","",""
"card-selection-trial","42","237775","0.0-17.0-1.3","192","true","img/card_backs/set1/purple.gif","img/card_backs/set1/green.gif","img/card_backs/set1/red.gif","img/card_backs/set1/yellow.gif","img/card_backs/set2/gray.gif","img/card_backs/set2/orange.gif","img/card_backs/set2/pink.gif","img/card_backs/set2/blue.gif","""event"",""trial"",""time""
""fullscreenenter"",""1"",""5977""
","
","
","""event"",""trial"",""time""
""fullscreenenter"",""1"",""5977""
","
","","356.9450001232326","","","","practice","2021-04-05 22:57:30.854","img/practice_cards/backs/dark_green.gif","0","200","0","",""
"casino-fixation","43","238278","0.0-17.0-0.4","192","true","img/card_backs/set1/purple.gif","img/card_backs/set1/green.gif","img/card_backs/set1/red.gif","img/card_backs/set1/yellow.gif","img/card_backs/set2/gray.gif","img/card_backs/set2/orange.gif","img/card_backs/set2/pink.gif","img/card_backs/set2/blue.gif","""event"",""trial"",""time""
""fullscreenenter"",""1"",""5977""
","
","
","""event"",""trial"",""time""
""fullscreenenter"",""1"",""5977""
","
","","null","","null","","fixation","2021-04-05 22:57:31.357","","","","","",""
"card-selection-trial","44","240616","0.0-17.0-1.4","192","true","img/card_backs/set1/purple.gif","img/card_backs/set1/green.gif","img/card_backs/set1/red.gif","img/card_backs/set1/yellow.gif","img/card_backs/set2/gray.gif","img/card_backs/set2/orange.gif","img/card_backs/set2/pink.gif","img/card_backs/set2/blue.gif","""event"",""trial"",""time""
""fullscreenenter"",""1"",""5977""
","
","
","""event"",""trial"",""time""
""fullscreenenter"",""1"",""5977""
","
","","328.82499997504056","","","","practice","2021-04-05 22:57:33.695","img/practice_cards/backs/dark_blue.gif","0","200","0","",""
"casino-fixation","45","241120","0.0-17.0-0.5","192","true","img/card_backs/set1/purple.gif","img/card_backs/set1/green.gif","img/card_backs/set1/red.gif","img/card_backs/set1/yellow.gif","img/card_backs/set2/gray.gif","img/card_backs/set2/orange.gif","img/card_backs/set2/pink.gif","img/card_backs/set2/blue.gif","""event"",""trial"",""time""
""fullscreenenter"",""1"",""5977""
","
","
","""event"",""trial"",""time""
""fullscreenenter"",""1"",""5977""
","
","","null","","null","","fixation","2021-04-05 22:57:34.199","","","","","",""
"card-selection-trial","46","244718","0.0-17.0-1.5","192","true","img/card_backs/set1/purple.gif","img/card_backs/set1/green.gif","img/card_backs/set1/red.gif","img/card_backs/set1/yellow.gif","img/card_backs/set2/gray.gif","img/card_backs/set2/orange.gif","img/card_backs/set2/pink.gif","img/card_backs/set2/blue.gif","""event"",""trial"",""time""
""fullscreenenter"",""1"",""5977""
","
","
","""event"",""trial"",""time""
""fullscreenenter"",""1"",""5977""
","
","","1593.1300001684576","","","","practice","2021-04-05 22:57:37.798","img/practice_cards/backs/dark_blue.gif","1","-200","0","",""
"casino-fixation","47","245220","0.0-17.0-0.6","192","true","img/card_backs/set1/purple.gif","img/card_backs/set1/green.gif","img/card_backs/set1/red.gif","img/card_backs/set1/yellow.gif","img/card_backs/set2/gray.gif","img/card_backs/set2/orange.gif","img/card_backs/set2/pink.gif","img/card_backs/set2/blue.gif","""event"",""trial"",""time""
""fullscreenenter"",""1"",""5977""
","
","
","""event"",""trial"",""time""
""fullscreenenter"",""1"",""5977""
","
","","null","","null","","fixation","2021-04-05 22:57:38.299","","","","","",""
"card-selection-trial","48","249625","0.0-17.0-1.6","192","true","img/card_backs/set1/purple.gif","img/card_backs/set1/green.gif","img/card_backs/set1/red.gif","img/card_backs/set1/yellow.gif","img/card_backs/set2/gray.gif","img/card_backs/set2/orange.gif","img/card_backs/set2/pink.gif","img/card_backs/set2/blue.gif","""event"",""trial"",""time""
""fullscreenenter"",""1"",""5977""
","
","
","""event"",""trial"",""time""
""fullscreenenter"",""1"",""5977""
","
","","2399.6600001119077","","","","practice","2021-04-05 22:57:42.704","img/practice_cards/backs/dark_green.gif","2","-200","0","",""
"casino-fixation","49","250130","0.0-17.0-0.7","192","true","img/card_backs/set1/purple.gif","img/card_backs/set1/green.gif","img/card_backs/set1/red.gif","img/card_backs/set1/yellow.gif","img/card_backs/set2/gray.gif","img/card_backs/set2/orange.gif","img/card_backs/set2/pink.gif","img/card_backs/set2/blue.gif","""event"",""trial"",""time""
""fullscreenenter"",""1"",""5977""
","
","
","""event"",""trial"",""time""
""fullscreenenter"",""1"",""5977""
","
","","null","","null","","fixation","2021-04-05 22:57:43.209","","","","","",""
"card-selection-trial","50","252725","0.0-17.0-1.7","192","true","img/card_backs/set1/purple.gif","img/card_backs/set1/green.gif","img/card_backs/set1/red.gif","img/card_backs/set1/yellow.gif","img/card_backs/set2/gray.gif","img/card_backs/set2/orange.gif","img/card_backs/set2/pink.gif","img/card_backs/set2/blue.gif","""event"",""trial"",""time""
""fullscreenenter"",""1"",""5977""
","
","
","""event"",""trial"",""time""
""fullscreenenter"",""1"",""5977""
","
","","589.2749999184161","","","","practice","2021-04-05 22:57:45.804","img/practice_cards/backs/dark_green.gif","0","-200","0","",""
"casino-fixation","51","253230","0.0-17.0-0.8","192","true","img/card_backs/set1/purple.gif","img/card_backs/set1/green.gif","img/card_backs/set1/red.gif","img/card_backs/set1/yellow.gif","img/card_backs/set2/gray.gif","img/card_backs/set2/orange.gif","img/card_backs/set2/pink.gif","img/card_backs/set2/blue.gif","""event"",""trial"",""time""
""fullscreenenter"",""1"",""5977""
","
","
","""event"",""trial"",""time""
""fullscreenenter"",""1"",""5977""
","
","","null","","null","","fixation","2021-04-05 22:57:46.309","","","","","",""
"card-selection-trial","52","256216","0.0-17.0-1.8","192","true","img/card_backs/set1/purple.gif","img/card_backs/set1/green.gif","img/card_backs/set1/red.gif","img/card_backs/set1/yellow.gif","img/card_backs/set2/gray.gif","img/card_backs/set2/orange.gif","img/card_backs/set2/pink.gif","img/card_backs/set2/blue.gif","""event"",""trial"",""time""
""fullscreenenter"",""1"",""5977""
","
","
","""event"",""trial"",""time""
""fullscreenenter"",""1"",""5977""
","
","","977.5549999903888","","","","practice","2021-04-05 22:57:49.295","img/practice_cards/backs/dark_green.gif","3","-200","0","",""
"casino-fixation","53","256721","0.0-17.0-0.9","192","true","img/card_backs/set1/purple.gif","img/card_backs/set1/green.gif","img/card_backs/set1/red.gif","img/card_backs/set1/yellow.gif","img/card_backs/set2/gray.gif","img/card_backs/set2/orange.gif","img/card_backs/set2/pink.gif","img/card_backs/set2/blue.gif","""event"",""trial"",""time""
""fullscreenenter"",""1"",""5977""
","
","
","""event"",""trial"",""time""
""fullscreenenter"",""1"",""5977""
","
","","null","","null","","fixation","2021-04-05 22:57:49.800","","","","","",""
"card-selection-trial","54","260027","0.0-17.0-1.9","192","true","img/card_backs/set1/purple.gif","img/card_backs/set1/green.gif","img/card_backs/set1/red.gif","img/card_backs/set1/yellow.gif","img/card_backs/set2/gray.gif","img/card_backs/set2/orange.gif","img/card_backs/set2/pink.gif","img/card_backs/set2/blue.gif","""event"",""trial"",""time""
""fullscreenenter"",""1"",""5977""
","
","
","""event"",""trial"",""time""
""fullscreenenter"",""1"",""5977""
","
","","1295.369999948889","","","","practice","2021-04-05 22:57:53.106","img/practice_cards/backs/dark_blue.gif","0","-200","0","",""
"casino-keyboard-response","55","262837","0.0-18.0","192","true","img/card_backs/set1/purple.gif","img/card_backs/set1/green.gif","img/card_backs/set1/red.gif","img/card_backs/set1/yellow.gif","img/card_backs/set2/gray.gif","img/card_backs/set2/orange.gif","img/card_backs/set2/pink.gif","img/card_backs/set2/blue.gif","""event"",""trial"",""time""
""fullscreenenter"",""1"",""5977""
","
","
","""event"",""trial"",""time""
""fullscreenenter"",""1"",""5977""
","
","","2808.500000042841","You earned -800 tokens during the practice round!","82","","","2021-04-05 22:57:55.916","","","","","",""
"casino-keyboard-response","56","267968","0.0-19.0-0.0","192","true","img/card_backs/set1/purple.gif","img/card_backs/set1/green.gif","img/card_backs/set1/red.gif","img/card_backs/set1/yellow.gif","img/card_backs/set2/gray.gif","img/card_backs/set2/orange.gif","img/card_backs/set2/pink.gif","img/card_backs/set2/blue.gif","""event"",""trial"",""time""
""fullscreenenter"",""1"",""5977""
","
","
","""event"",""trial"",""time""
""fullscreenenter"",""1"",""5977""
","
","","5130.644999910146","Nice job! You are almost ready to play the real game.","86","","instructions","2021-04-05 22:58:01.047","","","","","",""
"casino-keyboard-response","57","274873","0.0-19.0-0.1","192","true","img/card_backs/set1/purple.gif","img/card_backs/set1/green.gif","img/card_backs/set1/red.gif","img/card_backs/set1/yellow.gif","img/card_backs/set2/gray.gif","img/card_backs/set2/orange.gif","img/card_backs/set2/pink.gif","img/card_backs/set2/blue.gif","""event"",""trial"",""time""
""fullscreenenter"",""1"",""5977""
","
","
","""event"",""trial"",""time""
""fullscreenenter"",""1"",""5977""
","
","","6903.6100001540035","You will play two rounds of the real game. In each round, you will pick 100 cards in total.","73","","instructions","2021-04-05 22:58:07.952","","","","","",""
"casino-keyboard-response","58","279038","0.0-19.0-0.2","192","true","img/card_backs/set1/purple.gif","img/card_backs/set1/green.gif","img/card_backs/set1/red.gif","img/card_backs/set1/yellow.gif","img/card_backs/set2/gray.gif","img/card_backs/set2/orange.gif","img/card_backs/set2/pink.gif","img/card_backs/set2/blue.gif","""event"",""trial"",""time""
""fullscreenenter"",""1"",""5977""
","
","
","""event"",""trial"",""time""
""fullscreenenter"",""1"",""5977""
","
","","4163.990000030026","We are now going to ask you some questions about how the game works.","66","","instructions","2021-04-05 22:58:12.117","","","","","",""
"casino-keyboard-response","59","285361","0.0-19.0-0.3","192","true","img/card_backs/set1/purple.gif","img/card_backs/set1/green.gif","img/card_backs/set1/red.gif","img/card_backs/set1/yellow.gif","img/card_backs/set2/gray.gif","img/card_backs/set2/orange.gif","img/card_backs/set2/pink.gif","img/card_backs/set2/blue.gif","""event"",""trial"",""time""
""fullscreenenter"",""1"",""5977""
","
","
","""event"",""trial"",""time""
""fullscreenenter"",""1"",""5977""
","
","","6322.149999905378","Answer carefully. You will not be able to begin the game until you answer them correctly.","67","","instructions","2021-04-05 22:58:18.440","","","","","",""
"casino-comp_q","60","292024","0.0-20.0-0.0","192","true","img/card_backs/set1/purple.gif","img/card_backs/set1/green.gif","img/card_backs/set1/red.gif","img/card_backs/set1/yellow.gif","img/card_backs/set2/gray.gif","img/card_backs/set2/orange.gif","img/card_backs/set2/pink.gif","img/card_backs/set2/blue.gif","""event"",""trial"",""time""
""fullscreenenter"",""1"",""5977""
","
","
","""event"",""trial"",""time""
""fullscreenenter"",""1"",""5977""
","
","","6661.809999961406","True or False: All the decks have some cards that cause you to win tokens and some cards that cause you to lose tokens.","84","","","2021-04-05 22:58:25.104","","","","","",""
"casino-keyboard-response","61","294803","0.0-20.0-1.0","192","true","img/card_backs/set1/purple.gif","img/card_backs/set1/green.gif","img/card_backs/set1/red.gif","img/card_backs/set1/yellow.gif","img/card_backs/set2/gray.gif","img/card_backs/set2/orange.gif","img/card_backs/set2/pink.gif","img/card_backs/set2/blue.gif","""event"",""trial"",""time""
""fullscreenenter"",""1"",""5977""
","
","
","""event"",""trial"",""time""
""fullscreenenter"",""1"",""5977""
","
","","2777.1600000560284","True is correct! All the decks have a mix of winning and losing cards.","77","","","2021-04-05 22:58:27.882","","","","","true",""
"casino-comp_q","62","299322","0.0-21.0-0.0","192","true","img/card_backs/set1/purple.gif","img/card_backs/set1/green.gif","img/card_backs/set1/red.gif","img/card_backs/set1/yellow.gif","img/card_backs/set2/gray.gif","img/card_backs/set2/orange.gif","img/card_backs/set2/pink.gif","img/card_backs/set2/blue.gif","""event"",""trial"",""time""
""fullscreenenter"",""1"",""5977""
","
","
","""event"",""trial"",""time""
""fullscreenenter"",""1"",""5977""
","
","","4516.984999878332","True or False: You will have as much time as you want to make your response.","70","","","2021-04-05 22:58:32.401","","","","","",""
"casino-keyboard-response","63","302191","0.0-21.0-1.0","192","true","img/card_backs/set1/purple.gif","img/card_backs/set1/green.gif","img/card_backs/set1/red.gif","img/card_backs/set1/yellow.gif","img/card_backs/set2/gray.gif","img/card_backs/set2/orange.gif","img/card_backs/set2/pink.gif","img/card_backs/set2/blue.gif","""event"",""trial"",""time""
""fullscreenenter"",""1"",""5977""
","
","
","""event"",""trial"",""time""
""fullscreenenter"",""1"",""5977""
","
","","2867.1549998689443","False is correct! You will only have 10 seconds to make each choice.","75","","","2021-04-05 22:58:35.270","","","","","true",""
"casino-comp_q","64","306740","0.0-22.0-0.0","192","true","img/card_backs/set1/purple.gif","img/card_backs/set1/green.gif","img/card_backs/set1/red.gif","img/card_backs/set1/yellow.gif","img/card_backs/set2/gray.gif","img/card_backs/set2/orange.gif","img/card_backs/set2/pink.gif","img/card_backs/set2/blue.gif","""event"",""trial"",""time""
""fullscreenenter"",""1"",""5977""
","
","
","""event"",""trial"",""time""
""fullscreenenter"",""1"",""5977""
","
","","4547.925000078976","True or False: The location of the deck determines how lucky it is.","70","","","2021-04-05 22:58:39.819","","","","","",""
"casino-keyboard-response","65","309208","0.0-22.0-1.0","192","true","img/card_backs/set1/purple.gif","img/card_backs/set1/green.gif","img/card_backs/set1/red.gif","img/card_backs/set1/yellow.gif","img/card_backs/set2/gray.gif","img/card_backs/set2/orange.gif","img/card_backs/set2/pink.gif","img/card_backs/set2/blue.gif","""event"",""trial"",""time""
""fullscreenenter"",""1"",""5977""
","
","
","""event"",""trial"",""time""
""fullscreenenter"",""1"",""5977""
","
","","2466.969999950379","False is correct! The <i>color</i>  of the deck determines how lucky or unlucky it is.","68","","","2021-04-05 22:58:42.287","","","","","true",""
"casino-keyboard-response","66","313603","0.0-23.0-0.0","192","true","img/card_backs/set1/purple.gif","img/card_backs/set1/green.gif","img/card_backs/set1/red.gif","img/card_backs/set1/yellow.gif","img/card_backs/set2/gray.gif","img/card_backs/set2/orange.gif","img/card_backs/set2/pink.gif","img/card_backs/set2/blue.gif","""event"",""trial"",""time""
""fullscreenenter"",""1"",""5977""
","
","
","""event"",""trial"",""time""
""fullscreenenter"",""1"",""5977""
","
","","4394.124999875203","Great job! Now it's time to start the real game.","82","","instructions","2021-04-05 22:58:46.682","","","","","",""
"casino-keyboard-response","67","319034","0.0-23.0-0.1","192","true","img/card_backs/set1/purple.gif","img/card_backs/set1/green.gif","img/card_backs/set1/red.gif","img/card_backs/set1/yellow.gif","img/card_backs/set2/gray.gif","img/card_backs/set2/orange.gif","img/card_backs/set2/pink.gif","img/card_backs/set2/blue.gif","""event"",""trial"",""time""
""fullscreenenter"",""1"",""5977""
","
","
","""event"",""trial"",""time""
""fullscreenenter"",""1"",""5977""
","
","","5430.249999975786","Before we start, we're going to head into a new room of the casino.","86","","instructions","2021-04-05 22:58:52.113","","","","","",""
"casino-keyboard-response","68","327595","0.0-24.0-0.0","192","true","img/card_backs/set1/purple.gif","img/card_backs/set1/green.gif","img/card_backs/set1/red.gif","img/card_backs/set1/yellow.gif","img/card_backs/set2/gray.gif","img/card_backs/set2/orange.gif","img/card_backs/set2/pink.gif","img/card_backs/set2/blue.gif","""event"",""trial"",""time""
""fullscreenenter"",""1"",""5977""
","
","
","""event"",""trial"",""time""
""fullscreenenter"",""1"",""5977""
","
","","8559.454999864101","Here we are! The real game will use different cards, but the rules will be the same.","71","","instructions","2021-04-05 22:59:00.674","","","","","",""
"casino-keyboard-response","69","329199","0.0-24.0-0.1","192","true","img/card_backs/set1/purple.gif","img/card_backs/set1/green.gif","img/card_backs/set1/red.gif","img/card_backs/set1/yellow.gif","img/card_backs/set2/gray.gif","img/card_backs/set2/orange.gif","img/card_backs/set2/pink.gif","img/card_backs/set2/blue.gif","""event"",""trial"",""time""
""fullscreenenter"",""1"",""5977""
","
","
","""event"",""trial"",""time""
""fullscreenenter"",""1"",""5977""
","
","","1602.6849998161197","Ready? Put your fingers over the '2', '4', 6', and '8' keys so you are ready to play the game. </br> Then press 2 to start.","50","","instructions","2021-04-05 22:59:02.278","","","","","",""
"casino-fixation","70","329699","0.0-25.0-0.0","192","true","img/card_backs/set1/purple.gif","img/card_backs/set1/green.gif","img/card_backs/set1/red.gif","img/card_backs/set1/yellow.gif","img/card_backs/set2/gray.gif","img/card_backs/set2/orange.gif","img/card_backs/set2/pink.gif","img/card_backs/set2/blue.gif","""event"",""trial"",""time""
""fullscreenenter"",""1"",""5977""
","
","
","""event"",""trial"",""time""
""fullscreenenter"",""1"",""5977""
","
","","null","","null","","fixation","2021-04-05 22:59:02.778","","","","","",""
"card-selection-trial","71","332628","0.0-25.0-1.0","192","true","img/card_backs/set1/purple.gif","img/card_backs/set1/green.gif","img/card_backs/set1/red.gif","img/card_backs/set1/yellow.gif","img/card_backs/set2/gray.gif","img/card_backs/set2/orange.gif","img/card_backs/set2/pink.gif","img/card_backs/set2/blue.gif","""event"",""trial"",""time""
""fullscreenenter"",""1"",""5977""
","
","
","""event"",""trial"",""time""
""fullscreenenter"",""1"",""5977""
","
","","920.9350000601262","","","","real_trial","2021-04-05 22:59:05.707","img/card_backs/set1/purple.gif","0","-190","1","",""
"casino-fixation","72","333131","0.0-25.0-0.1","192","true","img/card_backs/set1/purple.gif","img/card_backs/set1/green.gif","img/card_backs/set1/red.gif","img/card_backs/set1/yellow.gif","img/card_backs/set2/gray.gif","img/card_backs/set2/orange.gif","img/card_backs/set2/pink.gif","img/card_backs/set2/blue.gif","""event"",""trial"",""time""
""fullscreenenter"",""1"",""5977""
","
","
","""event"",""trial"",""time""
""fullscreenenter"",""1"",""5977""
","
","","null","","null","","fixation","2021-04-05 22:59:06.210","","","","","",""
"card-selection-trial","73","336275","0.0-25.0-1.1","192","true","img/card_backs/set1/purple.gif","img/card_backs/set1/green.gif","img/card_backs/set1/red.gif","img/card_backs/set1/yellow.gif","img/card_backs/set2/gray.gif","img/card_backs/set2/orange.gif","img/card_backs/set2/pink.gif","img/card_backs/set2/blue.gif","""event"",""trial"",""time""
""fullscreenenter"",""1"",""5977""
","
","
","""event"",""trial"",""time""
""fullscreenenter"",""1"",""5977""
","
","","1135.2699999697506","","","","real_trial","2021-04-05 22:59:09.354","img/card_backs/set1/purple.gif","3","260","1","",""
"casino-fixation","74","336779","0.0-25.0-0.2","192","true","img/card_backs/set1/purple.gif","img/card_backs/set1/green.gif","img/card_backs/set1/red.gif","img/card_backs/set1/yellow.gif","img/card_backs/set2/gray.gif","img/card_backs/set2/orange.gif","img/card_backs/set2/pink.gif","img/card_backs/set2/blue.gif","""event"",""trial"",""time""
""fullscreenenter"",""1"",""5977""
","
","
","""event"",""trial"",""time""
""fullscreenenter"",""1"",""5977""
","
","","null","","null","","fixation","2021-04-05 22:59:09.858","","","","","",""
"card-selection-trial","75","339747","0.0-25.0-1.2","192","true","img/card_backs/set1/purple.gif","img/card_backs/set1/green.gif","img/card_backs/set1/red.gif","img/card_backs/set1/yellow.gif","img/card_backs/set2/gray.gif","img/card_backs/set2/orange.gif","img/card_backs/set2/pink.gif","img/card_backs/set2/blue.gif","""event"",""trial"",""time""
""fullscreenenter"",""1"",""5977""
","
","
","""event"",""trial"",""time""
""fullscreenenter"",""1"",""5977""
","
","","958.7700001429766","","","","real_trial","2021-04-05 22:59:12.826","img/card_backs/set1/purple.gif","0","-210","1","",""
"casino-fixation","76","340249","0.0-25.0-0.3","192","true","img/card_backs/set1/purple.gif","img/card_backs/set1/green.gif","img/card_backs/set1/red.gif","img/card_backs/set1/yellow.gif","img/card_backs/set2/gray.gif","img/card_backs/set2/orange.gif","img/card_backs/set2/pink.gif","img/card_backs/set2/blue.gif","""event"",""trial"",""time""
""fullscreenenter"",""1"",""5977""
","
","
","""event"",""trial"",""time""
""fullscreenenter"",""1"",""5977""
","
","","null","","null","","fixation","2021-04-05 22:59:13.328","","","","","",""
"card-selection-trial","77","343589","0.0-25.0-1.3","192","true","img/card_backs/set1/purple.gif","img/card_backs/set1/green.gif","img/card_backs/set1/red.gif","img/card_backs/set1/yellow.gif","img/card_backs/set2/gray.gif","img/card_backs/set2/orange.gif","img/card_backs/set2/pink.gif","img/card_backs/set2/blue.gif","""event"",""trial"",""time""
""fullscreenenter"",""1"",""5977""
","
","
","""event"",""trial"",""time""
""fullscreenenter"",""1"",""5977""
","
","","1335.2799999993294","","","","real_trial","2021-04-05 22:59:16.668","img/card_backs/set1/purple.gif","1","-190","1","",""
"casino-fixation","78","344092","0.0-25.0-0.4","192","true","img/card_backs/set1/purple.gif","img/card_backs/set1/green.gif","img/card_backs/set1/red.gif","img/card_backs/set1/yellow.gif","img/card_backs/set2/gray.gif","img/card_backs/set2/orange.gif","img/card_backs/set2/pink.gif","img/card_backs/set2/blue.gif","""event"",""trial"",""time""
""fullscreenenter"",""1"",""5977""
","
","
","""event"",""trial"",""time""
""fullscreenenter"",""1"",""5977""
","
","","null","","null","","fixation","2021-04-05 22:59:17.171","","","","","",""
"card-selection-trial","79","347982","0.0-25.0-1.4","192","true","img/card_backs/set1/purple.gif","img/card_backs/set1/green.gif","img/card_backs/set1/red.gif","img/card_backs/set1/yellow.gif","img/card_backs/set2/gray.gif","img/card_backs/set2/orange.gif","img/card_backs/set2/pink.gif","img/card_backs/set2/blue.gif","""event"",""trial"",""time""
""fullscreenenter"",""1"",""5977""
","
","
","""event"",""trial"",""time""
""fullscreenenter"",""1"",""5977""
","
","","1884.6450001001358","","","","real_trial","2021-04-05 22:59:21.061","img/card_backs/set1/green.gif","0","260","1","",""
"casino-fixation","80","348485","0.0-25.0-0.5","192","true","img/card_backs/set1/purple.gif","img/card_backs/set1/green.gif","img/card_backs/set1/red.gif","img/card_backs/set1/yellow.gif","img/card_backs/set2/gray.gif","img/card_backs/set2/orange.gif","img/card_backs/set2/pink.gif","img/card_backs/set2/blue.gif","""event"",""trial"",""time""
""fullscreenenter"",""1"",""5977""
","
","
","""event"",""trial"",""time""
""fullscreenenter"",""1"",""5977""
","
","","null","","null","","fixation","2021-04-05 22:59:21.564","","","","","",""
"card-selection-trial","81","351066","0.0-25.0-1.5","192","true","img/card_backs/set1/purple.gif","img/card_backs/set1/green.gif","img/card_backs/set1/red.gif","img/card_backs/set1/yellow.gif","img/card_backs/set2/gray.gif","img/card_backs/set2/orange.gif","img/card_backs/set2/pink.gif","img/card_backs/set2/blue.gif","""event"",""trial"",""time""
""fullscreenenter"",""1"",""5977""
","
","
","""event"",""trial"",""time""
""fullscreenenter"",""1"",""5977""
","
","","571.3200001046062","","","","real_trial","2021-04-05 22:59:24.145","img/card_backs/set1/green.gif","0","250","1","",""
"casino-fixation","82","351567","0.0-25.0-0.6","192","true","img/card_backs/set1/purple.gif","img/card_backs/set1/green.gif","img/card_backs/set1/red.gif","img/card_backs/set1/yellow.gif","img/card_backs/set2/gray.gif","img/card_backs/set2/orange.gif","img/card_backs/set2/pink.gif","img/card_backs/set2/blue.gif","""event"",""trial"",""time""
""fullscreenenter"",""1"",""5977""
","
","
","""event"",""trial"",""time""
""fullscreenenter"",""1"",""5977""
","
","","null","","null","","fixation","2021-04-05 22:59:24.647","","","","","",""
"card-selection-trial","83","354599","0.0-25.0-1.6","192","true","img/card_backs/set1/purple.gif","img/card_backs/set1/green.gif","img/card_backs/set1/red.gif","img/card_backs/set1/yellow.gif","img/card_backs/set2/gray.gif","img/card_backs/set2/orange.gif","img/card_backs/set2/pink.gif","img/card_backs/set2/blue.gif","""event"",""trial"",""time""
""fullscreenenter"",""1"",""5977""
","
","
","""event"",""trial"",""time""
""fullscreenenter"",""1"",""5977""
","
","","1024.2099999450147","","","","real_trial","2021-04-05 22:59:27.678","img/card_backs/set1/green.gif","2","-210","1","",""
"casino-fixation","84","355103","0.0-25.0-0.7","192","true","img/card_backs/set1/purple.gif","img/card_backs/set1/green.gif","img/card_backs/set1/red.gif","img/card_backs/set1/yellow.gif","img/card_backs/set2/gray.gif","img/card_backs/set2/orange.gif","img/card_backs/set2/pink.gif","img/card_backs/set2/blue.gif","""event"",""trial"",""time""
""fullscreenenter"",""1"",""5977""
","
","
","""event"",""trial"",""time""
""fullscreenenter"",""1"",""5977""
","
","","null","","null","","fixation","2021-04-05 22:59:28.182","","","","","",""
"card-selection-trial","85","358026","0.0-25.0-1.7","192","true","img/card_backs/set1/purple.gif","img/card_backs/set1/green.gif","img/card_backs/set1/red.gif","img/card_backs/set1/yellow.gif","img/card_backs/set2/gray.gif","img/card_backs/set2/orange.gif","img/card_backs/set2/pink.gif","img/card_backs/set2/blue.gif","""event"",""trial"",""time""
""fullscreenenter"",""1"",""5977""
","
","
","""event"",""trial"",""time""
""fullscreenenter"",""1"",""5977""
","
","","914.4299998879433","","","","real_trial","2021-04-05 22:59:31.105","img/card_backs/set1/green.gif","2","240","1","",""
"casino-fixation","86","358531","0.0-25.0-0.8","192","true","img/card_backs/set1/purple.gif","img/card_backs/set1/green.gif","img/card_backs/set1/red.gif","img/card_backs/set1/yellow.gif","img/card_backs/set2/gray.gif","img/card_backs/set2/orange.gif","img/card_backs/set2/pink.gif","img/card_backs/set2/blue.gif","""event"",""trial"",""time""
""fullscreenenter"",""1"",""5977""
","
","
","""event"",""trial"",""time""
""fullscreenenter"",""1"",""5977""
","
","","null","","null","","fixation","2021-04-05 22:59:31.610","","","","","",""
"card-selection-trial","87","361049","0.0-25.0-1.8","192","true","img/card_backs/set1/purple.gif","img/card_backs/set1/green.gif","img/card_backs/set1/red.gif","img/card_backs/set1/yellow.gif","img/card_backs/set2/gray.gif","img/card_backs/set2/orange.gif","img/card_backs/set2/pink.gif","img/card_backs/set2/blue.gif","""event"",""trial"",""time""
""fullscreenenter"",""1"",""5977""
","
","
","""event"",""trial"",""time""
""fullscreenenter"",""1"",""5977""
","
","","512.275000102818","","","","real_trial","2021-04-05 22:59:34.128","img/card_backs/set1/green.gif","0","260","1","",""
"casino-fixation","88","361553","0.0-25.0-0.9","192","true","img/card_backs/set1/purple.gif","img/card_backs/set1/green.gif","img/card_backs/set1/red.gif","img/card_backs/set1/yellow.gif","img/card_backs/set2/gray.gif","img/card_backs/set2/orange.gif","img/card_backs/set2/pink.gif","img/card_backs/set2/blue.gif","""event"",""trial"",""time""
""fullscreenenter"",""1"",""5977""
","
","
","""event"",""trial"",""time""
""fullscreenenter"",""1"",""5977""
","
","","null","","null","","fixation","2021-04-05 22:59:34.632","","","","","",""
"card-selection-trial","89","364188","0.0-25.0-1.9","192","true","img/card_backs/set1/purple.gif","img/card_backs/set1/green.gif","img/card_backs/set1/red.gif","img/card_backs/set1/yellow.gif","img/card_backs/set2/gray.gif","img/card_backs/set2/orange.gif","img/card_backs/set2/pink.gif","img/card_backs/set2/blue.gif","""event"",""trial"",""time""
""fullscreenenter"",""1"",""5977""
","
","
","""event"",""trial"",""time""
""fullscreenenter"",""1"",""5977""
","
","","628.8649998605251","","","","real_trial","2021-04-05 22:59:37.267","img/card_backs/set1/green.gif","3","250","1","",""
"casino-fixation","90","364691","0.0-25.0-0.10","192","true","img/card_backs/set1/purple.gif","img/card_backs/set1/green.gif","img/card_backs/set1/red.gif","img/card_backs/set1/yellow.gif","img/card_backs/set2/gray.gif","img/card_backs/set2/orange.gif","img/card_backs/set2/pink.gif","img/card_backs/set2/blue.gif","""event"",""trial"",""time""
""fullscreenenter"",""1"",""5977""
","
","
","""event"",""trial"",""time""
""fullscreenenter"",""1"",""5977""
","
","","null","","null","","fixation","2021-04-05 22:59:37.770","","","","","",""
"card-selection-trial","91","367611","0.0-25.0-1.10","192","true","img/card_backs/set1/purple.gif","img/card_backs/set1/green.gif","img/card_backs/set1/red.gif","img/card_backs/set1/yellow.gif","img/card_backs/set2/gray.gif","img/card_backs/set2/orange.gif","img/card_backs/set2/pink.gif","img/card_backs/set2/blue.gif","""event"",""trial"",""time""
""fullscreenenter"",""1"",""5977""
","
","
","""event"",""trial"",""time""
""fullscreenenter"",""1"",""5977""
","
","","912.7150001004338","","","","real_trial","2021-04-05 22:59:40.690","img/card_backs/set1/green.gif","1","-190","1","",""
"casino-fixation","92","368116","0.0-25.0-0.11","192","true","img/card_backs/set1/purple.gif","img/card_backs/set1/green.gif","img/card_backs/set1/red.gif","img/card_backs/set1/yellow.gif","img/card_backs/set2/gray.gif","img/card_backs/set2/orange.gif","img/card_backs/set2/pink.gif","img/card_backs/set2/blue.gif","""event"",""trial"",""time""
""fullscreenenter"",""1"",""5977""
","
","
","""event"",""trial"",""time""
""fullscreenenter"",""1"",""5977""
","
","","null","","null","","fixation","2021-04-05 22:59:41.195","","","","","",""
"card-selection-trial","93","370949","0.0-25.0-1.11","192","true","img/card_backs/set1/purple.gif","img/card_backs/set1/green.gif","img/card_backs/set1/red.gif","img/card_backs/set1/yellow.gif","img/card_backs/set2/gray.gif","img/card_backs/set2/orange.gif","img/card_backs/set2/pink.gif","img/card_backs/set2/blue.gif","""event"",""trial"",""time""
""fullscreenenter"",""1"",""5977""
","
","
","""event"",""trial"",""time""
""fullscreenenter"",""1"",""5977""
","
","","825.0349999871105","","","","real_trial","2021-04-05 22:59:44.028","img/card_backs/set1/green.gif","3","-210","1","",""
"casino-fixation","94","371450","0.0-25.0-0.12","192","true","img/card_backs/set1/purple.gif","img/card_backs/set1/green.gif","img/card_backs/set1/red.gif","img/card_backs/set1/yellow.gif","img/card_backs/set2/gray.gif","img/card_backs/set2/orange.gif","img/card_backs/set2/pink.gif","img/card_backs/set2/blue.gif","""event"",""trial"",""time""
""fullscreenenter"",""1"",""5977""
","
","
","""event"",""trial"",""time""
""fullscreenenter"",""1"",""5977""
","
","","null","","null","","fixation","2021-04-05 22:59:44.529","","","","","",""
"card-selection-trial","95","373966","0.0-25.0-1.12","192","true","img/card_backs/set1/purple.gif","img/card_backs/set1/green.gif","img/card_backs/set1/red.gif","img/card_backs/set1/yellow.gif","img/card_backs/set2/gray.gif","img/card_backs/set2/orange.gif","img/card_backs/set2/pink.gif","img/card_backs/set2/blue.gif","""event"",""trial"",""time""
""fullscreenenter"",""1"",""5977""
","
","
","""event"",""trial"",""time""
""fullscreenenter"",""1"",""5977""
","
","","508.6900000460446","","","","real_trial","2021-04-05 22:59:47.045","img/card_backs/set1/green.gif","3","260","1","",""
"casino-fixation","96","374468","0.0-25.0-0.13","192","true","img/card_backs/set1/purple.gif","img/card_backs/set1/green.gif","img/card_backs/set1/red.gif","img/card_backs/set1/yellow.gif","img/card_backs/set2/gray.gif","img/card_backs/set2/orange.gif","img/card_backs/set2/pink.gif","img/card_backs/set2/blue.gif","""event"",""trial"",""time""
""fullscreenenter"",""1"",""5977""
","
","
","""event"",""trial"",""time""
""fullscreenenter"",""1"",""5977""
","
","","null","","null","","fixation","2021-04-05 22:59:47.547","","","","","",""
"card-selection-trial","97","377099","0.0-25.0-1.13","192","true","img/card_backs/set1/purple.gif","img/card_backs/set1/green.gif","img/card_backs/set1/red.gif","img/card_backs/set1/yellow.gif","img/card_backs/set2/gray.gif","img/card_backs/set2/orange.gif","img/card_backs/set2/pink.gif","img/card_backs/set2/blue.gif","""event"",""trial"",""time""
""fullscreenenter"",""1"",""5977""
","
","
","""event"",""trial"",""time""
""fullscreenenter"",""1"",""5977""
","
","","623.714999994263","","","","real_trial","2021-04-05 22:59:50.178","img/card_backs/set1/red.gif","0","-90","1","",""
"casino-fixation","98","377605","0.0-25.0-0.14","192","true","img/card_backs/set1/purple.gif","img/card_backs/set1/green.gif","img/card_backs/set1/red.gif","img/card_backs/set1/yellow.gif","img/card_backs/set2/gray.gif","img/card_backs/set2/orange.gif","img/card_backs/set2/pink.gif","img/card_backs/set2/blue.gif","""event"",""trial"",""time""
""fullscreenenter"",""1"",""5977""
","
","
","""event"",""trial"",""time""
""fullscreenenter"",""1"",""5977""
","
","","null","","null","","fixation","2021-04-05 22:59:50.684","","","","","",""
"card-selection-trial","99","380405","0.0-25.0-1.14","192","true","img/card_backs/set1/purple.gif","img/card_backs/set1/green.gif","img/card_backs/set1/red.gif","img/card_backs/set1/yellow.gif","img/card_backs/set2/gray.gif","img/card_backs/set2/orange.gif","img/card_backs/set2/pink.gif","img/card_backs/set2/blue.gif","""event"",""trial"",""time""
""fullscreenenter"",""1"",""5977""
","
","
","""event"",""trial"",""time""
""fullscreenenter"",""1"",""5977""
","
","","792.3550000414252","","","","real_trial","2021-04-05 22:59:53.484","img/card_backs/set1/green.gif","1","240","1","",""
"casino-fixation","100","380907","0.0-25.0-0.15","192","true","img/card_backs/set1/purple.gif","img/card_backs/set1/green.gif","img/card_backs/set1/red.gif","img/card_backs/set1/yellow.gif","img/card_backs/set2/gray.gif","img/card_backs/set2/orange.gif","img/card_backs/set2/pink.gif","img/card_backs/set2/blue.gif","""event"",""trial"",""time""
""fullscreenenter"",""1"",""5977""
","
","
","""event"",""trial"",""time""
""fullscreenenter"",""1"",""5977""
","
","","null","","null","","fixation","2021-04-05 22:59:53.986","","","","","",""
"card-selection-trial","101","383866","0.0-25.0-1.15","192","true","img/card_backs/set1/purple.gif","img/card_backs/set1/green.gif","img/card_backs/set1/red.gif","img/card_backs/set1/yellow.gif","img/card_backs/set2/gray.gif","img/card_backs/set2/orange.gif","img/card_backs/set2/pink.gif","img/card_backs/set2/blue.gif","""event"",""trial"",""time""
""fullscreenenter"",""1"",""5977""
","
","
","""event"",""trial"",""time""
""fullscreenenter"",""1"",""5977""
","
","","950.260000070557","","","","real_trial","2021-04-05 22:59:56.945","img/card_backs/set1/green.gif","1","-210","1","",""
"casino-fixation","102","384370","0.0-25.0-0.16","192","true","img/card_backs/set1/purple.gif","img/card_backs/set1/green.gif","img/card_backs/set1/red.gif","img/card_backs/set1/yellow.gif","img/card_backs/set2/gray.gif","img/card_backs/set2/orange.gif","img/card_backs/set2/pink.gif","img/card_backs/set2/blue.gif","""event"",""trial"",""time""
""fullscreenenter"",""1"",""5977""
","
","
","""event"",""trial"",""time""
""fullscreenenter"",""1"",""5977""
","
","","null","","null","","fixation","2021-04-05 22:59:57.449","","","","","",""
"card-selection-trial","103","386936","0.0-25.0-1.16","192","true","img/card_backs/set1/purple.gif","img/card_backs/set1/green.gif","img/card_backs/set1/red.gif","img/card_backs/set1/yellow.gif","img/card_backs/set2/gray.gif","img/card_backs/set2/orange.gif","img/card_backs/set2/pink.gif","img/card_backs/set2/blue.gif","""event"",""trial"",""time""
""fullscreenenter"",""1"",""5977""
","
","
","""event"",""trial"",""time""
""fullscreenenter"",""1"",""5977""
","
","","559.0250000823289","","","","real_trial","2021-04-05 23:00:00.015","img/card_backs/set1/green.gif","1","250","1","",""
"casino-fixation","104","387441","0.0-25.0-0.17","192","true","img/card_backs/set1/purple.gif","img/card_backs/set1/green.gif","img/card_backs/set1/red.gif","img/card_backs/set1/yellow.gif","img/card_backs/set2/gray.gif","img/card_backs/set2/orange.gif","img/card_backs/set2/pink.gif","img/card_backs/set2/blue.gif","""event"",""trial"",""time""
""fullscreenenter"",""1"",""5977""
","
","
","""event"",""trial"",""time""
""fullscreenenter"",""1"",""5977""
","
","","null","","null","","fixation","2021-04-05 23:00:00.520","","","","","",""
"card-selection-trial","105","389999","0.0-25.0-1.17","192","true","img/card_backs/set1/purple.gif","img/card_backs/set1/green.gif","img/card_backs/set1/red.gif","img/card_backs/set1/yellow.gif","img/card_backs/set2/gray.gif","img/card_backs/set2/orange.gif","img/card_backs/set2/pink.gif","img/card_backs/set2/blue.gif","""event"",""trial"",""time""
""fullscreenenter"",""1"",""5977""
","
","
","""event"",""trial"",""time""
""fullscreenenter"",""1"",""5977""
","
","","551.2999999336898","","","","real_trial","2021-04-05 23:00:03.078","img/card_backs/set1/green.gif","0","260","1","",""
"casino-fixation","106","390504","0.0-25.0-0.18","192","true","img/card_backs/set1/purple.gif","img/card_backs/set1/green.gif","img/card_backs/set1/red.gif","img/card_backs/set1/yellow.gif","img/card_backs/set2/gray.gif","img/card_backs/set2/orange.gif","img/card_backs/set2/pink.gif","img/card_backs/set2/blue.gif","""event"",""trial"",""time""
""fullscreenenter"",""1"",""5977""
","
","
","""event"",""trial"",""time""
""fullscreenenter"",""1"",""5977""
","
","","null","","null","","fixation","2021-04-05 23:00:03.583","","","","","",""
"card-selection-trial","107","393732","0.0-25.0-1.18","192","true","img/card_backs/set1/purple.gif","img/card_backs/set1/green.gif","img/card_backs/set1/red.gif","img/card_backs/set1/yellow.gif","img/card_backs/set2/gray.gif","img/card_backs/set2/orange.gif","img/card_backs/set2/pink.gif","img/card_backs/set2/blue.gif","""event"",""trial"",""time""
""fullscreenenter"",""1"",""5977""
","
","
","""event"",""trial"",""time""
""fullscreenenter"",""1"",""5977""
","
","","1221.3800000026822","","","","real_trial","2021-04-05 23:00:06.811","img/card_backs/set1/green.gif","2","240","1","",""
"casino-fixation","108","394234","0.0-25.0-0.19","192","true","img/card_backs/set1/purple.gif","img/card_backs/set1/green.gif","img/card_backs/set1/red.gif","img/card_backs/set1/yellow.gif","img/card_backs/set2/gray.gif","img/card_backs/set2/orange.gif","img/card_backs/set2/pink.gif","img/card_backs/set2/blue.gif","""event"",""trial"",""time""
""fullscreenenter"",""1"",""5977""
","
","
","""event"",""trial"",""time""
""fullscreenenter"",""1"",""5977""
","
","","null","","null","","fixation","2021-04-05 23:00:07.313","","","","","",""
"card-selection-trial","109","398209","0.0-25.0-1.19","192","true","img/card_backs/set1/purple.gif","img/card_backs/set1/green.gif","img/card_backs/set1/red.gif","img/card_backs/set1/yellow.gif","img/card_backs/set2/gray.gif","img/card_backs/set2/orange.gif","img/card_backs/set2/pink.gif","img/card_backs/set2/blue.gif","""event"",""trial"",""time""
""fullscreenenter"",""1"",""5977""
","
","
","""event"",""trial"",""time""
""fullscreenenter"",""1"",""5977""
","
","","1968.4599998872727","","","","real_trial","2021-04-05 23:00:11.288","img/card_backs/set1/red.gif","2","50","1","",""
"casino-fixation","110","398715","0.0-25.0-0.20","192","true","img/card_backs/set1/purple.gif","img/card_backs/set1/green.gif","img/card_backs/set1/red.gif","img/card_backs/set1/yellow.gif","img/card_backs/set2/gray.gif","img/card_backs/set2/orange.gif","img/card_backs/set2/pink.gif","img/card_backs/set2/blue.gif","""event"",""trial"",""time""
""fullscreenenter"",""1"",""5977""
","
","
","""event"",""trial"",""time""
""fullscreenenter"",""1"",""5977""
","
","","null","","null","","fixation","2021-04-05 23:00:11.795","","","","","",""
"card-selection-trial","111","401493","0.0-25.0-1.20","192","true","img/card_backs/set1/purple.gif","img/card_backs/set1/green.gif","img/card_backs/set1/red.gif","img/card_backs/set1/yellow.gif","img/card_backs/set2/gray.gif","img/card_backs/set2/orange.gif","img/card_backs/set2/pink.gif","img/card_backs/set2/blue.gif","""event"",""trial"",""time""
""fullscreenenter"",""1"",""5977""
","
","
","""event"",""trial"",""time""
""fullscreenenter"",""1"",""5977""
","
","","767.4000000115484","","","","real_trial","2021-04-05 23:00:14.572","img/card_backs/set1/red.gif","1","-90","1","",""
"casino-fixation","112","401999","0.0-25.0-0.21","192","true","img/card_backs/set1/purple.gif","img/card_backs/set1/green.gif","img/card_backs/set1/red.gif","img/card_backs/set1/yellow.gif","img/card_backs/set2/gray.gif","img/card_backs/set2/orange.gif","img/card_backs/set2/pink.gif","img/card_backs/set2/blue.gif","""event"",""trial"",""time""
""fullscreenenter"",""1"",""5977""
","
","
","""event"",""trial"",""time""
""fullscreenenter"",""1"",""5977""
","
","","null","","null","","fixation","2021-04-05 23:00:15.078","","","","","",""
"card-selection-trial","113","404995","0.0-25.0-1.21","192","true","img/card_backs/set1/purple.gif","img/card_backs/set1/green.gif","img/card_backs/set1/red.gif","img/card_backs/set1/yellow.gif","img/card_backs/set2/gray.gif","img/card_backs/set2/orange.gif","img/card_backs/set2/pink.gif","img/card_backs/set2/blue.gif","""event"",""trial"",""time""
""fullscreenenter"",""1"",""5977""
","
","
","""event"",""trial"",""time""
""fullscreenenter"",""1"",""5977""
","
","","988.2950000464916","","","","real_trial","2021-04-05 23:00:18.074","img/card_backs/set1/red.gif","2","-90","1","",""
"casino-fixation","114","405498","0.0-25.0-0.22","192","true","img/card_backs/set1/purple.gif","img/card_backs/set1/green.gif","img/card_backs/set1/red.gif","img/card_backs/set1/yellow.gif","img/card_backs/set2/gray.gif","img/card_backs/set2/orange.gif","img/card_backs/set2/pink.gif","img/card_backs/set2/blue.gif","""event"",""trial"",""time""
""fullscreenenter"",""1"",""5977""
","
","
","""event"",""trial"",""time""
""fullscreenenter"",""1"",""5977""
","
","","null","","null","","fixation","2021-04-05 23:00:18.577","","","","","",""
"card-selection-trial","115","408075","0.0-25.0-1.22","192","true","img/card_backs/set1/purple.gif","img/card_backs/set1/green.gif","img/card_backs/set1/red.gif","img/card_backs/set1/yellow.gif","img/card_backs/set2/gray.gif","img/card_backs/set2/orange.gif","img/card_backs/set2/pink.gif","img/card_backs/set2/blue.gif","""event"",""trial"",""time""
""fullscreenenter"",""1"",""5977""
","
","
","""event"",""trial"",""time""
""fullscreenenter"",""1"",""5977""
","
","","568.4300002176315","","","","real_trial","2021-04-05 23:00:21.154","img/card_backs/set1/red.gif","3","-90","1","",""
"casino-fixation","116","408577","0.0-25.0-0.23","192","true","img/card_backs/set1/purple.gif","img/card_backs/set1/green.gif","img/card_backs/set1/red.gif","img/card_backs/set1/yellow.gif","img/card_backs/set2/gray.gif","img/card_backs/set2/orange.gif","img/card_backs/set2/pink.gif","img/card_backs/set2/blue.gif","""event"",""trial"",""time""
""fullscreenenter"",""1"",""5977""
","
","
","""event"",""trial"",""time""
""fullscreenenter"",""1"",""5977""
","
","","null","","null","","fixation","2021-04-05 23:00:21.656","","","","","",""
"card-selection-trial","117","411468","0.0-25.0-1.23","192","true","img/card_backs/set1/purple.gif","img/card_backs/set1/green.gif","img/card_backs/set1/red.gif","img/card_backs/set1/yellow.gif","img/card_backs/set2/gray.gif","img/card_backs/set2/orange.gif","img/card_backs/set2/pink.gif","img/card_backs/set2/blue.gif","""event"",""trial"",""time""
""fullscreenenter"",""1"",""5977""
","
","
","""event"",""trial"",""time""
""fullscreenenter"",""1"",""5977""
","
","","884.4749999698251","","","","real_trial","2021-04-05 23:00:24.547","img/card_backs/set1/yellow.gif","1","-100","1","",""
"casino-fixation","118","411972","0.0-25.0-0.24","192","true","img/card_backs/set1/purple.gif","img/card_backs/set1/green.gif","img/card_backs/set1/red.gif","img/card_backs/set1/yellow.gif","img/card_backs/set2/gray.gif","img/card_backs/set2/orange.gif","img/card_backs/set2/pink.gif","img/card_backs/set2/blue.gif","""event"",""trial"",""time""
""fullscreenenter"",""1"",""5977""
","
","
","""event"",""trial"",""time""
""fullscreenenter"",""1"",""5977""
","
","","null","","null","","fixation","2021-04-05 23:00:25.051","","","","","",""
"card-selection-trial","119","414599","0.0-25.0-1.24","192","true","img/card_backs/set1/purple.gif","img/card_backs/set1/green.gif","img/card_backs/set1/red.gif","img/card_backs/set1/yellow.gif","img/card_backs/set2/gray.gif","img/card_backs/set2/orange.gif","img/card_backs/set2/pink.gif","img/card_backs/set2/blue.gif","""event"",""trial"",""time""
""fullscreenenter"",""1"",""5977""
","
","
","""event"",""trial"",""time""
""fullscreenenter"",""1"",""5977""
","
","","616.9000000227243","","","","real_trial","2021-04-05 23:00:27.678","img/card_backs/set1/yellow.gif","0","-90","1","",""
"casino-fixation","120","415103","0.0-25.0-0.25","192","true","img/card_backs/set1/purple.gif","img/card_backs/set1/green.gif","img/card_backs/set1/red.gif","img/card_backs/set1/yellow.gif","img/card_backs/set2/gray.gif","img/card_backs/set2/orange.gif","img/card_backs/set2/pink.gif","img/card_backs/set2/blue.gif","""event"",""trial"",""time""
""fullscreenenter"",""1"",""5977""
","
","
","""event"",""trial"",""time""
""fullscreenenter"",""1"",""5977""
","
","","null","","null","","fixation","2021-04-05 23:00:28.182","","","","","",""
"card-selection-trial","121","418059","0.0-25.0-1.25","192","true","img/card_backs/set1/purple.gif","img/card_backs/set1/green.gif","img/card_backs/set1/red.gif","img/card_backs/set1/yellow.gif","img/card_backs/set2/gray.gif","img/card_backs/set2/orange.gif","img/card_backs/set2/pink.gif","img/card_backs/set2/blue.gif","""event"",""trial"",""time""
""fullscreenenter"",""1"",""5977""
","
","
","""event"",""trial"",""time""
""fullscreenenter"",""1"",""5977""
","
","","951.1849998962134","","","","real_trial","2021-04-05 23:00:31.138","img/card_backs/set1/purple.gif","0","240","1","",""
"casino-fixation","122","418564","0.0-25.0-0.26","192","true","img/card_backs/set1/purple.gif","img/card_backs/set1/green.gif","img/card_backs/set1/red.gif","img/card_backs/set1/yellow.gif","img/card_backs/set2/gray.gif","img/card_backs/set2/orange.gif","img/card_backs/set2/pink.gif","img/card_backs/set2/blue.gif","""event"",""trial"",""time""
""fullscreenenter"",""1"",""5977""
","
","
","""event"",""trial"",""time""
""fullscreenenter"",""1"",""5977""
","
","","null","","null","","fixation","2021-04-05 23:00:31.643","","","","","",""
"card-selection-trial","123","421650","0.0-25.0-1.26","192","true","img/card_backs/set1/purple.gif","img/card_backs/set1/green.gif","img/card_backs/set1/red.gif","img/card_backs/set1/yellow.gif","img/card_backs/set2/gray.gif","img/card_backs/set2/orange.gif","img/card_backs/set2/pink.gif","img/card_backs/set2/blue.gif","""event"",""trial"",""time""
""fullscreenenter"",""1"",""5977""
","
","
","""event"",""trial"",""time""
""fullscreenenter"",""1"",""5977""
","
","","1077.7900000102818","","","","real_trial","2021-04-05 23:00:34.729","img/card_backs/set1/purple.gif","2","260","1","",""
"casino-fixation","124","422152","0.0-25.0-0.27","192","true","img/card_backs/set1/purple.gif","img/card_backs/set1/green.gif","img/card_backs/set1/red.gif","img/card_backs/set1/yellow.gif","img/card_backs/set2/gray.gif","img/card_backs/set2/orange.gif","img/card_backs/set2/pink.gif","img/card_backs/set2/blue.gif","""event"",""trial"",""time""
""fullscreenenter"",""1"",""5977""
","
","
","""event"",""trial"",""time""
""fullscreenenter"",""1"",""5977""
","
","","null","","null","","fixation","2021-04-05 23:00:35.231","","","","","",""
"card-selection-trial","125","424743","0.0-25.0-1.27","192","true","img/card_backs/set1/purple.gif","img/card_backs/set1/green.gif","img/card_backs/set1/red.gif","img/card_backs/set1/yellow.gif","img/card_backs/set2/gray.gif","img/card_backs/set2/orange.gif","img/card_backs/set2/pink.gif","img/card_backs/set2/blue.gif","""event"",""trial"",""time""
""fullscreenenter"",""1"",""5977""
","
","
","""event"",""trial"",""time""
""fullscreenenter"",""1"",""5977""
","
","","581.9900000933558","","","","real_trial","2021-04-05 23:00:37.822","img/card_backs/set1/purple.gif","3","240","1","",""
"casino-fixation","126","425248","0.0-25.0-0.28","192","true","img/card_backs/set1/purple.gif","img/card_backs/set1/green.gif","img/card_backs/set1/red.gif","img/card_backs/set1/yellow.gif","img/card_backs/set2/gray.gif","img/card_backs/set2/orange.gif","img/card_backs/set2/pink.gif","img/card_backs/set2/blue.gif","""event"",""trial"",""time""
""fullscreenenter"",""1"",""5977""
","
","
","""event"",""trial"",""time""
""fullscreenenter"",""1"",""5977""
","
","","null","","null","","fixation","2021-04-05 23:00:38.327","","","","","",""
"card-selection-trial","127","427771","0.0-25.0-1.28","192","true","img/card_backs/set1/purple.gif","img/card_backs/set1/green.gif","img/card_backs/set1/red.gif","img/card_backs/set1/yellow.gif","img/card_backs/set2/gray.gif","img/card_backs/set2/orange.gif","img/card_backs/set2/pink.gif","img/card_backs/set2/blue.gif","""event"",""trial"",""time""
""fullscreenenter"",""1"",""5977""
","
","
","""event"",""trial"",""time""
""fullscreenenter"",""1"",""5977""
","
","","513.6150000616908","","","","real_trial","2021-04-05 23:00:40.851","img/card_backs/set1/purple.gif","0","-200","1","",""
"casino-fixation","128","428274","0.0-25.0-0.29","192","true","img/card_backs/set1/purple.gif","img/card_backs/set1/green.gif","img/card_backs/set1/red.gif","img/card_backs/set1/yellow.gif","img/card_backs/set2/gray.gif","img/card_backs/set2/orange.gif","img/card_backs/set2/pink.gif","img/card_backs/set2/blue.gif","""event"",""trial"",""time""
""fullscreenenter"",""1"",""5977""
","
","
","""event"",""trial"",""time""
""fullscreenenter"",""1"",""5977""
","
","","null","","null","","fixation","2021-04-05 23:00:41.353","","","","","",""
"card-selection-trial","129","430932","0.0-25.0-1.29","192","true","img/card_backs/set1/purple.gif","img/card_backs/set1/green.gif","img/card_backs/set1/red.gif","img/card_backs/set1/yellow.gif","img/card_backs/set2/gray.gif","img/card_backs/set2/orange.gif","img/card_backs/set2/pink.gif","img/card_backs/set2/blue.gif","""event"",""trial"",""time""
""fullscreenenter"",""1"",""5977""
","
","
","""event"",""trial"",""time""
""fullscreenenter"",""1"",""5977""
","
","","650.215000147","","","","real_trial","2021-04-05 23:00:44.011","img/card_backs/set1/purple.gif","0","240","1","",""
"casino-fixation","130","431436","0.0-25.0-0.30","192","true","img/card_backs/set1/purple.gif","img/card_backs/set1/green.gif","img/card_backs/set1/red.gif","img/card_backs/set1/yellow.gif","img/card_backs/set2/gray.gif","img/card_backs/set2/orange.gif","img/card_backs/set2/pink.gif","img/card_backs/set2/blue.gif","""event"",""trial"",""time""
""fullscreenenter"",""1"",""5977""
","
","
","""event"",""trial"",""time""
""fullscreenenter"",""1"",""5977""
","
","","null","","null","","fixation","2021-04-05 23:00:44.515","","","","","",""
"card-selection-trial","131","434482","0.0-25.0-1.30","192","true","img/card_backs/set1/purple.gif","img/card_backs/set1/green.gif","img/card_backs/set1/red.gif","img/card_backs/set1/yellow.gif","img/card_backs/set2/gray.gif","img/card_backs/set2/orange.gif","img/card_backs/set2/pink.gif","img/card_backs/set2/blue.gif","""event"",""trial"",""time""
""fullscreenenter"",""1"",""5977""
","
","
","""event"",""trial"",""time""
""fullscreenenter"",""1"",""5977""
","
","","1037.1399999130517","","","","real_trial","2021-04-05 23:00:47.561","img/card_backs/set1/purple.gif","2","-200","1","",""
"casino-fixation","132","434987","0.0-25.0-0.31","192","true","img/card_backs/set1/purple.gif","img/card_backs/set1/green.gif","img/card_backs/set1/red.gif","img/card_backs/set1/yellow.gif","img/card_backs/set2/gray.gif","img/card_backs/set2/orange.gif","img/card_backs/set2/pink.gif","img/card_backs/set2/blue.gif","""event"",""trial"",""time""
""fullscreenenter"",""1"",""5977""
","
","
","""event"",""trial"",""time""
""fullscreenenter"",""1"",""5977""
","
","","null","","null","","fixation","2021-04-05 23:00:48.066","","","","","",""
"card-selection-trial","133","437758","0.0-25.0-1.31","192","true","img/card_backs/set1/purple.gif","img/card_backs/set1/green.gif","img/card_backs/set1/red.gif","img/card_backs/set1/yellow.gif","img/card_backs/set2/gray.gif","img/card_backs/set2/orange.gif","img/card_backs/set2/pink.gif","img/card_backs/set2/blue.gif","""event"",""trial"",""time""
""fullscreenenter"",""1"",""5977""
","
","
","""event"",""trial"",""time""
""fullscreenenter"",""1"",""5977""
","
","","762.5450000632554","","","","real_trial","2021-04-05 23:00:50.837","img/card_backs/set1/purple.gif","2","-210","1","",""
"casino-fixation","134","438263","0.0-25.0-0.32","192","true","img/card_backs/set1/purple.gif","img/card_backs/set1/green.gif","img/card_backs/set1/red.gif","img/card_backs/set1/yellow.gif","img/card_backs/set2/gray.gif","img/card_backs/set2/orange.gif","img/card_backs/set2/pink.gif","img/card_backs/set2/blue.gif","""event"",""trial"",""time""
""fullscreenenter"",""1"",""5977""
","
","
","""event"",""trial"",""time""
""fullscreenenter"",""1"",""5977""
","
","","null","","null","","fixation","2021-04-05 23:00:51.342","","","","","",""
"card-selection-trial","135","440866","0.0-25.0-1.32","192","true","img/card_backs/set1/purple.gif","img/card_backs/set1/green.gif","img/card_backs/set1/red.gif","img/card_backs/set1/yellow.gif","img/card_backs/set2/gray.gif","img/card_backs/set2/orange.gif","img/card_backs/set2/pink.gif","img/card_backs/set2/blue.gif","""event"",""trial"",""time""
""fullscreenenter"",""1"",""5977""
","
","
","""event"",""trial"",""time""
""fullscreenenter"",""1"",""5977""
","
","","596.2500001769513","","","","real_trial","2021-04-05 23:00:53.945","img/card_backs/set1/purple.gif","3","-210","1","",""
"casino-fixation","136","441371","0.0-25.0-0.33","192","true","img/card_backs/set1/purple.gif","img/card_backs/set1/green.gif","img/card_backs/set1/red.gif","img/card_backs/set1/yellow.gif","img/card_backs/set2/gray.gif","img/card_backs/set2/orange.gif","img/card_backs/set2/pink.gif","img/card_backs/set2/blue.gif","""event"",""trial"",""time""
""fullscreenenter"",""1"",""5977""
","
","
","""event"",""trial"",""time""
""fullscreenenter"",""1"",""5977""
","
","","null","","null","","fixation","2021-04-05 23:00:54.450","","","","","",""
"card-selection-trial","137","444094","0.0-25.0-1.33","192","true","img/card_backs/set1/purple.gif","img/card_backs/set1/green.gif","img/card_backs/set1/red.gif","img/card_backs/set1/yellow.gif","img/card_backs/set2/gray.gif","img/card_backs/set2/orange.gif","img/card_backs/set2/pink.gif","img/card_backs/set2/blue.gif","""event"",""trial"",""time""
""fullscreenenter"",""1"",""5977""
","
","
","""event"",""trial"",""time""
""fullscreenenter"",""1"",""5977""
","
","","713.0750000942498","","","","real_trial","2021-04-05 23:00:57.173","img/card_backs/set1/purple.gif","2","-200","1","",""
"casino-fixation","138","444599","0.0-25.0-0.34","192","true","img/card_backs/set1/purple.gif","img/card_backs/set1/green.gif","img/card_backs/set1/red.gif","img/card_backs/set1/yellow.gif","img/card_backs/set2/gray.gif","img/card_backs/set2/orange.gif","img/card_backs/set2/pink.gif","img/card_backs/set2/blue.gif","""event"",""trial"",""time""
""fullscreenenter"",""1"",""5977""
","
","
","""event"",""trial"",""time""
""fullscreenenter"",""1"",""5977""
","
","","null","","null","","fixation","2021-04-05 23:00:57.678","","","","","",""
"card-selection-trial","139","447870","0.0-25.0-1.34","192","true","img/card_backs/set1/purple.gif","img/card_backs/set1/green.gif","img/card_backs/set1/red.gif","img/card_backs/set1/yellow.gif","img/card_backs/set2/gray.gif","img/card_backs/set2/orange.gif","img/card_backs/set2/pink.gif","img/card_backs/set2/blue.gif","""event"",""trial"",""time""
""fullscreenenter"",""1"",""5977""
","
","
","""event"",""trial"",""time""
""fullscreenenter"",""1"",""5977""
","
","","1263.4000000543892","","","","real_trial","2021-04-05 23:01:00.949","img/card_backs/set1/purple.gif","2","-200","1","",""
"casino-fixation","140","448371","0.0-25.0-0.35","192","true","img/card_backs/set1/purple.gif","img/card_backs/set1/green.gif","img/card_backs/set1/red.gif","img/card_backs/set1/yellow.gif","img/card_backs/set2/gray.gif","img/card_backs/set2/orange.gif","img/card_backs/set2/pink.gif","img/card_backs/set2/blue.gif","""event"",""trial"",""time""
""fullscreenenter"",""1"",""5977""
","
","
","""event"",""trial"",""time""
""fullscreenenter"",""1"",""5977""
","
","","null","","null","","fixation","2021-04-05 23:01:01.450","","","","","",""
"card-selection-trial","141","450876","0.0-25.0-1.35","192","true","img/card_backs/set1/purple.gif","img/card_backs/set1/green.gif","img/card_backs/set1/red.gif","img/card_backs/set1/yellow.gif","img/card_backs/set2/gray.gif","img/card_backs/set2/orange.gif","img/card_backs/set2/pink.gif","img/card_backs/set2/blue.gif","""event"",""trial"",""time""
""fullscreenenter"",""1"",""5977""
","
","
","""event"",""trial"",""time""
""fullscreenenter"",""1"",""5977""
","
","","498.1400000397116","","","","real_trial","2021-04-05 23:01:03.955","img/card_backs/set1/purple.gif","0","-190","1","",""
"casino-fixation","142","451379","0.0-25.0-0.36","192","true","img/card_backs/set1/purple.gif","img/card_backs/set1/green.gif","img/card_backs/set1/red.gif","img/card_backs/set1/yellow.gif","img/card_backs/set2/gray.gif","img/card_backs/set2/orange.gif","img/card_backs/set2/pink.gif","img/card_backs/set2/blue.gif","""event"",""trial"",""time""
""fullscreenenter"",""1"",""5977""
","
","
","""event"",""trial"",""time""
""fullscreenenter"",""1"",""5977""
","
","","null","","null","","fixation","2021-04-05 23:01:04.459","","","","","",""
"card-selection-trial","143","454387","0.0-25.0-1.36","192","true","img/card_backs/set1/purple.gif","img/card_backs/set1/green.gif","img/card_backs/set1/red.gif","img/card_backs/set1/yellow.gif","img/card_backs/set2/gray.gif","img/card_backs/set2/orange.gif","img/card_backs/set2/pink.gif","img/card_backs/set2/blue.gif","""event"",""trial"",""time""
""fullscreenenter"",""1"",""5977""
","
","
","""event"",""trial"",""time""
""fullscreenenter"",""1"",""5977""
","
","","997.1050000749528","","","","real_trial","2021-04-05 23:01:07.466","img/card_backs/set1/purple.gif","2","-200","1","",""
"casino-fixation","144","454889","0.0-25.0-0.37","192","true","img/card_backs/set1/purple.gif","img/card_backs/set1/green.gif","img/card_backs/set1/red.gif","img/card_backs/set1/yellow.gif","img/card_backs/set2/gray.gif","img/card_backs/set2/orange.gif","img/card_backs/set2/pink.gif","img/card_backs/set2/blue.gif","""event"",""trial"",""time""
""fullscreenenter"",""1"",""5977""
","
","
","""event"",""trial"",""time""
""fullscreenenter"",""1"",""5977""
","
","","null","","null","","fixation","2021-04-05 23:01:07.968","","","","","",""
"card-selection-trial","145","457426","0.0-25.0-1.37","192","true","img/card_backs/set1/purple.gif","img/card_backs/set1/green.gif","img/card_backs/set1/red.gif","img/card_backs/set1/yellow.gif","img/card_backs/set2/gray.gif","img/card_backs/set2/orange.gif","img/card_backs/set2/pink.gif","img/card_backs/set2/blue.gif","""event"",""trial"",""time""
""fullscreenenter"",""1"",""5977""
","
","
","""event"",""trial"",""time""
""fullscreenenter"",""1"",""5977""
","
","","528.8450000807643","","","","real_trial","2021-04-05 23:01:10.505","img/card_backs/set1/purple.gif","0","-190","1","",""
"casino-fixation","146","457929","0.0-25.0-0.38","192","true","img/card_backs/set1/purple.gif","img/card_backs/set1/green.gif","img/card_backs/set1/red.gif","img/card_backs/set1/yellow.gif","img/card_backs/set2/gray.gif","img/card_backs/set2/orange.gif","img/card_backs/set2/pink.gif","img/card_backs/set2/blue.gif","""event"",""trial"",""time""
""fullscreenenter"",""1"",""5977""
","
","
","""event"",""trial"",""time""
""fullscreenenter"",""1"",""5977""
","
","","null","","null","","fixation","2021-04-05 23:01:11.008","","","","","",""
"card-selection-trial","147","460873","0.0-25.0-1.38","192","true","img/card_backs/set1/purple.gif","img/card_backs/set1/green.gif","img/card_backs/set1/red.gif","img/card_backs/set1/yellow.gif","img/card_backs/set2/gray.gif","img/card_backs/set2/orange.gif","img/card_backs/set2/pink.gif","img/card_backs/set2/blue.gif","""event"",""trial"",""time""
""fullscreenenter"",""1"",""5977""
","
","
","""event"",""trial"",""time""
""fullscreenenter"",""1"",""5977""
","
","","936.1299998126924","","","","real_trial","2021-04-05 23:01:13.952","img/card_backs/set1/red.gif","0","-100","1","",""
"casino-fixation","148","461375","0.0-25.0-0.39","192","true","img/card_backs/set1/purple.gif","img/card_backs/set1/green.gif","img/card_backs/set1/red.gif","img/card_backs/set1/yellow.gif","img/card_backs/set2/gray.gif","img/card_backs/set2/orange.gif","img/card_backs/set2/pink.gif","img/card_backs/set2/blue.gif","""event"",""trial"",""time""
""fullscreenenter"",""1"",""5977""
","
","
","""event"",""trial"",""time""
""fullscreenenter"",""1"",""5977""
","
","","null","","null","","fixation","2021-04-05 23:01:14.454","","","","","",""
"card-selection-trial","149","464031","0.0-25.0-1.39","192","true","img/card_backs/set1/purple.gif","img/card_backs/set1/green.gif","img/card_backs/set1/red.gif","img/card_backs/set1/yellow.gif","img/card_backs/set2/gray.gif","img/card_backs/set2/orange.gif","img/card_backs/set2/pink.gif","img/card_backs/set2/blue.gif","""event"",""trial"",""time""
""fullscreenenter"",""1"",""5977""
","
","
","""event"",""trial"",""time""
""fullscreenenter"",""1"",""5977""
","
","","649.6300001163036","","","","real_trial","2021-04-05 23:01:17.110","img/card_backs/set1/purple.gif","3","-190","1","",""
"casino-fixation","150","464532","0.0-25.0-0.40","192","true","img/card_backs/set1/purple.gif","img/card_backs/set1/green.gif","img/card_backs/set1/red.gif","img/card_backs/set1/yellow.gif","img/card_backs/set2/gray.gif","img/card_backs/set2/orange.gif","img/card_backs/set2/pink.gif","img/card_backs/set2/blue.gif","""event"",""trial"",""time""
""fullscreenenter"",""1"",""5977""
","
","
","""event"",""trial"",""time""
""fullscreenenter"",""1"",""5977""
","
","","null","","null","","fixation","2021-04-05 23:01:17.611","","","","","",""
"card-selection-trial","151","468432","0.0-25.0-1.40","192","true","img/card_backs/set1/purple.gif","img/card_backs/set1/green.gif","img/card_backs/set1/red.gif","img/card_backs/set1/yellow.gif","img/card_backs/set2/gray.gif","img/card_backs/set2/orange.gif","img/card_backs/set2/pink.gif","img/card_backs/set2/blue.gif","""event"",""trial"",""time""
""fullscreenenter"",""1"",""5977""
","
","
","""event"",""trial"",""time""
""fullscreenenter"",""1"",""5977""
","
","","1893.1150001008064","","","","real_trial","2021-04-05 23:01:21.511","img/card_backs/set1/purple.gif","2","-210","1","",""
"casino-fixation","152","468936","0.0-25.0-0.41","192","true","img/card_backs/set1/purple.gif","img/card_backs/set1/green.gif","img/card_backs/set1/red.gif","img/card_backs/set1/yellow.gif","img/card_backs/set2/gray.gif","img/card_backs/set2/orange.gif","img/card_backs/set2/pink.gif","img/card_backs/set2/blue.gif","""event"",""trial"",""time""
""fullscreenenter"",""1"",""5977""
","
","
","""event"",""trial"",""time""
""fullscreenenter"",""1"",""5977""
","
","","null","","null","","fixation","2021-04-05 23:01:22.015","","","","","",""
"card-selection-trial","153","471491","0.0-25.0-1.41","192","true","img/card_backs/set1/purple.gif","img/card_backs/set1/green.gif","img/card_backs/set1/red.gif","img/card_backs/set1/yellow.gif","img/card_backs/set2/gray.gif","img/card_backs/set2/orange.gif","img/card_backs/set2/pink.gif","img/card_backs/set2/blue.gif","""event"",""trial"",""time""
""fullscreenenter"",""1"",""5977""
","
","
","""event"",""trial"",""time""
""fullscreenenter"",""1"",""5977""
","
","","545.3449999913573","","","","real_trial","2021-04-05 23:01:24.570","img/card_backs/set1/red.gif","0","-100","1","",""
"casino-fixation","154","471994","0.0-25.0-0.42","192","true","img/card_backs/set1/purple.gif","img/card_backs/set1/green.gif","img/card_backs/set1/red.gif","img/card_backs/set1/yellow.gif","img/card_backs/set2/gray.gif","img/card_backs/set2/orange.gif","img/card_backs/set2/pink.gif","img/card_backs/set2/blue.gif","""event"",""trial"",""time""
""fullscreenenter"",""1"",""5977""
","
","
","""event"",""trial"",""time""
""fullscreenenter"",""1"",""5977""
","
","","null","","null","","fixation","2021-04-05 23:01:25.073","","","","","",""
"card-selection-trial","155","474715","0.0-25.0-1.42","192","true","img/card_backs/set1/purple.gif","img/card_backs/set1/green.gif","img/card_backs/set1/red.gif","img/card_backs/set1/yellow.gif","img/card_backs/set2/gray.gif","img/card_backs/set2/orange.gif","img/card_backs/set2/pink.gif","img/card_backs/set2/blue.gif","""event"",""trial"",""time""
""fullscreenenter"",""1"",""5977""
","
","
","""event"",""trial"",""time""
""fullscreenenter"",""1"",""5977""
","
","","711.8699999991804","","","","real_trial","2021-04-05 23:01:27.794","img/card_backs/set1/purple.gif","3","240","1","",""
"casino-fixation","156","475217","0.0-25.0-0.43","192","true","img/card_backs/set1/purple.gif","img/card_backs/set1/green.gif","img/card_backs/set1/red.gif","img/card_backs/set1/yellow.gif","img/card_backs/set2/gray.gif","img/card_backs/set2/orange.gif","img/card_backs/set2/pink.gif","img/card_backs/set2/blue.gif","""event"",""trial"",""time""
""fullscreenenter"",""1"",""5977""
","
","
","""event"",""trial"",""time""
""fullscreenenter"",""1"",""5977""
","
","","null","","null","","fixation","2021-04-05 23:01:28.296","","","","","",""
"card-selection-trial","157","477732","0.0-25.0-1.43","192","true","img/card_backs/set1/purple.gif","img/card_backs/set1/green.gif","img/card_backs/set1/red.gif","img/card_backs/set1/yellow.gif","img/card_backs/set2/gray.gif","img/card_backs/set2/orange.gif","img/card_backs/set2/pink.gif","img/card_backs/set2/blue.gif","""event"",""trial"",""time""
""fullscreenenter"",""1"",""5977""
","
","
","""event"",""trial"",""time""
""fullscreenenter"",""1"",""5977""
","
","","506.56999996863306","","","","real_trial","2021-04-05 23:01:30.811","img/card_backs/set1/purple.gif","3","260","1","",""
"casino-fixation","158","478236","0.0-25.0-0.44","192","true","img/card_backs/set1/purple.gif","img/card_backs/set1/green.gif","img/card_backs/set1/red.gif","img/card_backs/set1/yellow.gif","img/card_backs/set2/gray.gif","img/card_backs/set2/orange.gif","img/card_backs/set2/pink.gif","img/card_backs/set2/blue.gif","""event"",""trial"",""time""
""fullscreenenter"",""1"",""5977""
","
","
","""event"",""trial"",""time""
""fullscreenenter"",""1"",""5977""
","
","","null","","null","","fixation","2021-04-05 23:01:31.315","","","","","",""
"card-selection-trial","159","480832","0.0-25.0-1.44","192","true","img/card_backs/set1/purple.gif","img/card_backs/set1/green.gif","img/card_backs/set1/red.gif","img/card_backs/set1/yellow.gif","img/card_backs/set2/gray.gif","img/card_backs/set2/orange.gif","img/card_backs/set2/pink.gif","img/card_backs/set2/blue.gif","""event"",""trial"",""time""
""fullscreenenter"",""1"",""5977""
","
","
","""event"",""trial"",""time""
""fullscreenenter"",""1"",""5977""
","
","","587.3749998863786","","","","real_trial","2021-04-05 23:01:33.911","img/card_backs/set1/purple.gif","3","-190","1","",""
"casino-fixation","160","481333","0.0-25.0-0.45","192","true","img/card_backs/set1/purple.gif","img/card_backs/set1/green.gif","img/card_backs/set1/red.gif","img/card_backs/set1/yellow.gif","img/card_backs/set2/gray.gif","img/card_backs/set2/orange.gif","img/card_backs/set2/pink.gif","img/card_backs/set2/blue.gif","""event"",""trial"",""time""
""fullscreenenter"",""1"",""5977""
","
","
","""event"",""trial"",""time""
""fullscreenenter"",""1"",""5977""
","
","","null","","null","","fixation","2021-04-05 23:01:34.413","","","","","",""
"card-selection-trial","161","484216","0.0-25.0-1.45","192","true","img/card_backs/set1/purple.gif","img/card_backs/set1/green.gif","img/card_backs/set1/red.gif","img/card_backs/set1/yellow.gif","img/card_backs/set2/gray.gif","img/card_backs/set2/orange.gif","img/card_backs/set2/pink.gif","img/card_backs/set2/blue.gif","""event"",""trial"",""time""
""fullscreenenter"",""1"",""5977""
","
","
","""event"",""trial"",""time""
""fullscreenenter"",""1"",""5977""
","
","","872.2800000105053","","","","real_trial","2021-04-05 23:01:37.295","img/card_backs/set1/purple.gif","2","250","1","",""
"casino-fixation","162","484722","0.0-25.0-0.46","192","true","img/card_backs/set1/purple.gif","img/card_backs/set1/green.gif","img/card_backs/set1/red.gif","img/card_backs/set1/yellow.gif","img/card_backs/set2/gray.gif","img/card_backs/set2/orange.gif","img/card_backs/set2/pink.gif","img/card_backs/set2/blue.gif","""event"",""trial"",""time""
""fullscreenenter"",""1"",""5977""
","
","
","""event"",""trial"",""time""
""fullscreenenter"",""1"",""5977""
","
","","null","","null","","fixation","2021-04-05 23:01:37.801","","","","","",""
"card-selection-trial","163","488391","0.0-25.0-1.46","192","true","img/card_backs/set1/purple.gif","img/card_backs/set1/green.gif","img/card_backs/set1/red.gif","img/card_backs/set1/yellow.gif","img/card_backs/set2/gray.gif","img/card_backs/set2/orange.gif","img/card_backs/set2/pink.gif","img/card_backs/set2/blue.gif","""event"",""trial"",""time""
""fullscreenenter"",""1"",""5977""
","
","
","""event"",""trial"",""time""
""fullscreenenter"",""1"",""5977""
","
","","1663.2399999070913","","","","real_trial","2021-04-05 23:01:41.470","img/card_backs/set1/purple.gif","3","-190","1","",""
"casino-fixation","164","488895","0.0-25.0-0.47","192","true","img/card_backs/set1/purple.gif","img/card_backs/set1/green.gif","img/card_backs/set1/red.gif","img/card_backs/set1/yellow.gif","img/card_backs/set2/gray.gif","img/card_backs/set2/orange.gif","img/card_backs/set2/pink.gif","img/card_backs/set2/blue.gif","""event"",""trial"",""time""
""fullscreenenter"",""1"",""5977""
","
","
","""event"",""trial"",""time""
""fullscreenenter"",""1"",""5977""
","
","","null","","null","","fixation","2021-04-05 23:01:41.974","","","","","",""
"card-selection-trial","165","492501","0.0-25.0-1.47","192","true","img/card_backs/set1/purple.gif","img/card_backs/set1/green.gif","img/card_backs/set1/red.gif","img/card_backs/set1/yellow.gif","img/card_backs/set2/gray.gif","img/card_backs/set2/orange.gif","img/card_backs/set2/pink.gif","img/card_backs/set2/blue.gif","""event"",""trial"",""time""
""fullscreenenter"",""1"",""5977""
","
","
","""event"",""trial"",""time""
""fullscreenenter"",""1"",""5977""
","
","","1600.0900000799447","","","","real_trial","2021-04-05 23:01:45.580","img/card_backs/set1/purple.gif","2","250","1","",""
"casino-fixation","166","493041","0.0-25.0-0.48","192","true","img/card_backs/set1/purple.gif","img/card_backs/set1/green.gif","img/card_backs/set1/red.gif","img/card_backs/set1/yellow.gif","img/card_backs/set2/gray.gif","img/card_backs/set2/orange.gif","img/card_backs/set2/pink.gif","img/card_backs/set2/blue.gif","""event"",""trial"",""time""
""fullscreenenter"",""1"",""5977""
","
","
","""event"",""trial"",""time""
""fullscreenenter"",""1"",""5977""
","
","","null","","null","","fixation","2021-04-05 23:01:46.120","","","","","",""
"card-selection-trial","167","496528","0.0-25.0-1.48","192","true","img/card_backs/set1/purple.gif","img/card_backs/set1/green.gif","img/card_backs/set1/red.gif","img/card_backs/set1/yellow.gif","img/card_backs/set2/gray.gif","img/card_backs/set2/orange.gif","img/card_backs/set2/pink.gif","img/card_backs/set2/blue.gif","""event"",""trial"",""time""
""fullscreenenter"",""1"",""5977""
","
","
