"trial_type","trial_index","time_elapsed","internal_node_id","sub_id","risk_good_first","block1_A","block1_B","block1_C","block1_D","block2_A","block2_B","block2_C","block2_D","interactions","blur_events","focus_events","fullscreenenter_events","fullscreenexit_events","success","rt","stimulus","key_press","button_pressed","task_part","timestamp","card_choice","choice_position","points_earned","block","correct","response"
"pavlovia","0","4","0.0-0.0","200","true","img/card_backs/set1/purple.gif","img/card_backs/set1/green.gif","img/card_backs/set1/yellow.gif","img/card_backs/set1/red.gif","img/card_backs/set2/pink.gif","img/card_backs/set2/blue.gif","img/card_backs/set2/orange.gif","img/card_backs/set2/gray.gif","""event"",""trial"",""time""
""fullscreenenter"",""1"",""3241""
","
","
","""event"",""trial"",""time""
""fullscreenenter"",""1"",""3241""
","
","","","","","","","","","","","","",""
"fullscreen","1","4218","0.0-1.0","200","true","img/card_backs/set1/purple.gif","img/card_backs/set1/green.gif","img/card_backs/set1/yellow.gif","img/card_backs/set1/red.gif","img/card_backs/set2/pink.gif","img/card_backs/set2/blue.gif","img/card_backs/set2/orange.gif","img/card_backs/set2/gray.gif","""event"",""trial"",""time""
""fullscreenenter"",""1"",""3241""
","
","
","""event"",""trial"",""time""
""fullscreenenter"",""1"",""3241""
","
","true","","","","","","","","","","","",""
"audio-keyboard-response","2","6813","0.0-2.0","200","true","img/card_backs/set1/purple.gif","img/card_backs/set1/green.gif","img/card_backs/set1/yellow.gif","img/card_backs/set1/red.gif","img/card_backs/set2/pink.gif","img/card_backs/set2/blue.gif","img/card_backs/set2/orange.gif","img/card_backs/set2/gray.gif","""event"",""trial"",""time""
""fullscreenenter"",""1"",""3241""
","
","
","""event"",""trial"",""time""
""fullscreenenter"",""1"",""3241""
","
","","2549","audio/beep_loop.wav","32","","","","","","","","",""
"audio-button-response","3","14316","0.0-3.0","200","true","img/card_backs/set1/purple.gif","img/card_backs/set1/green.gif","img/card_backs/set1/yellow.gif","img/card_backs/set1/red.gif","img/card_backs/set2/pink.gif","img/card_backs/set2/blue.gif","img/card_backs/set2/orange.gif","img/card_backs/set2/gray.gif","""event"",""trial"",""time""
""fullscreenenter"",""1"",""3241""
","
","
","""event"",""trial"",""time""
""fullscreenenter"",""1"",""3241""
","
","","NaN","audio/turtle.mp3","","3","","","","","","","",""
"audio-button-response","4","17098","0.0-4.0","200","true","img/card_backs/set1/purple.gif","img/card_backs/set1/green.gif","img/card_backs/set1/yellow.gif","img/card_backs/set1/red.gif","img/card_backs/set2/pink.gif","img/card_backs/set2/blue.gif","img/card_backs/set2/orange.gif","img/card_backs/set2/gray.gif","""event"",""trial"",""time""
""fullscreenenter"",""1"",""3241""
","
","
","""event"",""trial"",""time""
""fullscreenenter"",""1"",""3241""
","
","","NaN","audio/shark.mp3","","2","","","","","","","",""
"fullscreen","5","20189","0.0-5.0","200","true","img/card_backs/set1/purple.gif","img/card_backs/set1/green.gif","img/card_backs/set1/yellow.gif","img/card_backs/set1/red.gif","img/card_backs/set2/pink.gif","img/card_backs/set2/blue.gif","img/card_backs/set2/orange.gif","img/card_backs/set2/gray.gif","""event"",""trial"",""time""
""fullscreenenter"",""1"",""3241""
","
","
","""event"",""trial"",""time""
""fullscreenenter"",""1"",""3241""
","
","true","","","","","","","","","","","",""
"casino-keyboard-response","6","23956","0.0-6.0-0.0","200","true","img/card_backs/set1/purple.gif","img/card_backs/set1/green.gif","img/card_backs/set1/yellow.gif","img/card_backs/set1/red.gif","img/card_backs/set2/pink.gif","img/card_backs/set2/blue.gif","img/card_backs/set2/orange.gif","img/card_backs/set2/gray.gif","""event"",""trial"",""time""
""fullscreenenter"",""1"",""3241""
","
","
","""event"",""trial"",""time""
""fullscreenenter"",""1"",""3241""
","
","","3759.399999976158","Welcome to the casino!","71","","instructions","2021-06-21 23:43:46.518","","","","","",""
"casino-keyboard-response","7","33452","0.0-6.0-0.1","200","true","img/card_backs/set1/purple.gif","img/card_backs/set1/green.gif","img/card_backs/set1/yellow.gif","img/card_backs/set1/red.gif","img/card_backs/set2/pink.gif","img/card_backs/set2/blue.gif","img/card_backs/set2/orange.gif","img/card_backs/set2/gray.gif","""event"",""trial"",""time""
""fullscreenenter"",""1"",""3241""
","
","
","""event"",""trial"",""time""
""fullscreenenter"",""1"",""3241""
","
","","9492","Today you will be playing a game to earn tokens. </br> At the end of the experiment, you will be paid a bonus based on how many tokens you win. ","69","","instructions","2021-06-21 23:43:56.013","","","","","",""
"casino-keyboard-response","8","40819","0.0-6.0-0.2","200","true","img/card_backs/set1/purple.gif","img/card_backs/set1/green.gif","img/card_backs/set1/yellow.gif","img/card_backs/set1/red.gif","img/card_backs/set2/pink.gif","img/card_backs/set2/blue.gif","img/card_backs/set2/orange.gif","img/card_backs/set2/gray.gif","""event"",""trial"",""time""
""fullscreenenter"",""1"",""3241""
","
","
","""event"",""trial"",""time""
""fullscreenenter"",""1"",""3241""
","
","","7363.5","On every turn, you will be shown four different decks of cards. </br> You need to select a card from one of the four decks.  ","75","","instructions","2021-06-21 23:44:03.380","","","","","",""
"casino-keyboard-response","9","45708","0.0-6.0-0.3","200","true","img/card_backs/set1/purple.gif","img/card_backs/set1/green.gif","img/card_backs/set1/yellow.gif","img/card_backs/set1/red.gif","img/card_backs/set2/pink.gif","img/card_backs/set2/blue.gif","img/card_backs/set2/orange.gif","img/card_backs/set2/gray.gif","""event"",""trial"",""time""
""fullscreenenter"",""1"",""3241""
","
","
","""event"",""trial"",""time""
""fullscreenenter"",""1"",""3241""
","
","","4885.100000023842","On the next screen, you will see what the decks will look like. ","66","","instructions","2021-06-21 23:44:08.269","","","","","",""
"card-selection-trial","10","49722","0.0-7.0-0.0","200","true","img/card_backs/set1/purple.gif","img/card_backs/set1/green.gif","img/card_backs/set1/yellow.gif","img/card_backs/set1/red.gif","img/card_backs/set2/pink.gif","img/card_backs/set2/blue.gif","img/card_backs/set2/orange.gif","img/card_backs/set2/gray.gif","""event"",""trial"",""time""
""fullscreenenter"",""1"",""3241""
","
","
","""event"",""trial"",""time""
""fullscreenenter"",""1"",""3241""
","
","","null","","","","practice","2021-06-21 23:44:12.283","null","null","null","0","",""
"casino-keyboard-response","11","59539","0.0-8.0-0.0","200","true","img/card_backs/set1/purple.gif","img/card_backs/set1/green.gif","img/card_backs/set1/yellow.gif","img/card_backs/set1/red.gif","img/card_backs/set2/pink.gif","img/card_backs/set2/blue.gif","img/card_backs/set2/orange.gif","img/card_backs/set2/gray.gif","""event"",""trial"",""time""
""fullscreenenter"",""1"",""3241""
","
","
","""event"",""trial"",""time""
""fullscreenenter"",""1"",""3241""
","
","","9814.5","You should pick a card from a deck using the '2', '4', '6', and '8' keys at the top of the keyboard.","85","","instructions","2021-06-21 23:44:22.100","","","","","",""
"casino-keyboard-response","12","65835","0.0-8.0-0.1","200","true","img/card_backs/set1/purple.gif","img/card_backs/set1/green.gif","img/card_backs/set1/yellow.gif","img/card_backs/set1/red.gif","img/card_backs/set2/pink.gif","img/card_backs/set2/blue.gif","img/card_backs/set2/orange.gif","img/card_backs/set2/gray.gif","""event"",""trial"",""time""
""fullscreenenter"",""1"",""3241""
","
","
","""event"",""trial"",""time""
""fullscreenenter"",""1"",""3241""
","
","","6292.699999928474","Once you select a card, it will turn over and you will see how many tokens you earned.","83","","instructions","2021-06-21 23:44:28.396","","","","","",""
"casino-keyboard-response","13","80747","0.0-8.0-0.2","200","true","img/card_backs/set1/purple.gif","img/card_backs/set1/green.gif","img/card_backs/set1/yellow.gif","img/card_backs/set1/red.gif","img/card_backs/set2/pink.gif","img/card_backs/set2/blue.gif","img/card_backs/set2/orange.gif","img/card_backs/set2/gray.gif","""event"",""trial"",""time""
""fullscreenenter"",""1"",""3241""
","
","
","""event"",""trial"",""time""
""fullscreenenter"",""1"",""3241""
","
","","14909","Let's try practicing that! </br> First, try to put your fingers over the '2', '4', '6', and '8' keys. </br>  You can use whatever fingers are most comfortable for you. Try to find a comfortable position now. ","50","","instructions","2021-06-21 23:44:43.308","","","","","",""
"casino-keyboard-response","14","86554","0.0-8.0-0.3","200","true","img/card_backs/set1/purple.gif","img/card_backs/set1/green.gif","img/card_backs/set1/yellow.gif","img/card_backs/set1/red.gif","img/card_backs/set2/pink.gif","img/card_backs/set2/blue.gif","img/card_backs/set2/orange.gif","img/card_backs/set2/gray.gif","""event"",""trial"",""time""
""fullscreenenter"",""1"",""3241""
","
","
","""event"",""trial"",""time""
""fullscreenenter"",""1"",""3241""
","
","","5803.399999976158","Okay ready? </br> On the next screen, press '2' to select the left deck. ","50","","instructions","2021-06-21 23:44:49.116","","","","","",""
"card-selection-trial","15","89322","0.0-9.0-0.0","200","true","img/card_backs/set1/purple.gif","img/card_backs/set1/green.gif","img/card_backs/set1/yellow.gif","img/card_backs/set1/red.gif","img/card_backs/set2/pink.gif","img/card_backs/set2/blue.gif","img/card_backs/set2/orange.gif","img/card_backs/set2/gray.gif","""event"",""trial"",""time""
""fullscreenenter"",""1"",""3241""
","
","
","""event"",""trial"",""time""
""fullscreenenter"",""1"",""3241""
","
","","734.2999999523163","","","","practice_card_selection","2021-06-21 23:44:51.883","img/practice_cards/backs/dark_blue.gif","0","-200","","",""
"casino-keyboard-response","16","95011","0.0-10.0-0.0","200","true","img/card_backs/set1/purple.gif","img/card_backs/set1/green.gif","img/card_backs/set1/yellow.gif","img/card_backs/set1/red.gif","img/card_backs/set2/pink.gif","img/card_backs/set2/blue.gif","img/card_backs/set2/orange.gif","img/card_backs/set2/gray.gif","""event"",""trial"",""time""
""fullscreenenter"",""1"",""3241""
","
","
","""event"",""trial"",""time""
""fullscreenenter"",""1"",""3241""
","
","","5685.900000095367","Great! Now on the next screen, try pressing '6' to select the third deck.","54","","instructions","2021-06-21 23:44:57.572","","","","","",""
"card-selection-trial","17","97538","0.0-11.0-0.0","200","true","img/card_backs/set1/purple.gif","img/card_backs/set1/green.gif","img/card_backs/set1/yellow.gif","img/card_backs/set1/red.gif","img/card_backs/set2/pink.gif","img/card_backs/set2/blue.gif","img/card_backs/set2/orange.gif","img/card_backs/set2/gray.gif","""event"",""trial"",""time""
""fullscreenenter"",""1"",""3241""
","
","
","""event"",""trial"",""time""
""fullscreenenter"",""1"",""3241""
","
","","500.2999999523163","","","","practice_card_selection","2021-06-21 23:45:00.099","img/practice_cards/backs/dark_blue.gif","2","-200","","",""
"casino-keyboard-response","18","100538","0.0-12.0-0.0","200","true","img/card_backs/set1/purple.gif","img/card_backs/set1/green.gif","img/card_backs/set1/yellow.gif","img/card_backs/set1/red.gif","img/card_backs/set2/pink.gif","img/card_backs/set2/blue.gif","img/card_backs/set2/orange.gif","img/card_backs/set2/gray.gif","""event"",""trial"",""time""
""fullscreenenter"",""1"",""3241""
","
","
","""event"",""trial"",""time""
""fullscreenenter"",""1"",""3241""
","
","","2998.5","Now on the next screen, try pressing '4' to select the second deck.","52","","instructions","2021-06-21 23:45:03.100","","","","","",""
"card-selection-trial","19","103319","0.0-13.0-0.0","200","true","img/card_backs/set1/purple.gif","img/card_backs/set1/green.gif","img/card_backs/set1/yellow.gif","img/card_backs/set1/red.gif","img/card_backs/set2/pink.gif","img/card_backs/set2/blue.gif","img/card_backs/set2/orange.gif","img/card_backs/set2/gray.gif","""event"",""trial"",""time""
""fullscreenenter"",""1"",""3241""
","
","
","""event"",""trial"",""time""
""fullscreenenter"",""1"",""3241""
","
","","766.6999999284744","","","","practice_card_selection","2021-06-21 23:45:05.880","img/practice_cards/backs/dark_blue.gif","1","200","","",""
"casino-keyboard-response","20","105011","0.0-14.0-0.0","200","true","img/card_backs/set1/purple.gif","img/card_backs/set1/green.gif","img/card_backs/set1/yellow.gif","img/card_backs/set1/red.gif","img/card_backs/set2/pink.gif","img/card_backs/set2/blue.gif","img/card_backs/set2/orange.gif","img/card_backs/set2/gray.gif","""event"",""trial"",""time""
""fullscreenenter"",""1"",""3241""
","
","
","""event"",""trial"",""time""
""fullscreenenter"",""1"",""3241""
","
","","1687.7999999523163","Finally, try pressing '8' to select the deck all the way on the right.","56","","instructions","2021-06-21 23:45:07.572","","","","","",""
"card-selection-trial","21","107820","0.0-15.0-0.0","200","true","img/card_backs/set1/purple.gif","img/card_backs/set1/green.gif","img/card_backs/set1/yellow.gif","img/card_backs/set1/red.gif","img/card_backs/set2/pink.gif","img/card_backs/set2/blue.gif","img/card_backs/set2/orange.gif","img/card_backs/set2/gray.gif","""event"",""trial"",""time""
""fullscreenenter"",""1"",""3241""
","
","
","""event"",""trial"",""time""
""fullscreenenter"",""1"",""3241""
","
","","784.3999999761581","","","","practice_card_selection","2021-06-21 23:45:10.381","img/practice_cards/backs/brown.gif","3","100","","",""
"casino-keyboard-response","22","112131","0.0-16.0-0.0","200","true","img/card_backs/set1/purple.gif","img/card_backs/set1/green.gif","img/card_backs/set1/yellow.gif","img/card_backs/set1/red.gif","img/card_backs/set2/pink.gif","img/card_backs/set2/blue.gif","img/card_backs/set2/orange.gif","img/card_backs/set2/gray.gif","""event"",""trial"",""time""
""fullscreenenter"",""1"",""3241""
","
","
","""event"",""trial"",""time""
""fullscreenenter"",""1"",""3241""
","
","","4308.800000071526","Great! It seems like you are getting the hang of this.","80","","instructions","2021-06-21 23:45:14.692","","","","","",""
"casino-keyboard-response","23","119708","0.0-16.0-0.1","200","true","img/card_backs/set1/purple.gif","img/card_backs/set1/green.gif","img/card_backs/set1/yellow.gif","img/card_backs/set1/red.gif","img/card_backs/set2/pink.gif","img/card_backs/set2/blue.gif","img/card_backs/set2/orange.gif","img/card_backs/set2/gray.gif","""event"",""trial"",""time""
""fullscreenenter"",""1"",""3241""
","
","
","""event"",""trial"",""time""
""fullscreenenter"",""1"",""3241""
","
","","7572","You may have noticed that some cards will cause you to <b> win </b> tokens while other cards will cause you to <b> lose </b>  tokens.","70","","instructions","2021-06-21 23:45:22.269","","","","","",""
"casino-keyboard-response","24","127995","0.0-16.0-0.2","200","true","img/card_backs/set1/purple.gif","img/card_backs/set1/green.gif","img/card_backs/set1/yellow.gif","img/card_backs/set1/red.gif","img/card_backs/set2/pink.gif","img/card_backs/set2/blue.gif","img/card_backs/set2/orange.gif","img/card_backs/set2/gray.gif","""event"",""trial"",""time""
""fullscreenenter"",""1"",""3241""
","
","
","""event"",""trial"",""time""
""fullscreenenter"",""1"",""3241""
","
","","8283.300000071526","Each deck has a mix of cards that will cause you to win and lose tokens. </br> However, the cards in each colored deck are different.","73","","instructions","2021-06-21 23:45:30.556","","","","","",""
"casino-keyboard-response","25","136660","0.0-16.0-0.3","200","true","img/card_backs/set1/purple.gif","img/card_backs/set1/green.gif","img/card_backs/set1/yellow.gif","img/card_backs/set1/red.gif","img/card_backs/set2/pink.gif","img/card_backs/set2/blue.gif","img/card_backs/set2/orange.gif","img/card_backs/set2/gray.gif","""event"",""trial"",""time""
""fullscreenenter"",""1"",""3241""
","
","
","""event"",""trial"",""time""
""fullscreenenter"",""1"",""3241""
","
","","8660.899999976158","Some colored decks are luckier than others. </br> If you choose the lucky decks, you will earn more tokens than if you choose the unlucky decks.","69","","instructions","2021-06-21 23:45:39.221","","","","","",""
"casino-keyboard-response","26","143995","0.0-16.0-0.4","200","true","img/card_backs/set1/purple.gif","img/card_backs/set1/green.gif","img/card_backs/set1/yellow.gif","img/card_backs/set1/red.gif","img/card_backs/set2/pink.gif","img/card_backs/set2/blue.gif","img/card_backs/set2/orange.gif","img/card_backs/set2/gray.gif","""event"",""trial"",""time""
""fullscreenenter"",""1"",""3241""
","
","
","""event"",""trial"",""time""
""fullscreenenter"",""1"",""3241""
","
","","7331.200000047684","You should try to figure out which decks are lucky. </br> Then, try to choose the lucky decks so you can win the most tokens.","87","","instructions","2021-06-21 23:45:46.556","","","","","",""
"casino-keyboard-response","27","155588","0.0-16.0-0.5","200","true","img/card_backs/set1/purple.gif","img/card_backs/set1/green.gif","img/card_backs/set1/yellow.gif","img/card_backs/set1/red.gif","img/card_backs/set2/pink.gif","img/card_backs/set2/blue.gif","img/card_backs/set2/orange.gif","img/card_backs/set2/gray.gif","""event"",""trial"",""time""
""fullscreenenter"",""1"",""3241""
","
","
","""event"",""trial"",""time""
""fullscreenenter"",""1"",""3241""
","
","","11588.799999952316","To make it trickier, the casino dealer will switch the locations of the decks on every turn. </br> The color of the deck determines how lucky it is. The location does not matter.","88","","instructions","2021-06-21 23:45:58.149","","","","","",""
"casino-keyboard-response","28","165027","0.0-16.0-0.6","200","true","img/card_backs/set1/purple.gif","img/card_backs/set1/green.gif","img/card_backs/set1/yellow.gif","img/card_backs/set1/red.gif","img/card_backs/set2/pink.gif","img/card_backs/set2/blue.gif","img/card_backs/set2/orange.gif","img/card_backs/set2/gray.gif","""event"",""trial"",""time""
""fullscreenenter"",""1"",""3241""
","
","
","""event"",""trial"",""time""
""fullscreenenter"",""1"",""3241""
","
","","9435.600000023842","The mix of cards in each colored deck will stay the same throughout the game. </br> That means that a deck that is lucky early on will stay lucky.","79","","instructions","2021-06-21 23:46:07.588","","","","","",""
"casino-keyboard-response","29","173244","0.0-16.0-0.7","200","true","img/card_backs/set1/purple.gif","img/card_backs/set1/green.gif","img/card_backs/set1/yellow.gif","img/card_backs/set1/red.gif","img/card_backs/set2/pink.gif","img/card_backs/set2/blue.gif","img/card_backs/set2/orange.gif","img/card_backs/set2/gray.gif","""event"",""trial"",""time""
""fullscreenenter"",""1"",""3241""
","
","
","""event"",""trial"",""time""
""fullscreenenter"",""1"",""3241""
","
","","8213.299999952316","Remember though, all the decks have a <b> mix </b> of both <b> good </b> and <b> bad </b> cards so it may take a couple of turns to figure out if a deck is lucky.","69","","instructions","2021-06-21 23:46:15.805","","","","","",""
"casino-keyboard-response","30","181707","0.0-16.0-0.8","200","true","img/card_backs/set1/purple.gif","img/card_backs/set1/green.gif","img/card_backs/set1/yellow.gif","img/card_backs/set1/red.gif","img/card_backs/set2/pink.gif","img/card_backs/set2/blue.gif","img/card_backs/set2/orange.gif","img/card_backs/set2/gray.gif","""event"",""trial"",""time""
""fullscreenenter"",""1"",""3241""
","
","
","""event"",""trial"",""time""
""fullscreenenter"",""1"",""3241""
","
","","8459.600000023842","At the end of the game, you will be paid bonus money based on how many tokens you win. </br> If you win more tokens, you will earn more money!","72","","instructions","2021-06-21 23:46:24.268","","","","","",""
"casino-keyboard-response","31","192116","0.0-16.0-0.9","200","true","img/card_backs/set1/purple.gif","img/card_backs/set1/green.gif","img/card_backs/set1/yellow.gif","img/card_backs/set1/red.gif","img/card_backs/set2/pink.gif","img/card_backs/set2/blue.gif","img/card_backs/set2/orange.gif","img/card_backs/set2/gray.gif","""event"",""trial"",""time""
""fullscreenenter"",""1"",""3241""
","
","
","""event"",""trial"",""time""
""fullscreenenter"",""1"",""3241""
","
","","10405.699999928474","You will never <b> lose </b> money. </br> If you end up with fewer than 0 tokens, you will earn $0 of bonus money, but you will still be paid for playing the game.","83","","instructions","2021-06-21 23:46:34.677","","","","","",""
"casino-keyboard-response","32","196554","0.0-16.0-0.10","200","true","img/card_backs/set1/purple.gif","img/card_backs/set1/green.gif","img/card_backs/set1/yellow.gif","img/card_backs/set1/red.gif","img/card_backs/set2/pink.gif","img/card_backs/set2/blue.gif","img/card_backs/set2/orange.gif","img/card_backs/set2/gray.gif","""event"",""trial"",""time""
""fullscreenenter"",""1"",""3241""
","
","
","""event"",""trial"",""time""
""fullscreenenter"",""1"",""3241""
","
","","4433.899999976158","You will have 10 seconds to make each choice.","82","","instructions","2021-06-21 23:46:39.116","","","","","",""
"casino-keyboard-response","33","205116","0.0-16.0-0.11","200","true","img/card_backs/set1/purple.gif","img/card_backs/set1/green.gif","img/card_backs/set1/yellow.gif","img/card_backs/set1/red.gif","img/card_backs/set2/pink.gif","img/card_backs/set2/blue.gif","img/card_backs/set2/orange.gif","img/card_backs/set2/gray.gif","""event"",""trial"",""time""
""fullscreenenter"",""1"",""3241""
","
","
","""event"",""trial"",""time""
""fullscreenenter"",""1"",""3241""
","
","","8555.399999976158","Before you play the game for real, you will play with practice decks. </br> The tokens you earn during practice won't count toward your total.","86","","instructions","2021-06-21 23:46:47.677","","","","","",""
"casino-keyboard-response","34","212234","0.0-16.0-0.12","200","true","img/card_backs/set1/purple.gif","img/card_backs/set1/green.gif","img/card_backs/set1/yellow.gif","img/card_backs/set1/red.gif","img/card_backs/set2/pink.gif","img/card_backs/set2/blue.gif","img/card_backs/set2/orange.gif","img/card_backs/set2/gray.gif","""event"",""trial"",""time""
""fullscreenenter"",""1"",""3241""
","
","
","""event"",""trial"",""time""
""fullscreenenter"",""1"",""3241""
","
","","7114.600000023842","Ready? Remember, use the '2', '4', '6', and '8' keys to select the decks. </br> Put your fingers on those keys now and then press '2' to begin.","50","","instructions","2021-06-21 23:46:54.795","","","","","",""
"casino-fixation","35","212740","0.0-17.0-0.0","200","true","img/card_backs/set1/purple.gif","img/card_backs/set1/green.gif","img/card_backs/set1/yellow.gif","img/card_backs/set1/red.gif","img/card_backs/set2/pink.gif","img/card_backs/set2/blue.gif","img/card_backs/set2/orange.gif","img/card_backs/set2/gray.gif","""event"",""trial"",""time""
""fullscreenenter"",""1"",""3241""
","
","
","""event"",""trial"",""time""
""fullscreenenter"",""1"",""3241""
","
","","null","","null","","fixation","2021-06-21 23:46:55.301","","","","","",""
"card-selection-trial","36","215682","0.0-17.0-1.0","200","true","img/card_backs/set1/purple.gif","img/card_backs/set1/green.gif","img/card_backs/set1/yellow.gif","img/card_backs/set1/red.gif","img/card_backs/set2/pink.gif","img/card_backs/set2/blue.gif","img/card_backs/set2/orange.gif","img/card_backs/set2/gray.gif","""event"",""trial"",""time""
""fullscreenenter"",""1"",""3241""
","
","
","""event"",""trial"",""time""
""fullscreenenter"",""1"",""3241""
","
","","919.2999999523163","","","","practice","2021-06-21 23:46:58.244","img/practice_cards/backs/dark_green.gif","0","-200","0","",""
"casino-fixation","37","216189","0.0-17.0-0.1","200","true","img/card_backs/set1/purple.gif","img/card_backs/set1/green.gif","img/card_backs/set1/yellow.gif","img/card_backs/set1/red.gif","img/card_backs/set2/pink.gif","img/card_backs/set2/blue.gif","img/card_backs/set2/orange.gif","img/card_backs/set2/gray.gif","""event"",""trial"",""time""
""fullscreenenter"",""1"",""3241""
","
","
","""event"",""trial"",""time""
""fullscreenenter"",""1"",""3241""
","
","","null","","null","","fixation","2021-06-21 23:46:58.751","","","","","",""
"card-selection-trial","38","218663","0.0-17.0-1.1","200","true","img/card_backs/set1/purple.gif","img/card_backs/set1/green.gif","img/card_backs/set1/yellow.gif","img/card_backs/set1/red.gif","img/card_backs/set2/pink.gif","img/card_backs/set2/blue.gif","img/card_backs/set2/orange.gif","img/card_backs/set2/gray.gif","""event"",""trial"",""time""
""fullscreenenter"",""1"",""3241""
","
","
","""event"",""trial"",""time""
""fullscreenenter"",""1"",""3241""
","
","","462.7999999523163","","","","practice","2021-06-21 23:47:01.225","img/practice_cards/backs/dark_blue.gif","1","-200","0","",""
"casino-fixation","39","219179","0.0-17.0-0.2","200","true","img/card_backs/set1/purple.gif","img/card_backs/set1/green.gif","img/card_backs/set1/yellow.gif","img/card_backs/set1/red.gif","img/card_backs/set2/pink.gif","img/card_backs/set2/blue.gif","img/card_backs/set2/orange.gif","img/card_backs/set2/gray.gif","""event"",""trial"",""time""
""fullscreenenter"",""1"",""3241""
","
","
","""event"",""trial"",""time""
""fullscreenenter"",""1"",""3241""
","
","","null","","null","","fixation","2021-06-21 23:47:01.741","","","","","",""
"card-selection-trial","40","221830","0.0-17.0-1.2","200","true","img/card_backs/set1/purple.gif","img/card_backs/set1/green.gif","img/card_backs/set1/yellow.gif","img/card_backs/set1/red.gif","img/card_backs/set2/pink.gif","img/card_backs/set2/blue.gif","img/card_backs/set2/orange.gif","img/card_backs/set2/gray.gif","""event"",""trial"",""time""
""fullscreenenter"",""1"",""3241""
","
","
","""event"",""trial"",""time""
""fullscreenenter"",""1"",""3241""
","
","","631.8999999761581","","","","practice","2021-06-21 23:47:04.391","img/practice_cards/backs/dark_blue.gif","2","200","0","",""
"casino-fixation","41","222340","0.0-17.0-0.3","200","true","img/card_backs/set1/purple.gif","img/card_backs/set1/green.gif","img/card_backs/set1/yellow.gif","img/card_backs/set1/red.gif","img/card_backs/set2/pink.gif","img/card_backs/set2/blue.gif","img/card_backs/set2/orange.gif","img/card_backs/set2/gray.gif","""event"",""trial"",""time""
""fullscreenenter"",""1"",""3241""
","
","
","""event"",""trial"",""time""
""fullscreenenter"",""1"",""3241""
","
","","null","","null","","fixation","2021-06-21 23:47:04.902","","","","","",""
"card-selection-trial","42","224848","0.0-17.0-1.3","200","true","img/card_backs/set1/purple.gif","img/card_backs/set1/green.gif","img/card_backs/set1/yellow.gif","img/card_backs/set1/red.gif","img/card_backs/set2/pink.gif","img/card_backs/set2/blue.gif","img/card_backs/set2/orange.gif","img/card_backs/set2/gray.gif","""event"",""trial"",""time""
""fullscreenenter"",""1"",""3241""
","
","
","""event"",""trial"",""time""
""fullscreenenter"",""1"",""3241""
","
","","486.60000002384186","","","","practice","2021-06-21 23:47:07.409","img/practice_cards/backs/dark_green.gif","3","200","0","",""
"casino-fixation","43","225359","0.0-17.0-0.4","200","true","img/card_backs/set1/purple.gif","img/card_backs/set1/green.gif","img/card_backs/set1/yellow.gif","img/card_backs/set1/red.gif","img/card_backs/set2/pink.gif","img/card_backs/set2/blue.gif","img/card_backs/set2/orange.gif","img/card_backs/set2/gray.gif","""event"",""trial"",""time""
""fullscreenenter"",""1"",""3241""
","
","
","""event"",""trial"",""time""
""fullscreenenter"",""1"",""3241""
","
","","null","","null","","fixation","2021-06-21 23:47:07.920","","","","","",""
"card-selection-trial","44","227730","0.0-17.0-1.4","200","true","img/card_backs/set1/purple.gif","img/card_backs/set1/green.gif","img/card_backs/set1/yellow.gif","img/card_backs/set1/red.gif","img/card_backs/set2/pink.gif","img/card_backs/set2/blue.gif","img/card_backs/set2/orange.gif","img/card_backs/set2/gray.gif","""event"",""trial"",""time""
""fullscreenenter"",""1"",""3241""
","
","
","""event"",""trial"",""time""
""fullscreenenter"",""1"",""3241""
","
","","356.2000000476837","","","","practice","2021-06-21 23:47:10.291","img/practice_cards/backs/dark_blue.gif","2","200","0","",""
"casino-fixation","45","228239","0.0-17.0-0.5","200","true","img/card_backs/set1/purple.gif","img/card_backs/set1/green.gif","img/card_backs/set1/yellow.gif","img/card_backs/set1/red.gif","img/card_backs/set2/pink.gif","img/card_backs/set2/blue.gif","img/card_backs/set2/orange.gif","img/card_backs/set2/gray.gif","""event"",""trial"",""time""
""fullscreenenter"",""1"",""3241""
","
","
","""event"",""trial"",""time""
""fullscreenenter"",""1"",""3241""
","
","","null","","null","","fixation","2021-06-21 23:47:10.800","","","","","",""
"card-selection-trial","46","230610","0.0-17.0-1.5","200","true","img/card_backs/set1/purple.gif","img/card_backs/set1/green.gif","img/card_backs/set1/yellow.gif","img/card_backs/set1/red.gif","img/card_backs/set2/pink.gif","img/card_backs/set2/blue.gif","img/card_backs/set2/orange.gif","img/card_backs/set2/gray.gif","""event"",""trial"",""time""
""fullscreenenter"",""1"",""3241""
","
","
","""event"",""trial"",""time""
""fullscreenenter"",""1"",""3241""
","
","","345.2000000476837","","","","practice","2021-06-21 23:47:13.171","img/practice_cards/backs/brown.gif","3","100","0","",""
"casino-fixation","47","231129","0.0-17.0-0.6","200","true","img/card_backs/set1/purple.gif","img/card_backs/set1/green.gif","img/card_backs/set1/yellow.gif","img/card_backs/set1/red.gif","img/card_backs/set2/pink.gif","img/card_backs/set2/blue.gif","img/card_backs/set2/orange.gif","img/card_backs/set2/gray.gif","""event"",""trial"",""time""
""fullscreenenter"",""1"",""3241""
","
","
","""event"",""trial"",""time""
""fullscreenenter"",""1"",""3241""
","
","","null","","null","","fixation","2021-06-21 23:47:13.690","","","","","",""
"card-selection-trial","48","233554","0.0-17.0-1.6","200","true","img/card_backs/set1/purple.gif","img/card_backs/set1/green.gif","img/card_backs/set1/yellow.gif","img/card_backs/set1/red.gif","img/card_backs/set2/pink.gif","img/card_backs/set2/blue.gif","img/card_backs/set2/orange.gif","img/card_backs/set2/gray.gif","""event"",""trial"",""time""
""fullscreenenter"",""1"",""3241""
","
","
","""event"",""trial"",""time""
""fullscreenenter"",""1"",""3241""
","
","","402.10000002384186","","","","practice","2021-06-21 23:47:16.115","img/practice_cards/backs/dark_green.gif","2","200","0","",""
"casino-fixation","49","234056","0.0-17.0-0.7","200","true","img/card_backs/set1/purple.gif","img/card_backs/set1/green.gif","img/card_backs/set1/yellow.gif","img/card_backs/set1/red.gif","img/card_backs/set2/pink.gif","img/card_backs/set2/blue.gif","img/card_backs/set2/orange.gif","img/card_backs/set2/gray.gif","""event"",""trial"",""time""
""fullscreenenter"",""1"",""3241""
","
","
","""event"",""trial"",""time""
""fullscreenenter"",""1"",""3241""
","
","","null","","null","","fixation","2021-06-21 23:47:16.618","","","","","",""
"card-selection-trial","50","236426","0.0-17.0-1.7","200","true","img/card_backs/set1/purple.gif","img/card_backs/set1/green.gif","img/card_backs/set1/yellow.gif","img/card_backs/set1/red.gif","img/card_backs/set2/pink.gif","img/card_backs/set2/blue.gif","img/card_backs/set2/orange.gif","img/card_backs/set2/gray.gif","""event"",""trial"",""time""
""fullscreenenter"",""1"",""3241""
","
","
","""event"",""trial"",""time""
""fullscreenenter"",""1"",""3241""
","
","","346.5","","","","practice","2021-06-21 23:47:18.987","img/practice_cards/backs/black.gif","3","100","0","",""
"casino-fixation","51","236939","0.0-17.0-0.8","200","true","img/card_backs/set1/purple.gif","img/card_backs/set1/green.gif","img/card_backs/set1/yellow.gif","img/card_backs/set1/red.gif","img/card_backs/set2/pink.gif","img/card_backs/set2/blue.gif","img/card_backs/set2/orange.gif","img/card_backs/set2/gray.gif","""event"",""trial"",""time""
""fullscreenenter"",""1"",""3241""
","
","
","""event"",""trial"",""time""
""fullscreenenter"",""1"",""3241""
","
","","null","","null","","fixation","2021-06-21 23:47:19.501","","","","","",""
"card-selection-trial","52","239360","0.0-17.0-1.8","200","true","img/card_backs/set1/purple.gif","img/card_backs/set1/green.gif","img/card_backs/set1/yellow.gif","img/card_backs/set1/red.gif","img/card_backs/set2/pink.gif","img/card_backs/set2/blue.gif","img/card_backs/set2/orange.gif","img/card_backs/set2/gray.gif","""event"",""trial"",""time""
""fullscreenenter"",""1"",""3241""
","
","
","""event"",""trial"",""time""
""fullscreenenter"",""1"",""3241""
","
","","391.6999999284744","","","","practice","2021-06-21 23:47:21.921","img/practice_cards/backs/brown.gif","2","100","0","",""
"casino-fixation","53","239869","0.0-17.0-0.9","200","true","img/card_backs/set1/purple.gif","img/card_backs/set1/green.gif","img/card_backs/set1/yellow.gif","img/card_backs/set1/red.gif","img/card_backs/set2/pink.gif","img/card_backs/set2/blue.gif","img/card_backs/set2/orange.gif","img/card_backs/set2/gray.gif","""event"",""trial"",""time""
""fullscreenenter"",""1"",""3241""
","
","
","""event"",""trial"",""time""
""fullscreenenter"",""1"",""3241""
","
","","null","","null","","fixation","2021-06-21 23:47:22.431","","","","","",""
"card-selection-trial","54","242263","0.0-17.0-1.9","200","true","img/card_backs/set1/purple.gif","img/card_backs/set1/green.gif","img/card_backs/set1/yellow.gif","img/card_backs/set1/red.gif","img/card_backs/set2/pink.gif","img/card_backs/set2/blue.gif","img/card_backs/set2/orange.gif","img/card_backs/set2/gray.gif","""event"",""trial"",""time""
""fullscreenenter"",""1"",""3241""
","
","
","""event"",""trial"",""time""
""fullscreenenter"",""1"",""3241""
","
","","374.39999997615814","","","","practice","2021-06-21 23:47:24.824","img/practice_cards/backs/black.gif","2","100","0","",""
"casino-keyboard-response","55","247184","0.0-18.0","200","true","img/card_backs/set1/purple.gif","img/card_backs/set1/green.gif","img/card_backs/set1/yellow.gif","img/card_backs/set1/red.gif","img/card_backs/set2/pink.gif","img/card_backs/set2/blue.gif","img/card_backs/set2/orange.gif","img/card_backs/set2/gray.gif","""event"",""trial"",""time""
""fullscreenenter"",""1"",""3241""
","
","
","""event"",""trial"",""time""
""fullscreenenter"",""1"",""3241""
","
","","4918.699999928474","You earned 800 tokens during the practice round!","82","","","2021-06-21 23:47:29.746","","","","","",""
"casino-keyboard-response","56","251671","0.0-19.0-0.0","200","true","img/card_backs/set1/purple.gif","img/card_backs/set1/green.gif","img/card_backs/set1/yellow.gif","img/card_backs/set1/red.gif","img/card_backs/set2/pink.gif","img/card_backs/set2/blue.gif","img/card_backs/set2/orange.gif","img/card_backs/set2/gray.gif","""event"",""trial"",""time""
""fullscreenenter"",""1"",""3241""
","
","
","""event"",""trial"",""time""
""fullscreenenter"",""1"",""3241""
","
","","4483.5","Nice job! You are almost ready to play the real game.","86","","instructions","2021-06-21 23:47:34.232","","","","","",""
"casino-keyboard-response","57","258864","0.0-19.0-0.1","200","true","img/card_backs/set1/purple.gif","img/card_backs/set1/green.gif","img/card_backs/set1/yellow.gif","img/card_backs/set1/red.gif","img/card_backs/set2/pink.gif","img/card_backs/set2/blue.gif","img/card_backs/set2/orange.gif","img/card_backs/set2/gray.gif","""event"",""trial"",""time""
""fullscreenenter"",""1"",""3241""
","
","
","""event"",""trial"",""time""
""fullscreenenter"",""1"",""3241""
","
","","7192","You will play two rounds of the real game. In each round, you will pick 100 cards in total.","73","","instructions","2021-06-21 23:47:41.425","","","","","",""
"casino-keyboard-response","58","265025","0.0-19.0-0.2","200","true","img/card_backs/set1/purple.gif","img/card_backs/set1/green.gif","img/card_backs/set1/yellow.gif","img/card_backs/set1/red.gif","img/card_backs/set2/pink.gif","img/card_backs/set2/blue.gif","img/card_backs/set2/orange.gif","img/card_backs/set2/gray.gif","""event"",""trial"",""time""
""fullscreenenter"",""1"",""3241""
","
","
","""event"",""trial"",""time""
""fullscreenenter"",""1"",""3241""
","
","","6157.300000071526","We are now going to ask you some questions about how the game works.","66","","instructions","2021-06-21 23:47:47.586","","","","","",""
"casino-keyboard-response","59","271472","0.0-19.0-0.3","200","true","img/card_backs/set1/purple.gif","img/card_backs/set1/green.gif","img/card_backs/set1/yellow.gif","img/card_backs/set1/red.gif","img/card_backs/set2/pink.gif","img/card_backs/set2/blue.gif","img/card_backs/set2/orange.gif","img/card_backs/set2/gray.gif","""event"",""trial"",""time""
""fullscreenenter"",""1"",""3241""
","
","
","""event"",""trial"",""time""
""fullscreenenter"",""1"",""3241""
","
","","6443.599999904633","Answer carefully. You will not be able to begin the game until you answer them correctly.","67","","instructions","2021-06-21 23:47:54.033","","","","","",""
"casino-comp_q","60","277089","0.0-20.0-0.0","200","true","img/card_backs/set1/purple.gif","img/card_backs/set1/green.gif","img/card_backs/set1/yellow.gif","img/card_backs/set1/red.gif","img/card_backs/set2/pink.gif","img/card_backs/set2/blue.gif","img/card_backs/set2/orange.gif","img/card_backs/set2/gray.gif","""event"",""trial"",""time""
""fullscreenenter"",""1"",""3241""
","
","
","""event"",""trial"",""time""
""fullscreenenter"",""1"",""3241""
","
","","5612.700000047684","True or False: All the decks have some cards that cause you to win tokens and some cards that cause you to lose tokens.","84","","","2021-06-21 23:47:59.651","","","","","",""
"casino-keyboard-response","61","280424","0.0-20.0-1.0","200","true","img/card_backs/set1/purple.gif","img/card_backs/set1/green.gif","img/card_backs/set1/yellow.gif","img/card_backs/set1/red.gif","img/card_backs/set2/pink.gif","img/card_backs/set2/blue.gif","img/card_backs/set2/orange.gif","img/card_backs/set2/gray.gif","""event"",""trial"",""time""
""fullscreenenter"",""1"",""3241""
","
","
","""event"",""trial"",""time""
""fullscreenenter"",""1"",""3241""
","
","","3330.6999999284744","True is correct! All the decks have a mix of winning and losing cards.","77","","","2021-06-21 23:48:02.986","","","","","true",""
"casino-comp_q","62","287393","0.0-21.0-0.0","200","true","img/card_backs/set1/purple.gif","img/card_backs/set1/green.gif","img/card_backs/set1/yellow.gif","img/card_backs/set1/red.gif","img/card_backs/set2/pink.gif","img/card_backs/set2/blue.gif","img/card_backs/set2/orange.gif","img/card_backs/set2/gray.gif","""event"",""trial"",""time""
""fullscreenenter"",""1"",""3241""
","
","
","""event"",""trial"",""time""
""fullscreenenter"",""1"",""3241""
","
","","6964.399999976158","True or False: You will have as much time as you want to make your response.","70","","","2021-06-21 23:48:09.954","","","","","",""
"casino-keyboard-response","63","292080","0.0-21.0-1.0","200","true","img/card_backs/set1/purple.gif","img/card_backs/set1/green.gif","img/card_backs/set1/yellow.gif","img/card_backs/set1/red.gif","img/card_backs/set2/pink.gif","img/card_backs/set2/blue.gif","img/card_backs/set2/orange.gif","img/card_backs/set2/gray.gif","""event"",""trial"",""time""
""fullscreenenter"",""1"",""3241""
","
","
","""event"",""trial"",""time""
""fullscreenenter"",""1"",""3241""
","
","","4679.700000047684","False is correct! You will only have 10 seconds to make each choice.","75","","","2021-06-21 23:48:14.641","","","","","true",""
"casino-comp_q","64","296512","0.0-22.0-0.0","200","true","img/card_backs/set1/purple.gif","img/card_backs/set1/green.gif","img/card_backs/set1/yellow.gif","img/card_backs/set1/red.gif","img/card_backs/set2/pink.gif","img/card_backs/set2/blue.gif","img/card_backs/set2/orange.gif","img/card_backs/set2/gray.gif","""event"",""trial"",""time""
""fullscreenenter"",""1"",""3241""
","
","
","""event"",""trial"",""time""
""fullscreenenter"",""1"",""3241""
","
","","4428.5","True or False: The location of the deck determines how lucky it is.","70","","","2021-06-21 23:48:19.073","","","","","",""
"casino-keyboard-response","65","301667","0.0-22.0-1.0","200","true","img/card_backs/set1/purple.gif","img/card_backs/set1/green.gif","img/card_backs/set1/yellow.gif","img/card_backs/set1/red.gif","img/card_backs/set2/pink.gif","img/card_backs/set2/blue.gif","img/card_backs/set2/orange.gif","img/card_backs/set2/gray.gif","""event"",""trial"",""time""
""fullscreenenter"",""1"",""3241""
","
","
","""event"",""trial"",""time""
""fullscreenenter"",""1"",""3241""
","
","","5149.399999976158","False is correct! The <i>color</i>  of the deck determines how lucky or unlucky it is.","68","","","2021-06-21 23:48:24.229","","","","","true",""
"casino-keyboard-response","66","306171","0.0-23.0-0.0","200","true","img/card_backs/set1/purple.gif","img/card_backs/set1/green.gif","img/card_backs/set1/yellow.gif","img/card_backs/set1/red.gif","img/card_backs/set2/pink.gif","img/card_backs/set2/blue.gif","img/card_backs/set2/orange.gif","img/card_backs/set2/gray.gif","""event"",""trial"",""time""
""fullscreenenter"",""1"",""3241""
","
","
","""event"",""trial"",""time""
""fullscreenenter"",""1"",""3241""
","
","","4498.799999952316","Great job! Now it's time to start the real game.","82","","instructions","2021-06-21 23:48:28.732","","","","","",""
"casino-keyboard-response","67","312371","0.0-23.0-0.1","200","true","img/card_backs/set1/purple.gif","img/card_backs/set1/green.gif","img/card_backs/set1/yellow.gif","img/card_backs/set1/red.gif","img/card_backs/set2/pink.gif","img/card_backs/set2/blue.gif","img/card_backs/set2/orange.gif","img/card_backs/set2/gray.gif","""event"",""trial"",""time""
""fullscreenenter"",""1"",""3241""
","
","
","""event"",""trial"",""time""
""fullscreenenter"",""1"",""3241""
","
","","6196","Before we start, we're going to head into a new room of the casino.","86","","instructions","2021-06-21 23:48:34.932","","","","","",""
"casino-keyboard-response","68","318618","0.0-24.0-0.0","200","true","img/card_backs/set1/purple.gif","img/card_backs/set1/green.gif","img/card_backs/set1/yellow.gif","img/card_backs/set1/red.gif","img/card_backs/set2/pink.gif","img/card_backs/set2/blue.gif","img/card_backs/set2/orange.gif","img/card_backs/set2/gray.gif","""event"",""trial"",""time""
""fullscreenenter"",""1"",""3241""
","
","
","""event"",""trial"",""time""
""fullscreenenter"",""1"",""3241""
","
","","6243.700000047684","Here we are! The real game will use different cards, but the rules will be the same.","71","","instructions","2021-06-21 23:48:41.179","","","","","",""
"casino-keyboard-response","69","323787","0.0-24.0-0.1","200","true","img/card_backs/set1/purple.gif","img/card_backs/set1/green.gif","img/card_backs/set1/yellow.gif","img/card_backs/set1/red.gif","img/card_backs/set2/pink.gif","img/card_backs/set2/blue.gif","img/card_backs/set2/orange.gif","img/card_backs/set2/gray.gif","""event"",""trial"",""time""
""fullscreenenter"",""1"",""3241""
","
","
","""event"",""trial"",""time""
""fullscreenenter"",""1"",""3241""
","
","","5165.299999952316","Ready? Put your fingers over the '2', '4', 6', and '8' keys so you are ready to play the game. </br> Then press 2 to start.","50","","instructions","2021-06-21 23:48:46.348","","","","","",""
"casino-fixation","70","324309","0.0-25.0-0.0","200","true","img/card_backs/set1/purple.gif","img/card_backs/set1/green.gif","img/card_backs/set1/yellow.gif","img/card_backs/set1/red.gif","img/card_backs/set2/pink.gif","img/card_backs/set2/blue.gif","img/card_backs/set2/orange.gif","img/card_backs/set2/gray.gif","""event"",""trial"",""time""
""fullscreenenter"",""1"",""3241""
","
","
","""event"",""trial"",""time""
""fullscreenenter"",""1"",""3241""
","
","","null","","null","","fixation","2021-06-21 23:48:46.870","","","","","",""
"card-selection-trial","71","327189","0.0-25.0-1.0","200","true","img/card_backs/set1/purple.gif","img/card_backs/set1/green.gif","img/card_backs/set1/yellow.gif","img/card_backs/set1/red.gif","img/card_backs/set2/pink.gif","img/card_backs/set2/blue.gif","img/card_backs/set2/orange.gif","img/card_backs/set2/gray.gif","""event"",""trial"",""time""
""fullscreenenter"",""1"",""3241""
","
","
","""event"",""trial"",""time""
""fullscreenenter"",""1"",""3241""
","
","","868.2999999523163","","","","real_trial","2021-06-21 23:48:49.750","img/card_backs/set1/purple.gif","0","-190","1","",""
"casino-fixation","72","327709","0.0-25.0-0.1","200","true","img/card_backs/set1/purple.gif","img/card_backs/set1/green.gif","img/card_backs/set1/yellow.gif","img/card_backs/set1/red.gif","img/card_backs/set2/pink.gif","img/card_backs/set2/blue.gif","img/card_backs/set2/orange.gif","img/card_backs/set2/gray.gif","""event"",""trial"",""time""
""fullscreenenter"",""1"",""3241""
","
","
","""event"",""trial"",""time""
""fullscreenenter"",""1"",""3241""
","
","","null","","null","","fixation","2021-06-21 23:48:50.270","","","","","",""
"card-selection-trial","73","330720","0.0-25.0-1.1","200","true","img/card_backs/set1/purple.gif","img/card_backs/set1/green.gif","img/card_backs/set1/yellow.gif","img/card_backs/set1/red.gif","img/card_backs/set2/pink.gif","img/card_backs/set2/blue.gif","img/card_backs/set2/orange.gif","img/card_backs/set2/gray.gif","""event"",""trial"",""time""
""fullscreenenter"",""1"",""3241""
","
","
","""event"",""trial"",""time""
""fullscreenenter"",""1"",""3241""
","
","","997","","","","real_trial","2021-06-21 23:48:53.281","img/card_backs/set1/red.gif","1","-90","1","",""
"casino-fixation","74","331229","0.0-25.0-0.2","200","true","img/card_backs/set1/purple.gif","img/card_backs/set1/green.gif","img/card_backs/set1/yellow.gif","img/card_backs/set1/red.gif","img/card_backs/set2/pink.gif","img/card_backs/set2/blue.gif","img/card_backs/set2/orange.gif","img/card_backs/set2/gray.gif","""event"",""trial"",""time""
""fullscreenenter"",""1"",""3241""
","
","
","""event"",""trial"",""time""
""fullscreenenter"",""1"",""3241""
","
","","null","","null","","fixation","2021-06-21 23:48:53.790","","","","","",""
"card-selection-trial","75","333630","0.0-25.0-1.2","200","true","img/card_backs/set1/purple.gif","img/card_backs/set1/green.gif","img/card_backs/set1/yellow.gif","img/card_backs/set1/red.gif","img/card_backs/set2/pink.gif","img/card_backs/set2/blue.gif","img/card_backs/set2/orange.gif","img/card_backs/set2/gray.gif","""event"",""trial"",""time""
""fullscreenenter"",""1"",""3241""
","
","
","""event"",""trial"",""time""
""fullscreenenter"",""1"",""3241""
","
","","389.7000000476837","","","","real_trial","2021-06-21 23:48:56.191","img/card_backs/set1/yellow.gif","2","60","1","",""
"casino-fixation","76","334149","0.0-25.0-0.3","200","true","img/card_backs/set1/purple.gif","img/card_backs/set1/green.gif","img/card_backs/set1/yellow.gif","img/card_backs/set1/red.gif","img/card_backs/set2/pink.gif","img/card_backs/set2/blue.gif","img/card_backs/set2/orange.gif","img/card_backs/set2/gray.gif","""event"",""trial"",""time""
""fullscreenenter"",""1"",""3241""
","
","
","""event"",""trial"",""time""
""fullscreenenter"",""1"",""3241""
","
","","null","","null","","fixation","2021-06-21 23:48:56.710","","","","","",""
"card-selection-trial","77","336640","0.0-25.0-1.3","200","true","img/card_backs/set1/purple.gif","img/card_backs/set1/green.gif","img/card_backs/set1/yellow.gif","img/card_backs/set1/red.gif","img/card_backs/set2/pink.gif","img/card_backs/set2/blue.gif","img/card_backs/set2/orange.gif","img/card_backs/set2/gray.gif","""event"",""trial"",""time""
""fullscreenenter"",""1"",""3241""
","
","
","""event"",""trial"",""time""
""fullscreenenter"",""1"",""3241""
","
","","470.7999999523163","","","","real_trial","2021-06-21 23:48:59.201","img/card_backs/set1/green.gif","3","-190","1","",""
"casino-fixation","78","337149","0.0-25.0-0.4","200","true","img/card_backs/set1/purple.gif","img/card_backs/set1/green.gif","img/card_backs/set1/yellow.gif","img/card_backs/set1/red.gif","img/card_backs/set2/pink.gif","img/card_backs/set2/blue.gif","img/card_backs/set2/orange.gif","img/card_backs/set2/gray.gif","""event"",""trial"",""time""
""fullscreenenter"",""1"",""3241""
","
","
","""event"",""trial"",""time""
""fullscreenenter"",""1"",""3241""
","
","","null","","null","","fixation","2021-06-21 23:48:59.710","","","","","",""
"card-selection-trial","79","339820","0.0-25.0-1.4","200","true","img/card_backs/set1/purple.gif","img/card_backs/set1/green.gif","img/card_backs/set1/yellow.gif","img/card_backs/set1/red.gif","img/card_backs/set2/pink.gif","img/card_backs/set2/blue.gif","img/card_backs/set2/orange.gif","img/card_backs/set2/gray.gif","""event"",""trial"",""time""
""fullscreenenter"",""1"",""3241""
","
","
","""event"",""trial"",""time""
""fullscreenenter"",""1"",""3241""
","
","","645.8999999761581","","","","real_trial","2021-06-21 23:49:02.381","img/card_backs/set1/yellow.gif","2","-90","1","",""
"casino-fixation","80","340339","0.0-25.0-0.5","200","true","img/card_backs/set1/purple.gif","img/card_backs/set1/green.gif","img/card_backs/set1/yellow.gif","img/card_backs/set1/red.gif","img/card_backs/set2/pink.gif","img/card_backs/set2/blue.gif","img/card_backs/set2/orange.gif","img/card_backs/set2/gray.gif","""event"",""trial"",""time""
""fullscreenenter"",""1"",""3241""
","
","
","""event"",""trial"",""time""
""fullscreenenter"",""1"",""3241""
","
","","null","","null","","fixation","2021-06-21 23:49:02.900","","","","","",""
"card-selection-trial","81","342639","0.0-25.0-1.5","200","true","img/card_backs/set1/purple.gif","img/card_backs/set1/green.gif","img/card_backs/set1/yellow.gif","img/card_backs/set1/red.gif","img/card_backs/set2/pink.gif","img/card_backs/set2/blue.gif","img/card_backs/set2/orange.gif","img/card_backs/set2/gray.gif","""event"",""trial"",""time""
""fullscreenenter"",""1"",""3241""
","
","
","""event"",""trial"",""time""
""fullscreenenter"",""1"",""3241""
","
","","288.10000002384186","","","","real_trial","2021-06-21 23:49:05.201","img/card_backs/set1/red.gif","2","60","1","",""
"casino-fixation","82","343159","0.0-25.0-0.6","200","true","img/card_backs/set1/purple.gif","img/card_backs/set1/green.gif","img/card_backs/set1/yellow.gif","img/card_backs/set1/red.gif","img/card_backs/set2/pink.gif","img/card_backs/set2/blue.gif","img/card_backs/set2/orange.gif","img/card_backs/set2/gray.gif","""event"",""trial"",""time""
""fullscreenenter"",""1"",""3241""
","
","
","""event"",""trial"",""time""
""fullscreenenter"",""1"",""3241""
","
","","null","","null","","fixation","2021-06-21 23:49:05.721","","","","","",""
"card-selection-trial","83","345920","0.0-25.0-1.6","200","true","img/card_backs/set1/purple.gif","img/card_backs/set1/green.gif","img/card_backs/set1/yellow.gif","img/card_backs/set1/red.gif","img/card_backs/set2/pink.gif","img/card_backs/set2/blue.gif","img/card_backs/set2/orange.gif","img/card_backs/set2/gray.gif","""event"",""trial"",""time""
""fullscreenenter"",""1"",""3241""
","
","
","""event"",""trial"",""time""
""fullscreenenter"",""1"",""3241""
","
","","747.2000000476837","","","","real_trial","2021-06-21 23:49:08.481","img/card_backs/set1/yellow.gif","1","50","1","",""
"casino-fixation","84","346429","0.0-25.0-0.7","200","true","img/card_backs/set1/purple.gif","img/card_backs/set1/green.gif","img/card_backs/set1/yellow.gif","img/card_backs/set1/red.gif","img/card_backs/set2/pink.gif","img/card_backs/set2/blue.gif","img/card_backs/set2/orange.gif","img/card_backs/set2/gray.gif","""event"",""trial"",""time""
""fullscreenenter"",""1"",""3241""
","
","
","""event"",""trial"",""time""
""fullscreenenter"",""1"",""3241""
","
","","null","","null","","fixation","2021-06-21 23:49:08.990","","","","","",""
"card-selection-trial","85","349699","0.0-25.0-1.7","200","true","img/card_backs/set1/purple.gif","img/card_backs/set1/green.gif","img/card_backs/set1/yellow.gif","img/card_backs/set1/red.gif","img/card_backs/set2/pink.gif","img/card_backs/set2/blue.gif","img/card_backs/set2/orange.gif","img/card_backs/set2/gray.gif","""event"",""trial"",""time""
""fullscreenenter"",""1"",""3241""
","
","
","""event"",""trial"",""time""
""fullscreenenter"",""1"",""3241""
","
","","1246.7999999523163","","","","real_trial","2021-06-21 23:49:12.260","img/card_backs/set1/yellow.gif","3","-110","1","",""
"casino-fixation","86","350209","0.0-25.0-0.8","200","true","img/card_backs/set1/purple.gif","img/card_backs/set1/green.gif","img/card_backs/set1/yellow.gif","img/card_backs/set1/red.gif","img/card_backs/set2/pink.gif","img/card_backs/set2/blue.gif","img/card_backs/set2/orange.gif","img/card_backs/set2/gray.gif","""event"",""trial"",""time""
""fullscreenenter"",""1"",""3241""
","
","
","""event"",""trial"",""time""
""fullscreenenter"",""1"",""3241""
","
","","null","","null","","fixation","2021-06-21 23:49:12.770","","","","","",""
"card-selection-trial","87","353840","0.0-25.0-1.8","200","true","img/card_backs/set1/purple.gif","img/card_backs/set1/green.gif","img/card_backs/set1/yellow.gif","img/card_backs/set1/red.gif","img/card_backs/set2/pink.gif","img/card_backs/set2/blue.gif","img/card_backs/set2/orange.gif","img/card_backs/set2/gray.gif","""event"",""trial"",""time""
""fullscreenenter"",""1"",""3241""
","
","
","""event"",""trial"",""time""
""fullscreenenter"",""1"",""3241""
","
","","1617.8999999761581","","","","real_trial","2021-06-21 23:49:16.401","img/card_backs/set1/purple.gif","0","-190","1","",""
"casino-fixation","88","354342","0.0-25.0-0.9","200","true","img/card_backs/set1/purple.gif","img/card_backs/set1/green.gif","img/card_backs/set1/yellow.gif","img/card_backs/set1/red.gif","img/card_backs/set2/pink.gif","img/card_backs/set2/blue.gif","img/card_backs/set2/orange.gif","img/card_backs/set2/gray.gif","""event"",""trial"",""time""
""fullscreenenter"",""1"",""3241""
","
","
","""event"",""trial"",""time""
""fullscreenenter"",""1"",""3241""
","
","","null","","null","","fixation","2021-06-21 23:49:16.904","","","","","",""
"card-selection-trial","89","357524","0.0-25.0-1.9","200","true","img/card_backs/set1/purple.gif","img/card_backs/set1/green.gif","img/card_backs/set1/yellow.gif","img/card_backs/set1/red.gif","img/card_backs/set2/pink.gif","img/card_backs/set2/blue.gif","img/card_backs/set2/orange.gif","img/card_backs/set2/gray.gif","""event"",""trial"",""time""
""fullscreenenter"",""1"",""3241""
","
","
","""event"",""trial"",""time""
""fullscreenenter"",""1"",""3241""
","
","","1172.8000000715256","","","","real_trial","2021-06-21 23:49:20.085","img/card_backs/set1/purple.gif","1","-200","1","",""
"casino-fixation","90","358026","0.0-25.0-0.10","200","true","img/card_backs/set1/purple.gif","img/card_backs/set1/green.gif","img/card_backs/set1/yellow.gif","img/card_backs/set1/red.gif","img/card_backs/set2/pink.gif","img/card_backs/set2/blue.gif","img/card_backs/set2/orange.gif","img/card_backs/set2/gray.gif","""event"",""trial"",""time""
""fullscreenenter"",""1"",""3241""
","
","
","""event"",""trial"",""time""
""fullscreenenter"",""1"",""3241""
","
","","null","","null","","fixation","2021-06-21 23:49:20.587","","","","","",""
"card-selection-trial","91","361429","0.0-25.0-1.10","200","true","img/card_backs/set1/purple.gif","img/card_backs/set1/green.gif","img/card_backs/set1/yellow.gif","img/card_backs/set1/red.gif","img/card_backs/set2/pink.gif","img/card_backs/set2/blue.gif","img/card_backs/set2/orange.gif","img/card_backs/set2/gray.gif","""event"",""trial"",""time""
""fullscreenenter"",""1"",""3241""
","
","
","""event"",""trial"",""time""
""fullscreenenter"",""1"",""3241""
","
","","1393.5999999046326","","","","real_trial","2021-06-21 23:49:23.990","img/card_backs/set1/yellow.gif","0","40","1","",""
"casino-fixation","92","361931","0.0-25.0-0.11","200","true","img/card_backs/set1/purple.gif","img/card_backs/set1/green.gif","img/card_backs/set1/yellow.gif","img/card_backs/set1/red.gif","img/card_backs/set2/pink.gif","img/card_backs/set2/blue.gif","img/card_backs/set2/orange.gif","img/card_backs/set2/gray.gif","""event"",""trial"",""time""
""fullscreenenter"",""1"",""3241""
","
","
","""event"",""trial"",""time""
""fullscreenenter"",""1"",""3241""
","
","","null","","null","","fixation","2021-06-21 23:49:24.492","","","","","",""
"card-selection-trial","93","365044","0.0-25.0-1.11","200","true","img/card_backs/set1/purple.gif","img/card_backs/set1/green.gif","img/card_backs/set1/yellow.gif","img/card_backs/set1/red.gif","img/card_backs/set2/pink.gif","img/card_backs/set2/blue.gif","img/card_backs/set2/orange.gif","img/card_backs/set2/gray.gif","""event"",""trial"",""time""
""fullscreenenter"",""1"",""3241""
","
","
","""event"",""trial"",""time""
""fullscreenenter"",""1"",""3241""
","
","","1103.8000000715256","","","","real_trial","2021-06-21 23:49:27.605","img/card_backs/set1/yellow.gif","2","50","1","",""
"casino-fixation","94","365545","0.0-25.0-0.12","200","true","img/card_backs/set1/purple.gif","img/card_backs/set1/green.gif","img/card_backs/set1/yellow.gif","img/card_backs/set1/red.gif","img/card_backs/set2/pink.gif","img/card_backs/set2/blue.gif","img/card_backs/set2/orange.gif","img/card_backs/set2/gray.gif","""event"",""trial"",""time""
""fullscreenenter"",""1"",""3241""
","
","
","""event"",""trial"",""time""
""fullscreenenter"",""1"",""3241""
","
","","null","","null","","fixation","2021-06-21 23:49:28.106","","","","","",""
"card-selection-trial","95","368116","0.0-25.0-1.12","200","true","img/card_backs/set1/purple.gif","img/card_backs/set1/green.gif","img/card_backs/set1/yellow.gif","img/card_backs/set1/red.gif","img/card_backs/set2/pink.gif","img/card_backs/set2/blue.gif","img/card_backs/set2/orange.gif","img/card_backs/set2/gray.gif","""event"",""trial"",""time""
""fullscreenenter"",""1"",""3241""
","
","
","""event"",""trial"",""time""
""fullscreenenter"",""1"",""3241""
","
","","561.1000000238419","","","","real_trial","2021-06-21 23:49:30.677","img/card_backs/set1/yellow.gif","3","-90","1","",""
"casino-fixation","96","368619","0.0-25.0-0.13","200","true","img/card_backs/set1/purple.gif","img/card_backs/set1/green.gif","img/card_backs/set1/yellow.gif","img/card_backs/set1/red.gif","img/card_backs/set2/pink.gif","img/card_backs/set2/blue.gif","img/card_backs/set2/orange.gif","img/card_backs/set2/gray.gif","""event"",""trial"",""time""
""fullscreenenter"",""1"",""3241""
","
","
","""event"",""trial"",""time""
""fullscreenenter"",""1"",""3241""
","
","","null","","null","","fixation","2021-06-21 23:49:31.180","","","","","",""
"card-selection-trial","97","372148","0.0-25.0-1.13","200","true","img/card_backs/set1/purple.gif","img/card_backs/set1/green.gif","img/card_backs/set1/yellow.gif","img/card_backs/set1/red.gif","img/card_backs/set2/pink.gif","img/card_backs/set2/blue.gif","img/card_backs/set2/orange.gif","img/card_backs/set2/gray.gif","""event"",""trial"",""time""
""fullscreenenter"",""1"",""3241""
","
","
","""event"",""trial"",""time""
""fullscreenenter"",""1"",""3241""
","
","","1520.1999999284744","","","","real_trial","2021-06-21 23:49:34.709","img/card_backs/set1/yellow.gif","2","-110","1","",""
"casino-fixation","98","372652","0.0-25.0-0.14","200","true","img/card_backs/set1/purple.gif","img/card_backs/set1/green.gif","img/card_backs/set1/yellow.gif","img/card_backs/set1/red.gif","img/card_backs/set2/pink.gif","img/card_backs/set2/blue.gif","img/card_backs/set2/orange.gif","img/card_backs/set2/gray.gif","""event"",""trial"",""time""
""fullscreenenter"",""1"",""3241""
","
","
","""event"",""trial"",""time""
""fullscreenenter"",""1"",""3241""
","
","","null","","null","","fixation","2021-06-21 23:49:35.213","","","","","",""
"card-selection-trial","99","375613","0.0-25.0-1.14","200","true","img/card_backs/set1/purple.gif","img/card_backs/set1/green.gif","img/card_backs/set1/yellow.gif","img/card_backs/set1/red.gif","img/card_backs/set2/pink.gif","img/card_backs/set2/blue.gif","img/card_backs/set2/orange.gif","img/card_backs/set2/gray.gif","""event"",""trial"",""time""
""fullscreenenter"",""1"",""3241""
","
","
","""event"",""trial"",""time""
""fullscreenenter"",""1"",""3241""
","
","","951","","","","real_trial","2021-06-21 23:49:38.174","img/card_backs/set1/red.gif","3","40","1","",""
"casino-fixation","100","376115","0.0-25.0-0.15","200","true","img/card_backs/set1/purple.gif","img/card_backs/set1/green.gif","img/card_backs/set1/yellow.gif","img/card_backs/set1/red.gif","img/card_backs/set2/pink.gif","img/card_backs/set2/blue.gif","img/card_backs/set2/orange.gif","img/card_backs/set2/gray.gif","""event"",""trial"",""time""
""fullscreenenter"",""1"",""3241""
","
","
","""event"",""trial"",""time""
""fullscreenenter"",""1"",""3241""
","
","","null","","null","","fixation","2021-06-21 23:49:38.676","","","","","",""
"card-selection-trial","101","378684","0.0-25.0-1.15","200","true","img/card_backs/set1/purple.gif","img/card_backs/set1/green.gif","img/card_backs/set1/yellow.gif","img/card_backs/set1/red.gif","img/card_backs/set2/pink.gif","img/card_backs/set2/blue.gif","img/card_backs/set2/orange.gif","img/card_backs/set2/gray.gif","""event"",""trial"",""time""
""fullscreenenter"",""1"",""3241""
","
","
","""event"",""trial"",""time""
""fullscreenenter"",""1"",""3241""
","
","","560.1000000238419","","","","real_trial","2021-06-21 23:49:41.245","img/card_backs/set1/red.gif","3","60","1","",""
"casino-fixation","102","379185","0.0-25.0-0.16","200","true","img/card_backs/set1/purple.gif","img/card_backs/set1/green.gif","img/card_backs/set1/yellow.gif","img/card_backs/set1/red.gif","img/card_backs/set2/pink.gif","img/card_backs/set2/blue.gif","img/card_backs/set2/orange.gif","img/card_backs/set2/gray.gif","""event"",""trial"",""time""
""fullscreenenter"",""1"",""3241""
","
","
","""event"",""trial"",""time""
""fullscreenenter"",""1"",""3241""
","
","","null","","null","","fixation","2021-06-21 23:49:41.747","","","","","",""
"card-selection-trial","103","381876","0.0-25.0-1.16","200","true","img/card_backs/set1/purple.gif","img/card_backs/set1/green.gif","img/card_backs/set1/yellow.gif","img/card_backs/set1/red.gif","img/card_backs/set2/pink.gif","img/card_backs/set2/blue.gif","img/card_backs/set2/orange.gif","img/card_backs/set2/gray.gif","""event"",""trial"",""time""
""fullscreenenter"",""1"",""3241""
","
","
","""event"",""trial"",""time""
""fullscreenenter"",""1"",""3241""
","
","","681.3999999761581","","","","real_trial","2021-06-21 23:49:44.437","img/card_backs/set1/red.gif","0","-100","1","",""
"casino-fixation","104","382378","0.0-25.0-0.17","200","true","img/card_backs/set1/purple.gif","img/card_backs/set1/green.gif","img/card_backs/set1/yellow.gif","img/card_backs/set1/red.gif","img/card_backs/set2/pink.gif","img/card_backs/set2/blue.gif","img/card_backs/set2/orange.gif","img/card_backs/set2/gray.gif","""event"",""trial"",""time""
""fullscreenenter"",""1"",""3241""
","
","
","""event"",""trial"",""time""
""fullscreenenter"",""1"",""3241""
","
","","null","","null","","fixation","2021-06-21 23:49:44.939","","","","","",""
"card-selection-trial","105","385525","0.0-25.0-1.17","200","true","img/card_backs/set1/purple.gif","img/card_backs/set1/green.gif","img/card_backs/set1/yellow.gif","img/card_backs/set1/red.gif","img/card_backs/set2/pink.gif","img/card_backs/set2/blue.gif","img/card_backs/set2/orange.gif","img/card_backs/set2/gray.gif","""event"",""trial"",""time""
""fullscreenenter"",""1"",""3241""
","
","
","""event"",""trial"",""time""
""fullscreenenter"",""1"",""3241""
","
","","1137.5999999046326","","","","real_trial","2021-06-21 23:49:48.086","img/card_backs/set1/yellow.gif","2","-90","1","",""
"casino-fixation","106","386026","0.0-25.0-0.18","200","true","img/card_backs/set1/purple.gif","img/card_backs/set1/green.gif","img/card_backs/set1/yellow.gif","img/card_backs/set1/red.gif","img/card_backs/set2/pink.gif","img/card_backs/set2/blue.gif","img/card_backs/set2/orange.gif","img/card_backs/set2/gray.gif","""event"",""trial"",""time""
""fullscreenenter"",""1"",""3241""
","
","
","""event"",""trial"",""time""
""fullscreenenter"",""1"",""3241""
","
","","null","","null","","fixation","2021-06-21 23:49:48.588","","","","","",""
"card-selection-trial","107","388587","0.0-25.0-1.18","200","true","img/card_backs/set1/purple.gif","img/card_backs/set1/green.gif","img/card_backs/set1/yellow.gif","img/card_backs/set1/red.gif","img/card_backs/set2/pink.gif","img/card_backs/set2/blue.gif","img/card_backs/set2/orange.gif","img/card_backs/set2/gray.gif","""event"",""trial"",""time""
""fullscreenenter"",""1"",""3241""
","
","
","""event"",""trial"",""time""
""fullscreenenter"",""1"",""3241""
","
","","552.2999999523163","","","","real_trial","2021-06-21 23:49:51.148","img/card_backs/set1/yellow.gif","0","50","1","",""
"casino-fixation","108","389089","0.0-25.0-0.19","200","true","img/card_backs/set1/purple.gif","img/card_backs/set1/green.gif","img/card_backs/set1/yellow.gif","img/card_backs/set1/red.gif","img/card_backs/set2/pink.gif","img/card_backs/set2/blue.gif","img/card_backs/set2/orange.gif","img/card_backs/set2/gray.gif","""event"",""trial"",""time""
""fullscreenenter"",""1"",""3241""
","
","
","""event"",""trial"",""time""
""fullscreenenter"",""1"",""3241""
","
","","null","","null","","fixation","2021-06-21 23:49:51.650","","","","","",""
"card-selection-trial","109","391979","0.0-25.0-1.19","200","true","img/card_backs/set1/purple.gif","img/card_backs/set1/green.gif","img/card_backs/set1/yellow.gif","img/card_backs/set1/red.gif","img/card_backs/set2/pink.gif","img/card_backs/set2/blue.gif","img/card_backs/set2/orange.gif","img/card_backs/set2/gray.gif","""event"",""trial"",""time""
""fullscreenenter"",""1"",""3241""
","
","
","""event"",""trial"",""time""
""fullscreenenter"",""1"",""3241""
","
","","878.5","","","","real_trial","2021-06-21 23:49:54.540","img/card_backs/set1/yellow.gif","1","50","1","",""
"casino-fixation","110","392482","0.0-25.0-0.20","200","true","img/card_backs/set1/purple.gif","img/card_backs/set1/green.gif","img/card_backs/set1/yellow.gif","img/card_backs/set1/red.gif","img/card_backs/set2/pink.gif","img/card_backs/set2/blue.gif","img/card_backs/set2/orange.gif","img/card_backs/set2/gray.gif","""event"",""trial"",""time""
""fullscreenenter"",""1"",""3241""
","
","
","""event"",""trial"",""time""
""fullscreenenter"",""1"",""3241""
","
","","null","","null","","fixation","2021-06-21 23:49:55.044","","","","","",""
"card-selection-trial","111","395266","0.0-25.0-1.20","200","true","img/card_backs/set1/purple.gif","img/card_backs/set1/green.gif","img/card_backs/set1/yellow.gif","img/card_backs/set1/red.gif","img/card_backs/set2/pink.gif","img/card_backs/set2/blue.gif","img/card_backs/set2/orange.gif","img/card_backs/set2/gray.gif","""event"",""trial"",""time""
""fullscreenenter"",""1"",""3241""
","
","
","""event"",""trial"",""time""
""fullscreenenter"",""1"",""3241""
","
","","775.3999999761581","","","","real_trial","2021-06-21 23:49:57.827","img/card_backs/set1/yellow.gif","1","40","1","",""
"casino-fixation","112","395768","0.0-25.0-0.21","200","true","img/card_backs/set1/purple.gif","img/card_backs/set1/green.gif","img/card_backs/set1/yellow.gif","img/card_backs/set1/red.gif","img/card_backs/set2/pink.gif","img/card_backs/set2/blue.gif","img/card_backs/set2/orange.gif","img/card_backs/set2/gray.gif","""event"",""trial"",""time""
""fullscreenenter"",""1"",""3241""
","
","
","""event"",""trial"",""time""
""fullscreenenter"",""1"",""3241""
","
","","null","","null","","fixation","2021-06-21 23:49:58.329","","","","","",""
"card-selection-trial","113","398541","0.0-25.0-1.21","200","true","img/card_backs/set1/purple.gif","img/card_backs/set1/green.gif","img/card_backs/set1/yellow.gif","img/card_backs/set1/red.gif","img/card_backs/set2/pink.gif","img/card_backs/set2/blue.gif","img/card_backs/set2/orange.gif","img/card_backs/set2/gray.gif","""event"",""trial"",""time""
""fullscreenenter"",""1"",""3241""
","
","
","""event"",""trial"",""time""
""fullscreenenter"",""1"",""3241""
","
","","763.5999999046326","","","","real_trial","2021-06-21 23:50:01.102","img/card_backs/set1/yellow.gif","1","-110","1","",""
"casino-fixation","114","399043","0.0-25.0-0.22","200","true","img/card_backs/set1/purple.gif","img/card_backs/set1/green.gif","img/card_backs/set1/yellow.gif","img/card_backs/set1/red.gif","img/card_backs/set2/pink.gif","img/card_backs/set2/blue.gif","img/card_backs/set2/orange.gif","img/card_backs/set2/gray.gif","""event"",""trial"",""time""
""fullscreenenter"",""1"",""3241""
","
","
","""event"",""trial"",""time""
""fullscreenenter"",""1"",""3241""
","
","","null","","null","","fixation","2021-06-21 23:50:01.604","","","","","",""
"card-selection-trial","115","401556","0.0-25.0-1.22","200","true","img/card_backs/set1/purple.gif","img/card_backs/set1/green.gif","img/card_backs/set1/yellow.gif","img/card_backs/set1/red.gif","img/card_backs/set2/pink.gif","img/card_backs/set2/blue.gif","img/card_backs/set2/orange.gif","img/card_backs/set2/gray.gif","""event"",""trial"",""time""
""fullscreenenter"",""1"",""3241""
","
","
","""event"",""trial"",""time""
""fullscreenenter"",""1"",""3241""
","
","","503.39999997615814","","","","real_trial","2021-06-21 23:50:04.117","img/card_backs/set1/purple.gif","1","240","1","",""
"casino-fixation","116","402058","0.0-25.0-0.23","200","true","img/card_backs/set1/purple.gif","img/card_backs/set1/green.gif","img/card_backs/set1/yellow.gif","img/card_backs/set1/red.gif","img/card_backs/set2/pink.gif","img/card_backs/set2/blue.gif","img/card_backs/set2/orange.gif","img/card_backs/set2/gray.gif","""event"",""trial"",""time""
""fullscreenenter"",""1"",""3241""
","
","
","""event"",""trial"",""time""
""fullscreenenter"",""1"",""3241""
","
","","null","","null","","fixation","2021-06-21 23:50:04.619","","","","","",""
"card-selection-trial","117","404972","0.0-25.0-1.23","200","true","img/card_backs/set1/purple.gif","img/card_backs/set1/green.gif","img/card_backs/set1/yellow.gif","img/card_backs/set1/red.gif","img/card_backs/set2/pink.gif","img/card_backs/set2/blue.gif","img/card_backs/set2/orange.gif","img/card_backs/set2/gray.gif","""event"",""trial"",""time""
""fullscreenenter"",""1"",""3241""
","
","
","""event"",""trial"",""time""
""fullscreenenter"",""1"",""3241""
","
","","904.7000000476837","","","","real_trial","2021-06-21 23:50:07.533","img/card_backs/set1/yellow.gif","1","50","1","",""
"casino-fixation","118","405474","0.0-25.0-0.24","200","true","img/card_backs/set1/purple.gif","img/card_backs/set1/green.gif","img/card_backs/set1/yellow.gif","img/card_backs/set1/red.gif","img/card_backs/set2/pink.gif","img/card_backs/set2/blue.gif","img/card_backs/set2/orange.gif","img/card_backs/set2/gray.gif","""event"",""trial"",""time""
""fullscreenenter"",""1"",""3241""
","
","
","""event"",""trial"",""time""
""fullscreenenter"",""1"",""3241""
","
","","null","","null","","fixation","2021-06-21 23:50:08.036","","","","","",""
"card-selection-trial","119","409148","0.0-25.0-1.24","200","true","img/card_backs/set1/purple.gif","img/card_backs/set1/green.gif","img/card_backs/set1/yellow.gif","img/card_backs/set1/red.gif","img/card_backs/set2/pink.gif","img/card_backs/set2/blue.gif","img/card_backs/set2/orange.gif","img/card_backs/set2/gray.gif","""event"",""trial"",""time""
""fullscreenenter"",""1"",""3241""
","
","
","""event"",""trial"",""time""
""fullscreenenter"",""1"",""3241""
","
","","1664.6000000238419","","","","real_trial","2021-06-21 23:50:11.709","img/card_backs/set1/red.gif","1","-100","1","",""
"casino-fixation","120","409652","0.0-25.0-0.25","200","true","img/card_backs/set1/purple.gif","img/card_backs/set1/green.gif","img/card_backs/set1/yellow.gif","img/card_backs/set1/red.gif","img/card_backs/set2/pink.gif","img/card_backs/set2/blue.gif","img/card_backs/set2/orange.gif","img/card_backs/set2/gray.gif","""event"",""trial"",""time""
""fullscreenenter"",""1"",""3241""
","
","
","""event"",""trial"",""time""
""fullscreenenter"",""1"",""3241""
","
","","null","","null","","fixation","2021-06-21 23:50:12.213","","","","","",""
"card-selection-trial","121","412163","0.0-25.0-1.25","200","true","img/card_backs/set1/purple.gif","img/card_backs/set1/green.gif","img/card_backs/set1/yellow.gif","img/card_backs/set1/red.gif","img/card_backs/set2/pink.gif","img/card_backs/set2/blue.gif","img/card_backs/set2/orange.gif","img/card_backs/set2/gray.gif","""event"",""trial"",""time""
""fullscreenenter"",""1"",""3241""
","
","
","""event"",""trial"",""time""
""fullscreenenter"",""1"",""3241""
","
","","503","","","","real_trial","2021-06-21 23:50:14.724","img/card_backs/set1/yellow.gif","3","50","1","",""
"casino-fixation","122","412667","0.0-25.0-0.26","200","true","img/card_backs/set1/purple.gif","img/card_backs/set1/green.gif","img/card_backs/set1/yellow.gif","img/card_backs/set1/red.gif","img/card_backs/set2/pink.gif","img/card_backs/set2/blue.gif","img/card_backs/set2/orange.gif","img/card_backs/set2/gray.gif","""event"",""trial"",""time""
""fullscreenenter"",""1"",""3241""
","
","
","""event"",""trial"",""time""
""fullscreenenter"",""1"",""3241""
","
","","null","","null","","fixation","2021-06-21 23:50:15.228","","","","","",""
"card-selection-trial","123","415533","0.0-25.0-1.26","200","true","img/card_backs/set1/purple.gif","img/card_backs/set1/green.gif","img/card_backs/set1/yellow.gif","img/card_backs/set1/red.gif","img/card_backs/set2/pink.gif","img/card_backs/set2/blue.gif","img/card_backs/set2/orange.gif","img/card_backs/set2/gray.gif","""event"",""trial"",""time""
""fullscreenenter"",""1"",""3241""
","
","
","""event"",""trial"",""time""
""fullscreenenter"",""1"",""3241""
","
","","856","","","","real_trial","2021-06-21 23:50:18.094","img/card_backs/set1/yellow.gif","1","40","1","",""
"casino-fixation","124","416035","0.0-25.0-0.27","200","true","img/card_backs/set1/purple.gif","img/card_backs/set1/green.gif","img/card_backs/set1/yellow.gif","img/card_backs/set1/red.gif","img/card_backs/set2/pink.gif","img/card_backs/set2/blue.gif","img/card_backs/set2/orange.gif","img/card_backs/set2/gray.gif","""event"",""trial"",""time""
""fullscreenenter"",""1"",""3241""
","
","
","""event"",""trial"",""time""
""fullscreenenter"",""1"",""3241""
","
","","null","","null","","fixation","2021-06-21 23:50:18.596","","","","","",""
"card-selection-trial","125","418723","0.0-25.0-1.27","200","true","img/card_backs/set1/purple.gif","img/card_backs/set1/green.gif","img/card_backs/set1/yellow.gif","img/card_backs/set1/red.gif","img/card_backs/set2/pink.gif","img/card_backs/set2/blue.gif","img/card_backs/set2/orange.gif","img/card_backs/set2/gray.gif","""event"",""trial"",""time""
""fullscreenenter"",""1"",""3241""
","
","
","""event"",""trial"",""time""
""fullscreenenter"",""1"",""3241""
","
","","679.2999999523163","","","","real_trial","2021-06-21 23:50:21.284","img/card_backs/set1/yellow.gif","0","40","1","",""
"casino-fixation","126","419225","0.0-25.0-0.28","200","true","img/card_backs/set1/purple.gif","img/card_backs/set1/green.gif","img/card_backs/set1/yellow.gif","img/card_backs/set1/red.gif","img/card_backs/set2/pink.gif","img/card_backs/set2/blue.gif","img/card_backs/set2/orange.gif","img/card_backs/set2/gray.gif","""event"",""trial"",""time""
""fullscreenenter"",""1"",""3241""
","
","
","""event"",""trial"",""time""
""fullscreenenter"",""1"",""3241""
","
","","null","","null","","fixation","2021-06-21 23:50:21.786","","","","","",""
"card-selection-trial","127","422124","0.0-25.0-1.28","200","true","img/card_backs/set1/purple.gif","img/card_backs/set1/green.gif","img/card_backs/set1/yellow.gif","img/card_backs/set1/red.gif","img/card_backs/set2/pink.gif","img/card_backs/set2/blue.gif","img/card_backs/set2/orange.gif","img/card_backs/set2/gray.gif","""event"",""trial"",""time""
""fullscreenenter"",""1"",""3241""
","
","
","""event"",""trial"",""time""
""fullscreenenter"",""1"",""3241""
","
","","890.3000000715256","","","","real_trial","2021-06-21 23:50:24.685","img/card_backs/set1/red.gif","1","50","1","",""
"casino-fixation","128","422627","0.0-25.0-0.29","200","true","img/card_backs/set1/purple.gif","img/card_backs/set1/green.gif","img/card_backs/set1/yellow.gif","img/card_backs/set1/red.gif","img/card_backs/set2/pink.gif","img/card_backs/set2/blue.gif","img/card_backs/set2/orange.gif","img/card_backs/set2/gray.gif","""event"",""trial"",""time""
""fullscreenenter"",""1"",""3241""
","
","
","""event"",""trial"",""time""
""fullscreenenter"",""1"",""3241""
","
","","null","","null","","fixation","2021-06-21 23:50:25.189","","","","","",""
"card-selection-trial","129","425123","0.0-25.0-1.29","200","true","img/card_backs/set1/purple.gif","img/card_backs/set1/green.gif","img/card_backs/set1/yellow.gif","img/card_backs/set1/red.gif","img/card_backs/set2/pink.gif","img/card_backs/set2/blue.gif","img/card_backs/set2/orange.gif","img/card_backs/set2/gray.gif","""event"",""trial"",""time""
""fullscreenenter"",""1"",""3241""
","
","
","""event"",""trial"",""time""
""fullscreenenter"",""1"",""3241""
","
","","486.89999997615814","","","","real_trial","2021-06-21 23:50:27.684","img/card_backs/set1/yellow.gif","0","40","1","",""
"casino-fixation","130","425625","0.0-25.0-0.30","200","true","img/card_backs/set1/purple.gif","img/card_backs/set1/green.gif","img/card_backs/set1/yellow.gif","img/card_backs/set1/red.gif","img/card_backs/set2/pink.gif","img/card_backs/set2/blue.gif","img/card_backs/set2/orange.gif","img/card_backs/set2/gray.gif","""event"",""trial"",""time""
""fullscreenenter"",""1"",""3241""
","
","
","""event"",""trial"",""time""
""fullscreenenter"",""1"",""3241""
","
","","null","","null","","fixation","2021-06-21 23:50:28.186","","","","","",""
"card-selection-trial","131","428107","0.0-25.0-1.30","200","true","img/card_backs/set1/purple.gif","img/card_backs/set1/green.gif","img/card_backs/set1/yellow.gif","img/card_backs/set1/red.gif","img/card_backs/set2/pink.gif","img/card_backs/set2/blue.gif","img/card_backs/set2/orange.gif","img/card_backs/set2/gray.gif","""event"",""trial"",""time""
""fullscreenenter"",""1"",""3241""
","
","
","""event"",""trial"",""time""
""fullscreenenter"",""1"",""3241""
","
","","473.09999990463257","","","","real_trial","2021-06-21 23:50:30.668","img/card_backs/set1/yellow.gif","0","-110","1","",""
"casino-fixation","132","428611","0.0-25.0-0.31","200","true","img/card_backs/set1/purple.gif","img/card_backs/set1/green.gif","img/card_backs/set1/yellow.gif","img/card_backs/set1/red.gif","img/card_backs/set2/pink.gif","img/card_backs/set2/blue.gif","img/card_backs/set2/orange.gif","img/card_backs/set2/gray.gif","""event"",""trial"",""time""
""fullscreenenter"",""1"",""3241""
","
","
","""event"",""trial"",""time""
""fullscreenenter"",""1"",""3241""
","
","","null","","null","","fixation","2021-06-21 23:50:31.172","","","","","",""
"card-selection-trial","133","431419","0.0-25.0-1.31","200","true","img/card_backs/set1/purple.gif","img/card_backs/set1/green.gif","img/card_backs/set1/yellow.gif","img/card_backs/set1/red.gif","img/card_backs/set2/pink.gif","img/card_backs/set2/blue.gif","img/card_backs/set2/orange.gif","img/card_backs/set2/gray.gif","""event"",""trial"",""time""
""fullscreenenter"",""1"",""3241""
","
","
","""event"",""trial"",""time""
""fullscreenenter"",""1"",""3241""
","
","","798.7999999523163","","","","real_trial","2021-06-21 23:50:33.980","img/card_backs/set1/yellow.gif","1","40","1","",""
"casino-fixation","134","431922","0.0-25.0-0.32","200","true","img/card_backs/set1/purple.gif","img/card_backs/set1/green.gif","img/card_backs/set1/yellow.gif","img/card_backs/set1/red.gif","img/card_backs/set2/pink.gif","img/card_backs/set2/blue.gif","img/card_backs/set2/orange.gif","img/card_backs/set2/gray.gif","""event"",""trial"",""time""
""fullscreenenter"",""1"",""3241""
","
","
","""event"",""trial"",""time""
""fullscreenenter"",""1"",""3241""
","
","","null","","null","","fixation","2021-06-21 23:50:34.483","","","","","",""
"card-selection-trial","135","435685","0.0-25.0-1.32","200","true","img/card_backs/set1/purple.gif","img/card_backs/set1/green.gif","img/card_backs/set1/yellow.gif","img/card_backs/set1/red.gif","img/card_backs/set2/pink.gif","img/card_backs/set2/blue.gif","img/card_backs/set2/orange.gif","img/card_backs/set2/gray.gif","""event"",""trial"",""time""
""fullscreenenter"",""1"",""3241""
","
","
","""event"",""trial"",""time""
""fullscreenenter"",""1"",""3241""
","
","","1753.4000000953674","","","","real_trial","2021-06-21 23:50:38.247","img/card_backs/set1/red.gif","2","-90","1","",""
"casino-fixation","136","436191","0.0-25.0-0.33","200","true","img/card_backs/set1/purple.gif","img/card_backs/set1/green.gif","img/card_backs/set1/yellow.gif","img/card_backs/set1/red.gif","img/card_backs/set2/pink.gif","img/card_backs/set2/blue.gif","img/card_backs/set2/orange.gif","img/card_backs/set2/gray.gif","""event"",""trial"",""time""
""fullscreenenter"",""1"",""3241""
","
","
","""event"",""trial"",""time""
""fullscreenenter"",""1"",""3241""
","
","","null","","null","","fixation","2021-06-21 23:50:38.752","","","","","",""
"card-selection-trial","137","439091","0.0-25.0-1.33","200","true","img/card_backs/set1/purple.gif","img/card_backs/set1/green.gif","img/card_backs/set1/yellow.gif","img/card_backs/set1/red.gif","img/card_backs/set2/pink.gif","img/card_backs/set2/blue.gif","img/card_backs/set2/orange.gif","img/card_backs/set2/gray.gif","""event"",""trial"",""time""
""fullscreenenter"",""1"",""3241""
","
","
","""event"",""trial"",""time""
""fullscreenenter"",""1"",""3241""
","
","","891.1000000238419","","","","real_trial","2021-06-21 23:50:41.652","img/card_backs/set1/red.gif","1","-90","1","",""
"casino-fixation","138","439593","0.0-25.0-0.34","200","true","img/card_backs/set1/purple.gif","img/card_backs/set1/green.gif","img/card_backs/set1/yellow.gif","img/card_backs/set1/red.gif","img/card_backs/set2/pink.gif","img/card_backs/set2/blue.gif","img/card_backs/set2/orange.gif","img/card_backs/set2/gray.gif","""event"",""trial"",""time""
""fullscreenenter"",""1"",""3241""
","
","
","""event"",""trial"",""time""
""fullscreenenter"",""1"",""3241""
","
","","null","","null","","fixation","2021-06-21 23:50:42.154","","","","","",""
"card-selection-trial","139","442394","0.0-25.0-1.34","200","true","img/card_backs/set1/purple.gif","img/card_backs/set1/green.gif","img/card_backs/set1/yellow.gif","img/card_backs/set1/red.gif","img/card_backs/set2/pink.gif","img/card_backs/set2/blue.gif","img/card_backs/set2/orange.gif","img/card_backs/set2/gray.gif","""event"",""trial"",""time""
""fullscreenenter"",""1"",""3241""
","
","
","""event"",""trial"",""time""
""fullscreenenter"",""1"",""3241""
","
","","792.9000000953674","","","","real_trial","2021-06-21 23:50:44.956","img/card_backs/set1/yellow.gif","0","50","1","",""
"casino-fixation","140","442897","0.0-25.0-0.35","200","true","img/card_backs/set1/purple.gif","img/card_backs/set1/green.gif","img/card_backs/set1/yellow.gif","img/card_backs/set1/red.gif","img/card_backs/set2/pink.gif","img/card_backs/set2/blue.gif","img/card_backs/set2/orange.gif","img/card_backs/set2/gray.gif","""event"",""trial"",""time""
""fullscreenenter"",""1"",""3241""
","
","
","""event"",""trial"",""time""
""fullscreenenter"",""1"",""3241""
","
","","null","","null","","fixation","2021-06-21 23:50:45.458","","","","","",""
"card-selection-trial","141","445652","0.0-25.0-1.35","200","true","img/card_backs/set1/purple.gif","img/card_backs/set1/green.gif","img/card_backs/set1/yellow.gif","img/card_backs/set1/red.gif","img/card_backs/set2/pink.gif","img/card_backs/set2/blue.gif","img/card_backs/set2/orange.gif","img/card_backs/set2/gray.gif","""event"",""trial"",""time""
""fullscreenenter"",""1"",""3241""
","
","
","""event"",""trial"",""time""
""fullscreenenter"",""1"",""3241""
","
","","744.6000000238419","","","","real_trial","2021-06-21 23:50:48.213","img/card_backs/set1/purple.gif","1","240","1","",""
"casino-fixation","142","446154","0.0-25.0-0.36","200","true","img/card_backs/set1/purple.gif","img/card_backs/set1/green.gif","img/card_backs/set1/yellow.gif","img/card_backs/set1/red.gif","img/card_backs/set2/pink.gif","img/card_backs/set2/blue.gif","img/card_backs/set2/orange.gif","img/card_backs/set2/gray.gif","""event"",""trial"",""time""
""fullscreenenter"",""1"",""3241""
","
","
","""event"",""trial"",""time""
""fullscreenenter"",""1"",""3241""
","
","","null","","null","","fixation","2021-06-21 23:50:48.715","","","","","",""
"card-selection-trial","143","449172","0.0-25.0-1.36","200","true","img/card_backs/set1/purple.gif","img/card_backs/set1/green.gif","img/card_backs/set1/yellow.gif","img/card_backs/set1/red.gif","img/card_backs/set2/pink.gif","img/card_backs/set2/blue.gif","img/card_backs/set2/orange.gif","img/card_backs/set2/gray.gif","""event"",""trial"",""time""
""fullscreenenter"",""1"",""3241""
","
","
","""event"",""trial"",""time""
""fullscreenenter"",""1"",""3241""
","
","","1008.7000000476837","","","","real_trial","2021-06-21 23:50:51.733","img/card_backs/set1/purple.gif","3","260","1","",""
"casino-fixation","144","449674","0.0-25.0-0.37","200","true","img/card_backs/set1/purple.gif","img/card_backs/set1/green.gif","img/card_backs/set1/yellow.gif","img/card_backs/set1/red.gif","img/card_backs/set2/pink.gif","img/card_backs/set2/blue.gif","img/card_backs/set2/orange.gif","img/card_backs/set2/gray.gif","""event"",""trial"",""time""
""fullscreenenter"",""1"",""3241""
","
","
","""event"",""trial"",""time""
""fullscreenenter"",""1"",""3241""
","
","","null","","null","","fixation","2021-06-21 23:50:52.236","","","","","",""
"card-selection-trial","145","452267","0.0-25.0-1.37","200","true","img/card_backs/set1/purple.gif","img/card_backs/set1/green.gif","img/card_backs/set1/yellow.gif","img/card_backs/set1/red.gif","img/card_backs/set2/pink.gif","img/card_backs/set2/blue.gif","img/card_backs/set2/orange.gif","img/card_backs/set2/gray.gif","""event"",""trial"",""time""
""fullscreenenter"",""1"",""3241""
","
","
","""event"",""trial"",""time""
""fullscreenenter"",""1"",""3241""
","
","","583.6000000238419","","","","real_trial","2021-06-21 23:50:54.829","img/card_backs/set1/purple.gif","3","240","1","",""
"casino-fixation","146","452771","0.0-25.0-0.38","200","true","img/card_backs/set1/purple.gif","img/card_backs/set1/green.gif","img/card_backs/set1/yellow.gif","img/card_backs/set1/red.gif","img/card_backs/set2/pink.gif","img/card_backs/set2/blue.gif","img/card_backs/set2/orange.gif","img/card_backs/set2/gray.gif","""event"",""trial"",""time""
""fullscreenenter"",""1"",""3241""
","
","
","""event"",""trial"",""time""
""fullscreenenter"",""1"",""3241""
","
","","null","","null","","fixation","2021-06-21 23:50:55.332","","","","","",""
"card-selection-trial","147","455293","0.0-25.0-1.38","200","true","img/card_backs/set1/purple.gif","img/card_backs/set1/green.gif","img/card_backs/set1/yellow.gif","img/card_backs/set1/red.gif","img/card_backs/set2/pink.gif","img/card_backs/set2/blue.gif","img/card_backs/set2/orange.gif","img/card_backs/set2/gray.gif","""event"",""trial"",""time""
""fullscreenenter"",""1"",""3241""
","
","
","""event"",""trial"",""time""
""fullscreenenter"",""1"",""3241""
","
","","510.60000002384186","","","","real_trial","2021-06-21 23:50:57.854","img/card_backs/set1/purple.gif","0","240","1","",""
"casino-fixation","148","455794","0.0-25.0-0.39","200","true","img/card_backs/set1/purple.gif","img/card_backs/set1/green.gif","img/card_backs/set1/yellow.gif","img/card_backs/set1/red.gif","img/card_backs/set2/pink.gif","img/card_backs/set2/blue.gif","img/card_backs/set2/orange.gif","img/card_backs/set2/gray.gif","""event"",""trial"",""time""
""fullscreenenter"",""1"",""3241""
","
","
","""event"",""trial"",""time""
""fullscreenenter"",""1"",""3241""
","
","","null","","null","","fixation","2021-06-21 23:50:58.356","","","","","",""
"card-selection-trial","149","458907","0.0-25.0-1.39","200","true","img/card_backs/set1/purple.gif","img/card_backs/set1/green.gif","img/card_backs/set1/yellow.gif","img/card_backs/set1/red.gif","img/card_backs/set2/pink.gif","img/card_backs/set2/blue.gif","img/card_backs/set2/orange.gif","img/card_backs/set2/gray.gif","""event"",""trial"",""time""
""fullscreenenter"",""1"",""3241""
","
","
","""event"",""trial"",""time""
""fullscreenenter"",""1"",""3241""
","
","","1100.9000000953674","","","","real_trial","2021-06-21 23:51:01.468","img/card_backs/set1/purple.gif","2","240","1","",""
"casino-fixation","150","459410","0.0-25.0-0.40","200","true","img/card_backs/set1/purple.gif","img/card_backs/set1/green.gif","img/card_backs/set1/yellow.gif","img/card_backs/set1/red.gif","img/card_backs/set2/pink.gif","img/card_backs/set2/blue.gif","img/card_backs/set2/orange.gif","img/card_backs/set2/gray.gif","""event"",""trial"",""time""
""fullscreenenter"",""1"",""3241""
","
","
","""event"",""trial"",""time""
""fullscreenenter"",""1"",""3241""
","
","","null","","null","","fixation","2021-06-21 23:51:01.971","","","","","",""
"card-selection-trial","151","461956","0.0-25.0-1.40","200","true","img/card_backs/set1/purple.gif","img/card_backs/set1/green.gif","img/card_backs/set1/yellow.gif","img/card_backs/set1/red.gif","img/card_backs/set2/pink.gif","img/card_backs/set2/blue.gif","img/card_backs/set2/orange.gif","img/card_backs/set2/gray.gif","""event"",""trial"",""time""
""fullscreenenter"",""1"",""3241""
","
","
","""event"",""trial"",""time""
""fullscreenenter"",""1"",""3241""
","
","","536.6000000238419","","","","real_trial","2021-06-21 23:51:04.517","img/card_backs/set1/purple.gif","0","240","1","",""
"casino-fixation","152","462459","0.0-25.0-0.41","200","true","img/card_backs/set1/purple.gif","img/card_backs/set1/green.gif","img/card_backs/set1/yellow.gif","img/card_backs/set1/red.gif","img/card_backs/set2/pink.gif","img/card_backs/set2/blue.gif","img/card_backs/set2/orange.gif","img/card_backs/set2/gray.gif","""event"",""trial"",""time""
""fullscreenenter"",""1"",""3241""
","
","
","""event"",""trial"",""time""
""fullscreenenter"",""1"",""3241""
","
","","null","","null","","fixation","2021-06-21 23:51:05.020","","","","","",""
"card-selection-trial","153","464981","0.0-25.0-1.41","200","true","img/card_backs/set1/purple.gif","img/card_backs/set1/green.gif","img/card_backs/set1/yellow.gif","img/card_backs/set1/red.gif","img/card_backs/set2/pink.gif","img/card_backs/set2/blue.gif","img/card_backs/set2/orange.gif","img/card_backs/set2/gray.gif","""event"",""trial"",""time""
""fullscreenenter"",""1"",""3241""
","
","
","""event"",""trial"",""time""
""fullscreenenter"",""1"",""3241""
","
","","510.8000000715256","","","","real_trial","2021-06-21 23:51:07.542","img/card_backs/set1/purple.gif","0","-210","1","",""
"casino-fixation","154","465484","0.0-25.0-0.42","200","true","img/card_backs/set1/purple.gif","img/card_backs/set1/green.gif","img/card_backs/set1/yellow.gif","img/card_backs/set1/red.gif","img/card_backs/set2/pink.gif","img/card_backs/set2/blue.gif","img/card_backs/set2/orange.gif","img/card_backs/set2/gray.gif","""event"",""trial"",""time""
""fullscreenenter"",""1"",""3241""
","
","
","""event"",""trial"",""time""
""fullscreenenter"",""1"",""3241""
","
","","null","","null","","fixation","2021-06-21 23:51:08.045","","","","","",""
"card-selection-trial","155","468292","0.0-25.0-1.42","200","true","img/card_backs/set1/purple.gif","img/card_backs/set1/green.gif","img/card_backs/set1/yellow.gif","img/card_backs/set1/red.gif","img/card_backs/set2/pink.gif","img/card_backs/set2/blue.gif","img/card_backs/set2/orange.gif","img/card_backs/set2/gray.gif","""event"",""trial"",""time""
""fullscreenenter"",""1"",""3241""
","
","
","""event"",""trial"",""time""
""fullscreenenter"",""1"",""3241""
","
","","797.8000000715256","","","","real_trial","2021-06-21 23:51:10.853","img/card_backs/set1/red.gif","0","60","1","",""
"casino-fixation","156","468796","0.0-25.0-0.43","200","true","img/card_backs/set1/purple.gif","img/card_backs/set1/green.gif","img/card_backs/set1/yellow.gif","img/card_backs/set1/red.gif","img/card_backs/set2/pink.gif","img/card_backs/set2/blue.gif","img/card_backs/set2/orange.gif","img/card_backs/set2/gray.gif","""event"",""trial"",""time""
""fullscreenenter"",""1"",""3241""
","
","
","""event"",""trial"",""time""
""fullscreenenter"",""1"",""3241""
","
","","null","","null","","fixation","2021-06-21 23:51:11.357","","","","","",""
"card-selection-trial","157","471691","0.0-25.0-1.43","200","true","img/card_backs/set1/purple.gif","img/card_backs/set1/green.gif","img/card_backs/set1/yellow.gif","img/card_backs/set1/red.gif","img/card_backs/set2/pink.gif","img/card_backs/set2/blue.gif","img/card_backs/set2/orange.gif","img/card_backs/set2/gray.gif","""event"",""trial"",""time""
""fullscreenenter"",""1"",""3241""
","
","
","""event"",""trial"",""time""
""fullscreenenter"",""1"",""3241""
","
","","885.4000000953674","","","","real_trial","2021-06-21 23:51:14.252","img/card_backs/set1/green.gif","3","-200","1","",""
"casino-fixation","158","472192","0.0-25.0-0.44","200","true","img/card_backs/set1/purple.gif","img/card_backs/set1/green.gif","img/card_backs/set1/yellow.gif","img/card_backs/set1/red.gif","img/card_backs/set2/pink.gif","img/card_backs/set2/blue.gif","img/card_backs/set2/orange.gif","img/card_backs/set2/gray.gif","""event"",""trial"",""time""
""fullscreenenter"",""1"",""3241""
","
","
","""event"",""trial"",""time""
""fullscreenenter"",""1"",""3241""
","
","","null","","null","","fixation","2021-06-21 23:51:14.754","","","","","",""
"card-selection-trial","159","475101","0.0-25.0-1.44","200","true","img/card_backs/set1/purple.gif","img/card_backs/set1/green.gif","img/card_backs/set1/yellow.gif","img/card_backs/set1/red.gif","img/card_backs/set2/pink.gif","img/card_backs/set2/blue.gif","img/card_backs/set2/orange.gif","img/card_backs/set2/gray.gif","""event"",""trial"",""time""
""fullscreenenter"",""1"",""3241""
","
","
","""event"",""trial"",""time""
""fullscreenenter"",""1"",""3241""
","
","","898.2000000476837","","","","real_trial","2021-06-21 23:51:17.662","img/card_backs/set1/purple.gif","3","-200","1","",""
"casino-fixation","160","475603","0.0-25.0-0.45","200","true","img/card_backs/set1/purple.gif","img/card_backs/set1/green.gif","img/card_backs/set1/yellow.gif","img/card_backs/set1/red.gif","img/card_backs/set2/pink.gif","img/card_backs/set2/blue.gif","img/card_backs/set2/orange.gif","img/card_backs/set2/gray.gif","""event"",""trial"",""time""
""fullscreenenter"",""1"",""3241""
","
","
","""event"",""trial"",""time""
""fullscreenenter"",""1"",""3241""
","
","","null","","null","","fixation","2021-06-21 23:51:18.164","","","","","",""
"card-selection-trial","161","478387","0.0-25.0-1.45","200","true","img/card_backs/set1/purple.gif","img/card_backs/set1/green.gif","img/card_backs/set1/yellow.gif","img/card_backs/set1/red.gif","img/card_backs/set2/pink.gif","img/card_backs/set2/blue.gif","img/card_backs/set2/orange.gif","img/card_backs/set2/gray.gif","""event"",""trial"",""time""
""fullscreenenter"",""1"",""3241""
","
","
","""event"",""trial"",""time""
""fullscreenenter"",""1"",""3241""
","
","","775.1000000238419","","","","real_trial","2021-06-21 23:51:20.948","img/card_backs/set1/purple.gif","2","-190","1","",""
"casino-fixation","162","478891","0.0-25.0-0.46","200","true","img/card_backs/set1/purple.gif","img/card_backs/set1/green.gif","img/card_backs/set1/yellow.gif","img/card_backs/set1/red.gif","img/card_backs/set2/pink.gif","img/card_backs/set2/blue.gif","img/card_backs/set2/orange.gif","img/card_backs/set2/gray.gif","""event"",""trial"",""time""
""fullscreenenter"",""1"",""3241""
","
","
","""event"",""trial"",""time""
""fullscreenenter"",""1"",""3241""
","
","","null","","null","","fixation","2021-06-21 23:51:21.453","","","","","",""
"card-selection-trial","163","481659","0.0-25.0-1.46","200","true","img/card_backs/set1/purple.gif","img/card_backs/set1/green.gif","img/card_backs/set1/yellow.gif","img/card_backs/set1/red.gif","img/card_backs/set2/pink.gif","img/card_backs/set2/blue.gif","img/card_backs/set2/orange.gif","img/card_backs/set2/gray.gif","""event"",""trial"",""time""
""fullscreenenter"",""1"",""3241""
","
","
","""event"",""trial"",""time""
""fullscreenenter"",""1"",""3241""
","
","","758.1000000238419","","","","real_trial","2021-06-21 23:51:24.220","img/card_backs/set1/purple.gif","1","-200","1","",""
"casino-fixation","164","482162","0.0-25.0-0.47","200","true","img/card_backs/set1/purple.gif","img/card_backs/set1/green.gif","img/card_backs/set1/yellow.gif","img/card_backs/set1/red.gif","img/card_backs/set2/pink.gif","img/card_backs/set2/blue.gif","img/card_backs/set2/orange.gif","img/card_backs/set2/gray.gif","""event"",""trial"",""time""
""fullscreenenter"",""1"",""3241""
","
","
","""event"",""trial"",""time""
""fullscreenenter"",""1"",""3241""
","
","","null","","null","","fixation","2021-06-21 23:51:24.723","","","","","",""
"card-selection-trial","165","485092","0.0-25.0-1.47","200","true","img/card_backs/set1/purple.gif","img/card_backs/set1/green.gif","img/card_backs/set1/yellow.gif","img/card_backs/set1/red.gif","img/card_backs/set2/pink.gif","img/card_backs/set2/blue.gif","img/card_backs/set2/orange.gif","img/card_backs/set2/gray.gif","""event"",""trial"",""time""
""fullscreenenter"",""1"",""3241""
","
","
","""event"",""trial"",""time""
""fullscreenenter"",""1"",""3241""
","
","","920.2000000476837","","","","real_trial","2021-06-21 23:51:27.653","img/card_backs/set1/red.gif","0","60","1","",""
"casino-fixation","166","485594","0.0-25.0-0.48","200","true","img/card_backs/set1/purple.gif","img/card_backs/set1/green.gif","img/card_backs/set1/yellow.gif","img/card_backs/set1/red.gif","img/card_backs/set2/pink.gif","img/card_backs/set2/blue.gif","img/card_backs/set2/orange.gif","img/card_backs/set2/gray.gif","""event"",""trial"",""time""
""fullscreenenter"",""1"",""3241""
","
","
","""event"",""trial"",""time""
""fullscreenenter"",""1"",""3241""
","
","","null","","null","","fixation","2021-06-21 23:51:28.155","","","","","",""
"card-selection-trial","167","488260","0.0-25.0-1.48","200","true","img/card_backs/set1/purple.gif","img/card_backs/set1/green.gif","img/card_backs/set1/yellow.gif","img/card_backs/set1/red.gif","img/card_backs/set2/pink.gif","img/card_backs/set2/blue.gif","img/card_backs/set2/orange.gif","img/card_backs/set2/gray.gif","""event"",""trial"",""time""
""fullscreenenter"",""1"",""3241""
","
","
","""event"",""trial"",""time""
""fullscreenenter"",""1"",""3241""
","
","","656.8999999761581","","","","real_trial","2021-06-21 23:51:30.821","img/card_backs/set1/yellow.gif","0","60","1","",""
