"trial_type","trial_index","time_elapsed","internal_node_id","sub_id","risk_good_first","block1_A","block1_B","block1_C","block1_D","block2_A","block2_B","block2_C","block2_D","interactions","blur_events","focus_events","fullscreenenter_events","fullscreenexit_events","success","rt","stimulus","key_press","button_pressed","task_part","timestamp","card_choice","choice_position","points_earned","block","correct","response"
"pavlovia","0","7","0.0-0.0","1080","true","img/card_backs/set1/yellow.gif","img/card_backs/set1/red.gif","img/card_backs/set1/purple.gif","img/card_backs/set1/green.gif","img/card_backs/set2/pink.gif","img/card_backs/set2/orange.gif","img/card_backs/set2/blue.gif","img/card_backs/set2/gray.gif","""event"",""trial"",""time""
""fullscreenenter"",""1"",""8322""
","
","
","""event"",""trial"",""time""
""fullscreenenter"",""1"",""8322""
","
","","","","","","","","","","","","",""
"fullscreen","1","9282","0.0-1.0","1080","true","img/card_backs/set1/yellow.gif","img/card_backs/set1/red.gif","img/card_backs/set1/purple.gif","img/card_backs/set1/green.gif","img/card_backs/set2/pink.gif","img/card_backs/set2/orange.gif","img/card_backs/set2/blue.gif","img/card_backs/set2/gray.gif","""event"",""trial"",""time""
""fullscreenenter"",""1"",""8322""
","
","
","""event"",""trial"",""time""
""fullscreenenter"",""1"",""8322""
","
","true","","","","","","","","","","","",""
"audio-keyboard-response","2","12771","0.0-2.0","1080","true","img/card_backs/set1/yellow.gif","img/card_backs/set1/red.gif","img/card_backs/set1/purple.gif","img/card_backs/set1/green.gif","img/card_backs/set2/pink.gif","img/card_backs/set2/orange.gif","img/card_backs/set2/blue.gif","img/card_backs/set2/gray.gif","""event"",""trial"",""time""
""fullscreenenter"",""1"",""8322""
","
","
","""event"",""trial"",""time""
""fullscreenenter"",""1"",""8322""
","
","","0","audio/beep_loop.wav","32","","","","","","","","",""
"audio-button-response","3","17515","0.0-3.0","1080","true","img/card_backs/set1/yellow.gif","img/card_backs/set1/red.gif","img/card_backs/set1/purple.gif","img/card_backs/set1/green.gif","img/card_backs/set2/pink.gif","img/card_backs/set2/orange.gif","img/card_backs/set2/blue.gif","img/card_backs/set2/gray.gif","""event"",""trial"",""time""
""fullscreenenter"",""1"",""8322""
","
","
","""event"",""trial"",""time""
""fullscreenenter"",""1"",""8322""
","
","","NaN","audio/turtle.mp3","","3","","","","","","","",""
"audio-button-response","4","21824","0.0-4.0","1080","true","img/card_backs/set1/yellow.gif","img/card_backs/set1/red.gif","img/card_backs/set1/purple.gif","img/card_backs/set1/green.gif","img/card_backs/set2/pink.gif","img/card_backs/set2/orange.gif","img/card_backs/set2/blue.gif","img/card_backs/set2/gray.gif","""event"",""trial"",""time""
""fullscreenenter"",""1"",""8322""
","
","
","""event"",""trial"",""time""
""fullscreenenter"",""1"",""8322""
","
","","NaN","audio/shark.mp3","","2","","","","","","","",""
"fullscreen","5","28111","0.0-5.0","1080","true","img/card_backs/set1/yellow.gif","img/card_backs/set1/red.gif","img/card_backs/set1/purple.gif","img/card_backs/set1/green.gif","img/card_backs/set2/pink.gif","img/card_backs/set2/orange.gif","img/card_backs/set2/blue.gif","img/card_backs/set2/gray.gif","""event"",""trial"",""time""
""fullscreenenter"",""1"",""8322""
","
","
","""event"",""trial"",""time""
""fullscreenenter"",""1"",""8322""
","
","true","","","","","","","","","","","",""
"casino-keyboard-response","6","32843","0.0-6.0-0.0","1080","true","img/card_backs/set1/yellow.gif","img/card_backs/set1/red.gif","img/card_backs/set1/purple.gif","img/card_backs/set1/green.gif","img/card_backs/set2/pink.gif","img/card_backs/set2/orange.gif","img/card_backs/set2/blue.gif","img/card_backs/set2/gray.gif","""event"",""trial"",""time""
""fullscreenenter"",""1"",""8322""
","
","
","""event"",""trial"",""time""
""fullscreenenter"",""1"",""8322""
","
","","4727","Welcome to the casino!","71","","instructions","2021-08-08 17:13:10.372","","","","","",""
"casino-keyboard-response","7","43278","0.0-6.0-0.1","1080","true","img/card_backs/set1/yellow.gif","img/card_backs/set1/red.gif","img/card_backs/set1/purple.gif","img/card_backs/set1/green.gif","img/card_backs/set2/pink.gif","img/card_backs/set2/orange.gif","img/card_backs/set2/blue.gif","img/card_backs/set2/gray.gif","""event"",""trial"",""time""
""fullscreenenter"",""1"",""8322""
","
","
","""event"",""trial"",""time""
""fullscreenenter"",""1"",""8322""
","
","","10432","Today you will be playing a game to earn tokens. </br> At the end of the experiment, you will be paid a bonus based on how many tokens you win. ","69","","instructions","2021-08-08 17:13:20.806","","","","","",""
"casino-keyboard-response","8","51439","0.0-6.0-0.2","1080","true","img/card_backs/set1/yellow.gif","img/card_backs/set1/red.gif","img/card_backs/set1/purple.gif","img/card_backs/set1/green.gif","img/card_backs/set2/pink.gif","img/card_backs/set2/orange.gif","img/card_backs/set2/blue.gif","img/card_backs/set2/gray.gif","""event"",""trial"",""time""
""fullscreenenter"",""1"",""8322""
","
","
","""event"",""trial"",""time""
""fullscreenenter"",""1"",""8322""
","
","","8159","On every turn, you will be shown four different decks of cards. </br> You need to select a card from one of the four decks.  ","75","","instructions","2021-08-08 17:13:28.968","","","","","",""
"casino-keyboard-response","9","56814","0.0-6.0-0.3","1080","true","img/card_backs/set1/yellow.gif","img/card_backs/set1/red.gif","img/card_backs/set1/purple.gif","img/card_backs/set1/green.gif","img/card_backs/set2/pink.gif","img/card_backs/set2/orange.gif","img/card_backs/set2/blue.gif","img/card_backs/set2/gray.gif","""event"",""trial"",""time""
""fullscreenenter"",""1"",""8322""
","
","
","""event"",""trial"",""time""
""fullscreenenter"",""1"",""8322""
","
","","5372.999999999993","On the next screen, you will see what the decks will look like. ","66","","instructions","2021-08-08 17:13:34.342","","","","","",""
"card-selection-trial","10","60820","0.0-7.0-0.0","1080","true","img/card_backs/set1/yellow.gif","img/card_backs/set1/red.gif","img/card_backs/set1/purple.gif","img/card_backs/set1/green.gif","img/card_backs/set2/pink.gif","img/card_backs/set2/orange.gif","img/card_backs/set2/blue.gif","img/card_backs/set2/gray.gif","""event"",""trial"",""time""
""fullscreenenter"",""1"",""8322""
","
","
","""event"",""trial"",""time""
""fullscreenenter"",""1"",""8322""
","
","","null","","","","practice","2021-08-08 17:13:38.348","null","null","null","0","",""
"casino-keyboard-response","11","69680","0.0-8.0-0.0","1080","true","img/card_backs/set1/yellow.gif","img/card_backs/set1/red.gif","img/card_backs/set1/purple.gif","img/card_backs/set1/green.gif","img/card_backs/set2/pink.gif","img/card_backs/set2/orange.gif","img/card_backs/set2/blue.gif","img/card_backs/set2/gray.gif","""event"",""trial"",""time""
""fullscreenenter"",""1"",""8322""
","
","
","""event"",""trial"",""time""
""fullscreenenter"",""1"",""8322""
","
","","8857","You should pick a card from a deck using the '2', '4', '6', and '8' keys at the top of the keyboard.","85","","instructions","2021-08-08 17:13:47.208","","","","","",""
"casino-keyboard-response","12","75831","0.0-8.0-0.1","1080","true","img/card_backs/set1/yellow.gif","img/card_backs/set1/red.gif","img/card_backs/set1/purple.gif","img/card_backs/set1/green.gif","img/card_backs/set2/pink.gif","img/card_backs/set2/orange.gif","img/card_backs/set2/blue.gif","img/card_backs/set2/gray.gif","""event"",""trial"",""time""
""fullscreenenter"",""1"",""8322""
","
","
","""event"",""trial"",""time""
""fullscreenenter"",""1"",""8322""
","
","","6149","Once you select a card, it will turn over and you will see how many tokens you earned.","83","","instructions","2021-08-08 17:13:53.359","","","","","",""
"casino-keyboard-response","13","90653","0.0-8.0-0.2","1080","true","img/card_backs/set1/yellow.gif","img/card_backs/set1/red.gif","img/card_backs/set1/purple.gif","img/card_backs/set1/green.gif","img/card_backs/set2/pink.gif","img/card_backs/set2/orange.gif","img/card_backs/set2/blue.gif","img/card_backs/set2/gray.gif","""event"",""trial"",""time""
""fullscreenenter"",""1"",""8322""
","
","
","""event"",""trial"",""time""
""fullscreenenter"",""1"",""8322""
","
","","14819","Let's try practicing that! </br> First, try to put your fingers over the '2', '4', '6', and '8' keys. </br>  You can use whatever fingers are most comfortable for you. Try to find a comfortable position now. ","50","","instructions","2021-08-08 17:14:08.181","","","","","",""
"casino-keyboard-response","14","96477","0.0-8.0-0.3","1080","true","img/card_backs/set1/yellow.gif","img/card_backs/set1/red.gif","img/card_backs/set1/purple.gif","img/card_backs/set1/green.gif","img/card_backs/set2/pink.gif","img/card_backs/set2/orange.gif","img/card_backs/set2/blue.gif","img/card_backs/set2/gray.gif","""event"",""trial"",""time""
""fullscreenenter"",""1"",""8322""
","
","
","""event"",""trial"",""time""
""fullscreenenter"",""1"",""8322""
","
","","5823","Okay ready? </br> On the next screen, press '2' to select the left deck. ","50","","instructions","2021-08-08 17:14:14.005","","","","","",""
"card-selection-trial","15","99918","0.0-9.0-0.0","1080","true","img/card_backs/set1/yellow.gif","img/card_backs/set1/red.gif","img/card_backs/set1/purple.gif","img/card_backs/set1/green.gif","img/card_backs/set2/pink.gif","img/card_backs/set2/orange.gif","img/card_backs/set2/blue.gif","img/card_backs/set2/gray.gif","""event"",""trial"",""time""
""fullscreenenter"",""1"",""8322""
","
","
","""event"",""trial"",""time""
""fullscreenenter"",""1"",""8322""
","
","","1363","","","","practice_card_selection","2021-08-08 17:14:17.447","img/practice_cards/backs/brown.gif","0","-100","","",""
"casino-keyboard-response","16","105742","0.0-10.0-0.0","1080","true","img/card_backs/set1/yellow.gif","img/card_backs/set1/red.gif","img/card_backs/set1/purple.gif","img/card_backs/set1/green.gif","img/card_backs/set2/pink.gif","img/card_backs/set2/orange.gif","img/card_backs/set2/blue.gif","img/card_backs/set2/gray.gif","""event"",""trial"",""time""
""fullscreenenter"",""1"",""8322""
","
","
","""event"",""trial"",""time""
""fullscreenenter"",""1"",""8322""
","
","","5820.000000000015","Great! Now on the next screen, try pressing '6' to select the third deck.","54","","instructions","2021-08-08 17:14:23.270","","","","","",""
"card-selection-trial","17","108565","0.0-11.0-0.0","1080","true","img/card_backs/set1/yellow.gif","img/card_backs/set1/red.gif","img/card_backs/set1/purple.gif","img/card_backs/set1/green.gif","img/card_backs/set2/pink.gif","img/card_backs/set2/orange.gif","img/card_backs/set2/blue.gif","img/card_backs/set2/gray.gif","""event"",""trial"",""time""
""fullscreenenter"",""1"",""8322""
","
","
","""event"",""trial"",""time""
""fullscreenenter"",""1"",""8322""
","
","","758","","","","practice_card_selection","2021-08-08 17:14:26.093","img/practice_cards/backs/brown.gif","2","100","","",""
"casino-keyboard-response","18","113346","0.0-12.0-0.0","1080","true","img/card_backs/set1/yellow.gif","img/card_backs/set1/red.gif","img/card_backs/set1/purple.gif","img/card_backs/set1/green.gif","img/card_backs/set2/pink.gif","img/card_backs/set2/orange.gif","img/card_backs/set2/blue.gif","img/card_backs/set2/gray.gif","""event"",""trial"",""time""
""fullscreenenter"",""1"",""8322""
","
","
","""event"",""trial"",""time""
""fullscreenenter"",""1"",""8322""
","
","","4779","Now on the next screen, try pressing '4' to select the second deck.","52","","instructions","2021-08-08 17:14:30.874","","","","","",""
"card-selection-trial","19","116176","0.0-13.0-0.0","1080","true","img/card_backs/set1/yellow.gif","img/card_backs/set1/red.gif","img/card_backs/set1/purple.gif","img/card_backs/set1/green.gif","img/card_backs/set2/pink.gif","img/card_backs/set2/orange.gif","img/card_backs/set2/blue.gif","img/card_backs/set2/gray.gif","""event"",""trial"",""time""
""fullscreenenter"",""1"",""8322""
","
","
","""event"",""trial"",""time""
""fullscreenenter"",""1"",""8322""
","
","","753","","","","practice_card_selection","2021-08-08 17:14:33.704","img/practice_cards/backs/brown.gif","1","-100","","",""
"casino-keyboard-response","20","120548","0.0-14.0-0.0","1080","true","img/card_backs/set1/yellow.gif","img/card_backs/set1/red.gif","img/card_backs/set1/purple.gif","img/card_backs/set1/green.gif","img/card_backs/set2/pink.gif","img/card_backs/set2/orange.gif","img/card_backs/set2/blue.gif","img/card_backs/set2/gray.gif","""event"",""trial"",""time""
""fullscreenenter"",""1"",""8322""
","
","
","""event"",""trial"",""time""
""fullscreenenter"",""1"",""8322""
","
","","4370","Finally, try pressing '8' to select the deck all the way on the right.","56","","instructions","2021-08-08 17:14:38.076","","","","","",""
"card-selection-trial","21","123428","0.0-15.0-0.0","1080","true","img/card_backs/set1/yellow.gif","img/card_backs/set1/red.gif","img/card_backs/set1/purple.gif","img/card_backs/set1/green.gif","img/card_backs/set2/pink.gif","img/card_backs/set2/orange.gif","img/card_backs/set2/blue.gif","img/card_backs/set2/gray.gif","""event"",""trial"",""time""
""fullscreenenter"",""1"",""8322""
","
","
","""event"",""trial"",""time""
""fullscreenenter"",""1"",""8322""
","
","","841","","","","practice_card_selection","2021-08-08 17:14:40.956","img/practice_cards/backs/brown.gif","3","100","","",""
"casino-keyboard-response","22","127451","0.0-16.0-0.0","1080","true","img/card_backs/set1/yellow.gif","img/card_backs/set1/red.gif","img/card_backs/set1/purple.gif","img/card_backs/set1/green.gif","img/card_backs/set2/pink.gif","img/card_backs/set2/orange.gif","img/card_backs/set2/blue.gif","img/card_backs/set2/gray.gif","""event"",""trial"",""time""
""fullscreenenter"",""1"",""8322""
","
","
","""event"",""trial"",""time""
""fullscreenenter"",""1"",""8322""
","
","","4017.9999999999854","Great! It seems like you are getting the hang of this.","80","","instructions","2021-08-08 17:14:44.979","","","","","",""
"casino-keyboard-response","23","135974","0.0-16.0-0.1","1080","true","img/card_backs/set1/yellow.gif","img/card_backs/set1/red.gif","img/card_backs/set1/purple.gif","img/card_backs/set1/green.gif","img/card_backs/set2/pink.gif","img/card_backs/set2/orange.gif","img/card_backs/set2/blue.gif","img/card_backs/set2/gray.gif","""event"",""trial"",""time""
""fullscreenenter"",""1"",""8322""
","
","
","""event"",""trial"",""time""
""fullscreenenter"",""1"",""8322""
","
","","8521","You may have noticed that some cards will cause you to <b> win </b> tokens while other cards will cause you to <b> lose </b>  tokens.","70","","instructions","2021-08-08 17:14:53.503","","","","","",""
"casino-keyboard-response","24","145309","0.0-16.0-0.2","1080","true","img/card_backs/set1/yellow.gif","img/card_backs/set1/red.gif","img/card_backs/set1/purple.gif","img/card_backs/set1/green.gif","img/card_backs/set2/pink.gif","img/card_backs/set2/orange.gif","img/card_backs/set2/blue.gif","img/card_backs/set2/gray.gif","""event"",""trial"",""time""
""fullscreenenter"",""1"",""8322""
","
","
","""event"",""trial"",""time""
""fullscreenenter"",""1"",""8322""
","
","","9332","Each deck has a mix of cards that will cause you to win and lose tokens. </br> However, the cards in each colored deck are different.","73","","instructions","2021-08-08 17:15:02.838","","","","","",""
"casino-keyboard-response","25","154336","0.0-16.0-0.3","1080","true","img/card_backs/set1/yellow.gif","img/card_backs/set1/red.gif","img/card_backs/set1/purple.gif","img/card_backs/set1/green.gif","img/card_backs/set2/pink.gif","img/card_backs/set2/orange.gif","img/card_backs/set2/blue.gif","img/card_backs/set2/gray.gif","""event"",""trial"",""time""
""fullscreenenter"",""1"",""8322""
","
","
","""event"",""trial"",""time""
""fullscreenenter"",""1"",""8322""
","
","","9024","Some colored decks are luckier than others. </br> If you choose the lucky decks, you will earn more tokens than if you choose the unlucky decks.","69","","instructions","2021-08-08 17:15:11.864","","","","","",""
"casino-keyboard-response","26","162036","0.0-16.0-0.4","1080","true","img/card_backs/set1/yellow.gif","img/card_backs/set1/red.gif","img/card_backs/set1/purple.gif","img/card_backs/set1/green.gif","img/card_backs/set2/pink.gif","img/card_backs/set2/orange.gif","img/card_backs/set2/blue.gif","img/card_backs/set2/gray.gif","""event"",""trial"",""time""
""fullscreenenter"",""1"",""8322""
","
","
","""event"",""trial"",""time""
""fullscreenenter"",""1"",""8322""
","
","","7697","You should try to figure out which decks are lucky. </br> Then, try to choose the lucky decks so you can win the most tokens.","87","","instructions","2021-08-08 17:15:19.564","","","","","",""
"casino-keyboard-response","27","183721","0.0-16.0-0.5","1080","true","img/card_backs/set1/yellow.gif","img/card_backs/set1/red.gif","img/card_backs/set1/purple.gif","img/card_backs/set1/green.gif","img/card_backs/set2/pink.gif","img/card_backs/set2/orange.gif","img/card_backs/set2/blue.gif","img/card_backs/set2/gray.gif","""event"",""trial"",""time""
""fullscreenenter"",""1"",""8322""
","
","
","""event"",""trial"",""time""
""fullscreenenter"",""1"",""8322""
","
","","21683","To make it trickier, the casino dealer will switch the locations of the decks on every turn. </br> The color of the deck determines how lucky it is. The location does not matter.","88","","instructions","2021-08-08 17:15:41.249","","","","","",""
"casino-keyboard-response","28","194665","0.0-16.0-0.6","1080","true","img/card_backs/set1/yellow.gif","img/card_backs/set1/red.gif","img/card_backs/set1/purple.gif","img/card_backs/set1/green.gif","img/card_backs/set2/pink.gif","img/card_backs/set2/orange.gif","img/card_backs/set2/blue.gif","img/card_backs/set2/gray.gif","""event"",""trial"",""time""
""fullscreenenter"",""1"",""8322""
","
","
","""event"",""trial"",""time""
""fullscreenenter"",""1"",""8322""
","
","","10943","The mix of cards in each colored deck will stay the same throughout the game. </br> That means that a deck that is lucky early on will stay lucky.","79","","instructions","2021-08-08 17:15:52.193","","","","","",""
"casino-keyboard-response","29","203392","0.0-16.0-0.7","1080","true","img/card_backs/set1/yellow.gif","img/card_backs/set1/red.gif","img/card_backs/set1/purple.gif","img/card_backs/set1/green.gif","img/card_backs/set2/pink.gif","img/card_backs/set2/orange.gif","img/card_backs/set2/blue.gif","img/card_backs/set2/gray.gif","""event"",""trial"",""time""
""fullscreenenter"",""1"",""8322""
","
","
","""event"",""trial"",""time""
""fullscreenenter"",""1"",""8322""
","
","","8725.00000000003","Remember though, all the decks have a <b> mix </b> of both <b> good </b> and <b> bad </b> cards so it may take a couple of turns to figure out if a deck is lucky.","69","","instructions","2021-08-08 17:16:00.920","","","","","",""
"casino-keyboard-response","30","217699","0.0-16.0-0.8","1080","true","img/card_backs/set1/yellow.gif","img/card_backs/set1/red.gif","img/card_backs/set1/purple.gif","img/card_backs/set1/green.gif","img/card_backs/set2/pink.gif","img/card_backs/set2/orange.gif","img/card_backs/set2/blue.gif","img/card_backs/set2/gray.gif","""event"",""trial"",""time""
""fullscreenenter"",""1"",""8322""
","
","
","""event"",""trial"",""time""
""fullscreenenter"",""1"",""8322""
","
","","14305","At the end of the game, you will be paid bonus money based on how many tokens you win. </br> If you win more tokens, you will earn more money!","72","","instructions","2021-08-08 17:16:15.227","","","","","",""
"casino-keyboard-response","31","228775","0.0-16.0-0.9","1080","true","img/card_backs/set1/yellow.gif","img/card_backs/set1/red.gif","img/card_backs/set1/purple.gif","img/card_backs/set1/green.gif","img/card_backs/set2/pink.gif","img/card_backs/set2/orange.gif","img/card_backs/set2/blue.gif","img/card_backs/set2/gray.gif","""event"",""trial"",""time""
""fullscreenenter"",""1"",""8322""
","
","
","""event"",""trial"",""time""
""fullscreenenter"",""1"",""8322""
","
","","11073.99999999997","You will never <b> lose </b> money. </br> If you end up with fewer than 0 tokens, you will earn $0 of bonus money, but you will still be paid for playing the game.","83","","instructions","2021-08-08 17:16:26.303","","","","","",""
"casino-keyboard-response","32","233707","0.0-16.0-0.10","1080","true","img/card_backs/set1/yellow.gif","img/card_backs/set1/red.gif","img/card_backs/set1/purple.gif","img/card_backs/set1/green.gif","img/card_backs/set2/pink.gif","img/card_backs/set2/orange.gif","img/card_backs/set2/blue.gif","img/card_backs/set2/gray.gif","""event"",""trial"",""time""
""fullscreenenter"",""1"",""8322""
","
","
","""event"",""trial"",""time""
""fullscreenenter"",""1"",""8322""
","
","","4930.000000000029","You will have 10 seconds to make each choice.","82","","instructions","2021-08-08 17:16:31.235","","","","","",""
"casino-keyboard-response","33","246544","0.0-16.0-0.11","1080","true","img/card_backs/set1/yellow.gif","img/card_backs/set1/red.gif","img/card_backs/set1/purple.gif","img/card_backs/set1/green.gif","img/card_backs/set2/pink.gif","img/card_backs/set2/orange.gif","img/card_backs/set2/blue.gif","img/card_backs/set2/gray.gif","""event"",""trial"",""time""
""fullscreenenter"",""1"",""8322""
","
","
","""event"",""trial"",""time""
""fullscreenenter"",""1"",""8322""
","
","","12835","Before you play the game for real, you will play with practice decks. </br> The tokens you earn during practice won't count toward your total.","86","","instructions","2021-08-08 17:16:44.073","","","","","",""
"casino-keyboard-response","34","258059","0.0-16.0-0.12","1080","true","img/card_backs/set1/yellow.gif","img/card_backs/set1/red.gif","img/card_backs/set1/purple.gif","img/card_backs/set1/green.gif","img/card_backs/set2/pink.gif","img/card_backs/set2/orange.gif","img/card_backs/set2/blue.gif","img/card_backs/set2/gray.gif","""event"",""trial"",""time""
""fullscreenenter"",""1"",""8322""
","
","
","""event"",""trial"",""time""
""fullscreenenter"",""1"",""8322""
","
","","11512","Ready? Remember, use the '2', '4', '6', and '8' keys to select the decks. </br> Put your fingers on those keys now and then press '2' to begin.","50","","instructions","2021-08-08 17:16:55.588","","","","","",""
"casino-fixation","35","258563","0.0-17.0-0.0","1080","true","img/card_backs/set1/yellow.gif","img/card_backs/set1/red.gif","img/card_backs/set1/purple.gif","img/card_backs/set1/green.gif","img/card_backs/set2/pink.gif","img/card_backs/set2/orange.gif","img/card_backs/set2/blue.gif","img/card_backs/set2/gray.gif","""event"",""trial"",""time""
""fullscreenenter"",""1"",""8322""
","
","
","""event"",""trial"",""time""
""fullscreenenter"",""1"",""8322""
","
","","null","","null","","fixation","2021-08-08 17:16:56.091","","","","","",""
"card-selection-trial","36","262579","0.0-17.0-1.0","1080","true","img/card_backs/set1/yellow.gif","img/card_backs/set1/red.gif","img/card_backs/set1/purple.gif","img/card_backs/set1/green.gif","img/card_backs/set2/pink.gif","img/card_backs/set2/orange.gif","img/card_backs/set2/blue.gif","img/card_backs/set2/gray.gif","""event"",""trial"",""time""
""fullscreenenter"",""1"",""8322""
","
","
","""event"",""trial"",""time""
""fullscreenenter"",""1"",""8322""
","
","","2007","","","","practice","2021-08-08 17:17:00.107","img/practice_cards/backs/black.gif","0","-100","0","",""
"casino-fixation","37","263082","0.0-17.0-0.1","1080","true","img/card_backs/set1/yellow.gif","img/card_backs/set1/red.gif","img/card_backs/set1/purple.gif","img/card_backs/set1/green.gif","img/card_backs/set2/pink.gif","img/card_backs/set2/orange.gif","img/card_backs/set2/blue.gif","img/card_backs/set2/gray.gif","""event"",""trial"",""time""
""fullscreenenter"",""1"",""8322""
","
","
","""event"",""trial"",""time""
""fullscreenenter"",""1"",""8322""
","
","","null","","null","","fixation","2021-08-08 17:17:00.610","","","","","",""
"card-selection-trial","38","267272","0.0-17.0-1.1","1080","true","img/card_backs/set1/yellow.gif","img/card_backs/set1/red.gif","img/card_backs/set1/purple.gif","img/card_backs/set1/green.gif","img/card_backs/set2/pink.gif","img/card_backs/set2/orange.gif","img/card_backs/set2/blue.gif","img/card_backs/set2/gray.gif","""event"",""trial"",""time""
""fullscreenenter"",""1"",""8322""
","
","
","""event"",""trial"",""time""
""fullscreenenter"",""1"",""8322""
","
","","2185","","","","practice","2021-08-08 17:17:04.800","img/practice_cards/backs/dark_green.gif","1","-200","0","",""
"casino-fixation","39","267775","0.0-17.0-0.2","1080","true","img/card_backs/set1/yellow.gif","img/card_backs/set1/red.gif","img/card_backs/set1/purple.gif","img/card_backs/set1/green.gif","img/card_backs/set2/pink.gif","img/card_backs/set2/orange.gif","img/card_backs/set2/blue.gif","img/card_backs/set2/gray.gif","""event"",""trial"",""time""
""fullscreenenter"",""1"",""8322""
","
","
","""event"",""trial"",""time""
""fullscreenenter"",""1"",""8322""
","
","","null","","null","","fixation","2021-08-08 17:17:05.303","","","","","",""
"card-selection-trial","40","272291","0.0-17.0-1.2","1080","true","img/card_backs/set1/yellow.gif","img/card_backs/set1/red.gif","img/card_backs/set1/purple.gif","img/card_backs/set1/green.gif","img/card_backs/set2/pink.gif","img/card_backs/set2/orange.gif","img/card_backs/set2/blue.gif","img/card_backs/set2/gray.gif","""event"",""trial"",""time""
""fullscreenenter"",""1"",""8322""
","
","
","""event"",""trial"",""time""
""fullscreenenter"",""1"",""8322""
","
","","2511","","","","practice","2021-08-08 17:17:09.819","img/practice_cards/backs/dark_blue.gif","3","-200","0","",""
"casino-fixation","41","272794","0.0-17.0-0.3","1080","true","img/card_backs/set1/yellow.gif","img/card_backs/set1/red.gif","img/card_backs/set1/purple.gif","img/card_backs/set1/green.gif","img/card_backs/set2/pink.gif","img/card_backs/set2/orange.gif","img/card_backs/set2/blue.gif","img/card_backs/set2/gray.gif","""event"",""trial"",""time""
""fullscreenenter"",""1"",""8322""
","
","
","""event"",""trial"",""time""
""fullscreenenter"",""1"",""8322""
","
","","null","","null","","fixation","2021-08-08 17:17:10.323","","","","","",""
"card-selection-trial","42","276189","0.0-17.0-1.3","1080","true","img/card_backs/set1/yellow.gif","img/card_backs/set1/red.gif","img/card_backs/set1/purple.gif","img/card_backs/set1/green.gif","img/card_backs/set2/pink.gif","img/card_backs/set2/orange.gif","img/card_backs/set2/blue.gif","img/card_backs/set2/gray.gif","""event"",""trial"",""time""
""fullscreenenter"",""1"",""8322""
","
","
","""event"",""trial"",""time""
""fullscreenenter"",""1"",""8322""
","
","","1389","","","","practice","2021-08-08 17:17:13.717","img/practice_cards/backs/dark_green.gif","2","200","0","",""
"casino-fixation","43","276692","0.0-17.0-0.4","1080","true","img/card_backs/set1/yellow.gif","img/card_backs/set1/red.gif","img/card_backs/set1/purple.gif","img/card_backs/set1/green.gif","img/card_backs/set2/pink.gif","img/card_backs/set2/orange.gif","img/card_backs/set2/blue.gif","img/card_backs/set2/gray.gif","""event"",""trial"",""time""
""fullscreenenter"",""1"",""8322""
","
","
","""event"",""trial"",""time""
""fullscreenenter"",""1"",""8322""
","
","","null","","null","","fixation","2021-08-08 17:17:14.221","","","","","",""
"card-selection-trial","44","280504","0.0-17.0-1.4","1080","true","img/card_backs/set1/yellow.gif","img/card_backs/set1/red.gif","img/card_backs/set1/purple.gif","img/card_backs/set1/green.gif","img/card_backs/set2/pink.gif","img/card_backs/set2/orange.gif","img/card_backs/set2/blue.gif","img/card_backs/set2/gray.gif","""event"",""trial"",""time""
""fullscreenenter"",""1"",""8322""
","
","
","""event"",""trial"",""time""
""fullscreenenter"",""1"",""8322""
","
","","1806","","","","practice","2021-08-08 17:17:18.032","img/practice_cards/backs/dark_green.gif","2","200","0","",""
"casino-fixation","45","281007","0.0-17.0-0.5","1080","true","img/card_backs/set1/yellow.gif","img/card_backs/set1/red.gif","img/card_backs/set1/purple.gif","img/card_backs/set1/green.gif","img/card_backs/set2/pink.gif","img/card_backs/set2/orange.gif","img/card_backs/set2/blue.gif","img/card_backs/set2/gray.gif","""event"",""trial"",""time""
""fullscreenenter"",""1"",""8322""
","
","
","""event"",""trial"",""time""
""fullscreenenter"",""1"",""8322""
","
","","null","","null","","fixation","2021-08-08 17:17:18.537","","","","","",""
"card-selection-trial","46","283871","0.0-17.0-1.5","1080","true","img/card_backs/set1/yellow.gif","img/card_backs/set1/red.gif","img/card_backs/set1/purple.gif","img/card_backs/set1/green.gif","img/card_backs/set2/pink.gif","img/card_backs/set2/orange.gif","img/card_backs/set2/blue.gif","img/card_backs/set2/gray.gif","""event"",""trial"",""time""
""fullscreenenter"",""1"",""8322""
","
","
","""event"",""trial"",""time""
""fullscreenenter"",""1"",""8322""
","
","","854","","","","practice","2021-08-08 17:17:21.399","img/practice_cards/backs/dark_green.gif","2","-200","0","",""
"casino-fixation","47","284374","0.0-17.0-0.6","1080","true","img/card_backs/set1/yellow.gif","img/card_backs/set1/red.gif","img/card_backs/set1/purple.gif","img/card_backs/set1/green.gif","img/card_backs/set2/pink.gif","img/card_backs/set2/orange.gif","img/card_backs/set2/blue.gif","img/card_backs/set2/gray.gif","""event"",""trial"",""time""
""fullscreenenter"",""1"",""8322""
","
","
","""event"",""trial"",""time""
""fullscreenenter"",""1"",""8322""
","
","","null","","null","","fixation","2021-08-08 17:17:21.902","","","","","",""
"card-selection-trial","48","287781","0.0-17.0-1.6","1080","true","img/card_backs/set1/yellow.gif","img/card_backs/set1/red.gif","img/card_backs/set1/purple.gif","img/card_backs/set1/green.gif","img/card_backs/set2/pink.gif","img/card_backs/set2/orange.gif","img/card_backs/set2/blue.gif","img/card_backs/set2/gray.gif","""event"",""trial"",""time""
""fullscreenenter"",""1"",""8322""
","
","
","""event"",""trial"",""time""
""fullscreenenter"",""1"",""8322""
","
","","1400","","","","practice","2021-08-08 17:17:25.309","img/practice_cards/backs/black.gif","3","100","0","",""
"casino-fixation","49","288284","0.0-17.0-0.7","1080","true","img/card_backs/set1/yellow.gif","img/card_backs/set1/red.gif","img/card_backs/set1/purple.gif","img/card_backs/set1/green.gif","img/card_backs/set2/pink.gif","img/card_backs/set2/orange.gif","img/card_backs/set2/blue.gif","img/card_backs/set2/gray.gif","""event"",""trial"",""time""
""fullscreenenter"",""1"",""8322""
","
","
","""event"",""trial"",""time""
""fullscreenenter"",""1"",""8322""
","
","","null","","null","","fixation","2021-08-08 17:17:25.812","","","","","",""
"card-selection-trial","50","292456","0.0-17.0-1.7","1080","true","img/card_backs/set1/yellow.gif","img/card_backs/set1/red.gif","img/card_backs/set1/purple.gif","img/card_backs/set1/green.gif","img/card_backs/set2/pink.gif","img/card_backs/set2/orange.gif","img/card_backs/set2/blue.gif","img/card_backs/set2/gray.gif","""event"",""trial"",""time""
""fullscreenenter"",""1"",""8322""
","
","
","""event"",""trial"",""time""
""fullscreenenter"",""1"",""8322""
","
","","2167","","","","practice","2021-08-08 17:17:29.984","img/practice_cards/backs/brown.gif","1","-100","0","",""
"casino-fixation","51","292958","0.0-17.0-0.8","1080","true","img/card_backs/set1/yellow.gif","img/card_backs/set1/red.gif","img/card_backs/set1/purple.gif","img/card_backs/set1/green.gif","img/card_backs/set2/pink.gif","img/card_backs/set2/orange.gif","img/card_backs/set2/blue.gif","img/card_backs/set2/gray.gif","""event"",""trial"",""time""
""fullscreenenter"",""1"",""8322""
","
","
","""event"",""trial"",""time""
""fullscreenenter"",""1"",""8322""
","
","","null","","null","","fixation","2021-08-08 17:17:30.486","","","","","",""
"card-selection-trial","52","296466","0.0-17.0-1.8","1080","true","img/card_backs/set1/yellow.gif","img/card_backs/set1/red.gif","img/card_backs/set1/purple.gif","img/card_backs/set1/green.gif","img/card_backs/set2/pink.gif","img/card_backs/set2/orange.gif","img/card_backs/set2/blue.gif","img/card_backs/set2/gray.gif","""event"",""trial"",""time""
""fullscreenenter"",""1"",""8322""
","
","
","""event"",""trial"",""time""
""fullscreenenter"",""1"",""8322""
","
","","1503","","","","practice","2021-08-08 17:17:33.994","img/practice_cards/backs/brown.gif","3","100","0","",""
"casino-fixation","53","296969","0.0-17.0-0.9","1080","true","img/card_backs/set1/yellow.gif","img/card_backs/set1/red.gif","img/card_backs/set1/purple.gif","img/card_backs/set1/green.gif","img/card_backs/set2/pink.gif","img/card_backs/set2/orange.gif","img/card_backs/set2/blue.gif","img/card_backs/set2/gray.gif","""event"",""trial"",""time""
""fullscreenenter"",""1"",""8322""
","
","
","""event"",""trial"",""time""
""fullscreenenter"",""1"",""8322""
","
","","null","","null","","fixation","2021-08-08 17:17:34.498","","","","","",""
"card-selection-trial","54","299696","0.0-17.0-1.9","1080","true","img/card_backs/set1/yellow.gif","img/card_backs/set1/red.gif","img/card_backs/set1/purple.gif","img/card_backs/set1/green.gif","img/card_backs/set2/pink.gif","img/card_backs/set2/orange.gif","img/card_backs/set2/blue.gif","img/card_backs/set2/gray.gif","""event"",""trial"",""time""
""fullscreenenter"",""1"",""8322""
","
","
","""event"",""trial"",""time""
""fullscreenenter"",""1"",""8322""
","
","","722","","","","practice","2021-08-08 17:17:37.227","img/practice_cards/backs/dark_blue.gif","3","200","0","",""
"casino-keyboard-response","55","304700","0.0-18.0","1080","true","img/card_backs/set1/yellow.gif","img/card_backs/set1/red.gif","img/card_backs/set1/purple.gif","img/card_backs/set1/green.gif","img/card_backs/set2/pink.gif","img/card_backs/set2/orange.gif","img/card_backs/set2/blue.gif","img/card_backs/set2/gray.gif","""event"",""trial"",""time""
""fullscreenenter"",""1"",""8322""
","
","
","""event"",""trial"",""time""
""fullscreenenter"",""1"",""8322""
","
","","4998","You earned 0 tokens during the practice round!","82","","","2021-08-08 17:17:42.229","","","","","",""
"casino-keyboard-response","56","310452","0.0-19.0-0.0","1080","true","img/card_backs/set1/yellow.gif","img/card_backs/set1/red.gif","img/card_backs/set1/purple.gif","img/card_backs/set1/green.gif","img/card_backs/set2/pink.gif","img/card_backs/set2/orange.gif","img/card_backs/set2/blue.gif","img/card_backs/set2/gray.gif","""event"",""trial"",""time""
""fullscreenenter"",""1"",""8322""
","
","
","""event"",""trial"",""time""
""fullscreenenter"",""1"",""8322""
","
","","5749","Nice job! You are almost ready to play the real game.","86","","instructions","2021-08-08 17:17:47.980","","","","","",""
"casino-keyboard-response","57","317316","0.0-19.0-0.1","1080","true","img/card_backs/set1/yellow.gif","img/card_backs/set1/red.gif","img/card_backs/set1/purple.gif","img/card_backs/set1/green.gif","img/card_backs/set2/pink.gif","img/card_backs/set2/orange.gif","img/card_backs/set2/blue.gif","img/card_backs/set2/gray.gif","""event"",""trial"",""time""
""fullscreenenter"",""1"",""8322""
","
","
","""event"",""trial"",""time""
""fullscreenenter"",""1"",""8322""
","
","","6862","You will play two rounds of the real game. In each round, you will pick 100 cards in total.","73","","instructions","2021-08-08 17:17:54.844","","","","","",""
"casino-keyboard-response","58","322416","0.0-19.0-0.2","1080","true","img/card_backs/set1/yellow.gif","img/card_backs/set1/red.gif","img/card_backs/set1/purple.gif","img/card_backs/set1/green.gif","img/card_backs/set2/pink.gif","img/card_backs/set2/orange.gif","img/card_backs/set2/blue.gif","img/card_backs/set2/gray.gif","""event"",""trial"",""time""
""fullscreenenter"",""1"",""8322""
","
","
","""event"",""trial"",""time""
""fullscreenenter"",""1"",""8322""
","
","","5097","We are now going to ask you some questions about how the game works.","66","","instructions","2021-08-08 17:17:59.944","","","","","",""
"casino-keyboard-response","59","329182","0.0-19.0-0.3","1080","true","img/card_backs/set1/yellow.gif","img/card_backs/set1/red.gif","img/card_backs/set1/purple.gif","img/card_backs/set1/green.gif","img/card_backs/set2/pink.gif","img/card_backs/set2/orange.gif","img/card_backs/set2/blue.gif","img/card_backs/set2/gray.gif","""event"",""trial"",""time""
""fullscreenenter"",""1"",""8322""
","
","
","""event"",""trial"",""time""
""fullscreenenter"",""1"",""8322""
","
","","6765","Answer carefully. You will not be able to begin the game until you answer them correctly.","67","","instructions","2021-08-08 17:18:06.710","","","","","",""
"casino-comp_q","60","338816","0.0-20.0-0.0","1080","true","img/card_backs/set1/yellow.gif","img/card_backs/set1/red.gif","img/card_backs/set1/purple.gif","img/card_backs/set1/green.gif","img/card_backs/set2/pink.gif","img/card_backs/set2/orange.gif","img/card_backs/set2/blue.gif","img/card_backs/set2/gray.gif","""event"",""trial"",""time""
""fullscreenenter"",""1"",""8322""
","
","
","""event"",""trial"",""time""
""fullscreenenter"",""1"",""8322""
","
","","9631","True or False: All the decks have some cards that cause you to win tokens and some cards that cause you to lose tokens.","84","","","2021-08-08 17:18:16.344","","","","","",""
"casino-keyboard-response","61","343733","0.0-20.0-1.0","1080","true","img/card_backs/set1/yellow.gif","img/card_backs/set1/red.gif","img/card_backs/set1/purple.gif","img/card_backs/set1/green.gif","img/card_backs/set2/pink.gif","img/card_backs/set2/orange.gif","img/card_backs/set2/blue.gif","img/card_backs/set2/gray.gif","""event"",""trial"",""time""
""fullscreenenter"",""1"",""8322""
","
","
","""event"",""trial"",""time""
""fullscreenenter"",""1"",""8322""
","
","","4914","True is correct! All the decks have a mix of winning and losing cards.","77","","","2021-08-08 17:18:21.262","","","","","true",""
"casino-comp_q","62","351026","0.0-21.0-0.0","1080","true","img/card_backs/set1/yellow.gif","img/card_backs/set1/red.gif","img/card_backs/set1/purple.gif","img/card_backs/set1/green.gif","img/card_backs/set2/pink.gif","img/card_backs/set2/orange.gif","img/card_backs/set2/blue.gif","img/card_backs/set2/gray.gif","""event"",""trial"",""time""
""fullscreenenter"",""1"",""8322""
","
","
","""event"",""trial"",""time""
""fullscreenenter"",""1"",""8322""
","
","","7290","True or False: You will have as much time as you want to make your response.","70","","","2021-08-08 17:18:28.554","","","","","",""
"casino-keyboard-response","63","355405","0.0-21.0-1.0","1080","true","img/card_backs/set1/yellow.gif","img/card_backs/set1/red.gif","img/card_backs/set1/purple.gif","img/card_backs/set1/green.gif","img/card_backs/set2/pink.gif","img/card_backs/set2/orange.gif","img/card_backs/set2/blue.gif","img/card_backs/set2/gray.gif","""event"",""trial"",""time""
""fullscreenenter"",""1"",""8322""
","
","
","""event"",""trial"",""time""
""fullscreenenter"",""1"",""8322""
","
","","4377","False is correct! You will only have 10 seconds to make each choice.","75","","","2021-08-08 17:18:32.934","","","","","true",""
"casino-comp_q","64","362048","0.0-22.0-0.0","1080","true","img/card_backs/set1/yellow.gif","img/card_backs/set1/red.gif","img/card_backs/set1/purple.gif","img/card_backs/set1/green.gif","img/card_backs/set2/pink.gif","img/card_backs/set2/orange.gif","img/card_backs/set2/blue.gif","img/card_backs/set2/gray.gif","""event"",""trial"",""time""
""fullscreenenter"",""1"",""8322""
","
","
","""event"",""trial"",""time""
""fullscreenenter"",""1"",""8322""
","
","","6640","True or False: The location of the deck determines how lucky it is.","84","","","2021-08-08 17:18:39.577","","","","","",""
"casino-keyboard-response","65","366723","0.0-22.0-1.0","1080","true","img/card_backs/set1/yellow.gif","img/card_backs/set1/red.gif","img/card_backs/set1/purple.gif","img/card_backs/set1/green.gif","img/card_backs/set2/pink.gif","img/card_backs/set2/orange.gif","img/card_backs/set2/blue.gif","img/card_backs/set2/gray.gif","""event"",""trial"",""time""
""fullscreenenter"",""1"",""8322""
","
","
","""event"",""trial"",""time""
""fullscreenenter"",""1"",""8322""
","
","","4672","True is incorrect. The <i>color</i> of the deck determines how lucky or unlucky it is.","68","","","2021-08-08 17:18:44.251","","","","","false",""
"casino-comp_q","66","373508","0.0-22.1-0.1","1080","true","img/card_backs/set1/yellow.gif","img/card_backs/set1/red.gif","img/card_backs/set1/purple.gif","img/card_backs/set1/green.gif","img/card_backs/set2/pink.gif","img/card_backs/set2/orange.gif","img/card_backs/set2/blue.gif","img/card_backs/set2/gray.gif","""event"",""trial"",""time""
""fullscreenenter"",""1"",""8322""
","
","
","""event"",""trial"",""time""
""fullscreenenter"",""1"",""8322""
","
","","6783","True or False: The location of the deck determines how lucky it is.","70","","","2021-08-08 17:18:51.036","","","","","",""
"casino-keyboard-response","67","379578","0.0-22.1-1.1","1080","true","img/card_backs/set1/yellow.gif","img/card_backs/set1/red.gif","img/card_backs/set1/purple.gif","img/card_backs/set1/green.gif","img/card_backs/set2/pink.gif","img/card_backs/set2/orange.gif","img/card_backs/set2/blue.gif","img/card_backs/set2/gray.gif","""event"",""trial"",""time""
""fullscreenenter"",""1"",""8322""
","
","
","""event"",""trial"",""time""
""fullscreenenter"",""1"",""8322""
","
","","6067","False is correct! The <i>color</i>  of the deck determines how lucky or unlucky it is.","68","","","2021-08-08 17:18:57.106","","","","","true",""
"casino-keyboard-response","68","384638","0.0-23.0-0.0","1080","true","img/card_backs/set1/yellow.gif","img/card_backs/set1/red.gif","img/card_backs/set1/purple.gif","img/card_backs/set1/green.gif","img/card_backs/set2/pink.gif","img/card_backs/set2/orange.gif","img/card_backs/set2/blue.gif","img/card_backs/set2/gray.gif","""event"",""trial"",""time""
""fullscreenenter"",""1"",""8322""
","
","
","""event"",""trial"",""time""
""fullscreenenter"",""1"",""8322""
","
","","5058.999999999942","Great job! Now it's time to start the real game.","82","","instructions","2021-08-08 17:19:02.166","","","","","",""
"casino-keyboard-response","69","390838","0.0-23.0-0.1","1080","true","img/card_backs/set1/yellow.gif","img/card_backs/set1/red.gif","img/card_backs/set1/purple.gif","img/card_backs/set1/green.gif","img/card_backs/set2/pink.gif","img/card_backs/set2/orange.gif","img/card_backs/set2/blue.gif","img/card_backs/set2/gray.gif","""event"",""trial"",""time""
""fullscreenenter"",""1"",""8322""
","
","
","""event"",""trial"",""time""
""fullscreenenter"",""1"",""8322""
","
","","6197","Before we start, we're going to head into a new room of the casino.","86","","instructions","2021-08-08 17:19:08.366","","","","","",""
"casino-keyboard-response","70","397541","0.0-24.0-0.0","1080","true","img/card_backs/set1/yellow.gif","img/card_backs/set1/red.gif","img/card_backs/set1/purple.gif","img/card_backs/set1/green.gif","img/card_backs/set2/pink.gif","img/card_backs/set2/orange.gif","img/card_backs/set2/blue.gif","img/card_backs/set2/gray.gif","""event"",""trial"",""time""
""fullscreenenter"",""1"",""8322""
","
","
","""event"",""trial"",""time""
""fullscreenenter"",""1"",""8322""
","
","","6701","Here we are! The real game will use different cards, but the rules will be the same.","71","","instructions","2021-08-08 17:19:15.069","","","","","",""
"casino-keyboard-response","71","408158","0.0-24.0-0.1","1080","true","img/card_backs/set1/yellow.gif","img/card_backs/set1/red.gif","img/card_backs/set1/purple.gif","img/card_backs/set1/green.gif","img/card_backs/set2/pink.gif","img/card_backs/set2/orange.gif","img/card_backs/set2/blue.gif","img/card_backs/set2/gray.gif","""event"",""trial"",""time""
""fullscreenenter"",""1"",""8322""
","
","
","""event"",""trial"",""time""
""fullscreenenter"",""1"",""8322""
","
","","10614.999999999942","Ready? Put your fingers over the '2', '4', 6', and '8' keys so you are ready to play the game. </br> Then press 2 to start.","50","","instructions","2021-08-08 17:19:25.687","","","","","",""
"casino-fixation","72","408661","0.0-25.0-0.0","1080","true","img/card_backs/set1/yellow.gif","img/card_backs/set1/red.gif","img/card_backs/set1/purple.gif","img/card_backs/set1/green.gif","img/card_backs/set2/pink.gif","img/card_backs/set2/orange.gif","img/card_backs/set2/blue.gif","img/card_backs/set2/gray.gif","""event"",""trial"",""time""
""fullscreenenter"",""1"",""8322""
","
","
","""event"",""trial"",""time""
""fullscreenenter"",""1"",""8322""
","
","","null","","null","","fixation","2021-08-08 17:19:26.189","","","","","",""
"card-selection-trial","73","413742","0.0-25.0-1.0","1080","true","img/card_backs/set1/yellow.gif","img/card_backs/set1/red.gif","img/card_backs/set1/purple.gif","img/card_backs/set1/green.gif","img/card_backs/set2/pink.gif","img/card_backs/set2/orange.gif","img/card_backs/set2/blue.gif","img/card_backs/set2/gray.gif","""event"",""trial"",""time""
""fullscreenenter"",""1"",""8322""
","
","
","""event"",""trial"",""time""
""fullscreenenter"",""1"",""8322""
","
","","3075.000000000058","","","","real_trial","2021-08-08 17:19:31.270","img/card_backs/set1/purple.gif","0","50","1","",""
"casino-fixation","74","414244","0.0-25.0-0.1","1080","true","img/card_backs/set1/yellow.gif","img/card_backs/set1/red.gif","img/card_backs/set1/purple.gif","img/card_backs/set1/green.gif","img/card_backs/set2/pink.gif","img/card_backs/set2/orange.gif","img/card_backs/set2/blue.gif","img/card_backs/set2/gray.gif","""event"",""trial"",""time""
""fullscreenenter"",""1"",""8322""
","
","
","""event"",""trial"",""time""
""fullscreenenter"",""1"",""8322""
","
","","null","","null","","fixation","2021-08-08 17:19:31.772","","","","","",""
"card-selection-trial","75","419044","0.0-25.0-1.1","1080","true","img/card_backs/set1/yellow.gif","img/card_backs/set1/red.gif","img/card_backs/set1/purple.gif","img/card_backs/set1/green.gif","img/card_backs/set2/pink.gif","img/card_backs/set2/orange.gif","img/card_backs/set2/blue.gif","img/card_backs/set2/gray.gif","""event"",""trial"",""time""
""fullscreenenter"",""1"",""8322""
","
","
","""event"",""trial"",""time""
""fullscreenenter"",""1"",""8322""
","
","","2794","","","","real_trial","2021-08-08 17:19:36.575","img/card_backs/set1/purple.gif","2","50","1","",""
"casino-fixation","76","419549","0.0-25.0-0.2","1080","true","img/card_backs/set1/yellow.gif","img/card_backs/set1/red.gif","img/card_backs/set1/purple.gif","img/card_backs/set1/green.gif","img/card_backs/set2/pink.gif","img/card_backs/set2/orange.gif","img/card_backs/set2/blue.gif","img/card_backs/set2/gray.gif","""event"",""trial"",""time""
""fullscreenenter"",""1"",""8322""
","
","
","""event"",""trial"",""time""
""fullscreenenter"",""1"",""8322""
","
","","null","","null","","fixation","2021-08-08 17:19:37.078","","","","","",""
"card-selection-trial","77","426826","0.0-25.0-1.2","1080","true","img/card_backs/set1/yellow.gif","img/card_backs/set1/red.gif","img/card_backs/set1/purple.gif","img/card_backs/set1/green.gif","img/card_backs/set2/pink.gif","img/card_backs/set2/orange.gif","img/card_backs/set2/blue.gif","img/card_backs/set2/gray.gif","""event"",""trial"",""time""
""fullscreenenter"",""1"",""8322""
","
","
","""event"",""trial"",""time""
""fullscreenenter"",""1"",""8322""
","
","","5270","","","","real_trial","2021-08-08 17:19:44.354","img/card_backs/set1/purple.gif","3","60","1","",""
"casino-fixation","78","427329","0.0-25.0-0.3","1080","true","img/card_backs/set1/yellow.gif","img/card_backs/set1/red.gif","img/card_backs/set1/purple.gif","img/card_backs/set1/green.gif","img/card_backs/set2/pink.gif","img/card_backs/set2/orange.gif","img/card_backs/set2/blue.gif","img/card_backs/set2/gray.gif","""event"",""trial"",""time""
""fullscreenenter"",""1"",""8322""
","
","
","""event"",""trial"",""time""
""fullscreenenter"",""1"",""8322""
","
","","null","","null","","fixation","2021-08-08 17:19:44.857","","","","","",""
"card-selection-trial","79","431304","0.0-25.0-1.3","1080","true","img/card_backs/set1/yellow.gif","img/card_backs/set1/red.gif","img/card_backs/set1/purple.gif","img/card_backs/set1/green.gif","img/card_backs/set2/pink.gif","img/card_backs/set2/orange.gif","img/card_backs/set2/blue.gif","img/card_backs/set2/gray.gif","""event"",""trial"",""time""
""fullscreenenter"",""1"",""8322""
","
","
","""event"",""trial"",""time""
""fullscreenenter"",""1"",""8322""
","
","","1968","","","","real_trial","2021-08-08 17:19:48.832","img/card_backs/set1/purple.gif","2","40","1","",""
"casino-fixation","80","431807","0.0-25.0-0.4","1080","true","img/card_backs/set1/yellow.gif","img/card_backs/set1/red.gif","img/card_backs/set1/purple.gif","img/card_backs/set1/green.gif","img/card_backs/set2/pink.gif","img/card_backs/set2/orange.gif","img/card_backs/set2/blue.gif","img/card_backs/set2/gray.gif","""event"",""trial"",""time""
""fullscreenenter"",""1"",""8322""
","
","
","""event"",""trial"",""time""
""fullscreenenter"",""1"",""8322""
","
","","null","","null","","fixation","2021-08-08 17:19:49.335","","","","","",""
"card-selection-trial","81","437010","0.0-25.0-1.4","1080","true","img/card_backs/set1/yellow.gif","img/card_backs/set1/red.gif","img/card_backs/set1/purple.gif","img/card_backs/set1/green.gif","img/card_backs/set2/pink.gif","img/card_backs/set2/orange.gif","img/card_backs/set2/blue.gif","img/card_backs/set2/gray.gif","""event"",""trial"",""time""
""fullscreenenter"",""1"",""8322""
","
","
","""event"",""trial"",""time""
""fullscreenenter"",""1"",""8322""
","
","","3195","","","","real_trial","2021-08-08 17:19:54.539","img/card_backs/set1/green.gif","3","-110","1","",""
"casino-fixation","82","437514","0.0-25.0-0.5","1080","true","img/card_backs/set1/yellow.gif","img/card_backs/set1/red.gif","img/card_backs/set1/purple.gif","img/card_backs/set1/green.gif","img/card_backs/set2/pink.gif","img/card_backs/set2/orange.gif","img/card_backs/set2/blue.gif","img/card_backs/set2/gray.gif","""event"",""trial"",""time""
""fullscreenenter"",""1"",""8322""
","
","
","""event"",""trial"",""time""
""fullscreenenter"",""1"",""8322""
","
","","null","","null","","fixation","2021-08-08 17:19:55.042","","","","","",""
"card-selection-trial","83","440914","0.0-25.0-1.5","1080","true","img/card_backs/set1/yellow.gif","img/card_backs/set1/red.gif","img/card_backs/set1/purple.gif","img/card_backs/set1/green.gif","img/card_backs/set2/pink.gif","img/card_backs/set2/orange.gif","img/card_backs/set2/blue.gif","img/card_backs/set2/gray.gif","""event"",""trial"",""time""
""fullscreenenter"",""1"",""8322""
","
","
","""event"",""trial"",""time""
""fullscreenenter"",""1"",""8322""
","
","","1395","","","","real_trial","2021-08-08 17:19:58.442","img/card_backs/set1/yellow.gif","2","250","1","",""
"casino-fixation","84","441417","0.0-25.0-0.6","1080","true","img/card_backs/set1/yellow.gif","img/card_backs/set1/red.gif","img/card_backs/set1/purple.gif","img/card_backs/set1/green.gif","img/card_backs/set2/pink.gif","img/card_backs/set2/orange.gif","img/card_backs/set2/blue.gif","img/card_backs/set2/gray.gif","""event"",""trial"",""time""
""fullscreenenter"",""1"",""8322""
","
","
","""event"",""trial"",""time""
""fullscreenenter"",""1"",""8322""
","
","","null","","null","","fixation","2021-08-08 17:19:58.945","","","","","",""
"card-selection-trial","85","446994","0.0-25.0-1.6","1080","true","img/card_backs/set1/yellow.gif","img/card_backs/set1/red.gif","img/card_backs/set1/purple.gif","img/card_backs/set1/green.gif","img/card_backs/set2/pink.gif","img/card_backs/set2/orange.gif","img/card_backs/set2/blue.gif","img/card_backs/set2/gray.gif","""event"",""trial"",""time""
""fullscreenenter"",""1"",""8322""
","
","
","""event"",""trial"",""time""
""fullscreenenter"",""1"",""8322""
","
","","3572","","","","real_trial","2021-08-08 17:20:04.522","img/card_backs/set1/yellow.gif","0","-200","1","",""
"casino-fixation","86","447497","0.0-25.0-0.7","1080","true","img/card_backs/set1/yellow.gif","img/card_backs/set1/red.gif","img/card_backs/set1/purple.gif","img/card_backs/set1/green.gif","img/card_backs/set2/pink.gif","img/card_backs/set2/orange.gif","img/card_backs/set2/blue.gif","img/card_backs/set2/gray.gif","""event"",""trial"",""time""
""fullscreenenter"",""1"",""8322""
","
","
","""event"",""trial"",""time""
""fullscreenenter"",""1"",""8322""
","
","","null","","null","","fixation","2021-08-08 17:20:05.025","","","","","",""
"card-selection-trial","87","450820","0.0-25.0-1.7","1080","true","img/card_backs/set1/yellow.gif","img/card_backs/set1/red.gif","img/card_backs/set1/purple.gif","img/card_backs/set1/green.gif","img/card_backs/set2/pink.gif","img/card_backs/set2/orange.gif","img/card_backs/set2/blue.gif","img/card_backs/set2/gray.gif","""event"",""trial"",""time""
""fullscreenenter"",""1"",""8322""
","
","
","""event"",""trial"",""time""
""fullscreenenter"",""1"",""8322""
","
","","1317","","","","real_trial","2021-08-08 17:20:08.348","img/card_backs/set1/yellow.gif","0","250","1","",""
"casino-fixation","88","451322","0.0-25.0-0.8","1080","true","img/card_backs/set1/yellow.gif","img/card_backs/set1/red.gif","img/card_backs/set1/purple.gif","img/card_backs/set1/green.gif","img/card_backs/set2/pink.gif","img/card_backs/set2/orange.gif","img/card_backs/set2/blue.gif","img/card_backs/set2/gray.gif","""event"",""trial"",""time""
""fullscreenenter"",""1"",""8322""
","
","
","""event"",""trial"",""time""
""fullscreenenter"",""1"",""8322""
","
","","null","","null","","fixation","2021-08-08 17:20:08.850","","","","","",""
"card-selection-trial","89","454819","0.0-25.0-1.8","1080","true","img/card_backs/set1/yellow.gif","img/card_backs/set1/red.gif","img/card_backs/set1/purple.gif","img/card_backs/set1/green.gif","img/card_backs/set2/pink.gif","img/card_backs/set2/orange.gif","img/card_backs/set2/blue.gif","img/card_backs/set2/gray.gif","""event"",""trial"",""time""
""fullscreenenter"",""1"",""8322""
","
","
","""event"",""trial"",""time""
""fullscreenenter"",""1"",""8322""
","
","","1491.0000000000582","","","","real_trial","2021-08-08 17:20:12.347","img/card_backs/set1/yellow.gif","0","-200","1","",""
"casino-fixation","90","455322","0.0-25.0-0.9","1080","true","img/card_backs/set1/yellow.gif","img/card_backs/set1/red.gif","img/card_backs/set1/purple.gif","img/card_backs/set1/green.gif","img/card_backs/set2/pink.gif","img/card_backs/set2/orange.gif","img/card_backs/set2/blue.gif","img/card_backs/set2/gray.gif","""event"",""trial"",""time""
""fullscreenenter"",""1"",""8322""
","
","
","""event"",""trial"",""time""
""fullscreenenter"",""1"",""8322""
","
","","null","","null","","fixation","2021-08-08 17:20:12.850","","","","","",""
"card-selection-trial","91","460856","0.0-25.0-1.9","1080","true","img/card_backs/set1/yellow.gif","img/card_backs/set1/red.gif","img/card_backs/set1/purple.gif","img/card_backs/set1/green.gif","img/card_backs/set2/pink.gif","img/card_backs/set2/orange.gif","img/card_backs/set2/blue.gif","img/card_backs/set2/gray.gif","""event"",""trial"",""time""
""fullscreenenter"",""1"",""8322""
","
","
","""event"",""trial"",""time""
""fullscreenenter"",""1"",""8322""
","
","","3525","","","","real_trial","2021-08-08 17:20:18.384","img/card_backs/set1/yellow.gif","3","250","1","",""
"casino-fixation","92","461359","0.0-25.0-0.10","1080","true","img/card_backs/set1/yellow.gif","img/card_backs/set1/red.gif","img/card_backs/set1/purple.gif","img/card_backs/set1/green.gif","img/card_backs/set2/pink.gif","img/card_backs/set2/orange.gif","img/card_backs/set2/blue.gif","img/card_backs/set2/gray.gif","""event"",""trial"",""time""
""fullscreenenter"",""1"",""8322""
","
","
","""event"",""trial"",""time""
""fullscreenenter"",""1"",""8322""
","
","","null","","null","","fixation","2021-08-08 17:20:18.888","","","","","",""
"card-selection-trial","93","465395","0.0-25.0-1.10","1080","true","img/card_backs/set1/yellow.gif","img/card_backs/set1/red.gif","img/card_backs/set1/purple.gif","img/card_backs/set1/green.gif","img/card_backs/set2/pink.gif","img/card_backs/set2/orange.gif","img/card_backs/set2/blue.gif","img/card_backs/set2/gray.gif","""event"",""trial"",""time""
""fullscreenenter"",""1"",""8322""
","
","
","""event"",""trial"",""time""
""fullscreenenter"",""1"",""8322""
","
","","2029","","","","real_trial","2021-08-08 17:20:22.923","img/card_backs/set1/yellow.gif","1","250","1","",""
"casino-fixation","94","465897","0.0-25.0-0.11","1080","true","img/card_backs/set1/yellow.gif","img/card_backs/set1/red.gif","img/card_backs/set1/purple.gif","img/card_backs/set1/green.gif","img/card_backs/set2/pink.gif","img/card_backs/set2/orange.gif","img/card_backs/set2/blue.gif","img/card_backs/set2/gray.gif","""event"",""trial"",""time""
""fullscreenenter"",""1"",""8322""
","
","
","""event"",""trial"",""time""
""fullscreenenter"",""1"",""8322""
","
","","null","","null","","fixation","2021-08-08 17:20:23.425","","","","","",""
"card-selection-trial","95","470292","0.0-25.0-1.11","1080","true","img/card_backs/set1/yellow.gif","img/card_backs/set1/red.gif","img/card_backs/set1/purple.gif","img/card_backs/set1/green.gif","img/card_backs/set2/pink.gif","img/card_backs/set2/orange.gif","img/card_backs/set2/blue.gif","img/card_backs/set2/gray.gif","""event"",""trial"",""time""
""fullscreenenter"",""1"",""8322""
","
","
","""event"",""trial"",""time""
""fullscreenenter"",""1"",""8322""
","
","","2390","","","","real_trial","2021-08-08 17:20:27.820","img/card_backs/set1/yellow.gif","0","-210","1","",""
"casino-fixation","96","470795","0.0-25.0-0.12","1080","true","img/card_backs/set1/yellow.gif","img/card_backs/set1/red.gif","img/card_backs/set1/purple.gif","img/card_backs/set1/green.gif","img/card_backs/set2/pink.gif","img/card_backs/set2/orange.gif","img/card_backs/set2/blue.gif","img/card_backs/set2/gray.gif","""event"",""trial"",""time""
""fullscreenenter"",""1"",""8322""
","
","
","""event"",""trial"",""time""
""fullscreenenter"",""1"",""8322""
","
","","null","","null","","fixation","2021-08-08 17:20:28.323","","","","","",""
"card-selection-trial","97","473782","0.0-25.0-1.12","1080","true","img/card_backs/set1/yellow.gif","img/card_backs/set1/red.gif","img/card_backs/set1/purple.gif","img/card_backs/set1/green.gif","img/card_backs/set2/pink.gif","img/card_backs/set2/orange.gif","img/card_backs/set2/blue.gif","img/card_backs/set2/gray.gif","""event"",""trial"",""time""
""fullscreenenter"",""1"",""8322""
","
","
","""event"",""trial"",""time""
""fullscreenenter"",""1"",""8322""
","
","","982.0000000000582","","","","real_trial","2021-08-08 17:20:31.310","img/card_backs/set1/yellow.gif","0","260","1","",""
"casino-fixation","98","474285","0.0-25.0-0.13","1080","true","img/card_backs/set1/yellow.gif","img/card_backs/set1/red.gif","img/card_backs/set1/purple.gif","img/card_backs/set1/green.gif","img/card_backs/set2/pink.gif","img/card_backs/set2/orange.gif","img/card_backs/set2/blue.gif","img/card_backs/set2/gray.gif","""event"",""trial"",""time""
""fullscreenenter"",""1"",""8322""
","
","
","""event"",""trial"",""time""
""fullscreenenter"",""1"",""8322""
","
","","null","","null","","fixation","2021-08-08 17:20:31.813","","","","","",""
"card-selection-trial","99","479584","0.0-25.0-1.13","1080","true","img/card_backs/set1/yellow.gif","img/card_backs/set1/red.gif","img/card_backs/set1/purple.gif","img/card_backs/set1/green.gif","img/card_backs/set2/pink.gif","img/card_backs/set2/orange.gif","img/card_backs/set2/blue.gif","img/card_backs/set2/gray.gif","""event"",""trial"",""time""
""fullscreenenter"",""1"",""8322""
","
","
","""event"",""trial"",""time""
""fullscreenenter"",""1"",""8322""
","
","","3293.999999999942","","","","real_trial","2021-08-08 17:20:37.112","img/card_backs/set1/yellow.gif","1","-210","1","",""
"casino-fixation","100","480087","0.0-25.0-0.14","1080","true","img/card_backs/set1/yellow.gif","img/card_backs/set1/red.gif","img/card_backs/set1/purple.gif","img/card_backs/set1/green.gif","img/card_backs/set2/pink.gif","img/card_backs/set2/orange.gif","img/card_backs/set2/blue.gif","img/card_backs/set2/gray.gif","""event"",""trial"",""time""
""fullscreenenter"",""1"",""8322""
","
","
","""event"",""trial"",""time""
""fullscreenenter"",""1"",""8322""
","
","","null","","null","","fixation","2021-08-08 17:20:37.615","","","","","",""
"card-selection-trial","101","486126","0.0-25.0-1.14","1080","true","img/card_backs/set1/yellow.gif","img/card_backs/set1/red.gif","img/card_backs/set1/purple.gif","img/card_backs/set1/green.gif","img/card_backs/set2/pink.gif","img/card_backs/set2/orange.gif","img/card_backs/set2/blue.gif","img/card_backs/set2/gray.gif","""event"",""trial"",""time""
""fullscreenenter"",""1"",""8322""
","
","
","""event"",""trial"",""time""
""fullscreenenter"",""1"",""8322""
","
","","4031.999999999942","","","","real_trial","2021-08-08 17:20:43.654","img/card_backs/set1/yellow.gif","3","-210","1","",""
"casino-fixation","102","486629","0.0-25.0-0.15","1080","true","img/card_backs/set1/yellow.gif","img/card_backs/set1/red.gif","img/card_backs/set1/purple.gif","img/card_backs/set1/green.gif","img/card_backs/set2/pink.gif","img/card_backs/set2/orange.gif","img/card_backs/set2/blue.gif","img/card_backs/set2/gray.gif","""event"",""trial"",""time""
""fullscreenenter"",""1"",""8322""
","
","
","""event"",""trial"",""time""
""fullscreenenter"",""1"",""8322""
","
","","null","","null","","fixation","2021-08-08 17:20:44.158","","","","","",""
"card-selection-trial","103","490164","0.0-25.0-1.15","1080","true","img/card_backs/set1/yellow.gif","img/card_backs/set1/red.gif","img/card_backs/set1/purple.gif","img/card_backs/set1/green.gif","img/card_backs/set2/pink.gif","img/card_backs/set2/orange.gif","img/card_backs/set2/blue.gif","img/card_backs/set2/gray.gif","""event"",""trial"",""time""
""fullscreenenter"",""1"",""8322""
","
","
","""event"",""trial"",""time""
""fullscreenenter"",""1"",""8322""
","
","","1529","","","","real_trial","2021-08-08 17:20:47.692","img/card_backs/set1/purple.gif","2","60","1","",""
"casino-fixation","104","490666","0.0-25.0-0.16","1080","true","img/card_backs/set1/yellow.gif","img/card_backs/set1/red.gif","img/card_backs/set1/purple.gif","img/card_backs/set1/green.gif","img/card_backs/set2/pink.gif","img/card_backs/set2/orange.gif","img/card_backs/set2/blue.gif","img/card_backs/set2/gray.gif","""event"",""trial"",""time""
""fullscreenenter"",""1"",""8322""
","
","
","""event"",""trial"",""time""
""fullscreenenter"",""1"",""8322""
","
","","null","","null","","fixation","2021-08-08 17:20:48.194","","","","","",""
"card-selection-trial","105","493543","0.0-25.0-1.16","1080","true","img/card_backs/set1/yellow.gif","img/card_backs/set1/red.gif","img/card_backs/set1/purple.gif","img/card_backs/set1/green.gif","img/card_backs/set2/pink.gif","img/card_backs/set2/orange.gif","img/card_backs/set2/blue.gif","img/card_backs/set2/gray.gif","""event"",""trial"",""time""
""fullscreenenter"",""1"",""8322""
","
","
","""event"",""trial"",""time""
""fullscreenenter"",""1"",""8322""
","
","","871","","","","real_trial","2021-08-08 17:20:51.071","img/card_backs/set1/purple.gif","2","-100","1","",""
"casino-fixation","106","494045","0.0-25.0-0.17","1080","true","img/card_backs/set1/yellow.gif","img/card_backs/set1/red.gif","img/card_backs/set1/purple.gif","img/card_backs/set1/green.gif","img/card_backs/set2/pink.gif","img/card_backs/set2/orange.gif","img/card_backs/set2/blue.gif","img/card_backs/set2/gray.gif","""event"",""trial"",""time""
""fullscreenenter"",""1"",""8322""
","
","
","""event"",""trial"",""time""
""fullscreenenter"",""1"",""8322""
","
","","null","","null","","fixation","2021-08-08 17:20:51.574","","","","","",""
"card-selection-trial","107","498397","0.0-25.0-1.17","1080","true","img/card_backs/set1/yellow.gif","img/card_backs/set1/red.gif","img/card_backs/set1/purple.gif","img/card_backs/set1/green.gif","img/card_backs/set2/pink.gif","img/card_backs/set2/orange.gif","img/card_backs/set2/blue.gif","img/card_backs/set2/gray.gif","""event"",""trial"",""time""
""fullscreenenter"",""1"",""8322""
","
","
","""event"",""trial"",""time""
""fullscreenenter"",""1"",""8322""
","
","","2344.999999999942","","","","real_trial","2021-08-08 17:20:55.925","img/card_backs/set1/yellow.gif","1","-190","1","",""
"casino-fixation","108","498899","0.0-25.0-0.18","1080","true","img/card_backs/set1/yellow.gif","img/card_backs/set1/red.gif","img/card_backs/set1/purple.gif","img/card_backs/set1/green.gif","img/card_backs/set2/pink.gif","img/card_backs/set2/orange.gif","img/card_backs/set2/blue.gif","img/card_backs/set2/gray.gif","""event"",""trial"",""time""
""fullscreenenter"",""1"",""8322""
","
","
","""event"",""trial"",""time""
""fullscreenenter"",""1"",""8322""
","
","","null","","null","","fixation","2021-08-08 17:20:56.428","","","","","",""
"card-selection-trial","109","503174","0.0-25.0-1.18","1080","true","img/card_backs/set1/yellow.gif","img/card_backs/set1/red.gif","img/card_backs/set1/purple.gif","img/card_backs/set1/green.gif","img/card_backs/set2/pink.gif","img/card_backs/set2/orange.gif","img/card_backs/set2/blue.gif","img/card_backs/set2/gray.gif","""event"",""trial"",""time""
""fullscreenenter"",""1"",""8322""
","
","
","""event"",""trial"",""time""
""fullscreenenter"",""1"",""8322""
","
","","2268","","","","real_trial","2021-08-08 17:21:00.702","img/card_backs/set1/purple.gif","0","60","1","",""
"casino-fixation","110","503678","0.0-25.0-0.19","1080","true","img/card_backs/set1/yellow.gif","img/card_backs/set1/red.gif","img/card_backs/set1/purple.gif","img/card_backs/set1/green.gif","img/card_backs/set2/pink.gif","img/card_backs/set2/orange.gif","img/card_backs/set2/blue.gif","img/card_backs/set2/gray.gif","""event"",""trial"",""time""
""fullscreenenter"",""1"",""8322""
","
","
","""event"",""trial"",""time""
""fullscreenenter"",""1"",""8322""
","
","","null","","null","","fixation","2021-08-08 17:21:01.206","","","","","",""
"card-selection-trial","111","509455","0.0-25.0-1.19","1080","true","img/card_backs/set1/yellow.gif","img/card_backs/set1/red.gif","img/card_backs/set1/purple.gif","img/card_backs/set1/green.gif","img/card_backs/set2/pink.gif","img/card_backs/set2/orange.gif","img/card_backs/set2/blue.gif","img/card_backs/set2/gray.gif","""event"",""trial"",""time""
""fullscreenenter"",""1"",""8322""
","
","
","""event"",""trial"",""time""
""fullscreenenter"",""1"",""8322""
","
","","3772","","","","real_trial","2021-08-08 17:21:06.983","img/card_backs/set1/green.gif","1","-110","1","",""
"casino-fixation","112","509958","0.0-25.0-0.20","1080","true","img/card_backs/set1/yellow.gif","img/card_backs/set1/red.gif","img/card_backs/set1/purple.gif","img/card_backs/set1/green.gif","img/card_backs/set2/pink.gif","img/card_backs/set2/orange.gif","img/card_backs/set2/blue.gif","img/card_backs/set2/gray.gif","""event"",""trial"",""time""
""fullscreenenter"",""1"",""8322""
","
","
","""event"",""trial"",""time""
""fullscreenenter"",""1"",""8322""
","
","","null","","null","","fixation","2021-08-08 17:21:07.486","","","","","",""
"card-selection-trial","113","513631","0.0-25.0-1.20","1080","true","img/card_backs/set1/yellow.gif","img/card_backs/set1/red.gif","img/card_backs/set1/purple.gif","img/card_backs/set1/green.gif","img/card_backs/set2/pink.gif","img/card_backs/set2/orange.gif","img/card_backs/set2/blue.gif","img/card_backs/set2/gray.gif","""event"",""trial"",""time""
""fullscreenenter"",""1"",""8322""
","
","
","""event"",""trial"",""time""
""fullscreenenter"",""1"",""8322""
","
","","1665.9999999999418","","","","real_trial","2021-08-08 17:21:11.159","img/card_backs/set1/purple.gif","2","-90","1","",""
"casino-fixation","114","514135","0.0-25.0-0.21","1080","true","img/card_backs/set1/yellow.gif","img/card_backs/set1/red.gif","img/card_backs/set1/purple.gif","img/card_backs/set1/green.gif","img/card_backs/set2/pink.gif","img/card_backs/set2/orange.gif","img/card_backs/set2/blue.gif","img/card_backs/set2/gray.gif","""event"",""trial"",""time""
""fullscreenenter"",""1"",""8322""
","
","
","""event"",""trial"",""time""
""fullscreenenter"",""1"",""8322""
","
","","null","","null","","fixation","2021-08-08 17:21:11.664","","","","","",""
"card-selection-trial","115","518294","0.0-25.0-1.21","1080","true","img/card_backs/set1/yellow.gif","img/card_backs/set1/red.gif","img/card_backs/set1/purple.gif","img/card_backs/set1/green.gif","img/card_backs/set2/pink.gif","img/card_backs/set2/orange.gif","img/card_backs/set2/blue.gif","img/card_backs/set2/gray.gif","""event"",""trial"",""time""
""fullscreenenter"",""1"",""8322""
","
","
","""event"",""trial"",""time""
""fullscreenenter"",""1"",""8322""
","
","","2153","","","","real_trial","2021-08-08 17:21:15.822","img/card_backs/set1/red.gif","1","-190","1","",""
"casino-fixation","116","518798","0.0-25.0-0.22","1080","true","img/card_backs/set1/yellow.gif","img/card_backs/set1/red.gif","img/card_backs/set1/purple.gif","img/card_backs/set1/green.gif","img/card_backs/set2/pink.gif","img/card_backs/set2/orange.gif","img/card_backs/set2/blue.gif","img/card_backs/set2/gray.gif","""event"",""trial"",""time""
""fullscreenenter"",""1"",""8322""
","
","
","""event"",""trial"",""time""
""fullscreenenter"",""1"",""8322""
","
","","null","","null","","fixation","2021-08-08 17:21:16.327","","","","","",""
"card-selection-trial","117","523096","0.0-25.0-1.22","1080","true","img/card_backs/set1/yellow.gif","img/card_backs/set1/red.gif","img/card_backs/set1/purple.gif","img/card_backs/set1/green.gif","img/card_backs/set2/pink.gif","img/card_backs/set2/orange.gif","img/card_backs/set2/blue.gif","img/card_backs/set2/gray.gif","""event"",""trial"",""time""
""fullscreenenter"",""1"",""8322""
","
","
","""event"",""trial"",""time""
""fullscreenenter"",""1"",""8322""
","
","","2290","","","","real_trial","2021-08-08 17:21:20.624","img/card_backs/set1/yellow.gif","3","260","1","",""
"casino-fixation","118","523599","0.0-25.0-0.23","1080","true","img/card_backs/set1/yellow.gif","img/card_backs/set1/red.gif","img/card_backs/set1/purple.gif","img/card_backs/set1/green.gif","img/card_backs/set2/pink.gif","img/card_backs/set2/orange.gif","img/card_backs/set2/blue.gif","img/card_backs/set2/gray.gif","""event"",""trial"",""time""
""fullscreenenter"",""1"",""8322""
","
","
","""event"",""trial"",""time""
""fullscreenenter"",""1"",""8322""
","
","","null","","null","","fixation","2021-08-08 17:21:21.127","","","","","",""
"card-selection-trial","119","529934","0.0-25.0-1.23","1080","true","img/card_backs/set1/yellow.gif","img/card_backs/set1/red.gif","img/card_backs/set1/purple.gif","img/card_backs/set1/green.gif","img/card_backs/set2/pink.gif","img/card_backs/set2/orange.gif","img/card_backs/set2/blue.gif","img/card_backs/set2/gray.gif","""event"",""trial"",""time""
""fullscreenenter"",""1"",""8322""
","
","
","""event"",""trial"",""time""
""fullscreenenter"",""1"",""8322""
","
","","4329","","","","real_trial","2021-08-08 17:21:27.462","img/card_backs/set1/purple.gif","2","50","1","",""
"casino-fixation","120","530437","0.0-25.0-0.24","1080","true","img/card_backs/set1/yellow.gif","img/card_backs/set1/red.gif","img/card_backs/set1/purple.gif","img/card_backs/set1/green.gif","img/card_backs/set2/pink.gif","img/card_backs/set2/orange.gif","img/card_backs/set2/blue.gif","img/card_backs/set2/gray.gif","""event"",""trial"",""time""
""fullscreenenter"",""1"",""8322""
","
","
","""event"",""trial"",""time""
""fullscreenenter"",""1"",""8322""
","
","","null","","null","","fixation","2021-08-08 17:21:27.966","","","","","",""
"card-selection-trial","121","535435","0.0-25.0-1.24","1080","true","img/card_backs/set1/yellow.gif","img/card_backs/set1/red.gif","img/card_backs/set1/purple.gif","img/card_backs/set1/green.gif","img/card_backs/set2/pink.gif","img/card_backs/set2/orange.gif","img/card_backs/set2/blue.gif","img/card_backs/set2/gray.gif","""event"",""trial"",""time""
""fullscreenenter"",""1"",""8322""
","
","
","""event"",""trial"",""time""
""fullscreenenter"",""1"",""8322""
","
","","2993","","","","real_trial","2021-08-08 17:21:32.964","img/card_backs/set1/yellow.gif","0","-200","1","",""
"casino-fixation","122","535938","0.0-25.0-0.25","1080","true","img/card_backs/set1/yellow.gif","img/card_backs/set1/red.gif","img/card_backs/set1/purple.gif","img/card_backs/set1/green.gif","img/card_backs/set2/pink.gif","img/card_backs/set2/orange.gif","img/card_backs/set2/blue.gif","img/card_backs/set2/gray.gif","""event"",""trial"",""time""
""fullscreenenter"",""1"",""8322""
","
","
","""event"",""trial"",""time""
""fullscreenenter"",""1"",""8322""
","
","","null","","null","","fixation","2021-08-08 17:21:33.467","","","","","",""
"card-selection-trial","123","545877","0.0-25.0-1.25","1080","true","img/card_backs/set1/yellow.gif","img/card_backs/set1/red.gif","img/card_backs/set1/purple.gif","img/card_backs/set1/green.gif","img/card_backs/set2/pink.gif","img/card_backs/set2/orange.gif","img/card_backs/set2/blue.gif","img/card_backs/set2/gray.gif","""event"",""trial"",""time""
""fullscreenenter"",""1"",""8322""
","
","
","""event"",""trial"",""time""
""fullscreenenter"",""1"",""8322""
","
","","7934","","","","real_trial","2021-08-08 17:21:43.405","img/card_backs/set1/red.gif","0","-210","1","",""
"casino-fixation","124","546380","0.0-25.0-0.26","1080","true","img/card_backs/set1/yellow.gif","img/card_backs/set1/red.gif","img/card_backs/set1/purple.gif","img/card_backs/set1/green.gif","img/card_backs/set2/pink.gif","img/card_backs/set2/orange.gif","img/card_backs/set2/blue.gif","img/card_backs/set2/gray.gif","""event"",""trial"",""time""
""fullscreenenter"",""1"",""8322""
","
","
","""event"",""trial"",""time""
""fullscreenenter"",""1"",""8322""
","
","","null","","null","","fixation","2021-08-08 17:21:43.908","","","","","",""
"card-selection-trial","125","553079","0.0-25.0-1.26","1080","true","img/card_backs/set1/yellow.gif","img/card_backs/set1/red.gif","img/card_backs/set1/purple.gif","img/card_backs/set1/green.gif","img/card_backs/set2/pink.gif","img/card_backs/set2/orange.gif","img/card_backs/set2/blue.gif","img/card_backs/set2/gray.gif","""event"",""trial"",""time""
""fullscreenenter"",""1"",""8322""
","
","
","""event"",""trial"",""time""
""fullscreenenter"",""1"",""8322""
","
","","4691","","","","real_trial","2021-08-08 17:21:50.607","img/card_backs/set1/red.gif","2","260","1","",""
"casino-fixation","126","553582","0.0-25.0-0.27","1080","true","img/card_backs/set1/yellow.gif","img/card_backs/set1/red.gif","img/card_backs/set1/purple.gif","img/card_backs/set1/green.gif","img/card_backs/set2/pink.gif","img/card_backs/set2/orange.gif","img/card_backs/set2/blue.gif","img/card_backs/set2/gray.gif","""event"",""trial"",""time""
""fullscreenenter"",""1"",""8322""
","
","
","""event"",""trial"",""time""
""fullscreenenter"",""1"",""8322""
","
","","null","","null","","fixation","2021-08-08 17:21:51.111","","","","","",""
"card-selection-trial","127","562199","0.0-25.0-1.27","1080","true","img/card_backs/set1/yellow.gif","img/card_backs/set1/red.gif","img/card_backs/set1/purple.gif","img/card_backs/set1/green.gif","img/card_backs/set2/pink.gif","img/card_backs/set2/orange.gif","img/card_backs/set2/blue.gif","img/card_backs/set2/gray.gif","""event"",""trial"",""time""
""fullscreenenter"",""1"",""8322""
","
","
","""event"",""trial"",""time""
""fullscreenenter"",""1"",""8322""
","
","","6611","","","","real_trial","2021-08-08 17:21:59.727","img/card_backs/set1/red.gif","1","250","1","",""
"casino-fixation","128","562702","0.0-25.0-0.28","1080","true","img/card_backs/set1/yellow.gif","img/card_backs/set1/red.gif","img/card_backs/set1/purple.gif","img/card_backs/set1/green.gif","img/card_backs/set2/pink.gif","img/card_backs/set2/orange.gif","img/card_backs/set2/blue.gif","img/card_backs/set2/gray.gif","""event"",""trial"",""time""
""fullscreenenter"",""1"",""8322""
","
","
","""event"",""trial"",""time""
""fullscreenenter"",""1"",""8322""
","
","","null","","null","","fixation","2021-08-08 17:22:00.230","","","","","",""
"card-selection-trial","129","570596","0.0-25.0-1.28","1080","true","img/card_backs/set1/yellow.gif","img/card_backs/set1/red.gif","img/card_backs/set1/purple.gif","img/card_backs/set1/green.gif","img/card_backs/set2/pink.gif","img/card_backs/set2/orange.gif","img/card_backs/set2/blue.gif","img/card_backs/set2/gray.gif","""event"",""trial"",""time""
""fullscreenenter"",""1"",""8322""
","
","
","""event"",""trial"",""time""
""fullscreenenter"",""1"",""8322""
","
","","5888","","","","real_trial","2021-08-08 17:22:08.124","img/card_backs/set1/yellow.gif","3","-190","1","",""
"casino-fixation","130","571099","0.0-25.0-0.29","1080","true","img/card_backs/set1/yellow.gif","img/card_backs/set1/red.gif","img/card_backs/set1/purple.gif","img/card_backs/set1/green.gif","img/card_backs/set2/pink.gif","img/card_backs/set2/orange.gif","img/card_backs/set2/blue.gif","img/card_backs/set2/gray.gif","""event"",""trial"",""time""
""fullscreenenter"",""1"",""8322""
","
","
","""event"",""trial"",""time""
""fullscreenenter"",""1"",""8322""
","
","","null","","null","","fixation","2021-08-08 17:22:08.627","","","","","",""
"card-selection-trial","131","577226","0.0-25.0-1.29","1080","true","img/card_backs/set1/yellow.gif","img/card_backs/set1/red.gif","img/card_backs/set1/purple.gif","img/card_backs/set1/green.gif","img/card_backs/set2/pink.gif","img/card_backs/set2/orange.gif","img/card_backs/set2/blue.gif","img/card_backs/set2/gray.gif","""event"",""trial"",""time""
""fullscreenenter"",""1"",""8322""
","
","
","""event"",""trial"",""time""
""fullscreenenter"",""1"",""8322""
","
","","4122","","","","real_trial","2021-08-08 17:22:14.754","img/card_backs/set1/red.gif","2","-210","1","",""
"casino-fixation","132","577729","0.0-25.0-0.30","1080","true","img/card_backs/set1/yellow.gif","img/card_backs/set1/red.gif","img/card_backs/set1/purple.gif","img/card_backs/set1/green.gif","img/card_backs/set2/pink.gif","img/card_backs/set2/orange.gif","img/card_backs/set2/blue.gif","img/card_backs/set2/gray.gif","""event"",""trial"",""time""
""fullscreenenter"",""1"",""8322""
","
","
","""event"",""trial"",""time""
""fullscreenenter"",""1"",""8322""
","
","","null","","null","","fixation","2021-08-08 17:22:15.257","","","","","",""
"card-selection-trial","133","582384","0.0-25.0-1.30","1080","true","img/card_backs/set1/yellow.gif","img/card_backs/set1/red.gif","img/card_backs/set1/purple.gif","img/card_backs/set1/green.gif","img/card_backs/set2/pink.gif","img/card_backs/set2/orange.gif","img/card_backs/set2/blue.gif","img/card_backs/set2/gray.gif","""event"",""trial"",""time""
""fullscreenenter"",""1"",""8322""
","
","
","""event"",""trial"",""time""
""fullscreenenter"",""1"",""8322""
","
","","2649","","","","real_trial","2021-08-08 17:22:19.912","img/card_backs/set1/yellow.gif","2","250","1","",""
"casino-fixation","134","582887","0.0-25.0-0.31","1080","true","img/card_backs/set1/yellow.gif","img/card_backs/set1/red.gif","img/card_backs/set1/purple.gif","img/card_backs/set1/green.gif","img/card_backs/set2/pink.gif","img/card_backs/set2/orange.gif","img/card_backs/set2/blue.gif","img/card_backs/set2/gray.gif","""event"",""trial"",""time""
""fullscreenenter"",""1"",""8322""
","
","
","""event"",""trial"",""time""
""fullscreenenter"",""1"",""8322""
","
","","null","","null","","fixation","2021-08-08 17:22:20.416","","","","","",""
"card-selection-trial","135","586876","0.0-25.0-1.31","1080","true","img/card_backs/set1/yellow.gif","img/card_backs/set1/red.gif","img/card_backs/set1/purple.gif","img/card_backs/set1/green.gif","img/card_backs/set2/pink.gif","img/card_backs/set2/orange.gif","img/card_backs/set2/blue.gif","img/card_backs/set2/gray.gif","""event"",""trial"",""time""
""fullscreenenter"",""1"",""8322""
","
","
","""event"",""trial"",""time""
""fullscreenenter"",""1"",""8322""
","
","","1983","","","","real_trial","2021-08-08 17:22:24.404","img/card_backs/set1/yellow.gif","3","260","1","",""
"casino-fixation","136","587381","0.0-25.0-0.32","1080","true","img/card_backs/set1/yellow.gif","img/card_backs/set1/red.gif","img/card_backs/set1/purple.gif","img/card_backs/set1/green.gif","img/card_backs/set2/pink.gif","img/card_backs/set2/orange.gif","img/card_backs/set2/blue.gif","img/card_backs/set2/gray.gif","""event"",""trial"",""time""
""fullscreenenter"",""1"",""8322""
","
","
","""event"",""trial"",""time""
""fullscreenenter"",""1"",""8322""
","
","","null","","null","","fixation","2021-08-08 17:22:24.909","","","","","",""
"card-selection-trial","137","592521","0.0-25.0-1.32","1080","true","img/card_backs/set1/yellow.gif","img/card_backs/set1/red.gif","img/card_backs/set1/purple.gif","img/card_backs/set1/green.gif","img/card_backs/set2/pink.gif","img/card_backs/set2/orange.gif","img/card_backs/set2/blue.gif","img/card_backs/set2/gray.gif","""event"",""trial"",""time""
""fullscreenenter"",""1"",""8322""
","
","
","""event"",""trial"",""time""
""fullscreenenter"",""1"",""8322""
","
","","3134","","","","real_trial","2021-08-08 17:22:30.049","img/card_backs/set1/yellow.gif","1","-210","1","",""
"casino-fixation","138","593024","0.0-25.0-0.33","1080","true","img/card_backs/set1/yellow.gif","img/card_backs/set1/red.gif","img/card_backs/set1/purple.gif","img/card_backs/set1/green.gif","img/card_backs/set2/pink.gif","img/card_backs/set2/orange.gif","img/card_backs/set2/blue.gif","img/card_backs/set2/gray.gif","""event"",""trial"",""time""
""fullscreenenter"",""1"",""8322""
","
","
","""event"",""trial"",""time""
""fullscreenenter"",""1"",""8322""
","
","","null","","null","","fixation","2021-08-08 17:22:30.552","","","","","",""
"card-selection-trial","139","597089","0.0-25.0-1.33","1080","true","img/card_backs/set1/yellow.gif","img/card_backs/set1/red.gif","img/card_backs/set1/purple.gif","img/card_backs/set1/green.gif","img/card_backs/set2/pink.gif","img/card_backs/set2/orange.gif","img/card_backs/set2/blue.gif","img/card_backs/set2/gray.gif","""event"",""trial"",""time""
""fullscreenenter"",""1"",""8322""
","
","
","""event"",""trial"",""time""
""fullscreenenter"",""1"",""8322""
","
","","2059","","","","real_trial","2021-08-08 17:22:34.617","img/card_backs/set1/yellow.gif","1","240","1","",""
"casino-fixation","140","597593","0.0-25.0-0.34","1080","true","img/card_backs/set1/yellow.gif","img/card_backs/set1/red.gif","img/card_backs/set1/purple.gif","img/card_backs/set1/green.gif","img/card_backs/set2/pink.gif","img/card_backs/set2/orange.gif","img/card_backs/set2/blue.gif","img/card_backs/set2/gray.gif","""event"",""trial"",""time""
""fullscreenenter"",""1"",""8322""
","
","
","""event"",""trial"",""time""
""fullscreenenter"",""1"",""8322""
","
","","null","","null","","fixation","2021-08-08 17:22:35.121","","","","","",""
"card-selection-trial","141","607518","0.0-25.0-1.34","1080","true","img/card_backs/set1/yellow.gif","img/card_backs/set1/red.gif","img/card_backs/set1/purple.gif","img/card_backs/set1/green.gif","img/card_backs/set2/pink.gif","img/card_backs/set2/orange.gif","img/card_backs/set2/blue.gif","img/card_backs/set2/gray.gif","""event"",""trial"",""time""
""fullscreenenter"",""1"",""8322""
","
","
","""event"",""trial"",""time""
""fullscreenenter"",""1"",""8322""
","
","","7919","","","","real_trial","2021-08-08 17:22:45.046","img/card_backs/set1/green.gif","3","50","1","",""
"casino-fixation","142","608021","0.0-25.0-0.35","1080","true","img/card_backs/set1/yellow.gif","img/card_backs/set1/red.gif","img/card_backs/set1/purple.gif","img/card_backs/set1/green.gif","img/card_backs/set2/pink.gif","img/card_backs/set2/orange.gif","img/card_backs/set2/blue.gif","img/card_backs/set2/gray.gif","""event"",""trial"",""time""
""fullscreenenter"",""1"",""8322""
","
","
","""event"",""trial"",""time""
""fullscreenenter"",""1"",""8322""
","
","","null","","null","","fixation","2021-08-08 17:22:45.549","","","","","",""
"card-selection-trial","143","613060","0.0-25.0-1.35","1080","true","img/card_backs/set1/yellow.gif","img/card_backs/set1/red.gif","img/card_backs/set1/purple.gif","img/card_backs/set1/green.gif","img/card_backs/set2/pink.gif","img/card_backs/set2/orange.gif","img/card_backs/set2/blue.gif","img/card_backs/set2/gray.gif","""event"",""trial"",""time""
""fullscreenenter"",""1"",""8322""
","
","
","""event"",""trial"",""time""
""fullscreenenter"",""1"",""8322""
","
","","3033","","","","real_trial","2021-08-08 17:22:50.588","img/card_backs/set1/yellow.gif","1","-190","1","",""
"casino-fixation","144","613563","0.0-25.0-0.36","1080","true","img/card_backs/set1/yellow.gif","img/card_backs/set1/red.gif","img/card_backs/set1/purple.gif","img/card_backs/set1/green.gif","img/card_backs/set2/pink.gif","img/card_backs/set2/orange.gif","img/card_backs/set2/blue.gif","img/card_backs/set2/gray.gif","""event"",""trial"",""time""
""fullscreenenter"",""1"",""8322""
","
","
","""event"",""trial"",""time""
""fullscreenenter"",""1"",""8322""
","
","","null","","null","","fixation","2021-08-08 17:22:51.091","","","","","",""
"card-selection-trial","145","617054","0.0-25.0-1.36","1080","true","img/card_backs/set1/yellow.gif","img/card_backs/set1/red.gif","img/card_backs/set1/purple.gif","img/card_backs/set1/green.gif","img/card_backs/set2/pink.gif","img/card_backs/set2/orange.gif","img/card_backs/set2/blue.gif","img/card_backs/set2/gray.gif","""event"",""trial"",""time""
""fullscreenenter"",""1"",""8322""
","
","
","""event"",""trial"",""time""
""fullscreenenter"",""1"",""8322""
","
","","1485","","","","real_trial","2021-08-08 17:22:54.582","img/card_backs/set1/purple.gif","0","-110","1","",""
"casino-fixation","146","617556","0.0-25.0-0.37","1080","true","img/card_backs/set1/yellow.gif","img/card_backs/set1/red.gif","img/card_backs/set1/purple.gif","img/card_backs/set1/green.gif","img/card_backs/set2/pink.gif","img/card_backs/set2/orange.gif","img/card_backs/set2/blue.gif","img/card_backs/set2/gray.gif","""event"",""trial"",""time""
""fullscreenenter"",""1"",""8322""
","
","
","""event"",""trial"",""time""
""fullscreenenter"",""1"",""8322""
","
","","null","","null","","fixation","2021-08-08 17:22:55.085","","","","","",""
"card-selection-trial","147","620758","0.0-25.0-1.37","1080","true","img/card_backs/set1/yellow.gif","img/card_backs/set1/red.gif","img/card_backs/set1/purple.gif","img/card_backs/set1/green.gif","img/card_backs/set2/pink.gif","img/card_backs/set2/orange.gif","img/card_backs/set2/blue.gif","img/card_backs/set2/gray.gif","""event"",""trial"",""time""
""fullscreenenter"",""1"",""8322""
","
","
","""event"",""trial"",""time""
""fullscreenenter"",""1"",""8322""
","
","","1194.9999999998836","","","","real_trial","2021-08-08 17:22:58.289","img/card_backs/set1/yellow.gif","2","-210","1","",""
"casino-fixation","148","621264","0.0-25.0-0.38","1080","true","img/card_backs/set1/yellow.gif","img/card_backs/set1/red.gif","img/card_backs/set1/purple.gif","img/card_backs/set1/green.gif","img/card_backs/set2/pink.gif","img/card_backs/set2/orange.gif","img/card_backs/set2/blue.gif","img/card_backs/set2/gray.gif","""event"",""trial"",""time""
""fullscreenenter"",""1"",""8322""
","
","
","""event"",""trial"",""time""
""fullscreenenter"",""1"",""8322""
","
","","null","","null","","fixation","2021-08-08 17:22:58.792","","","","","",""
"card-selection-trial","149","624927","0.0-25.0-1.38","1080","true","img/card_backs/set1/yellow.gif","img/card_backs/set1/red.gif","img/card_backs/set1/purple.gif","img/card_backs/set1/green.gif","img/card_backs/set2/pink.gif","img/card_backs/set2/orange.gif","img/card_backs/set2/blue.gif","img/card_backs/set2/gray.gif","""event"",""trial"",""time""
""fullscreenenter"",""1"",""8322""
","
","
","""event"",""trial"",""time""
""fullscreenenter"",""1"",""8322""
","
","","1657","","","","real_trial","2021-08-08 17:23:02.455","img/card_backs/set1/yellow.gif","0","-190","1","",""
"casino-fixation","150","625432","0.0-25.0-0.39","1080","true","img/card_backs/set1/yellow.gif","img/card_backs/set1/red.gif","img/card_backs/set1/purple.gif","img/card_backs/set1/green.gif","img/card_backs/set2/pink.gif","img/card_backs/set2/orange.gif","img/card_backs/set2/blue.gif","img/card_backs/set2/gray.gif","""event"",""trial"",""time""
""fullscreenenter"",""1"",""8322""
","
","
","""event"",""trial"",""time""
""fullscreenenter"",""1"",""8322""
","
","","null","","null","","fixation","2021-08-08 17:23:02.960","","","","","",""
"card-selection-trial","151","630103","0.0-25.0-1.39","1080","true","img/card_backs/set1/yellow.gif","img/card_backs/set1/red.gif","img/card_backs/set1/purple.gif","img/card_backs/set1/green.gif","img/card_backs/set2/pink.gif","img/card_backs/set2/orange.gif","img/card_backs/set2/blue.gif","img/card_backs/set2/gray.gif","""event"",""trial"",""time""
""fullscreenenter"",""1"",""8322""
","
","
","""event"",""trial"",""time""
""fullscreenenter"",""1"",""8322""
","
","","2664.9999999998836","","","","real_trial","2021-08-08 17:23:07.631","img/card_backs/set1/green.gif","3","60","1","",""
"casino-fixation","152","630606","0.0-25.0-0.40","1080","true","img/card_backs/set1/yellow.gif","img/card_backs/set1/red.gif","img/card_backs/set1/purple.gif","img/card_backs/set1/green.gif","img/card_backs/set2/pink.gif","img/card_backs/set2/orange.gif","img/card_backs/set2/blue.gif","img/card_backs/set2/gray.gif","""event"",""trial"",""time""
""fullscreenenter"",""1"",""8322""
","
","
","""event"",""trial"",""time""
""fullscreenenter"",""1"",""8322""
","
","","null","","null","","fixation","2021-08-08 17:23:08.134","","","","","",""
"card-selection-trial","153","634102","0.0-25.0-1.40","1080","true","img/card_backs/set1/yellow.gif","img/card_backs/set1/red.gif","img/card_backs/set1/purple.gif","img/card_backs/set1/green.gif","img/card_backs/set2/pink.gif","img/card_backs/set2/orange.gif","img/card_backs/set2/blue.gif","img/card_backs/set2/gray.gif","""event"",""trial"",""time""
""fullscreenenter"",""1"",""8322""
","
","
","""event"",""trial"",""time""
""fullscreenenter"",""1"",""8322""
","
","","1490","","","","real_trial","2021-08-08 17:23:11.630","img/card_backs/set1/green.gif","3","-110","1","",""
"casino-fixation","154","634605","0.0-25.0-0.41","1080","true","img/card_backs/set1/yellow.gif","img/card_backs/set1/red.gif","img/card_backs/set1/purple.gif","img/card_backs/set1/green.gif","img/card_backs/set2/pink.gif","img/card_backs/set2/orange.gif","img/card_backs/set2/blue.gif","img/card_backs/set2/gray.gif","""event"",""trial"",""time""
""fullscreenenter"",""1"",""8322""
","
","
","""event"",""trial"",""time""
""fullscreenenter"",""1"",""8322""
","
","","null","","null","","fixation","2021-08-08 17:23:12.133","","","","","",""
"card-selection-trial","155","639447","0.0-25.0-1.41","1080","true","img/card_backs/set1/yellow.gif","img/card_backs/set1/red.gif","img/card_backs/set1/purple.gif","img/card_backs/set1/green.gif","img/card_backs/set2/pink.gif","img/card_backs/set2/orange.gif","img/card_backs/set2/blue.gif","img/card_backs/set2/gray.gif","""event"",""trial"",""time""
""fullscreenenter"",""1"",""8322""
","
","
","""event"",""trial"",""time""
""fullscreenenter"",""1"",""8322""
","
","","2836.9999999998836","","","","real_trial","2021-08-08 17:23:16.976","img/card_backs/set1/yellow.gif","1","-190","1","",""
"casino-fixation","156","639951","0.0-25.0-0.42","1080","true","img/card_backs/set1/yellow.gif","img/card_backs/set1/red.gif","img/card_backs/set1/purple.gif","img/card_backs/set1/green.gif","img/card_backs/set2/pink.gif","img/card_backs/set2/orange.gif","img/card_backs/set2/blue.gif","img/card_backs/set2/gray.gif","""event"",""trial"",""time""
""fullscreenenter"",""1"",""8322""
","
","
","""event"",""trial"",""time""
""fullscreenenter"",""1"",""8322""
","
","","null","","null","","fixation","2021-08-08 17:23:17.479","","","","","",""
"card-selection-trial","157","645547","0.0-25.0-1.42","1080","true","img/card_backs/set1/yellow.gif","img/card_backs/set1/red.gif","img/card_backs/set1/purple.gif","img/card_backs/set1/green.gif","img/card_backs/set2/pink.gif","img/card_backs/set2/orange.gif","img/card_backs/set2/blue.gif","img/card_backs/set2/gray.gif","""event"",""trial"",""time""
""fullscreenenter"",""1"",""8322""
","
","
","""event"",""trial"",""time""
""fullscreenenter"",""1"",""8322""
","
","","3590.9999999998836","","","","real_trial","2021-08-08 17:23:23.075","img/card_backs/set1/green.gif","1","-90","1","",""
"casino-fixation","158","646050","0.0-25.0-0.43","1080","true","img/card_backs/set1/yellow.gif","img/card_backs/set1/red.gif","img/card_backs/set1/purple.gif","img/card_backs/set1/green.gif","img/card_backs/set2/pink.gif","img/card_backs/set2/orange.gif","img/card_backs/set2/blue.gif","img/card_backs/set2/gray.gif","""event"",""trial"",""time""
""fullscreenenter"",""1"",""8322""
","
","
","""event"",""trial"",""time""
""fullscreenenter"",""1"",""8322""
","
","","null","","null","","fixation","2021-08-08 17:23:23.578","","","","","",""
"card-selection-trial","159","649750","0.0-25.0-1.43","1080","true","img/card_backs/set1/yellow.gif","img/card_backs/set1/red.gif","img/card_backs/set1/purple.gif","img/card_backs/set1/green.gif","img/card_backs/set2/pink.gif","img/card_backs/set2/orange.gif","img/card_backs/set2/blue.gif","img/card_backs/set2/gray.gif","""event"",""trial"",""time""
""fullscreenenter"",""1"",""8322""
","
","
","""event"",""trial"",""time""
""fullscreenenter"",""1"",""8322""
","
","","1693","","","","real_trial","2021-08-08 17:23:27.278","img/card_backs/set1/yellow.gif","0","250","1","",""
"casino-fixation","160","650253","0.0-25.0-0.44","1080","true","img/card_backs/set1/yellow.gif","img/card_backs/set1/red.gif","img/card_backs/set1/purple.gif","img/card_backs/set1/green.gif","img/card_backs/set2/pink.gif","img/card_backs/set2/orange.gif","img/card_backs/set2/blue.gif","img/card_backs/set2/gray.gif","""event"",""trial"",""time""
""fullscreenenter"",""1"",""8322""
","
","
","""event"",""trial"",""time""
""fullscreenenter"",""1"",""8322""
","
","","null","","null","","fixation","2021-08-08 17:23:27.781","","","","","",""
"card-selection-trial","161","658317","0.0-25.0-1.44","1080","true","img/card_backs/set1/yellow.gif","img/card_backs/set1/red.gif","img/card_backs/set1/purple.gif","img/card_backs/set1/green.gif","img/card_backs/set2/pink.gif","img/card_backs/set2/orange.gif","img/card_backs/set2/blue.gif","img/card_backs/set2/gray.gif","""event"",""trial"",""time""
""fullscreenenter"",""1"",""8322""
","
","
","""event"",""trial"",""time""
""fullscreenenter"",""1"",""8322""
","
","","6056.999999999884","","","","real_trial","2021-08-08 17:23:35.845","img/card_backs/set1/red.gif","2","-190","1","",""
"casino-fixation","162","658820","0.0-25.0-0.45","1080","true","img/card_backs/set1/yellow.gif","img/card_backs/set1/red.gif","img/card_backs/set1/purple.gif","img/card_backs/set1/green.gif","img/card_backs/set2/pink.gif","img/card_backs/set2/orange.gif","img/card_backs/set2/blue.gif","img/card_backs/set2/gray.gif","""event"",""trial"",""time""
""fullscreenenter"",""1"",""8322""
","
","
","""event"",""trial"",""time""
""fullscreenenter"",""1"",""8322""
","
","","null","","null","","fixation","2021-08-08 17:23:36.348","","","","","",""
"card-selection-trial","163","663464","0.0-25.0-1.45","1080","true","img/card_backs/set1/yellow.gif","img/card_backs/set1/red.gif","img/card_backs/set1/purple.gif","img/card_backs/set1/green.gif","img/card_backs/set2/pink.gif","img/card_backs/set2/orange.gif","img/card_backs/set2/blue.gif","img/card_backs/set2/gray.gif","""event"",""trial"",""time""
""fullscreenenter"",""1"",""8322""
","
","
","""event"",""trial"",""time""
""fullscreenenter"",""1"",""8322""
","
","","2638","","","","real_trial","2021-08-08 17:23:40.992","img/card_backs/set1/yellow.gif","3","-210","1","",""
"casino-fixation","164","663969","0.0-25.0-0.46","1080","true","img/card_backs/set1/yellow.gif","img/card_backs/set1/red.gif","img/card_backs/set1/purple.gif","img/card_backs/set1/green.gif","img/card_backs/set2/pink.gif","img/card_backs/set2/orange.gif","img/card_backs/set2/blue.gif","img/card_backs/set2/gray.gif","""event"",""trial"",""time""
""fullscreenenter"",""1"",""8322""
","
","
","""event"",""trial"",""time""
""fullscreenenter"",""1"",""8322""
","
","","null","","null","","fixation","2021-08-08 17:23:41.497","","","","","",""
"card-selection-trial","165","667494","0.0-25.0-1.46","1080","true","img/card_backs/set1/yellow.gif","img/card_backs/set1/red.gif","img/card_backs/set1/purple.gif","img/card_backs/set1/green.gif","img/card_backs/set2/pink.gif","img/card_backs/set2/orange.gif","img/card_backs/set2/blue.gif","img/card_backs/set2/gray.gif","""event"",""trial"",""time""
""fullscreenenter"",""1"",""8322""
","
","
","""event"",""trial"",""time""
""fullscreenenter"",""1"",""8322""
","
","","1519","","","","real_trial","2021-08-08 17:23:45.025","img/card_backs/set1/purple.gif","2","60","1","",""
"casino-fixation","166","667999","0.0-25.0-0.47","1080","true","img/card_backs/set1/yellow.gif","img/card_backs/set1/red.gif","img/card_backs/set1/purple.gif","img/card_backs/set1/green.gif","img/card_backs/set2/pink.gif","img/card_backs/set2/orange.gif","img/card_backs/set2/blue.gif","img/card_backs/set2/gray.gif","""event"",""trial"",""time""
""fullscreenenter"",""1"",""8322""
","
","
","""event"",""trial"",""time""
""fullscreenenter"",""1"",""8322""
","
","","null","","null","","fixation","2021-08-08 17:23:45.527","","","","","",""
"card-selection-trial","167","677624","0.0-25.0-1.47","1080","true","img/card_backs/set1/yellow.gif","img/card_backs/set1/red.gif","img/card_backs/set1/purple.gif","img/card_backs/set1/green.gif","img/card_backs/set2/pink.gif","img/card_backs/set2/orange.gif","img/card_backs/set2/blue.gif","img/card_backs/set2/gray.gif","""event"",""trial"",""time""
""fullscreenenter"",""1"",""8322""
","
","
","""event"",""trial"",""time""
""fullscreenenter"",""1"",""8322""
","
","","7618","","","","real_trial","2021-08-08 17:23:55.152","img/card_backs/set1/green.gif","1","40","1","",""
"casino-fixation","168","678127","0.0-25.0-0.48","1080","true","img/card_backs/set1/yellow.gif","img/card_backs/set1/red.gif","img/card_backs/set1/purple.gif","img/card_backs/set1/green.gif","img/card_backs/set2/pink.gif","img/card_backs/set2/orange.gif","img/card_backs/set2/blue.gif","img/card_backs/set2/gray.gif","""event"",""trial"",""time""
""fullscreenenter"",""1"",""8322""
","
","
","""event"",""trial"",""time""
""fullscreenenter"",""1"",""8322""
","
","","null","","null","","fixation","2021-08-08 17:23:55.656","","","","","",""
