"trial_type","trial_index","time_elapsed","internal_node_id","sub_id","risk_good_first","block1_A","block1_B","block1_C","block1_D","block2_A","block2_B","block2_C","block2_D","interactions","blur_events","focus_events","fullscreenenter_events","fullscreenexit_events","success","rt","stimulus","key_press","button_pressed","task_part","timestamp","card_choice","choice_position","points_earned","block","correct","response"
"pavlovia","0","9","0.0-0.0","733","true","img/card_backs/set1/purple.gif","img/card_backs/set1/green.gif","img/card_backs/set1/yellow.gif","img/card_backs/set1/red.gif","img/card_backs/set2/blue.gif","img/card_backs/set2/orange.gif","img/card_backs/set2/pink.gif","img/card_backs/set2/gray.gif","""event"",""trial"",""time""
""fullscreenenter"",""1"",""5501""
","
","
","""event"",""trial"",""time""
""fullscreenenter"",""1"",""5501""
","
","","","","","","","","","","","","",""
"fullscreen","1","6459","0.0-1.0","733","true","img/card_backs/set1/purple.gif","img/card_backs/set1/green.gif","img/card_backs/set1/yellow.gif","img/card_backs/set1/red.gif","img/card_backs/set2/blue.gif","img/card_backs/set2/orange.gif","img/card_backs/set2/pink.gif","img/card_backs/set2/gray.gif","""event"",""trial"",""time""
""fullscreenenter"",""1"",""5501""
","
","
","""event"",""trial"",""time""
""fullscreenenter"",""1"",""5501""
","
","true","","","","","","","","","","","",""
"audio-keyboard-response","2","10806","0.0-2.0","733","true","img/card_backs/set1/purple.gif","img/card_backs/set1/green.gif","img/card_backs/set1/yellow.gif","img/card_backs/set1/red.gif","img/card_backs/set2/blue.gif","img/card_backs/set2/orange.gif","img/card_backs/set2/pink.gif","img/card_backs/set2/gray.gif","""event"",""trial"",""time""
""fullscreenenter"",""1"",""5501""
","
","
","""event"",""trial"",""time""
""fullscreenenter"",""1"",""5501""
","
","","3051","audio/beep_loop.wav","32","","","","","","","","",""
"audio-button-response","3","12685","0.0-3.0","733","true","img/card_backs/set1/purple.gif","img/card_backs/set1/green.gif","img/card_backs/set1/yellow.gif","img/card_backs/set1/red.gif","img/card_backs/set2/blue.gif","img/card_backs/set2/orange.gif","img/card_backs/set2/pink.gif","img/card_backs/set2/gray.gif","""event"",""trial"",""time""
""fullscreenenter"",""1"",""5501""
","
","
","""event"",""trial"",""time""
""fullscreenenter"",""1"",""5501""
","
","","NaN","audio/turtle.mp3","","3","","","","","","","",""
"audio-button-response","4","15278","0.0-4.0","733","true","img/card_backs/set1/purple.gif","img/card_backs/set1/green.gif","img/card_backs/set1/yellow.gif","img/card_backs/set1/red.gif","img/card_backs/set2/blue.gif","img/card_backs/set2/orange.gif","img/card_backs/set2/pink.gif","img/card_backs/set2/gray.gif","""event"",""trial"",""time""
""fullscreenenter"",""1"",""5501""
","
","
","""event"",""trial"",""time""
""fullscreenenter"",""1"",""5501""
","
","","NaN","audio/shark.mp3","","2","","","","","","","",""
"fullscreen","5","18970","0.0-5.0","733","true","img/card_backs/set1/purple.gif","img/card_backs/set1/green.gif","img/card_backs/set1/yellow.gif","img/card_backs/set1/red.gif","img/card_backs/set2/blue.gif","img/card_backs/set2/orange.gif","img/card_backs/set2/pink.gif","img/card_backs/set2/gray.gif","""event"",""trial"",""time""
""fullscreenenter"",""1"",""5501""
","
","
","""event"",""trial"",""time""
""fullscreenenter"",""1"",""5501""
","
","true","","","","","","","","","","","",""
"casino-keyboard-response","6","22814","0.0-6.0-0.0","733","true","img/card_backs/set1/purple.gif","img/card_backs/set1/green.gif","img/card_backs/set1/yellow.gif","img/card_backs/set1/red.gif","img/card_backs/set2/blue.gif","img/card_backs/set2/orange.gif","img/card_backs/set2/pink.gif","img/card_backs/set2/gray.gif","""event"",""trial"",""time""
""fullscreenenter"",""1"",""5501""
","
","
","""event"",""trial"",""time""
""fullscreenenter"",""1"",""5501""
","
","","3837.600000023842","Welcome to the casino!","71","","instructions","2021-06-23 16:31:27.124","","","","","",""
"casino-keyboard-response","7","32523","0.0-6.0-0.1","733","true","img/card_backs/set1/purple.gif","img/card_backs/set1/green.gif","img/card_backs/set1/yellow.gif","img/card_backs/set1/red.gif","img/card_backs/set2/blue.gif","img/card_backs/set2/orange.gif","img/card_backs/set2/pink.gif","img/card_backs/set2/gray.gif","""event"",""trial"",""time""
""fullscreenenter"",""1"",""5501""
","
","
","""event"",""trial"",""time""
""fullscreenenter"",""1"",""5501""
","
","","9704.5","Today you will be playing a game to earn tokens. </br> At the end of the experiment, you will be paid a bonus based on how many tokens you win. ","69","","instructions","2021-06-23 16:31:36.832","","","","","",""
"casino-keyboard-response","8","40174","0.0-6.0-0.2","733","true","img/card_backs/set1/purple.gif","img/card_backs/set1/green.gif","img/card_backs/set1/yellow.gif","img/card_backs/set1/red.gif","img/card_backs/set2/blue.gif","img/card_backs/set2/orange.gif","img/card_backs/set2/pink.gif","img/card_backs/set2/gray.gif","""event"",""trial"",""time""
""fullscreenenter"",""1"",""5501""
","
","
","""event"",""trial"",""time""
""fullscreenenter"",""1"",""5501""
","
","","7646.199999988079","On every turn, you will be shown four different decks of cards. </br> You need to select a card from one of the four decks.  ","75","","instructions","2021-06-23 16:31:44.483","","","","","",""
"casino-keyboard-response","9","45315","0.0-6.0-0.3","733","true","img/card_backs/set1/purple.gif","img/card_backs/set1/green.gif","img/card_backs/set1/yellow.gif","img/card_backs/set1/red.gif","img/card_backs/set2/blue.gif","img/card_backs/set2/orange.gif","img/card_backs/set2/pink.gif","img/card_backs/set2/gray.gif","""event"",""trial"",""time""
""fullscreenenter"",""1"",""5501""
","
","
","""event"",""trial"",""time""
""fullscreenenter"",""1"",""5501""
","
","","5138","On the next screen, you will see what the decks will look like. ","66","","instructions","2021-06-23 16:31:49.624","","","","","",""
"card-selection-trial","10","49342","0.0-7.0-0.0","733","true","img/card_backs/set1/purple.gif","img/card_backs/set1/green.gif","img/card_backs/set1/yellow.gif","img/card_backs/set1/red.gif","img/card_backs/set2/blue.gif","img/card_backs/set2/orange.gif","img/card_backs/set2/pink.gif","img/card_backs/set2/gray.gif","""event"",""trial"",""time""
""fullscreenenter"",""1"",""5501""
","
","
","""event"",""trial"",""time""
""fullscreenenter"",""1"",""5501""
","
","","null","","","","practice","2021-06-23 16:31:53.652","null","null","null","0","",""
"casino-keyboard-response","11","57789","0.0-8.0-0.0","733","true","img/card_backs/set1/purple.gif","img/card_backs/set1/green.gif","img/card_backs/set1/yellow.gif","img/card_backs/set1/red.gif","img/card_backs/set2/blue.gif","img/card_backs/set2/orange.gif","img/card_backs/set2/pink.gif","img/card_backs/set2/gray.gif","""event"",""trial"",""time""
""fullscreenenter"",""1"",""5501""
","
","
","""event"",""trial"",""time""
""fullscreenenter"",""1"",""5501""
","
","","8442.600000023842","You should pick a card from a deck using the '2', '4', '6', and '8' keys at the top of the keyboard.","85","","instructions","2021-06-23 16:32:02.098","","","","","",""
"casino-keyboard-response","12","63362","0.0-8.0-0.1","733","true","img/card_backs/set1/purple.gif","img/card_backs/set1/green.gif","img/card_backs/set1/yellow.gif","img/card_backs/set1/red.gif","img/card_backs/set2/blue.gif","img/card_backs/set2/orange.gif","img/card_backs/set2/pink.gif","img/card_backs/set2/gray.gif","""event"",""trial"",""time""
""fullscreenenter"",""1"",""5501""
","
","
","""event"",""trial"",""time""
""fullscreenenter"",""1"",""5501""
","
","","5568.5","Once you select a card, it will turn over and you will see how many tokens you earned.","83","","instructions","2021-06-23 16:32:07.672","","","","","",""
"casino-keyboard-response","13","80135","0.0-8.0-0.2","733","true","img/card_backs/set1/purple.gif","img/card_backs/set1/green.gif","img/card_backs/set1/yellow.gif","img/card_backs/set1/red.gif","img/card_backs/set2/blue.gif","img/card_backs/set2/orange.gif","img/card_backs/set2/pink.gif","img/card_backs/set2/gray.gif","""event"",""trial"",""time""
""fullscreenenter"",""1"",""5501""
","
","
","""event"",""trial"",""time""
""fullscreenenter"",""1"",""5501""
","
","","16769","Let's try practicing that! </br> First, try to put your fingers over the '2', '4', '6', and '8' keys. </br>  You can use whatever fingers are most comfortable for you. Try to find a comfortable position now. ","50","","instructions","2021-06-23 16:32:24.444","","","","","",""
"casino-keyboard-response","14","86103","0.0-8.0-0.3","733","true","img/card_backs/set1/purple.gif","img/card_backs/set1/green.gif","img/card_backs/set1/yellow.gif","img/card_backs/set1/red.gif","img/card_backs/set2/blue.gif","img/card_backs/set2/orange.gif","img/card_backs/set2/pink.gif","img/card_backs/set2/gray.gif","""event"",""trial"",""time""
""fullscreenenter"",""1"",""5501""
","
","
","""event"",""trial"",""time""
""fullscreenenter"",""1"",""5501""
","
","","5963.300000011921","Okay ready? </br> On the next screen, press '2' to select the left deck. ","50","","instructions","2021-06-23 16:32:30.412","","","","","",""
"card-selection-trial","15","89474","0.0-9.0-0.0","733","true","img/card_backs/set1/purple.gif","img/card_backs/set1/green.gif","img/card_backs/set1/yellow.gif","img/card_backs/set1/red.gif","img/card_backs/set2/blue.gif","img/card_backs/set2/orange.gif","img/card_backs/set2/pink.gif","img/card_backs/set2/gray.gif","""event"",""trial"",""time""
""fullscreenenter"",""1"",""5501""
","
","
","""event"",""trial"",""time""
""fullscreenenter"",""1"",""5501""
","
","","1304.9000000357628","","","","practice_card_selection","2021-06-23 16:32:33.784","img/practice_cards/backs/black.gif","0","-100","","",""
"casino-keyboard-response","16","95311","0.0-10.0-0.0","733","true","img/card_backs/set1/purple.gif","img/card_backs/set1/green.gif","img/card_backs/set1/yellow.gif","img/card_backs/set1/red.gif","img/card_backs/set2/blue.gif","img/card_backs/set2/orange.gif","img/card_backs/set2/pink.gif","img/card_backs/set2/gray.gif","""event"",""trial"",""time""
""fullscreenenter"",""1"",""5501""
","
","
","""event"",""trial"",""time""
""fullscreenenter"",""1"",""5501""
","
","","5832.300000011921","Great! Now on the next screen, try pressing '6' to select the third deck.","54","","instructions","2021-06-23 16:32:39.620","","","","","",""
"card-selection-trial","17","98181","0.0-11.0-0.0","733","true","img/card_backs/set1/purple.gif","img/card_backs/set1/green.gif","img/card_backs/set1/yellow.gif","img/card_backs/set1/red.gif","img/card_backs/set2/blue.gif","img/card_backs/set2/orange.gif","img/card_backs/set2/pink.gif","img/card_backs/set2/gray.gif","""event"",""trial"",""time""
""fullscreenenter"",""1"",""5501""
","
","
","""event"",""trial"",""time""
""fullscreenenter"",""1"",""5501""
","
","","842.1999999880791","","","","practice_card_selection","2021-06-23 16:32:42.490","img/practice_cards/backs/brown.gif","2","-100","","",""
"casino-keyboard-response","18","102839","0.0-12.0-0.0","733","true","img/card_backs/set1/purple.gif","img/card_backs/set1/green.gif","img/card_backs/set1/yellow.gif","img/card_backs/set1/red.gif","img/card_backs/set2/blue.gif","img/card_backs/set2/orange.gif","img/card_backs/set2/pink.gif","img/card_backs/set2/gray.gif","""event"",""trial"",""time""
""fullscreenenter"",""1"",""5501""
","
","
","""event"",""trial"",""time""
""fullscreenenter"",""1"",""5501""
","
","","4654.599999964237","Now on the next screen, try pressing '4' to select the second deck.","52","","instructions","2021-06-23 16:32:47.148","","","","","",""
"card-selection-trial","19","105520","0.0-13.0-0.0","733","true","img/card_backs/set1/purple.gif","img/card_backs/set1/green.gif","img/card_backs/set1/yellow.gif","img/card_backs/set1/red.gif","img/card_backs/set2/blue.gif","img/card_backs/set2/orange.gif","img/card_backs/set2/pink.gif","img/card_backs/set2/gray.gif","""event"",""trial"",""time""
""fullscreenenter"",""1"",""5501""
","
","
","""event"",""trial"",""time""
""fullscreenenter"",""1"",""5501""
","
","","652.5999999642372","","","","practice_card_selection","2021-06-23 16:32:49.831","img/practice_cards/backs/brown.gif","1","-100","","",""
"casino-keyboard-response","20","109534","0.0-14.0-0.0","733","true","img/card_backs/set1/purple.gif","img/card_backs/set1/green.gif","img/card_backs/set1/yellow.gif","img/card_backs/set1/red.gif","img/card_backs/set2/blue.gif","img/card_backs/set2/orange.gif","img/card_backs/set2/pink.gif","img/card_backs/set2/gray.gif","""event"",""trial"",""time""
""fullscreenenter"",""1"",""5501""
","
","
","""event"",""trial"",""time""
""fullscreenenter"",""1"",""5501""
","
","","4010.300000011921","Finally, try pressing '8' to select the deck all the way on the right.","56","","instructions","2021-06-23 16:32:53.843","","","","","",""
"card-selection-trial","21","112330","0.0-15.0-0.0","733","true","img/card_backs/set1/purple.gif","img/card_backs/set1/green.gif","img/card_backs/set1/yellow.gif","img/card_backs/set1/red.gif","img/card_backs/set2/blue.gif","img/card_backs/set2/orange.gif","img/card_backs/set2/pink.gif","img/card_backs/set2/gray.gif","""event"",""trial"",""time""
""fullscreenenter"",""1"",""5501""
","
","
","""event"",""trial"",""time""
""fullscreenenter"",""1"",""5501""
","
","","778.8999999761581","","","","practice_card_selection","2021-06-23 16:32:56.639","img/practice_cards/backs/dark_green.gif","3","-200","","",""
"casino-keyboard-response","22","116745","0.0-16.0-0.0","733","true","img/card_backs/set1/purple.gif","img/card_backs/set1/green.gif","img/card_backs/set1/yellow.gif","img/card_backs/set1/red.gif","img/card_backs/set2/blue.gif","img/card_backs/set2/orange.gif","img/card_backs/set2/pink.gif","img/card_backs/set2/gray.gif","""event"",""trial"",""time""
""fullscreenenter"",""1"",""5501""
","
","
","""event"",""trial"",""time""
""fullscreenenter"",""1"",""5501""
","
","","4410.600000023842","Great! It seems like you are getting the hang of this.","80","","instructions","2021-06-23 16:33:01.054","","","","","",""
"casino-keyboard-response","23","124294","0.0-16.0-0.1","733","true","img/card_backs/set1/purple.gif","img/card_backs/set1/green.gif","img/card_backs/set1/yellow.gif","img/card_backs/set1/red.gif","img/card_backs/set2/blue.gif","img/card_backs/set2/orange.gif","img/card_backs/set2/pink.gif","img/card_backs/set2/gray.gif","""event"",""trial"",""time""
""fullscreenenter"",""1"",""5501""
","
","
","""event"",""trial"",""time""
""fullscreenenter"",""1"",""5501""
","
","","7545","You may have noticed that some cards will cause you to <b> win </b> tokens while other cards will cause you to <b> lose </b>  tokens.","70","","instructions","2021-06-23 16:33:08.603","","","","","",""
"casino-keyboard-response","24","132878","0.0-16.0-0.2","733","true","img/card_backs/set1/purple.gif","img/card_backs/set1/green.gif","img/card_backs/set1/yellow.gif","img/card_backs/set1/red.gif","img/card_backs/set2/blue.gif","img/card_backs/set2/orange.gif","img/card_backs/set2/pink.gif","img/card_backs/set2/gray.gif","""event"",""trial"",""time""
""fullscreenenter"",""1"",""5501""
","
","
","""event"",""trial"",""time""
""fullscreenenter"",""1"",""5501""
","
","","8581.100000023842","Each deck has a mix of cards that will cause you to win and lose tokens. </br> However, the cards in each colored deck are different.","73","","instructions","2021-06-23 16:33:17.187","","","","","",""
"casino-keyboard-response","25","141412","0.0-16.0-0.3","733","true","img/card_backs/set1/purple.gif","img/card_backs/set1/green.gif","img/card_backs/set1/yellow.gif","img/card_backs/set1/red.gif","img/card_backs/set2/blue.gif","img/card_backs/set2/orange.gif","img/card_backs/set2/pink.gif","img/card_backs/set2/gray.gif","""event"",""trial"",""time""
""fullscreenenter"",""1"",""5501""
","
","
","""event"",""trial"",""time""
""fullscreenenter"",""1"",""5501""
","
","","8529.400000035763","Some colored decks are luckier than others. </br> If you choose the lucky decks, you will earn more tokens than if you choose the unlucky decks.","69","","instructions","2021-06-23 16:33:25.722","","","","","",""
"casino-keyboard-response","26","148814","0.0-16.0-0.4","733","true","img/card_backs/set1/purple.gif","img/card_backs/set1/green.gif","img/card_backs/set1/yellow.gif","img/card_backs/set1/red.gif","img/card_backs/set2/blue.gif","img/card_backs/set2/orange.gif","img/card_backs/set2/pink.gif","img/card_backs/set2/gray.gif","""event"",""trial"",""time""
""fullscreenenter"",""1"",""5501""
","
","
","""event"",""trial"",""time""
""fullscreenenter"",""1"",""5501""
","
","","7397.300000011921","You should try to figure out which decks are lucky. </br> Then, try to choose the lucky decks so you can win the most tokens.","87","","instructions","2021-06-23 16:33:33.123","","","","","",""
"casino-keyboard-response","27","160783","0.0-16.0-0.5","733","true","img/card_backs/set1/purple.gif","img/card_backs/set1/green.gif","img/card_backs/set1/yellow.gif","img/card_backs/set1/red.gif","img/card_backs/set2/blue.gif","img/card_backs/set2/orange.gif","img/card_backs/set2/pink.gif","img/card_backs/set2/gray.gif","""event"",""trial"",""time""
""fullscreenenter"",""1"",""5501""
","
","
","""event"",""trial"",""time""
""fullscreenenter"",""1"",""5501""
","
","","11965.699999988079","To make it trickier, the casino dealer will switch the locations of the decks on every turn. </br> The color of the deck determines how lucky it is. The location does not matter.","88","","instructions","2021-06-23 16:33:45.092","","","","","",""
"casino-keyboard-response","28","170164","0.0-16.0-0.6","733","true","img/card_backs/set1/purple.gif","img/card_backs/set1/green.gif","img/card_backs/set1/yellow.gif","img/card_backs/set1/red.gif","img/card_backs/set2/blue.gif","img/card_backs/set2/orange.gif","img/card_backs/set2/pink.gif","img/card_backs/set2/gray.gif","""event"",""trial"",""time""
""fullscreenenter"",""1"",""5501""
","
","
","""event"",""trial"",""time""
""fullscreenenter"",""1"",""5501""
","
","","9378.399999976158","The mix of cards in each colored deck will stay the same throughout the game. </br> That means that a deck that is lucky early on will stay lucky.","79","","instructions","2021-06-23 16:33:54.473","","","","","",""
"casino-keyboard-response","29","178542","0.0-16.0-0.7","733","true","img/card_backs/set1/purple.gif","img/card_backs/set1/green.gif","img/card_backs/set1/yellow.gif","img/card_backs/set1/red.gif","img/card_backs/set2/blue.gif","img/card_backs/set2/orange.gif","img/card_backs/set2/pink.gif","img/card_backs/set2/gray.gif","""event"",""trial"",""time""
""fullscreenenter"",""1"",""5501""
","
","
","""event"",""trial"",""time""
""fullscreenenter"",""1"",""5501""
","
","","8375.5","Remember though, all the decks have a <b> mix </b> of both <b> good </b> and <b> bad </b> cards so it may take a couple of turns to figure out if a deck is lucky.","69","","instructions","2021-06-23 16:34:02.851","","","","","",""
"casino-keyboard-response","30","187004","0.0-16.0-0.8","733","true","img/card_backs/set1/purple.gif","img/card_backs/set1/green.gif","img/card_backs/set1/yellow.gif","img/card_backs/set1/red.gif","img/card_backs/set2/blue.gif","img/card_backs/set2/orange.gif","img/card_backs/set2/pink.gif","img/card_backs/set2/gray.gif","""event"",""trial"",""time""
""fullscreenenter"",""1"",""5501""
","
","
","""event"",""trial"",""time""
""fullscreenenter"",""1"",""5501""
","
","","8460","At the end of the game, you will be paid bonus money based on how many tokens you win. </br> If you win more tokens, you will earn more money!","72","","instructions","2021-06-23 16:34:11.313","","","","","",""
"casino-keyboard-response","31","197719","0.0-16.0-0.9","733","true","img/card_backs/set1/purple.gif","img/card_backs/set1/green.gif","img/card_backs/set1/yellow.gif","img/card_backs/set1/red.gif","img/card_backs/set2/blue.gif","img/card_backs/set2/orange.gif","img/card_backs/set2/pink.gif","img/card_backs/set2/gray.gif","""event"",""trial"",""time""
""fullscreenenter"",""1"",""5501""
","
","
","""event"",""trial"",""time""
""fullscreenenter"",""1"",""5501""
","
","","10712.5","You will never <b> lose </b> money. </br> If you end up with fewer than 0 tokens, you will earn $0 of bonus money, but you will still be paid for playing the game.","83","","instructions","2021-06-23 16:34:22.028","","","","","",""
"casino-keyboard-response","32","202156","0.0-16.0-0.10","733","true","img/card_backs/set1/purple.gif","img/card_backs/set1/green.gif","img/card_backs/set1/yellow.gif","img/card_backs/set1/red.gif","img/card_backs/set2/blue.gif","img/card_backs/set2/orange.gif","img/card_backs/set2/pink.gif","img/card_backs/set2/gray.gif","""event"",""trial"",""time""
""fullscreenenter"",""1"",""5501""
","
","
","""event"",""trial"",""time""
""fullscreenenter"",""1"",""5501""
","
","","4434.799999952316","You will have 10 seconds to make each choice.","82","","instructions","2021-06-23 16:34:26.465","","","","","",""
"casino-keyboard-response","33","210599","0.0-16.0-0.11","733","true","img/card_backs/set1/purple.gif","img/card_backs/set1/green.gif","img/card_backs/set1/yellow.gif","img/card_backs/set1/red.gif","img/card_backs/set2/blue.gif","img/card_backs/set2/orange.gif","img/card_backs/set2/pink.gif","img/card_backs/set2/gray.gif","""event"",""trial"",""time""
""fullscreenenter"",""1"",""5501""
","
","
","""event"",""trial"",""time""
""fullscreenenter"",""1"",""5501""
","
","","8439.199999988079","Before you play the game for real, you will play with practice decks. </br> The tokens you earn during practice won't count toward your total.","86","","instructions","2021-06-23 16:34:34.909","","","","","",""
"casino-keyboard-response","34","222833","0.0-16.0-0.12","733","true","img/card_backs/set1/purple.gif","img/card_backs/set1/green.gif","img/card_backs/set1/yellow.gif","img/card_backs/set1/red.gif","img/card_backs/set2/blue.gif","img/card_backs/set2/orange.gif","img/card_backs/set2/pink.gif","img/card_backs/set2/gray.gif","""event"",""trial"",""time""
""fullscreenenter"",""1"",""5501""
","
","
","""event"",""trial"",""time""
""fullscreenenter"",""1"",""5501""
","
","","12231","Ready? Remember, use the '2', '4', '6', and '8' keys to select the decks. </br> Put your fingers on those keys now and then press '2' to begin.","50","","instructions","2021-06-23 16:34:47.142","","","","","",""
"casino-fixation","35","223341","0.0-17.0-0.0","733","true","img/card_backs/set1/purple.gif","img/card_backs/set1/green.gif","img/card_backs/set1/yellow.gif","img/card_backs/set1/red.gif","img/card_backs/set2/blue.gif","img/card_backs/set2/orange.gif","img/card_backs/set2/pink.gif","img/card_backs/set2/gray.gif","""event"",""trial"",""time""
""fullscreenenter"",""1"",""5501""
","
","
","""event"",""trial"",""time""
""fullscreenenter"",""1"",""5501""
","
","","null","","null","","fixation","2021-06-23 16:34:47.650","","","","","",""
"card-selection-trial","36","227110","0.0-17.0-1.0","733","true","img/card_backs/set1/purple.gif","img/card_backs/set1/green.gif","img/card_backs/set1/yellow.gif","img/card_backs/set1/red.gif","img/card_backs/set2/blue.gif","img/card_backs/set2/orange.gif","img/card_backs/set2/pink.gif","img/card_backs/set2/gray.gif","""event"",""trial"",""time""
""fullscreenenter"",""1"",""5501""
","
","
","""event"",""trial"",""time""
""fullscreenenter"",""1"",""5501""
","
","","1746.5999999642372","","","","practice","2021-06-23 16:34:51.419","img/practice_cards/backs/brown.gif","2","-100","0","",""
"casino-fixation","37","227620","0.0-17.0-0.1","733","true","img/card_backs/set1/purple.gif","img/card_backs/set1/green.gif","img/card_backs/set1/yellow.gif","img/card_backs/set1/red.gif","img/card_backs/set2/blue.gif","img/card_backs/set2/orange.gif","img/card_backs/set2/pink.gif","img/card_backs/set2/gray.gif","""event"",""trial"",""time""
""fullscreenenter"",""1"",""5501""
","
","
","""event"",""trial"",""time""
""fullscreenenter"",""1"",""5501""
","
","","null","","null","","fixation","2021-06-23 16:34:51.929","","","","","",""
"card-selection-trial","38","230835","0.0-17.0-1.1","733","true","img/card_backs/set1/purple.gif","img/card_backs/set1/green.gif","img/card_backs/set1/yellow.gif","img/card_backs/set1/red.gif","img/card_backs/set2/blue.gif","img/card_backs/set2/orange.gif","img/card_backs/set2/pink.gif","img/card_backs/set2/gray.gif","""event"",""trial"",""time""
""fullscreenenter"",""1"",""5501""
","
","
","""event"",""trial"",""time""
""fullscreenenter"",""1"",""5501""
","
","","1209.800000011921","","","","practice","2021-06-23 16:34:55.144","img/practice_cards/backs/brown.gif","0","100","0","",""
"casino-fixation","39","231355","0.0-17.0-0.2","733","true","img/card_backs/set1/purple.gif","img/card_backs/set1/green.gif","img/card_backs/set1/yellow.gif","img/card_backs/set1/red.gif","img/card_backs/set2/blue.gif","img/card_backs/set2/orange.gif","img/card_backs/set2/pink.gif","img/card_backs/set2/gray.gif","""event"",""trial"",""time""
""fullscreenenter"",""1"",""5501""
","
","
","""event"",""trial"",""time""
""fullscreenenter"",""1"",""5501""
","
","","null","","null","","fixation","2021-06-23 16:34:55.664","","","","","",""
"card-selection-trial","40","234485","0.0-17.0-1.2","733","true","img/card_backs/set1/purple.gif","img/card_backs/set1/green.gif","img/card_backs/set1/yellow.gif","img/card_backs/set1/red.gif","img/card_backs/set2/blue.gif","img/card_backs/set2/orange.gif","img/card_backs/set2/pink.gif","img/card_backs/set2/gray.gif","""event"",""trial"",""time""
""fullscreenenter"",""1"",""5501""
","
","
","""event"",""trial"",""time""
""fullscreenenter"",""1"",""5501""
","
","","1121.7999999523163","","","","practice","2021-06-23 16:34:58.795","img/practice_cards/backs/brown.gif","0","-100","0","",""
"casino-fixation","41","235005","0.0-17.0-0.3","733","true","img/card_backs/set1/purple.gif","img/card_backs/set1/green.gif","img/card_backs/set1/yellow.gif","img/card_backs/set1/red.gif","img/card_backs/set2/blue.gif","img/card_backs/set2/orange.gif","img/card_backs/set2/pink.gif","img/card_backs/set2/gray.gif","""event"",""trial"",""time""
""fullscreenenter"",""1"",""5501""
","
","
","""event"",""trial"",""time""
""fullscreenenter"",""1"",""5501""
","
","","null","","null","","fixation","2021-06-23 16:34:59.315","","","","","",""
"card-selection-trial","42","238515","0.0-17.0-1.3","733","true","img/card_backs/set1/purple.gif","img/card_backs/set1/green.gif","img/card_backs/set1/yellow.gif","img/card_backs/set1/red.gif","img/card_backs/set2/blue.gif","img/card_backs/set2/orange.gif","img/card_backs/set2/pink.gif","img/card_backs/set2/gray.gif","""event"",""trial"",""time""
""fullscreenenter"",""1"",""5501""
","
","
","""event"",""trial"",""time""
""fullscreenenter"",""1"",""5501""
","
","","1482.9000000357628","","","","practice","2021-06-23 16:35:02.825","img/practice_cards/backs/dark_blue.gif","3","200","0","",""
"casino-fixation","43","239033","0.0-17.0-0.4","733","true","img/card_backs/set1/purple.gif","img/card_backs/set1/green.gif","img/card_backs/set1/yellow.gif","img/card_backs/set1/red.gif","img/card_backs/set2/blue.gif","img/card_backs/set2/orange.gif","img/card_backs/set2/pink.gif","img/card_backs/set2/gray.gif","""event"",""trial"",""time""
""fullscreenenter"",""1"",""5501""
","
","
","""event"",""trial"",""time""
""fullscreenenter"",""1"",""5501""
","
","","null","","null","","fixation","2021-06-23 16:35:03.342","","","","","",""
"card-selection-trial","44","241815","0.0-17.0-1.4","733","true","img/card_backs/set1/purple.gif","img/card_backs/set1/green.gif","img/card_backs/set1/yellow.gif","img/card_backs/set1/red.gif","img/card_backs/set2/blue.gif","img/card_backs/set2/orange.gif","img/card_backs/set2/pink.gif","img/card_backs/set2/gray.gif","""event"",""trial"",""time""
""fullscreenenter"",""1"",""5501""
","
","
","""event"",""trial"",""time""
""fullscreenenter"",""1"",""5501""
","
","","763.3999999761581","","","","practice","2021-06-23 16:35:06.124","img/practice_cards/backs/brown.gif","3","100","0","",""
"casino-fixation","45","242334","0.0-17.0-0.5","733","true","img/card_backs/set1/purple.gif","img/card_backs/set1/green.gif","img/card_backs/set1/yellow.gif","img/card_backs/set1/red.gif","img/card_backs/set2/blue.gif","img/card_backs/set2/orange.gif","img/card_backs/set2/pink.gif","img/card_backs/set2/gray.gif","""event"",""trial"",""time""
""fullscreenenter"",""1"",""5501""
","
","
","""event"",""trial"",""time""
""fullscreenenter"",""1"",""5501""
","
","","null","","null","","fixation","2021-06-23 16:35:06.644","","","","","",""
"card-selection-trial","46","245565","0.0-17.0-1.5","733","true","img/card_backs/set1/purple.gif","img/card_backs/set1/green.gif","img/card_backs/set1/yellow.gif","img/card_backs/set1/red.gif","img/card_backs/set2/blue.gif","img/card_backs/set2/orange.gif","img/card_backs/set2/pink.gif","img/card_backs/set2/gray.gif","""event"",""trial"",""time""
""fullscreenenter"",""1"",""5501""
","
","
","""event"",""trial"",""time""
""fullscreenenter"",""1"",""5501""
","
","","1211.2999999523163","","","","practice","2021-06-23 16:35:09.874","img/practice_cards/backs/black.gif","2","100","0","",""
"casino-fixation","47","246075","0.0-17.0-0.6","733","true","img/card_backs/set1/purple.gif","img/card_backs/set1/green.gif","img/card_backs/set1/yellow.gif","img/card_backs/set1/red.gif","img/card_backs/set2/blue.gif","img/card_backs/set2/orange.gif","img/card_backs/set2/pink.gif","img/card_backs/set2/gray.gif","""event"",""trial"",""time""
""fullscreenenter"",""1"",""5501""
","
","
","""event"",""trial"",""time""
""fullscreenenter"",""1"",""5501""
","
","","null","","null","","fixation","2021-06-23 16:35:10.384","","","","","",""
"card-selection-trial","48","249057","0.0-17.0-1.6","733","true","img/card_backs/set1/purple.gif","img/card_backs/set1/green.gif","img/card_backs/set1/yellow.gif","img/card_backs/set1/red.gif","img/card_backs/set2/blue.gif","img/card_backs/set2/orange.gif","img/card_backs/set2/pink.gif","img/card_backs/set2/gray.gif","""event"",""trial"",""time""
""fullscreenenter"",""1"",""5501""
","
","
","""event"",""trial"",""time""
""fullscreenenter"",""1"",""5501""
","
","","960.1000000238419","","","","practice","2021-06-23 16:35:13.366","img/practice_cards/backs/black.gif","3","100","0","",""
"casino-fixation","49","249575","0.0-17.0-0.7","733","true","img/card_backs/set1/purple.gif","img/card_backs/set1/green.gif","img/card_backs/set1/yellow.gif","img/card_backs/set1/red.gif","img/card_backs/set2/blue.gif","img/card_backs/set2/orange.gif","img/card_backs/set2/pink.gif","img/card_backs/set2/gray.gif","""event"",""trial"",""time""
""fullscreenenter"",""1"",""5501""
","
","
","""event"",""trial"",""time""
""fullscreenenter"",""1"",""5501""
","
","","null","","null","","fixation","2021-06-23 16:35:13.884","","","","","",""
"card-selection-trial","50","253382","0.0-17.0-1.7","733","true","img/card_backs/set1/purple.gif","img/card_backs/set1/green.gif","img/card_backs/set1/yellow.gif","img/card_backs/set1/red.gif","img/card_backs/set2/blue.gif","img/card_backs/set2/orange.gif","img/card_backs/set2/pink.gif","img/card_backs/set2/gray.gif","""event"",""trial"",""time""
""fullscreenenter"",""1"",""5501""
","
","
","""event"",""trial"",""time""
""fullscreenenter"",""1"",""5501""
","
","","1797","","","","practice","2021-06-23 16:35:17.691","img/practice_cards/backs/brown.gif","2","-100","0","",""
"casino-fixation","51","253885","0.0-17.0-0.8","733","true","img/card_backs/set1/purple.gif","img/card_backs/set1/green.gif","img/card_backs/set1/yellow.gif","img/card_backs/set1/red.gif","img/card_backs/set2/blue.gif","img/card_backs/set2/orange.gif","img/card_backs/set2/pink.gif","img/card_backs/set2/gray.gif","""event"",""trial"",""time""
""fullscreenenter"",""1"",""5501""
","
","
","""event"",""trial"",""time""
""fullscreenenter"",""1"",""5501""
","
","","null","","null","","fixation","2021-06-23 16:35:18.195","","","","","",""
"card-selection-trial","52","256352","0.0-17.0-1.8","733","true","img/card_backs/set1/purple.gif","img/card_backs/set1/green.gif","img/card_backs/set1/yellow.gif","img/card_backs/set1/red.gif","img/card_backs/set2/blue.gif","img/card_backs/set2/orange.gif","img/card_backs/set2/pink.gif","img/card_backs/set2/gray.gif","""event"",""trial"",""time""
""fullscreenenter"",""1"",""5501""
","
","
","""event"",""trial"",""time""
""fullscreenenter"",""1"",""5501""
","
","","457.60000002384186","","","","practice","2021-06-23 16:35:20.661","img/practice_cards/backs/dark_green.gif","3","-200","0","",""
"casino-fixation","53","256854","0.0-17.0-0.9","733","true","img/card_backs/set1/purple.gif","img/card_backs/set1/green.gif","img/card_backs/set1/yellow.gif","img/card_backs/set1/red.gif","img/card_backs/set2/blue.gif","img/card_backs/set2/orange.gif","img/card_backs/set2/pink.gif","img/card_backs/set2/gray.gif","""event"",""trial"",""time""
""fullscreenenter"",""1"",""5501""
","
","
","""event"",""trial"",""time""
""fullscreenenter"",""1"",""5501""
","
","","null","","null","","fixation","2021-06-23 16:35:21.163","","","","","",""
"card-selection-trial","54","259578","0.0-17.0-1.9","733","true","img/card_backs/set1/purple.gif","img/card_backs/set1/green.gif","img/card_backs/set1/yellow.gif","img/card_backs/set1/red.gif","img/card_backs/set2/blue.gif","img/card_backs/set2/orange.gif","img/card_backs/set2/pink.gif","img/card_backs/set2/gray.gif","""event"",""trial"",""time""
""fullscreenenter"",""1"",""5501""
","
","
","""event"",""trial"",""time""
""fullscreenenter"",""1"",""5501""
","
","","717.1999999880791","","","","practice","2021-06-23 16:35:23.887","img/practice_cards/backs/black.gif","3","-100","0","",""
"casino-keyboard-response","55","263336","0.0-18.0","733","true","img/card_backs/set1/purple.gif","img/card_backs/set1/green.gif","img/card_backs/set1/yellow.gif","img/card_backs/set1/red.gif","img/card_backs/set2/blue.gif","img/card_backs/set2/orange.gif","img/card_backs/set2/pink.gif","img/card_backs/set2/gray.gif","""event"",""trial"",""time""
""fullscreenenter"",""1"",""5501""
","
","
","""event"",""trial"",""time""
""fullscreenenter"",""1"",""5501""
","
","","3755.7000000476837","You earned 0 tokens during the practice round!","82","","","2021-06-23 16:35:27.646","","","","","",""
"casino-keyboard-response","56","268058","0.0-19.0-0.0","733","true","img/card_backs/set1/purple.gif","img/card_backs/set1/green.gif","img/card_backs/set1/yellow.gif","img/card_backs/set1/red.gif","img/card_backs/set2/blue.gif","img/card_backs/set2/orange.gif","img/card_backs/set2/pink.gif","img/card_backs/set2/gray.gif","""event"",""trial"",""time""
""fullscreenenter"",""1"",""5501""
","
","
","""event"",""trial"",""time""
""fullscreenenter"",""1"",""5501""
","
","","4717.900000035763","Nice job! You are almost ready to play the real game.","86","","instructions","2021-06-23 16:35:32.367","","","","","",""
"casino-keyboard-response","57","274566","0.0-19.0-0.1","733","true","img/card_backs/set1/purple.gif","img/card_backs/set1/green.gif","img/card_backs/set1/yellow.gif","img/card_backs/set1/red.gif","img/card_backs/set2/blue.gif","img/card_backs/set2/orange.gif","img/card_backs/set2/pink.gif","img/card_backs/set2/gray.gif","""event"",""trial"",""time""
""fullscreenenter"",""1"",""5501""
","
","
","""event"",""trial"",""time""
""fullscreenenter"",""1"",""5501""
","
","","6504.699999988079","You will play two rounds of the real game. In each round, you will pick 100 cards in total.","73","","instructions","2021-06-23 16:35:38.875","","","","","",""
"casino-keyboard-response","58","278867","0.0-19.0-0.2","733","true","img/card_backs/set1/purple.gif","img/card_backs/set1/green.gif","img/card_backs/set1/yellow.gif","img/card_backs/set1/red.gif","img/card_backs/set2/blue.gif","img/card_backs/set2/orange.gif","img/card_backs/set2/pink.gif","img/card_backs/set2/gray.gif","""event"",""trial"",""time""
""fullscreenenter"",""1"",""5501""
","
","
","""event"",""trial"",""time""
""fullscreenenter"",""1"",""5501""
","
","","4299","We are now going to ask you some questions about how the game works.","66","","instructions","2021-06-23 16:35:43.177","","","","","",""
"casino-keyboard-response","59","285406","0.0-19.0-0.3","733","true","img/card_backs/set1/purple.gif","img/card_backs/set1/green.gif","img/card_backs/set1/yellow.gif","img/card_backs/set1/red.gif","img/card_backs/set2/blue.gif","img/card_backs/set2/orange.gif","img/card_backs/set2/pink.gif","img/card_backs/set2/gray.gif","""event"",""trial"",""time""
""fullscreenenter"",""1"",""5501""
","
","
","""event"",""trial"",""time""
""fullscreenenter"",""1"",""5501""
","
","","6534.900000035763","Answer carefully. You will not be able to begin the game until you answer them correctly.","67","","instructions","2021-06-23 16:35:49.716","","","","","",""
"casino-comp_q","60","292470","0.0-20.0-0.0","733","true","img/card_backs/set1/purple.gif","img/card_backs/set1/green.gif","img/card_backs/set1/yellow.gif","img/card_backs/set1/red.gif","img/card_backs/set2/blue.gif","img/card_backs/set2/orange.gif","img/card_backs/set2/pink.gif","img/card_backs/set2/gray.gif","""event"",""trial"",""time""
""fullscreenenter"",""1"",""5501""
","
","
","""event"",""trial"",""time""
""fullscreenenter"",""1"",""5501""
","
","","7053.199999988079","True or False: All the decks have some cards that cause you to win tokens and some cards that cause you to lose tokens.","84","","","2021-06-23 16:35:56.780","","","","","",""
"casino-keyboard-response","61","296475","0.0-20.0-1.0","733","true","img/card_backs/set1/purple.gif","img/card_backs/set1/green.gif","img/card_backs/set1/yellow.gif","img/card_backs/set1/red.gif","img/card_backs/set2/blue.gif","img/card_backs/set2/orange.gif","img/card_backs/set2/pink.gif","img/card_backs/set2/gray.gif","""event"",""trial"",""time""
""fullscreenenter"",""1"",""5501""
","
","
","""event"",""trial"",""time""
""fullscreenenter"",""1"",""5501""
","
","","4001.399999976158","True is correct! All the decks have a mix of winning and losing cards.","77","","","2021-06-23 16:36:00.785","","","","","true",""
"casino-comp_q","62","299648","0.0-21.0-0.0","733","true","img/card_backs/set1/purple.gif","img/card_backs/set1/green.gif","img/card_backs/set1/yellow.gif","img/card_backs/set1/red.gif","img/card_backs/set2/blue.gif","img/card_backs/set2/orange.gif","img/card_backs/set2/pink.gif","img/card_backs/set2/gray.gif","""event"",""trial"",""time""
""fullscreenenter"",""1"",""5501""
","
","
","""event"",""trial"",""time""
""fullscreenenter"",""1"",""5501""
","
","","3168.099999964237","True or False: You will have as much time as you want to make your response.","70","","","2021-06-23 16:36:03.957","","","","","",""
"casino-keyboard-response","63","303176","0.0-21.0-1.0","733","true","img/card_backs/set1/purple.gif","img/card_backs/set1/green.gif","img/card_backs/set1/yellow.gif","img/card_backs/set1/red.gif","img/card_backs/set2/blue.gif","img/card_backs/set2/orange.gif","img/card_backs/set2/pink.gif","img/card_backs/set2/gray.gif","""event"",""trial"",""time""
""fullscreenenter"",""1"",""5501""
","
","
","""event"",""trial"",""time""
""fullscreenenter"",""1"",""5501""
","
","","3519.600000023842","False is correct! You will only have 10 seconds to make each choice.","75","","","2021-06-23 16:36:07.485","","","","","true",""
"casino-comp_q","64","306901","0.0-22.0-0.0","733","true","img/card_backs/set1/purple.gif","img/card_backs/set1/green.gif","img/card_backs/set1/yellow.gif","img/card_backs/set1/red.gif","img/card_backs/set2/blue.gif","img/card_backs/set2/orange.gif","img/card_backs/set2/pink.gif","img/card_backs/set2/gray.gif","""event"",""trial"",""time""
""fullscreenenter"",""1"",""5501""
","
","
","""event"",""trial"",""time""
""fullscreenenter"",""1"",""5501""
","
","","3722.399999976158","True or False: The location of the deck determines how lucky it is.","70","","","2021-06-23 16:36:11.210","","","","","",""
"casino-keyboard-response","65","312055","0.0-22.0-1.0","733","true","img/card_backs/set1/purple.gif","img/card_backs/set1/green.gif","img/card_backs/set1/yellow.gif","img/card_backs/set1/red.gif","img/card_backs/set2/blue.gif","img/card_backs/set2/orange.gif","img/card_backs/set2/pink.gif","img/card_backs/set2/gray.gif","""event"",""trial"",""time""
""fullscreenenter"",""1"",""5501""
","
","
","""event"",""trial"",""time""
""fullscreenenter"",""1"",""5501""
","
","","5150.5","False is correct! The <i>color</i>  of the deck determines how lucky or unlucky it is.","68","","","2021-06-23 16:36:16.364","","","","","true",""
"casino-keyboard-response","66","316866","0.0-23.0-0.0","733","true","img/card_backs/set1/purple.gif","img/card_backs/set1/green.gif","img/card_backs/set1/yellow.gif","img/card_backs/set1/red.gif","img/card_backs/set2/blue.gif","img/card_backs/set2/orange.gif","img/card_backs/set2/pink.gif","img/card_backs/set2/gray.gif","""event"",""trial"",""time""
""fullscreenenter"",""1"",""5501""
","
","
","""event"",""trial"",""time""
""fullscreenenter"",""1"",""5501""
","
","","4807.400000035763","Great job! Now it's time to start the real game.","82","","instructions","2021-06-23 16:36:21.175","","","","","",""
"casino-keyboard-response","67","322185","0.0-23.0-0.1","733","true","img/card_backs/set1/purple.gif","img/card_backs/set1/green.gif","img/card_backs/set1/yellow.gif","img/card_backs/set1/red.gif","img/card_backs/set2/blue.gif","img/card_backs/set2/orange.gif","img/card_backs/set2/pink.gif","img/card_backs/set2/gray.gif","""event"",""trial"",""time""
""fullscreenenter"",""1"",""5501""
","
","
","""event"",""trial"",""time""
""fullscreenenter"",""1"",""5501""
","
","","5315.699999988079","Before we start, we're going to head into a new room of the casino.","86","","instructions","2021-06-23 16:36:26.494","","","","","",""
"casino-keyboard-response","68","328448","0.0-24.0-0.0","733","true","img/card_backs/set1/purple.gif","img/card_backs/set1/green.gif","img/card_backs/set1/yellow.gif","img/card_backs/set1/red.gif","img/card_backs/set2/blue.gif","img/card_backs/set2/orange.gif","img/card_backs/set2/pink.gif","img/card_backs/set2/gray.gif","""event"",""trial"",""time""
""fullscreenenter"",""1"",""5501""
","
","
","""event"",""trial"",""time""
""fullscreenenter"",""1"",""5501""
","
","","6260","Here we are! The real game will use different cards, but the rules will be the same.","71","","instructions","2021-06-23 16:36:32.757","","","","","",""
"casino-keyboard-response","69","337461","0.0-24.0-0.1","733","true","img/card_backs/set1/purple.gif","img/card_backs/set1/green.gif","img/card_backs/set1/yellow.gif","img/card_backs/set1/red.gif","img/card_backs/set2/blue.gif","img/card_backs/set2/orange.gif","img/card_backs/set2/pink.gif","img/card_backs/set2/gray.gif","""event"",""trial"",""time""
""fullscreenenter"",""1"",""5501""
","
","
","""event"",""trial"",""time""
""fullscreenenter"",""1"",""5501""
","
","","9009.599999964237","Ready? Put your fingers over the '2', '4', 6', and '8' keys so you are ready to play the game. </br> Then press 2 to start.","50","","instructions","2021-06-23 16:36:41.770","","","","","",""
"casino-fixation","70","337967","0.0-25.0-0.0","733","true","img/card_backs/set1/purple.gif","img/card_backs/set1/green.gif","img/card_backs/set1/yellow.gif","img/card_backs/set1/red.gif","img/card_backs/set2/blue.gif","img/card_backs/set2/orange.gif","img/card_backs/set2/pink.gif","img/card_backs/set2/gray.gif","""event"",""trial"",""time""
""fullscreenenter"",""1"",""5501""
","
","
","""event"",""trial"",""time""
""fullscreenenter"",""1"",""5501""
","
","","null","","null","","fixation","2021-06-23 16:36:42.276","","","","","",""
"card-selection-trial","71","341799","0.0-25.0-1.0","733","true","img/card_backs/set1/purple.gif","img/card_backs/set1/green.gif","img/card_backs/set1/yellow.gif","img/card_backs/set1/red.gif","img/card_backs/set2/blue.gif","img/card_backs/set2/orange.gif","img/card_backs/set2/pink.gif","img/card_backs/set2/gray.gif","""event"",""trial"",""time""
""fullscreenenter"",""1"",""5501""
","
","
","""event"",""trial"",""time""
""fullscreenenter"",""1"",""5501""
","
","","1808.3999999761581","","","","real_trial","2021-06-23 16:36:46.108","img/card_backs/set1/green.gif","3","-200","1","",""
"casino-fixation","72","342307","0.0-25.0-0.1","733","true","img/card_backs/set1/purple.gif","img/card_backs/set1/green.gif","img/card_backs/set1/yellow.gif","img/card_backs/set1/red.gif","img/card_backs/set2/blue.gif","img/card_backs/set2/orange.gif","img/card_backs/set2/pink.gif","img/card_backs/set2/gray.gif","""event"",""trial"",""time""
""fullscreenenter"",""1"",""5501""
","
","
","""event"",""trial"",""time""
""fullscreenenter"",""1"",""5501""
","
","","null","","null","","fixation","2021-06-23 16:36:46.617","","","","","",""
"card-selection-trial","73","345799","0.0-25.0-1.1","733","true","img/card_backs/set1/purple.gif","img/card_backs/set1/green.gif","img/card_backs/set1/yellow.gif","img/card_backs/set1/red.gif","img/card_backs/set2/blue.gif","img/card_backs/set2/orange.gif","img/card_backs/set2/pink.gif","img/card_backs/set2/gray.gif","""event"",""trial"",""time""
""fullscreenenter"",""1"",""5501""
","
","
","""event"",""trial"",""time""
""fullscreenenter"",""1"",""5501""
","
","","1464.300000011921","","","","real_trial","2021-06-23 16:36:50.108","img/card_backs/set1/green.gif","2","260","1","",""
"casino-fixation","74","346318","0.0-25.0-0.2","733","true","img/card_backs/set1/purple.gif","img/card_backs/set1/green.gif","img/card_backs/set1/yellow.gif","img/card_backs/set1/red.gif","img/card_backs/set2/blue.gif","img/card_backs/set2/orange.gif","img/card_backs/set2/pink.gif","img/card_backs/set2/gray.gif","""event"",""trial"",""time""
""fullscreenenter"",""1"",""5501""
","
","
","""event"",""trial"",""time""
""fullscreenenter"",""1"",""5501""
","
","","null","","null","","fixation","2021-06-23 16:36:50.628","","","","","",""
"card-selection-trial","75","350819","0.0-25.0-1.2","733","true","img/card_backs/set1/purple.gif","img/card_backs/set1/green.gif","img/card_backs/set1/yellow.gif","img/card_backs/set1/red.gif","img/card_backs/set2/blue.gif","img/card_backs/set2/orange.gif","img/card_backs/set2/pink.gif","img/card_backs/set2/gray.gif","""event"",""trial"",""time""
""fullscreenenter"",""1"",""5501""
","
","
","""event"",""trial"",""time""
""fullscreenenter"",""1"",""5501""
","
","","2482.199999988079","","","","real_trial","2021-06-23 16:36:55.128","img/card_backs/set1/green.gif","1","-190","1","",""
"casino-fixation","76","351328","0.0-25.0-0.3","733","true","img/card_backs/set1/purple.gif","img/card_backs/set1/green.gif","img/card_backs/set1/yellow.gif","img/card_backs/set1/red.gif","img/card_backs/set2/blue.gif","img/card_backs/set2/orange.gif","img/card_backs/set2/pink.gif","img/card_backs/set2/gray.gif","""event"",""trial"",""time""
""fullscreenenter"",""1"",""5501""
","
","
","""event"",""trial"",""time""
""fullscreenenter"",""1"",""5501""
","
","","null","","null","","fixation","2021-06-23 16:36:55.637","","","","","",""
"card-selection-trial","77","354590","0.0-25.0-1.3","733","true","img/card_backs/set1/purple.gif","img/card_backs/set1/green.gif","img/card_backs/set1/yellow.gif","img/card_backs/set1/red.gif","img/card_backs/set2/blue.gif","img/card_backs/set2/orange.gif","img/card_backs/set2/pink.gif","img/card_backs/set2/gray.gif","""event"",""trial"",""time""
""fullscreenenter"",""1"",""5501""
","
","
","""event"",""trial"",""time""
""fullscreenenter"",""1"",""5501""
","
","","1234.800000011921","","","","real_trial","2021-06-23 16:36:58.899","img/card_backs/set1/yellow.gif","0","60","1","",""
"casino-fixation","78","355098","0.0-25.0-0.4","733","true","img/card_backs/set1/purple.gif","img/card_backs/set1/green.gif","img/card_backs/set1/yellow.gif","img/card_backs/set1/red.gif","img/card_backs/set2/blue.gif","img/card_backs/set2/orange.gif","img/card_backs/set2/pink.gif","img/card_backs/set2/gray.gif","""event"",""trial"",""time""
""fullscreenenter"",""1"",""5501""
","
","
","""event"",""trial"",""time""
""fullscreenenter"",""1"",""5501""
","
","","null","","null","","fixation","2021-06-23 16:36:59.407","","","","","",""
"card-selection-trial","79","358768","0.0-25.0-1.4","733","true","img/card_backs/set1/purple.gif","img/card_backs/set1/green.gif","img/card_backs/set1/yellow.gif","img/card_backs/set1/red.gif","img/card_backs/set2/blue.gif","img/card_backs/set2/orange.gif","img/card_backs/set2/pink.gif","img/card_backs/set2/gray.gif","""event"",""trial"",""time""
""fullscreenenter"",""1"",""5501""
","
","
","""event"",""trial"",""time""
""fullscreenenter"",""1"",""5501""
","
","","1646.2000000476837","","","","real_trial","2021-06-23 16:37:03.078","img/card_backs/set1/yellow.gif","1","60","1","",""
"casino-fixation","80","359288","0.0-25.0-0.5","733","true","img/card_backs/set1/purple.gif","img/card_backs/set1/green.gif","img/card_backs/set1/yellow.gif","img/card_backs/set1/red.gif","img/card_backs/set2/blue.gif","img/card_backs/set2/orange.gif","img/card_backs/set2/pink.gif","img/card_backs/set2/gray.gif","""event"",""trial"",""time""
""fullscreenenter"",""1"",""5501""
","
","
","""event"",""trial"",""time""
""fullscreenenter"",""1"",""5501""
","
","","null","","null","","fixation","2021-06-23 16:37:03.597","","","","","",""
"card-selection-trial","81","363099","0.0-25.0-1.5","733","true","img/card_backs/set1/purple.gif","img/card_backs/set1/green.gif","img/card_backs/set1/yellow.gif","img/card_backs/set1/red.gif","img/card_backs/set2/blue.gif","img/card_backs/set2/orange.gif","img/card_backs/set2/pink.gif","img/card_backs/set2/gray.gif","""event"",""trial"",""time""
""fullscreenenter"",""1"",""5501""
","
","
","""event"",""trial"",""time""
""fullscreenenter"",""1"",""5501""
","
","","1791.5","","","","real_trial","2021-06-23 16:37:07.408","img/card_backs/set1/purple.gif","2","-210","1","",""
"casino-fixation","82","363617","0.0-25.0-0.6","733","true","img/card_backs/set1/purple.gif","img/card_backs/set1/green.gif","img/card_backs/set1/yellow.gif","img/card_backs/set1/red.gif","img/card_backs/set2/blue.gif","img/card_backs/set2/orange.gif","img/card_backs/set2/pink.gif","img/card_backs/set2/gray.gif","""event"",""trial"",""time""
""fullscreenenter"",""1"",""5501""
","
","
","""event"",""trial"",""time""
""fullscreenenter"",""1"",""5501""
","
","","null","","null","","fixation","2021-06-23 16:37:07.926","","","","","",""
"card-selection-trial","83","366788","0.0-25.0-1.6","733","true","img/card_backs/set1/purple.gif","img/card_backs/set1/green.gif","img/card_backs/set1/yellow.gif","img/card_backs/set1/red.gif","img/card_backs/set2/blue.gif","img/card_backs/set2/orange.gif","img/card_backs/set2/pink.gif","img/card_backs/set2/gray.gif","""event"",""trial"",""time""
""fullscreenenter"",""1"",""5501""
","
","
","""event"",""trial"",""time""
""fullscreenenter"",""1"",""5501""
","
","","1145.3999999761581","","","","real_trial","2021-06-23 16:37:11.097","img/card_backs/set1/purple.gif","1","-210","1","",""
"casino-fixation","84","367297","0.0-25.0-0.7","733","true","img/card_backs/set1/purple.gif","img/card_backs/set1/green.gif","img/card_backs/set1/yellow.gif","img/card_backs/set1/red.gif","img/card_backs/set2/blue.gif","img/card_backs/set2/orange.gif","img/card_backs/set2/pink.gif","img/card_backs/set2/gray.gif","""event"",""trial"",""time""
""fullscreenenter"",""1"",""5501""
","
","
","""event"",""trial"",""time""
""fullscreenenter"",""1"",""5501""
","
","","null","","null","","fixation","2021-06-23 16:37:11.607","","","","","",""
"card-selection-trial","85","370248","0.0-25.0-1.7","733","true","img/card_backs/set1/purple.gif","img/card_backs/set1/green.gif","img/card_backs/set1/yellow.gif","img/card_backs/set1/red.gif","img/card_backs/set2/blue.gif","img/card_backs/set2/orange.gif","img/card_backs/set2/pink.gif","img/card_backs/set2/gray.gif","""event"",""trial"",""time""
""fullscreenenter"",""1"",""5501""
","
","
","""event"",""trial"",""time""
""fullscreenenter"",""1"",""5501""
","
","","940.5","","","","real_trial","2021-06-23 16:37:14.557","img/card_backs/set1/red.gif","0","40","1","",""
"casino-fixation","86","370751","0.0-25.0-0.8","733","true","img/card_backs/set1/purple.gif","img/card_backs/set1/green.gif","img/card_backs/set1/yellow.gif","img/card_backs/set1/red.gif","img/card_backs/set2/blue.gif","img/card_backs/set2/orange.gif","img/card_backs/set2/pink.gif","img/card_backs/set2/gray.gif","""event"",""trial"",""time""
""fullscreenenter"",""1"",""5501""
","
","
","""event"",""trial"",""time""
""fullscreenenter"",""1"",""5501""
","
","","null","","null","","fixation","2021-06-23 16:37:15.060","","","","","",""
"card-selection-trial","87","374376","0.0-25.0-1.8","733","true","img/card_backs/set1/purple.gif","img/card_backs/set1/green.gif","img/card_backs/set1/yellow.gif","img/card_backs/set1/red.gif","img/card_backs/set2/blue.gif","img/card_backs/set2/orange.gif","img/card_backs/set2/pink.gif","img/card_backs/set2/gray.gif","""event"",""trial"",""time""
""fullscreenenter"",""1"",""5501""
","
","
","""event"",""trial"",""time""
""fullscreenenter"",""1"",""5501""
","
","","1616","","","","real_trial","2021-06-23 16:37:18.685","img/card_backs/set1/red.gif","0","-100","1","",""
"casino-fixation","88","374880","0.0-25.0-0.9","733","true","img/card_backs/set1/purple.gif","img/card_backs/set1/green.gif","img/card_backs/set1/yellow.gif","img/card_backs/set1/red.gif","img/card_backs/set2/blue.gif","img/card_backs/set2/orange.gif","img/card_backs/set2/pink.gif","img/card_backs/set2/gray.gif","""event"",""trial"",""time""
""fullscreenenter"",""1"",""5501""
","
","
","""event"",""trial"",""time""
""fullscreenenter"",""1"",""5501""
","
","","null","","null","","fixation","2021-06-23 16:37:19.189","","","","","",""
"card-selection-trial","89","379461","0.0-25.0-1.9","733","true","img/card_backs/set1/purple.gif","img/card_backs/set1/green.gif","img/card_backs/set1/yellow.gif","img/card_backs/set1/red.gif","img/card_backs/set2/blue.gif","img/card_backs/set2/orange.gif","img/card_backs/set2/pink.gif","img/card_backs/set2/gray.gif","""event"",""trial"",""time""
""fullscreenenter"",""1"",""5501""
","
","
","""event"",""trial"",""time""
""fullscreenenter"",""1"",""5501""
","
","","2571.600000023842","","","","real_trial","2021-06-23 16:37:23.770","img/card_backs/set1/green.gif","0","-200","1","",""
"casino-fixation","90","379965","0.0-25.0-0.10","733","true","img/card_backs/set1/purple.gif","img/card_backs/set1/green.gif","img/card_backs/set1/yellow.gif","img/card_backs/set1/red.gif","img/card_backs/set2/blue.gif","img/card_backs/set2/orange.gif","img/card_backs/set2/pink.gif","img/card_backs/set2/gray.gif","""event"",""trial"",""time""
""fullscreenenter"",""1"",""5501""
","
","
","""event"",""trial"",""time""
""fullscreenenter"",""1"",""5501""
","
","","null","","null","","fixation","2021-06-23 16:37:24.274","","","","","",""
"card-selection-trial","91","383060","0.0-25.0-1.10","733","true","img/card_backs/set1/purple.gif","img/card_backs/set1/green.gif","img/card_backs/set1/yellow.gif","img/card_backs/set1/red.gif","img/card_backs/set2/blue.gif","img/card_backs/set2/orange.gif","img/card_backs/set2/pink.gif","img/card_backs/set2/gray.gif","""event"",""trial"",""time""
""fullscreenenter"",""1"",""5501""
","
","
","""event"",""trial"",""time""
""fullscreenenter"",""1"",""5501""
","
","","1086.3999999761581","","","","real_trial","2021-06-23 16:37:27.369","img/card_backs/set1/green.gif","3","-210","1","",""
"casino-fixation","92","383562","0.0-25.0-0.11","733","true","img/card_backs/set1/purple.gif","img/card_backs/set1/green.gif","img/card_backs/set1/yellow.gif","img/card_backs/set1/red.gif","img/card_backs/set2/blue.gif","img/card_backs/set2/orange.gif","img/card_backs/set2/pink.gif","img/card_backs/set2/gray.gif","""event"",""trial"",""time""
""fullscreenenter"",""1"",""5501""
","
","
","""event"",""trial"",""time""
""fullscreenenter"",""1"",""5501""
","
","","null","","null","","fixation","2021-06-23 16:37:27.871","","","","","",""
"card-selection-trial","93","386652","0.0-25.0-1.11","733","true","img/card_backs/set1/purple.gif","img/card_backs/set1/green.gif","img/card_backs/set1/yellow.gif","img/card_backs/set1/red.gif","img/card_backs/set2/blue.gif","img/card_backs/set2/orange.gif","img/card_backs/set2/pink.gif","img/card_backs/set2/gray.gif","""event"",""trial"",""time""
""fullscreenenter"",""1"",""5501""
","
","
","""event"",""trial"",""time""
""fullscreenenter"",""1"",""5501""
","
","","1073.3999999761581","","","","real_trial","2021-06-23 16:37:30.961","img/card_backs/set1/purple.gif","2","-200","1","",""
"casino-fixation","94","387155","0.0-25.0-0.12","733","true","img/card_backs/set1/purple.gif","img/card_backs/set1/green.gif","img/card_backs/set1/yellow.gif","img/card_backs/set1/red.gif","img/card_backs/set2/blue.gif","img/card_backs/set2/orange.gif","img/card_backs/set2/pink.gif","img/card_backs/set2/gray.gif","""event"",""trial"",""time""
""fullscreenenter"",""1"",""5501""
","
","
","""event"",""trial"",""time""
""fullscreenenter"",""1"",""5501""
","
","","null","","null","","fixation","2021-06-23 16:37:31.464","","","","","",""
"card-selection-trial","95","389992","0.0-25.0-1.12","733","true","img/card_backs/set1/purple.gif","img/card_backs/set1/green.gif","img/card_backs/set1/yellow.gif","img/card_backs/set1/red.gif","img/card_backs/set2/blue.gif","img/card_backs/set2/orange.gif","img/card_backs/set2/pink.gif","img/card_backs/set2/gray.gif","""event"",""trial"",""time""
""fullscreenenter"",""1"",""5501""
","
","
","""event"",""trial"",""time""
""fullscreenenter"",""1"",""5501""
","
","","827.2000000476837","","","","real_trial","2021-06-23 16:37:34.301","img/card_backs/set1/purple.gif","1","240","1","",""
"casino-fixation","96","390495","0.0-25.0-0.13","733","true","img/card_backs/set1/purple.gif","img/card_backs/set1/green.gif","img/card_backs/set1/yellow.gif","img/card_backs/set1/red.gif","img/card_backs/set2/blue.gif","img/card_backs/set2/orange.gif","img/card_backs/set2/pink.gif","img/card_backs/set2/gray.gif","""event"",""trial"",""time""
""fullscreenenter"",""1"",""5501""
","
","
","""event"",""trial"",""time""
""fullscreenenter"",""1"",""5501""
","
","","null","","null","","fixation","2021-06-23 16:37:34.804","","","","","",""
"card-selection-trial","97","393800","0.0-25.0-1.13","733","true","img/card_backs/set1/purple.gif","img/card_backs/set1/green.gif","img/card_backs/set1/yellow.gif","img/card_backs/set1/red.gif","img/card_backs/set2/blue.gif","img/card_backs/set2/orange.gif","img/card_backs/set2/pink.gif","img/card_backs/set2/gray.gif","""event"",""trial"",""time""
""fullscreenenter"",""1"",""5501""
","
","
","""event"",""trial"",""time""
""fullscreenenter"",""1"",""5501""
","
","","1295.300000011921","","","","real_trial","2021-06-23 16:37:38.109","img/card_backs/set1/purple.gif","1","250","1","",""
"casino-fixation","98","394318","0.0-25.0-0.14","733","true","img/card_backs/set1/purple.gif","img/card_backs/set1/green.gif","img/card_backs/set1/yellow.gif","img/card_backs/set1/red.gif","img/card_backs/set2/blue.gif","img/card_backs/set2/orange.gif","img/card_backs/set2/pink.gif","img/card_backs/set2/gray.gif","""event"",""trial"",""time""
""fullscreenenter"",""1"",""5501""
","
","
","""event"",""trial"",""time""
""fullscreenenter"",""1"",""5501""
","
","","null","","null","","fixation","2021-06-23 16:37:38.628","","","","","",""
"card-selection-trial","99","397287","0.0-25.0-1.14","733","true","img/card_backs/set1/purple.gif","img/card_backs/set1/green.gif","img/card_backs/set1/yellow.gif","img/card_backs/set1/red.gif","img/card_backs/set2/blue.gif","img/card_backs/set2/orange.gif","img/card_backs/set2/pink.gif","img/card_backs/set2/gray.gif","""event"",""trial"",""time""
""fullscreenenter"",""1"",""5501""
","
","
","""event"",""trial"",""time""
""fullscreenenter"",""1"",""5501""
","
","","959.9000000357628","","","","real_trial","2021-06-23 16:37:41.596","img/card_backs/set1/purple.gif","0","-190","1","",""
"casino-fixation","100","397790","0.0-25.0-0.15","733","true","img/card_backs/set1/purple.gif","img/card_backs/set1/green.gif","img/card_backs/set1/yellow.gif","img/card_backs/set1/red.gif","img/card_backs/set2/blue.gif","img/card_backs/set2/orange.gif","img/card_backs/set2/pink.gif","img/card_backs/set2/gray.gif","""event"",""trial"",""time""
""fullscreenenter"",""1"",""5501""
","
","
","""event"",""trial"",""time""
""fullscreenenter"",""1"",""5501""
","
","","null","","null","","fixation","2021-06-23 16:37:42.099","","","","","",""
"card-selection-trial","101","400636","0.0-25.0-1.15","733","true","img/card_backs/set1/purple.gif","img/card_backs/set1/green.gif","img/card_backs/set1/yellow.gif","img/card_backs/set1/red.gif","img/card_backs/set2/blue.gif","img/card_backs/set2/orange.gif","img/card_backs/set2/pink.gif","img/card_backs/set2/gray.gif","""event"",""trial"",""time""
""fullscreenenter"",""1"",""5501""
","
","
","""event"",""trial"",""time""
""fullscreenenter"",""1"",""5501""
","
","","837.3000000119209","","","","real_trial","2021-06-23 16:37:44.945","img/card_backs/set1/purple.gif","1","240","1","",""
"casino-fixation","102","401138","0.0-25.0-0.16","733","true","img/card_backs/set1/purple.gif","img/card_backs/set1/green.gif","img/card_backs/set1/yellow.gif","img/card_backs/set1/red.gif","img/card_backs/set2/blue.gif","img/card_backs/set2/orange.gif","img/card_backs/set2/pink.gif","img/card_backs/set2/gray.gif","""event"",""trial"",""time""
""fullscreenenter"",""1"",""5501""
","
","
","""event"",""trial"",""time""
""fullscreenenter"",""1"",""5501""
","
","","null","","null","","fixation","2021-06-23 16:37:45.447","","","","","",""
"card-selection-trial","103","405266","0.0-25.0-1.16","733","true","img/card_backs/set1/purple.gif","img/card_backs/set1/green.gif","img/card_backs/set1/yellow.gif","img/card_backs/set1/red.gif","img/card_backs/set2/blue.gif","img/card_backs/set2/orange.gif","img/card_backs/set2/pink.gif","img/card_backs/set2/gray.gif","""event"",""trial"",""time""
""fullscreenenter"",""1"",""5501""
","
","
","""event"",""trial"",""time""
""fullscreenenter"",""1"",""5501""
","
","","2118.7000000476837","","","","real_trial","2021-06-23 16:37:49.575","img/card_backs/set1/purple.gif","0","-200","1","",""
"casino-fixation","104","405769","0.0-25.0-0.17","733","true","img/card_backs/set1/purple.gif","img/card_backs/set1/green.gif","img/card_backs/set1/yellow.gif","img/card_backs/set1/red.gif","img/card_backs/set2/blue.gif","img/card_backs/set2/orange.gif","img/card_backs/set2/pink.gif","img/card_backs/set2/gray.gif","""event"",""trial"",""time""
""fullscreenenter"",""1"",""5501""
","
","
","""event"",""trial"",""time""
""fullscreenenter"",""1"",""5501""
","
","","null","","null","","fixation","2021-06-23 16:37:50.079","","","","","",""
"card-selection-trial","105","408466","0.0-25.0-1.17","733","true","img/card_backs/set1/purple.gif","img/card_backs/set1/green.gif","img/card_backs/set1/yellow.gif","img/card_backs/set1/red.gif","img/card_backs/set2/blue.gif","img/card_backs/set2/orange.gif","img/card_backs/set2/pink.gif","img/card_backs/set2/gray.gif","""event"",""trial"",""time""
""fullscreenenter"",""1"",""5501""
","
","
","""event"",""trial"",""time""
""fullscreenenter"",""1"",""5501""
","
","","687.1999999880791","","","","real_trial","2021-06-23 16:37:52.775","img/card_backs/set1/purple.gif","0","260","1","",""
"casino-fixation","106","408968","0.0-25.0-0.18","733","true","img/card_backs/set1/purple.gif","img/card_backs/set1/green.gif","img/card_backs/set1/yellow.gif","img/card_backs/set1/red.gif","img/card_backs/set2/blue.gif","img/card_backs/set2/orange.gif","img/card_backs/set2/pink.gif","img/card_backs/set2/gray.gif","""event"",""trial"",""time""
""fullscreenenter"",""1"",""5501""
","
","
","""event"",""trial"",""time""
""fullscreenenter"",""1"",""5501""
","
","","null","","null","","fixation","2021-06-23 16:37:53.277","","","","","",""
"card-selection-trial","107","411570","0.0-25.0-1.18","733","true","img/card_backs/set1/purple.gif","img/card_backs/set1/green.gif","img/card_backs/set1/yellow.gif","img/card_backs/set1/red.gif","img/card_backs/set2/blue.gif","img/card_backs/set2/orange.gif","img/card_backs/set2/pink.gif","img/card_backs/set2/gray.gif","""event"",""trial"",""time""
""fullscreenenter"",""1"",""5501""
","
","
","""event"",""trial"",""time""
""fullscreenenter"",""1"",""5501""
","
","","593.6999999880791","","","","real_trial","2021-06-23 16:37:55.879","img/card_backs/set1/purple.gif","0","-210","1","",""
"casino-fixation","108","412086","0.0-25.0-0.19","733","true","img/card_backs/set1/purple.gif","img/card_backs/set1/green.gif","img/card_backs/set1/yellow.gif","img/card_backs/set1/red.gif","img/card_backs/set2/blue.gif","img/card_backs/set2/orange.gif","img/card_backs/set2/pink.gif","img/card_backs/set2/gray.gif","""event"",""trial"",""time""
""fullscreenenter"",""1"",""5501""
","
","
","""event"",""trial"",""time""
""fullscreenenter"",""1"",""5501""
","
","","null","","null","","fixation","2021-06-23 16:37:56.395","","","","","",""
"card-selection-trial","109","414622","0.0-25.0-1.19","733","true","img/card_backs/set1/purple.gif","img/card_backs/set1/green.gif","img/card_backs/set1/yellow.gif","img/card_backs/set1/red.gif","img/card_backs/set2/blue.gif","img/card_backs/set2/orange.gif","img/card_backs/set2/pink.gif","img/card_backs/set2/gray.gif","""event"",""trial"",""time""
""fullscreenenter"",""1"",""5501""
","
","
","""event"",""trial"",""time""
""fullscreenenter"",""1"",""5501""
","
","","523.8999999761581","","","","real_trial","2021-06-23 16:37:58.931","img/card_backs/set1/purple.gif","0","-200","1","",""
"casino-fixation","110","415124","0.0-25.0-0.20","733","true","img/card_backs/set1/purple.gif","img/card_backs/set1/green.gif","img/card_backs/set1/yellow.gif","img/card_backs/set1/red.gif","img/card_backs/set2/blue.gif","img/card_backs/set2/orange.gif","img/card_backs/set2/pink.gif","img/card_backs/set2/gray.gif","""event"",""trial"",""time""
""fullscreenenter"",""1"",""5501""
","
","
","""event"",""trial"",""time""
""fullscreenenter"",""1"",""5501""
","
","","null","","null","","fixation","2021-06-23 16:37:59.434","","","","","",""
"card-selection-trial","111","418405","0.0-25.0-1.20","733","true","img/card_backs/set1/purple.gif","img/card_backs/set1/green.gif","img/card_backs/set1/yellow.gif","img/card_backs/set1/red.gif","img/card_backs/set2/blue.gif","img/card_backs/set2/orange.gif","img/card_backs/set2/pink.gif","img/card_backs/set2/gray.gif","""event"",""trial"",""time""
""fullscreenenter"",""1"",""5501""
","
","
","""event"",""trial"",""time""
""fullscreenenter"",""1"",""5501""
","
","","1272.6000000238419","","","","real_trial","2021-06-23 16:38:02.715","img/card_backs/set1/purple.gif","2","260","1","",""
"casino-fixation","112","418908","0.0-25.0-0.21","733","true","img/card_backs/set1/purple.gif","img/card_backs/set1/green.gif","img/card_backs/set1/yellow.gif","img/card_backs/set1/red.gif","img/card_backs/set2/blue.gif","img/card_backs/set2/orange.gif","img/card_backs/set2/pink.gif","img/card_backs/set2/gray.gif","""event"",""trial"",""time""
""fullscreenenter"",""1"",""5501""
","
","
","""event"",""trial"",""time""
""fullscreenenter"",""1"",""5501""
","
","","null","","null","","fixation","2021-06-23 16:38:03.218","","","","","",""
"card-selection-trial","113","421905","0.0-25.0-1.21","733","true","img/card_backs/set1/purple.gif","img/card_backs/set1/green.gif","img/card_backs/set1/yellow.gif","img/card_backs/set1/red.gif","img/card_backs/set2/blue.gif","img/card_backs/set2/orange.gif","img/card_backs/set2/pink.gif","img/card_backs/set2/gray.gif","""event"",""trial"",""time""
""fullscreenenter"",""1"",""5501""
","
","
","""event"",""trial"",""time""
""fullscreenenter"",""1"",""5501""
","
","","979","","","","real_trial","2021-06-23 16:38:06.214","img/card_backs/set1/purple.gif","3","260","1","",""
"casino-fixation","114","422409","0.0-25.0-0.22","733","true","img/card_backs/set1/purple.gif","img/card_backs/set1/green.gif","img/card_backs/set1/yellow.gif","img/card_backs/set1/red.gif","img/card_backs/set2/blue.gif","img/card_backs/set2/orange.gif","img/card_backs/set2/pink.gif","img/card_backs/set2/gray.gif","""event"",""trial"",""time""
""fullscreenenter"",""1"",""5501""
","
","
","""event"",""trial"",""time""
""fullscreenenter"",""1"",""5501""
","
","","null","","null","","fixation","2021-06-23 16:38:06.718","","","","","",""
"card-selection-trial","115","425140","0.0-25.0-1.22","733","true","img/card_backs/set1/purple.gif","img/card_backs/set1/green.gif","img/card_backs/set1/yellow.gif","img/card_backs/set1/red.gif","img/card_backs/set2/blue.gif","img/card_backs/set2/orange.gif","img/card_backs/set2/pink.gif","img/card_backs/set2/gray.gif","""event"",""trial"",""time""
""fullscreenenter"",""1"",""5501""
","
","
","""event"",""trial"",""time""
""fullscreenenter"",""1"",""5501""
","
","","722.2999999523163","","","","real_trial","2021-06-23 16:38:09.449","img/card_backs/set1/purple.gif","0","250","1","",""
"casino-fixation","116","425642","0.0-25.0-0.23","733","true","img/card_backs/set1/purple.gif","img/card_backs/set1/green.gif","img/card_backs/set1/yellow.gif","img/card_backs/set1/red.gif","img/card_backs/set2/blue.gif","img/card_backs/set2/orange.gif","img/card_backs/set2/pink.gif","img/card_backs/set2/gray.gif","""event"",""trial"",""time""
""fullscreenenter"",""1"",""5501""
","
","
","""event"",""trial"",""time""
""fullscreenenter"",""1"",""5501""
","
","","null","","null","","fixation","2021-06-23 16:38:09.952","","","","","",""
"card-selection-trial","117","428575","0.0-25.0-1.23","733","true","img/card_backs/set1/purple.gif","img/card_backs/set1/green.gif","img/card_backs/set1/yellow.gif","img/card_backs/set1/red.gif","img/card_backs/set2/blue.gif","img/card_backs/set2/orange.gif","img/card_backs/set2/pink.gif","img/card_backs/set2/gray.gif","""event"",""trial"",""time""
""fullscreenenter"",""1"",""5501""
","
","
","""event"",""trial"",""time""
""fullscreenenter"",""1"",""5501""
","
","","923.3000000119209","","","","real_trial","2021-06-23 16:38:12.884","img/card_backs/set1/purple.gif","2","260","1","",""
"casino-fixation","118","429078","0.0-25.0-0.24","733","true","img/card_backs/set1/purple.gif","img/card_backs/set1/green.gif","img/card_backs/set1/yellow.gif","img/card_backs/set1/red.gif","img/card_backs/set2/blue.gif","img/card_backs/set2/orange.gif","img/card_backs/set2/pink.gif","img/card_backs/set2/gray.gif","""event"",""trial"",""time""
""fullscreenenter"",""1"",""5501""
","
","
","""event"",""trial"",""time""
""fullscreenenter"",""1"",""5501""
","
","","null","","null","","fixation","2021-06-23 16:38:13.387","","","","","",""
"card-selection-trial","119","432071","0.0-25.0-1.24","733","true","img/card_backs/set1/purple.gif","img/card_backs/set1/green.gif","img/card_backs/set1/yellow.gif","img/card_backs/set1/red.gif","img/card_backs/set2/blue.gif","img/card_backs/set2/orange.gif","img/card_backs/set2/pink.gif","img/card_backs/set2/gray.gif","""event"",""trial"",""time""
""fullscreenenter"",""1"",""5501""
","
","
","""event"",""trial"",""time""
""fullscreenenter"",""1"",""5501""
","
","","983.8000000119209","","","","real_trial","2021-06-23 16:38:16.380","img/card_backs/set1/purple.gif","1","-190","1","",""
"casino-fixation","120","432574","0.0-25.0-0.25","733","true","img/card_backs/set1/purple.gif","img/card_backs/set1/green.gif","img/card_backs/set1/yellow.gif","img/card_backs/set1/red.gif","img/card_backs/set2/blue.gif","img/card_backs/set2/orange.gif","img/card_backs/set2/pink.gif","img/card_backs/set2/gray.gif","""event"",""trial"",""time""
""fullscreenenter"",""1"",""5501""
","
","
","""event"",""trial"",""time""
""fullscreenenter"",""1"",""5501""
","
","","null","","null","","fixation","2021-06-23 16:38:16.883","","","","","",""
"card-selection-trial","121","435495","0.0-25.0-1.25","733","true","img/card_backs/set1/purple.gif","img/card_backs/set1/green.gif","img/card_backs/set1/yellow.gif","img/card_backs/set1/red.gif","img/card_backs/set2/blue.gif","img/card_backs/set2/orange.gif","img/card_backs/set2/pink.gif","img/card_backs/set2/gray.gif","""event"",""trial"",""time""
""fullscreenenter"",""1"",""5501""
","
","
","""event"",""trial"",""time""
""fullscreenenter"",""1"",""5501""
","
","","912.6999999880791","","","","real_trial","2021-06-23 16:38:19.805","img/card_backs/set1/purple.gif","1","-210","1","",""
"casino-fixation","122","435998","0.0-25.0-0.26","733","true","img/card_backs/set1/purple.gif","img/card_backs/set1/green.gif","img/card_backs/set1/yellow.gif","img/card_backs/set1/red.gif","img/card_backs/set2/blue.gif","img/card_backs/set2/orange.gif","img/card_backs/set2/pink.gif","img/card_backs/set2/gray.gif","""event"",""trial"",""time""
""fullscreenenter"",""1"",""5501""
","
","
","""event"",""trial"",""time""
""fullscreenenter"",""1"",""5501""
","
","","null","","null","","fixation","2021-06-23 16:38:20.307","","","","","",""
"card-selection-trial","123","438979","0.0-25.0-1.26","733","true","img/card_backs/set1/purple.gif","img/card_backs/set1/green.gif","img/card_backs/set1/yellow.gif","img/card_backs/set1/red.gif","img/card_backs/set2/blue.gif","img/card_backs/set2/orange.gif","img/card_backs/set2/pink.gif","img/card_backs/set2/gray.gif","""event"",""trial"",""time""
""fullscreenenter"",""1"",""5501""
","
","
","""event"",""trial"",""time""
""fullscreenenter"",""1"",""5501""
","
","","973.3000000119209","","","","real_trial","2021-06-23 16:38:23.288","img/card_backs/set1/purple.gif","2","-200","1","",""
"casino-fixation","124","439481","0.0-25.0-0.27","733","true","img/card_backs/set1/purple.gif","img/card_backs/set1/green.gif","img/card_backs/set1/yellow.gif","img/card_backs/set1/red.gif","img/card_backs/set2/blue.gif","img/card_backs/set2/orange.gif","img/card_backs/set2/pink.gif","img/card_backs/set2/gray.gif","""event"",""trial"",""time""
""fullscreenenter"",""1"",""5501""
","
","
","""event"",""trial"",""time""
""fullscreenenter"",""1"",""5501""
","
","","null","","null","","fixation","2021-06-23 16:38:23.790","","","","","",""
"card-selection-trial","125","442232","0.0-25.0-1.27","733","true","img/card_backs/set1/purple.gif","img/card_backs/set1/green.gif","img/card_backs/set1/yellow.gif","img/card_backs/set1/red.gif","img/card_backs/set2/blue.gif","img/card_backs/set2/orange.gif","img/card_backs/set2/pink.gif","img/card_backs/set2/gray.gif","""event"",""trial"",""time""
""fullscreenenter"",""1"",""5501""
","
","
","""event"",""trial"",""time""
""fullscreenenter"",""1"",""5501""
","
","","742.3999999761581","","","","real_trial","2021-06-23 16:38:26.541","img/card_backs/set1/purple.gif","3","-200","1","",""
"casino-fixation","126","442736","0.0-25.0-0.28","733","true","img/card_backs/set1/purple.gif","img/card_backs/set1/green.gif","img/card_backs/set1/yellow.gif","img/card_backs/set1/red.gif","img/card_backs/set2/blue.gif","img/card_backs/set2/orange.gif","img/card_backs/set2/pink.gif","img/card_backs/set2/gray.gif","""event"",""trial"",""time""
""fullscreenenter"",""1"",""5501""
","
","
","""event"",""trial"",""time""
""fullscreenenter"",""1"",""5501""
","
","","null","","null","","fixation","2021-06-23 16:38:27.046","","","","","",""
"card-selection-trial","127","445822","0.0-25.0-1.28","733","true","img/card_backs/set1/purple.gif","img/card_backs/set1/green.gif","img/card_backs/set1/yellow.gif","img/card_backs/set1/red.gif","img/card_backs/set2/blue.gif","img/card_backs/set2/orange.gif","img/card_backs/set2/pink.gif","img/card_backs/set2/gray.gif","""event"",""trial"",""time""
""fullscreenenter"",""1"",""5501""
","
","
","""event"",""trial"",""time""
""fullscreenenter"",""1"",""5501""
","
","","1076.6000000238419","","","","real_trial","2021-06-23 16:38:30.131","img/card_backs/set1/purple.gif","1","250","1","",""
"casino-fixation","128","446325","0.0-25.0-0.29","733","true","img/card_backs/set1/purple.gif","img/card_backs/set1/green.gif","img/card_backs/set1/yellow.gif","img/card_backs/set1/red.gif","img/card_backs/set2/blue.gif","img/card_backs/set2/orange.gif","img/card_backs/set2/pink.gif","img/card_backs/set2/gray.gif","""event"",""trial"",""time""
""fullscreenenter"",""1"",""5501""
","
","
","""event"",""trial"",""time""
""fullscreenenter"",""1"",""5501""
","
","","null","","null","","fixation","2021-06-23 16:38:30.634","","","","","",""
"card-selection-trial","129","449067","0.0-25.0-1.29","733","true","img/card_backs/set1/purple.gif","img/card_backs/set1/green.gif","img/card_backs/set1/yellow.gif","img/card_backs/set1/red.gif","img/card_backs/set2/blue.gif","img/card_backs/set2/orange.gif","img/card_backs/set2/pink.gif","img/card_backs/set2/gray.gif","""event"",""trial"",""time""
""fullscreenenter"",""1"",""5501""
","
","
","""event"",""trial"",""time""
""fullscreenenter"",""1"",""5501""
","
","","732","","","","real_trial","2021-06-23 16:38:33.376","img/card_backs/set1/purple.gif","0","240","1","",""
"casino-fixation","130","449570","0.0-25.0-0.30","733","true","img/card_backs/set1/purple.gif","img/card_backs/set1/green.gif","img/card_backs/set1/yellow.gif","img/card_backs/set1/red.gif","img/card_backs/set2/blue.gif","img/card_backs/set2/orange.gif","img/card_backs/set2/pink.gif","img/card_backs/set2/gray.gif","""event"",""trial"",""time""
""fullscreenenter"",""1"",""5501""
","
","
","""event"",""trial"",""time""
""fullscreenenter"",""1"",""5501""
","
","","null","","null","","fixation","2021-06-23 16:38:33.879","","","","","",""
"card-selection-trial","131","452359","0.0-25.0-1.30","733","true","img/card_backs/set1/purple.gif","img/card_backs/set1/green.gif","img/card_backs/set1/yellow.gif","img/card_backs/set1/red.gif","img/card_backs/set2/blue.gif","img/card_backs/set2/orange.gif","img/card_backs/set2/pink.gif","img/card_backs/set2/gray.gif","""event"",""trial"",""time""
""fullscreenenter"",""1"",""5501""
","
","
","""event"",""trial"",""time""
""fullscreenenter"",""1"",""5501""
","
","","767.9000000357628","","","","real_trial","2021-06-23 16:38:36.668","img/card_backs/set1/purple.gif","1","240","1","",""
"casino-fixation","132","452863","0.0-25.0-0.31","733","true","img/card_backs/set1/purple.gif","img/card_backs/set1/green.gif","img/card_backs/set1/yellow.gif","img/card_backs/set1/red.gif","img/card_backs/set2/blue.gif","img/card_backs/set2/orange.gif","img/card_backs/set2/pink.gif","img/card_backs/set2/gray.gif","""event"",""trial"",""time""
""fullscreenenter"",""1"",""5501""
","
","
","""event"",""trial"",""time""
""fullscreenenter"",""1"",""5501""
","
","","null","","null","","fixation","2021-06-23 16:38:37.172","","","","","",""
"card-selection-trial","133","455876","0.0-25.0-1.31","733","true","img/card_backs/set1/purple.gif","img/card_backs/set1/green.gif","img/card_backs/set1/yellow.gif","img/card_backs/set1/red.gif","img/card_backs/set2/blue.gif","img/card_backs/set2/orange.gif","img/card_backs/set2/pink.gif","img/card_backs/set2/gray.gif","""event"",""trial"",""time""
""fullscreenenter"",""1"",""5501""
","
","
","""event"",""trial"",""time""
""fullscreenenter"",""1"",""5501""
","
","","1005.1000000238419","","","","real_trial","2021-06-23 16:38:40.186","img/card_backs/set1/purple.gif","1","240","1","",""
"casino-fixation","134","456380","0.0-25.0-0.32","733","true","img/card_backs/set1/purple.gif","img/card_backs/set1/green.gif","img/card_backs/set1/yellow.gif","img/card_backs/set1/red.gif","img/card_backs/set2/blue.gif","img/card_backs/set2/orange.gif","img/card_backs/set2/pink.gif","img/card_backs/set2/gray.gif","""event"",""trial"",""time""
""fullscreenenter"",""1"",""5501""
","
","
","""event"",""trial"",""time""
""fullscreenenter"",""1"",""5501""
","
","","null","","null","","fixation","2021-06-23 16:38:40.689","","","","","",""
"card-selection-trial","135","459131","0.0-25.0-1.32","733","true","img/card_backs/set1/purple.gif","img/card_backs/set1/green.gif","img/card_backs/set1/yellow.gif","img/card_backs/set1/red.gif","img/card_backs/set2/blue.gif","img/card_backs/set2/orange.gif","img/card_backs/set2/pink.gif","img/card_backs/set2/gray.gif","""event"",""trial"",""time""
""fullscreenenter"",""1"",""5501""
","
","
","""event"",""trial"",""time""
""fullscreenenter"",""1"",""5501""
","
","","742.6000000238419","","","","real_trial","2021-06-23 16:38:43.441","img/card_backs/set1/purple.gif","3","-200","1","",""
"casino-fixation","136","459635","0.0-25.0-0.33","733","true","img/card_backs/set1/purple.gif","img/card_backs/set1/green.gif","img/card_backs/set1/yellow.gif","img/card_backs/set1/red.gif","img/card_backs/set2/blue.gif","img/card_backs/set2/orange.gif","img/card_backs/set2/pink.gif","img/card_backs/set2/gray.gif","""event"",""trial"",""time""
""fullscreenenter"",""1"",""5501""
","
","
","""event"",""trial"",""time""
""fullscreenenter"",""1"",""5501""
","
","","null","","null","","fixation","2021-06-23 16:38:43.944","","","","","",""
"card-selection-trial","137","462266","0.0-25.0-1.33","733","true","img/card_backs/set1/purple.gif","img/card_backs/set1/green.gif","img/card_backs/set1/yellow.gif","img/card_backs/set1/red.gif","img/card_backs/set2/blue.gif","img/card_backs/set2/orange.gif","img/card_backs/set2/pink.gif","img/card_backs/set2/gray.gif","""event"",""trial"",""time""
""fullscreenenter"",""1"",""5501""
","
","
","""event"",""trial"",""time""
""fullscreenenter"",""1"",""5501""
","
","","622.8000000119209","","","","real_trial","2021-06-23 16:38:46.575","img/card_backs/set1/purple.gif","3","250","1","",""
"casino-fixation","138","462770","0.0-25.0-0.34","733","true","img/card_backs/set1/purple.gif","img/card_backs/set1/green.gif","img/card_backs/set1/yellow.gif","img/card_backs/set1/red.gif","img/card_backs/set2/blue.gif","img/card_backs/set2/orange.gif","img/card_backs/set2/pink.gif","img/card_backs/set2/gray.gif","""event"",""trial"",""time""
""fullscreenenter"",""1"",""5501""
","
","
","""event"",""trial"",""time""
""fullscreenenter"",""1"",""5501""
","
","","null","","null","","fixation","2021-06-23 16:38:47.079","","","","","",""
"card-selection-trial","139","465377","0.0-25.0-1.34","733","true","img/card_backs/set1/purple.gif","img/card_backs/set1/green.gif","img/card_backs/set1/yellow.gif","img/card_backs/set1/red.gif","img/card_backs/set2/blue.gif","img/card_backs/set2/orange.gif","img/card_backs/set2/pink.gif","img/card_backs/set2/gray.gif","""event"",""trial"",""time""
""fullscreenenter"",""1"",""5501""
","
","
","""event"",""trial"",""time""
""fullscreenenter"",""1"",""5501""
","
","","598","","","","real_trial","2021-06-23 16:38:49.686","img/card_backs/set1/purple.gif","3","240","1","",""
"casino-fixation","140","465879","0.0-25.0-0.35","733","true","img/card_backs/set1/purple.gif","img/card_backs/set1/green.gif","img/card_backs/set1/yellow.gif","img/card_backs/set1/red.gif","img/card_backs/set2/blue.gif","img/card_backs/set2/orange.gif","img/card_backs/set2/pink.gif","img/card_backs/set2/gray.gif","""event"",""trial"",""time""
""fullscreenenter"",""1"",""5501""
","
","
","""event"",""trial"",""time""
""fullscreenenter"",""1"",""5501""
","
","","null","","null","","fixation","2021-06-23 16:38:50.189","","","","","",""
"card-selection-trial","141","468432","0.0-25.0-1.35","733","true","img/card_backs/set1/purple.gif","img/card_backs/set1/green.gif","img/card_backs/set1/yellow.gif","img/card_backs/set1/red.gif","img/card_backs/set2/blue.gif","img/card_backs/set2/orange.gif","img/card_backs/set2/pink.gif","img/card_backs/set2/gray.gif","""event"",""trial"",""time""
""fullscreenenter"",""1"",""5501""
","
","
","""event"",""trial"",""time""
""fullscreenenter"",""1"",""5501""
","
","","543.6999999880791","","","","real_trial","2021-06-23 16:38:52.742","img/card_backs/set1/purple.gif","3","240","1","",""
"casino-fixation","142","468934","0.0-25.0-0.36","733","true","img/card_backs/set1/purple.gif","img/card_backs/set1/green.gif","img/card_backs/set1/yellow.gif","img/card_backs/set1/red.gif","img/card_backs/set2/blue.gif","img/card_backs/set2/orange.gif","img/card_backs/set2/pink.gif","img/card_backs/set2/gray.gif","""event"",""trial"",""time""
""fullscreenenter"",""1"",""5501""
","
","
","""event"",""trial"",""time""
""fullscreenenter"",""1"",""5501""
","
","","null","","null","","fixation","2021-06-23 16:38:53.244","","","","","",""
"card-selection-trial","143","471510","0.0-25.0-1.36","733","true","img/card_backs/set1/purple.gif","img/card_backs/set1/green.gif","img/card_backs/set1/yellow.gif","img/card_backs/set1/red.gif","img/card_backs/set2/blue.gif","img/card_backs/set2/orange.gif","img/card_backs/set2/pink.gif","img/card_backs/set2/gray.gif","""event"",""trial"",""time""
""fullscreenenter"",""1"",""5501""
","
","
","""event"",""trial"",""time""
""fullscreenenter"",""1"",""5501""
","
","","567.1000000238419","","","","real_trial","2021-06-23 16:38:55.819","img/card_backs/set1/purple.gif","3","250","1","",""
"casino-fixation","144","472012","0.0-25.0-0.37","733","true","img/card_backs/set1/purple.gif","img/card_backs/set1/green.gif","img/card_backs/set1/yellow.gif","img/card_backs/set1/red.gif","img/card_backs/set2/blue.gif","img/card_backs/set2/orange.gif","img/card_backs/set2/pink.gif","img/card_backs/set2/gray.gif","""event"",""trial"",""time""
""fullscreenenter"",""1"",""5501""
","
","
","""event"",""trial"",""time""
""fullscreenenter"",""1"",""5501""
","
","","null","","null","","fixation","2021-06-23 16:38:56.322","","","","","",""
"card-selection-trial","145","474536","0.0-25.0-1.37","733","true","img/card_backs/set1/purple.gif","img/card_backs/set1/green.gif","img/card_backs/set1/yellow.gif","img/card_backs/set1/red.gif","img/card_backs/set2/blue.gif","img/card_backs/set2/orange.gif","img/card_backs/set2/pink.gif","img/card_backs/set2/gray.gif","""event"",""trial"",""time""
""fullscreenenter"",""1"",""5501""
","
","
","""event"",""trial"",""time""
""fullscreenenter"",""1"",""5501""
","
","","514","","","","real_trial","2021-06-23 16:38:58.845","img/card_backs/set1/purple.gif","3","-210","1","",""
"casino-fixation","146","475038","0.0-25.0-0.38","733","true","img/card_backs/set1/purple.gif","img/card_backs/set1/green.gif","img/card_backs/set1/yellow.gif","img/card_backs/set1/red.gif","img/card_backs/set2/blue.gif","img/card_backs/set2/orange.gif","img/card_backs/set2/pink.gif","img/card_backs/set2/gray.gif","""event"",""trial"",""time""
""fullscreenenter"",""1"",""5501""
","
","
","""event"",""trial"",""time""
""fullscreenenter"",""1"",""5501""
","
","","null","","null","","fixation","2021-06-23 16:38:59.348","","","","","",""
"card-selection-trial","147","478006","0.0-25.0-1.38","733","true","img/card_backs/set1/purple.gif","img/card_backs/set1/green.gif","img/card_backs/set1/yellow.gif","img/card_backs/set1/red.gif","img/card_backs/set2/blue.gif","img/card_backs/set2/orange.gif","img/card_backs/set2/pink.gif","img/card_backs/set2/gray.gif","""event"",""trial"",""time""
""fullscreenenter"",""1"",""5501""
","
","
","""event"",""trial"",""time""
""fullscreenenter"",""1"",""5501""
","
","","958.3999999761581","","","","real_trial","2021-06-23 16:39:02.315","img/card_backs/set1/purple.gif","2","-190","1","",""
"casino-fixation","148","478509","0.0-25.0-0.39","733","true","img/card_backs/set1/purple.gif","img/card_backs/set1/green.gif","img/card_backs/set1/yellow.gif","img/card_backs/set1/red.gif","img/card_backs/set2/blue.gif","img/card_backs/set2/orange.gif","img/card_backs/set2/pink.gif","img/card_backs/set2/gray.gif","""event"",""trial"",""time""
""fullscreenenter"",""1"",""5501""
","
","
","""event"",""trial"",""time""
""fullscreenenter"",""1"",""5501""
","
","","null","","null","","fixation","2021-06-23 16:39:02.818","","","","","",""
"card-selection-trial","149","481161","0.0-25.0-1.39","733","true","img/card_backs/set1/purple.gif","img/card_backs/set1/green.gif","img/card_backs/set1/yellow.gif","img/card_backs/set1/red.gif","img/card_backs/set2/blue.gif","img/card_backs/set2/orange.gif","img/card_backs/set2/pink.gif","img/card_backs/set2/gray.gif","""event"",""trial"",""time""
""fullscreenenter"",""1"",""5501""
","
","
","""event"",""trial"",""time""
""fullscreenenter"",""1"",""5501""
","
","","628.5","","","","real_trial","2021-06-23 16:39:05.471","img/card_backs/set1/purple.gif","3","-210","1","",""
"casino-fixation","150","481664","0.0-25.0-0.40","733","true","img/card_backs/set1/purple.gif","img/card_backs/set1/green.gif","img/card_backs/set1/yellow.gif","img/card_backs/set1/red.gif","img/card_backs/set2/blue.gif","img/card_backs/set2/orange.gif","img/card_backs/set2/pink.gif","img/card_backs/set2/gray.gif","""event"",""trial"",""time""
""fullscreenenter"",""1"",""5501""
","
","
","""event"",""trial"",""time""
""fullscreenenter"",""1"",""5501""
","
","","null","","null","","fixation","2021-06-23 16:39:05.973","","","","","",""
"card-selection-trial","151","484851","0.0-25.0-1.40","733","true","img/card_backs/set1/purple.gif","img/card_backs/set1/green.gif","img/card_backs/set1/yellow.gif","img/card_backs/set1/red.gif","img/card_backs/set2/blue.gif","img/card_backs/set2/orange.gif","img/card_backs/set2/pink.gif","img/card_backs/set2/gray.gif","""event"",""trial"",""time""
""fullscreenenter"",""1"",""5501""
","
","
","""event"",""trial"",""time""
""fullscreenenter"",""1"",""5501""
","
","","1179.300000011921","","","","real_trial","2021-06-23 16:39:09.161","img/card_backs/set1/purple.gif","2","240","1","",""
"casino-fixation","152","485354","0.0-25.0-0.41","733","true","img/card_backs/set1/purple.gif","img/card_backs/set1/green.gif","img/card_backs/set1/yellow.gif","img/card_backs/set1/red.gif","img/card_backs/set2/blue.gif","img/card_backs/set2/orange.gif","img/card_backs/set2/pink.gif","img/card_backs/set2/gray.gif","""event"",""trial"",""time""
""fullscreenenter"",""1"",""5501""
","
","
","""event"",""trial"",""time""
""fullscreenenter"",""1"",""5501""
","
","","null","","null","","fixation","2021-06-23 16:39:09.664","","","","","",""
"card-selection-trial","153","488244","0.0-25.0-1.41","733","true","img/card_backs/set1/purple.gif","img/card_backs/set1/green.gif","img/card_backs/set1/yellow.gif","img/card_backs/set1/red.gif","img/card_backs/set2/blue.gif","img/card_backs/set2/orange.gif","img/card_backs/set2/pink.gif","img/card_backs/set2/gray.gif","""event"",""trial"",""time""
""fullscreenenter"",""1"",""5501""
","
","
","""event"",""trial"",""time""
""fullscreenenter"",""1"",""5501""
","
","","879.4000000357628","","","","real_trial","2021-06-23 16:39:12.553","img/card_backs/set1/purple.gif","1","260","1","",""
"casino-fixation","154","488747","0.0-25.0-0.42","733","true","img/card_backs/set1/purple.gif","img/card_backs/set1/green.gif","img/card_backs/set1/yellow.gif","img/card_backs/set1/red.gif","img/card_backs/set2/blue.gif","img/card_backs/set2/orange.gif","img/card_backs/set2/pink.gif","img/card_backs/set2/gray.gif","""event"",""trial"",""time""
""fullscreenenter"",""1"",""5501""
","
","
","""event"",""trial"",""time""
""fullscreenenter"",""1"",""5501""
","
","","null","","null","","fixation","2021-06-23 16:39:13.057","","","","","",""
"card-selection-trial","155","491276","0.0-25.0-1.42","733","true","img/card_backs/set1/purple.gif","img/card_backs/set1/green.gif","img/card_backs/set1/yellow.gif","img/card_backs/set1/red.gif","img/card_backs/set2/blue.gif","img/card_backs/set2/orange.gif","img/card_backs/set2/pink.gif","img/card_backs/set2/gray.gif","""event"",""trial"",""time""
""fullscreenenter"",""1"",""5501""
","
","
","""event"",""trial"",""time""
""fullscreenenter"",""1"",""5501""
","
","","520.8999999761581","","","","real_trial","2021-06-23 16:39:15.586","img/card_backs/set1/purple.gif","0","-190","1","",""
"casino-fixation","156","491779","0.0-25.0-0.43","733","true","img/card_backs/set1/purple.gif","img/card_backs/set1/green.gif","img/card_backs/set1/yellow.gif","img/card_backs/set1/red.gif","img/card_backs/set2/blue.gif","img/card_backs/set2/orange.gif","img/card_backs/set2/pink.gif","img/card_backs/set2/gray.gif","""event"",""trial"",""time""
""fullscreenenter"",""1"",""5501""
","
","
","""event"",""trial"",""time""
""fullscreenenter"",""1"",""5501""
","
","","null","","null","","fixation","2021-06-23 16:39:16.088","","","","","",""
"card-selection-trial","157","494881","0.0-25.0-1.43","733","true","img/card_backs/set1/purple.gif","img/card_backs/set1/green.gif","img/card_backs/set1/yellow.gif","img/card_backs/set1/red.gif","img/card_backs/set2/blue.gif","img/card_backs/set2/orange.gif","img/card_backs/set2/pink.gif","img/card_backs/set2/gray.gif","""event"",""trial"",""time""
""fullscreenenter"",""1"",""5501""
","
","
","""event"",""trial"",""time""
""fullscreenenter"",""1"",""5501""
","
","","1092.7000000476837","","","","real_trial","2021-06-23 16:39:19.191","img/card_backs/set1/purple.gif","2","-200","1","",""
"casino-fixation","158","495384","0.0-25.0-0.44","733","true","img/card_backs/set1/purple.gif","img/card_backs/set1/green.gif","img/card_backs/set1/yellow.gif","img/card_backs/set1/red.gif","img/card_backs/set2/blue.gif","img/card_backs/set2/orange.gif","img/card_backs/set2/pink.gif","img/card_backs/set2/gray.gif","""event"",""trial"",""time""
""fullscreenenter"",""1"",""5501""
","
","
","""event"",""trial"",""time""
""fullscreenenter"",""1"",""5501""
","
","","null","","null","","fixation","2021-06-23 16:39:19.694","","","","","",""
"card-selection-trial","159","498000","0.0-25.0-1.44","733","true","img/card_backs/set1/purple.gif","img/card_backs/set1/green.gif","img/card_backs/set1/yellow.gif","img/card_backs/set1/red.gif","img/card_backs/set2/blue.gif","img/card_backs/set2/orange.gif","img/card_backs/set2/pink.gif","img/card_backs/set2/gray.gif","""event"",""trial"",""time""
""fullscreenenter"",""1"",""5501""
","
","
","""event"",""trial"",""time""
""fullscreenenter"",""1"",""5501""
","
","","606.3000000119209","","","","real_trial","2021-06-23 16:39:22.309","img/card_backs/set1/purple.gif","3","-210","1","",""
"casino-fixation","160","498504","0.0-25.0-0.45","733","true","img/card_backs/set1/purple.gif","img/card_backs/set1/green.gif","img/card_backs/set1/yellow.gif","img/card_backs/set1/red.gif","img/card_backs/set2/blue.gif","img/card_backs/set2/orange.gif","img/card_backs/set2/pink.gif","img/card_backs/set2/gray.gif","""event"",""trial"",""time""
""fullscreenenter"",""1"",""5501""
","
","
","""event"",""trial"",""time""
""fullscreenenter"",""1"",""5501""
","
","","null","","null","","fixation","2021-06-23 16:39:22.813","","","","","",""
"card-selection-trial","161","501350","0.0-25.0-1.45","733","true","img/card_backs/set1/purple.gif","img/card_backs/set1/green.gif","img/card_backs/set1/yellow.gif","img/card_backs/set1/red.gif","img/card_backs/set2/blue.gif","img/card_backs/set2/orange.gif","img/card_backs/set2/pink.gif","img/card_backs/set2/gray.gif","""event"",""trial"",""time""
""fullscreenenter"",""1"",""5501""
","
","
","""event"",""trial"",""time""
""fullscreenenter"",""1"",""5501""
","
","","838.1000000238419","","","","real_trial","2021-06-23 16:39:25.660","img/card_backs/set1/purple.gif","1","-190","1","",""
"casino-fixation","162","501854","0.0-25.0-0.46","733","true","img/card_backs/set1/purple.gif","img/card_backs/set1/green.gif","img/card_backs/set1/yellow.gif","img/card_backs/set1/red.gif","img/card_backs/set2/blue.gif","img/card_backs/set2/orange.gif","img/card_backs/set2/pink.gif","img/card_backs/set2/gray.gif","""event"",""trial"",""time""
""fullscreenenter"",""1"",""5501""
","
","
","""event"",""trial"",""time""
""fullscreenenter"",""1"",""5501""
","
","","null","","null","","fixation","2021-06-23 16:39:26.163","","","","","",""
"card-selection-trial","163","504446","0.0-25.0-1.46","733","true","img/card_backs/set1/purple.gif","img/card_backs/set1/green.gif","img/card_backs/set1/yellow.gif","img/card_backs/set1/red.gif","img/card_backs/set2/blue.gif","img/card_backs/set2/orange.gif","img/card_backs/set2/pink.gif","img/card_backs/set2/gray.gif","""event"",""trial"",""time""
""fullscreenenter"",""1"",""5501""
","
","
","""event"",""trial"",""time""
""fullscreenenter"",""1"",""5501""
","
","","583.5","","","","real_trial","2021-06-23 16:39:28.755","img/card_backs/set1/purple.gif","3","250","1","",""
"casino-fixation","164","504948","0.0-25.0-0.47","733","true","img/card_backs/set1/purple.gif","img/card_backs/set1/green.gif","img/card_backs/set1/yellow.gif","img/card_backs/set1/red.gif","img/card_backs/set2/blue.gif","img/card_backs/set2/orange.gif","img/card_backs/set2/pink.gif","img/card_backs/set2/gray.gif","""event"",""trial"",""time""
""fullscreenenter"",""1"",""5501""
","
","
","""event"",""trial"",""time""
""fullscreenenter"",""1"",""5501""
","
","","null","","null","","fixation","2021-06-23 16:39:29.258","","","","","",""
"card-selection-trial","165","507715","0.0-25.0-1.47","733","true","img/card_backs/set1/purple.gif","img/card_backs/set1/green.gif","img/card_backs/set1/yellow.gif","img/card_backs/set1/red.gif","img/card_backs/set2/blue.gif","img/card_backs/set2/orange.gif","img/card_backs/set2/pink.gif","img/card_backs/set2/gray.gif","""event"",""trial"",""time""
""fullscreenenter"",""1"",""5501""
","
","
","""event"",""trial"",""time""
""fullscreenenter"",""1"",""5501""
","
","","756.2000000476837","","","","real_trial","2021-06-23 16:39:32.024","img/card_backs/set1/purple.gif","3","-190","1","",""
"casino-fixation","166","508217","0.0-25.0-0.48","733","true","img/card_backs/set1/purple.gif","img/card_backs/set1/green.gif","img/card_backs/set1/yellow.gif","img/card_backs/set1/red.gif","img/card_backs/set2/blue.gif","img/card_backs/set2/orange.gif","img/card_backs/set2/pink.gif","img/card_backs/set2/gray.gif","""event"",""trial"",""time""
""fullscreenenter"",""1"",""5501""
","
","
","""event"",""trial"",""time""
""fullscreenenter"",""1"",""5501""
","
","","null","","null","","fixation","2021-06-23 16:39:32.527","","","","","",""
"card-selection-trial","167","511415","0.0-25.0-1.48","733","true","img/card_backs/set1/purple.gif","img/card_backs/set1/green.gif","img/card_backs/set1/yellow.gif","img/card_backs/set1/red.gif","img/card_backs/set2/blue.gif","img/card_backs/set2/orange.gif","img/card_backs/set2/pink.gif","img/card_backs/set2/gray.gif","""event"",""trial"",""time""
""fullscreenenter"",""1"",""5501""
","
","
","""event"",""trial"",""time""
""fullscreenenter"",""1"",""5501""
","
","","1188.6000000238419","","","","real_trial","2021-06-23 16:39:35.724","img/card_backs/set1/purple.gif","0","-190","1","",""
