"trial_type","trial_index","time_elapsed","internal_node_id","sub_id","risk_good_first","block1_A","block1_B","block1_C","block1_D","block2_A","block2_B","block2_C","block2_D","interactions","blur_events","focus_events","fullscreenenter_events","fullscreenexit_events","success","rt","stimulus","key_press","button_pressed","task_part","timestamp","card_choice","choice_position","points_earned","block","correct","response"
"pavlovia","0","3","0.0-0.0","A367","true","img/card_backs/set1/yellow.gif","img/card_backs/set1/purple.gif","img/card_backs/set1/red.gif","img/card_backs/set1/green.gif","img/card_backs/set2/pink.gif","img/card_backs/set2/orange.gif","img/card_backs/set2/blue.gif","img/card_backs/set2/gray.gif","""event"",""trial"",""time""
""fullscreenenter"",""1"",""1863""
","
","
","""event"",""trial"",""time""
""fullscreenenter"",""1"",""1863""
","
","","","","","","","","","","","","",""
"fullscreen","1","2846","0.0-1.0","A367","true","img/card_backs/set1/yellow.gif","img/card_backs/set1/purple.gif","img/card_backs/set1/red.gif","img/card_backs/set1/green.gif","img/card_backs/set2/pink.gif","img/card_backs/set2/orange.gif","img/card_backs/set2/blue.gif","img/card_backs/set2/gray.gif","""event"",""trial"",""time""
""fullscreenenter"",""1"",""1863""
","
","
","""event"",""trial"",""time""
""fullscreenenter"",""1"",""1863""
","
","true","","","","","","","","","","","",""
"audio-keyboard-response","2","4012","0.0-2.0","A367","true","img/card_backs/set1/yellow.gif","img/card_backs/set1/purple.gif","img/card_backs/set1/red.gif","img/card_backs/set1/green.gif","img/card_backs/set2/pink.gif","img/card_backs/set2/orange.gif","img/card_backs/set2/blue.gif","img/card_backs/set2/gray.gif","""event"",""trial"",""time""
""fullscreenenter"",""1"",""1863""
","
","
","""event"",""trial"",""time""
""fullscreenenter"",""1"",""1863""
","
","","781","audio/beep_loop.wav","32","","","","","","","","",""
"audio-button-response","3","5463","0.0-3.0","A367","true","img/card_backs/set1/yellow.gif","img/card_backs/set1/purple.gif","img/card_backs/set1/red.gif","img/card_backs/set1/green.gif","img/card_backs/set2/pink.gif","img/card_backs/set2/orange.gif","img/card_backs/set2/blue.gif","img/card_backs/set2/gray.gif","""event"",""trial"",""time""
""fullscreenenter"",""1"",""1863""
","
","
","""event"",""trial"",""time""
""fullscreenenter"",""1"",""1863""
","
","","NaN","audio/turtle.mp3","","3","","","","","","","",""
"audio-button-response","4","7487","0.0-4.0","A367","true","img/card_backs/set1/yellow.gif","img/card_backs/set1/purple.gif","img/card_backs/set1/red.gif","img/card_backs/set1/green.gif","img/card_backs/set2/pink.gif","img/card_backs/set2/orange.gif","img/card_backs/set2/blue.gif","img/card_backs/set2/gray.gif","""event"",""trial"",""time""
""fullscreenenter"",""1"",""1863""
","
","
","""event"",""trial"",""time""
""fullscreenenter"",""1"",""1863""
","
","","NaN","audio/shark.mp3","","2","","","","","","","",""
"fullscreen","5","10337","0.0-5.0","A367","true","img/card_backs/set1/yellow.gif","img/card_backs/set1/purple.gif","img/card_backs/set1/red.gif","img/card_backs/set1/green.gif","img/card_backs/set2/pink.gif","img/card_backs/set2/orange.gif","img/card_backs/set2/blue.gif","img/card_backs/set2/gray.gif","""event"",""trial"",""time""
""fullscreenenter"",""1"",""1863""
","
","
","""event"",""trial"",""time""
""fullscreenenter"",""1"",""1863""
","
","true","","","","","","","","","","","",""
"casino-keyboard-response","6","13471","0.0-6.0-0.0","A367","true","img/card_backs/set1/yellow.gif","img/card_backs/set1/purple.gif","img/card_backs/set1/red.gif","img/card_backs/set1/green.gif","img/card_backs/set2/pink.gif","img/card_backs/set2/orange.gif","img/card_backs/set2/blue.gif","img/card_backs/set2/gray.gif","""event"",""trial"",""time""
""fullscreenenter"",""1"",""1863""
","
","
","""event"",""trial"",""time""
""fullscreenenter"",""1"",""1863""
","
","","3130.5999999940395","Welcome to the casino!","71","","instructions","2021-07-01 03:07:16.114","","","","","",""
"casino-keyboard-response","7","22663","0.0-6.0-0.1","A367","true","img/card_backs/set1/yellow.gif","img/card_backs/set1/purple.gif","img/card_backs/set1/red.gif","img/card_backs/set1/green.gif","img/card_backs/set2/pink.gif","img/card_backs/set2/orange.gif","img/card_backs/set2/blue.gif","img/card_backs/set2/gray.gif","""event"",""trial"",""time""
""fullscreenenter"",""1"",""1863""
","
","
","""event"",""trial"",""time""
""fullscreenenter"",""1"",""1863""
","
","","9190.40000000596","Today you will be playing a game to earn tokens. </br> At the end of the experiment, you will be paid a bonus based on how many tokens you win. ","69","","instructions","2021-07-01 03:07:25.306","","","","","",""
"casino-keyboard-response","8","29545","0.0-6.0-0.2","A367","true","img/card_backs/set1/yellow.gif","img/card_backs/set1/purple.gif","img/card_backs/set1/red.gif","img/card_backs/set1/green.gif","img/card_backs/set2/pink.gif","img/card_backs/set2/orange.gif","img/card_backs/set2/blue.gif","img/card_backs/set2/gray.gif","""event"",""trial"",""time""
""fullscreenenter"",""1"",""1863""
","
","
","""event"",""trial"",""time""
""fullscreenenter"",""1"",""1863""
","
","","6879.70000000298","On every turn, you will be shown four different decks of cards. </br> You need to select a card from one of the four decks.  ","75","","instructions","2021-07-01 03:07:32.188","","","","","",""
"casino-keyboard-response","9","34024","0.0-6.0-0.3","A367","true","img/card_backs/set1/yellow.gif","img/card_backs/set1/purple.gif","img/card_backs/set1/red.gif","img/card_backs/set1/green.gif","img/card_backs/set2/pink.gif","img/card_backs/set2/orange.gif","img/card_backs/set2/blue.gif","img/card_backs/set2/gray.gif","""event"",""trial"",""time""
""fullscreenenter"",""1"",""1863""
","
","
","""event"",""trial"",""time""
""fullscreenenter"",""1"",""1863""
","
","","4477.29999999702","On the next screen, you will see what the decks will look like. ","66","","instructions","2021-07-01 03:07:36.667","","","","","",""
"card-selection-trial","10","38036","0.0-7.0-0.0","A367","true","img/card_backs/set1/yellow.gif","img/card_backs/set1/purple.gif","img/card_backs/set1/red.gif","img/card_backs/set1/green.gif","img/card_backs/set2/pink.gif","img/card_backs/set2/orange.gif","img/card_backs/set2/blue.gif","img/card_backs/set2/gray.gif","""event"",""trial"",""time""
""fullscreenenter"",""1"",""1863""
","
","
","""event"",""trial"",""time""
""fullscreenenter"",""1"",""1863""
","
","","null","","","","practice","2021-07-01 03:07:40.679","null","null","null","0","",""
"casino-keyboard-response","11","45109","0.0-8.0-0.0","A367","true","img/card_backs/set1/yellow.gif","img/card_backs/set1/purple.gif","img/card_backs/set1/red.gif","img/card_backs/set1/green.gif","img/card_backs/set2/pink.gif","img/card_backs/set2/orange.gif","img/card_backs/set2/blue.gif","img/card_backs/set2/gray.gif","""event"",""trial"",""time""
""fullscreenenter"",""1"",""1863""
","
","
","""event"",""trial"",""time""
""fullscreenenter"",""1"",""1863""
","
","","7072","You should pick a card from a deck using the '2', '4', '6', and '8' keys at the top of the keyboard.","85","","instructions","2021-07-01 03:07:47.752","","","","","",""
"casino-keyboard-response","12","50212","0.0-8.0-0.1","A367","true","img/card_backs/set1/yellow.gif","img/card_backs/set1/purple.gif","img/card_backs/set1/red.gif","img/card_backs/set1/green.gif","img/card_backs/set2/pink.gif","img/card_backs/set2/orange.gif","img/card_backs/set2/blue.gif","img/card_backs/set2/gray.gif","""event"",""trial"",""time""
""fullscreenenter"",""1"",""1863""
","
","
","""event"",""trial"",""time""
""fullscreenenter"",""1"",""1863""
","
","","5100.5999999940395","Once you select a card, it will turn over and you will see how many tokens you earned.","83","","instructions","2021-07-01 03:07:52.855","","","","","",""
"casino-keyboard-response","13","64251","0.0-8.0-0.2","A367","true","img/card_backs/set1/yellow.gif","img/card_backs/set1/purple.gif","img/card_backs/set1/red.gif","img/card_backs/set1/green.gif","img/card_backs/set2/pink.gif","img/card_backs/set2/orange.gif","img/card_backs/set2/blue.gif","img/card_backs/set2/gray.gif","""event"",""trial"",""time""
""fullscreenenter"",""1"",""1863""
","
","
","""event"",""trial"",""time""
""fullscreenenter"",""1"",""1863""
","
","","14037.29999999702","Let's try practicing that! </br> First, try to put your fingers over the '2', '4', '6', and '8' keys. </br>  You can use whatever fingers are most comfortable for you. Try to find a comfortable position now. ","50","","instructions","2021-07-01 03:08:06.894","","","","","",""
"casino-keyboard-response","14","65439","0.0-8.0-0.3","A367","true","img/card_backs/set1/yellow.gif","img/card_backs/set1/purple.gif","img/card_backs/set1/red.gif","img/card_backs/set1/green.gif","img/card_backs/set2/pink.gif","img/card_backs/set2/orange.gif","img/card_backs/set2/blue.gif","img/card_backs/set2/gray.gif","""event"",""trial"",""time""
""fullscreenenter"",""1"",""1863""
","
","
","""event"",""trial"",""time""
""fullscreenenter"",""1"",""1863""
","
","","1186.3999999910593","Okay ready? </br> On the next screen, press '2' to select the left deck. ","50","","instructions","2021-07-01 03:08:08.082","","","","","",""
"card-selection-trial","15","68303","0.0-9.0-0.0","A367","true","img/card_backs/set1/yellow.gif","img/card_backs/set1/purple.gif","img/card_backs/set1/red.gif","img/card_backs/set1/green.gif","img/card_backs/set2/pink.gif","img/card_backs/set2/orange.gif","img/card_backs/set2/blue.gif","img/card_backs/set2/gray.gif","""event"",""trial"",""time""
""fullscreenenter"",""1"",""1863""
","
","
","""event"",""trial"",""time""
""fullscreenenter"",""1"",""1863""
","
","","826.0999999940395","","","","practice_card_selection","2021-07-01 03:08:10.946","img/practice_cards/backs/dark_blue.gif","0","200","","",""
"casino-keyboard-response","16","70217","0.0-10.0-0.0","A367","true","img/card_backs/set1/yellow.gif","img/card_backs/set1/purple.gif","img/card_backs/set1/red.gif","img/card_backs/set1/green.gif","img/card_backs/set2/pink.gif","img/card_backs/set2/orange.gif","img/card_backs/set2/blue.gif","img/card_backs/set2/gray.gif","""event"",""trial"",""time""
""fullscreenenter"",""1"",""1863""
","
","
","""event"",""trial"",""time""
""fullscreenenter"",""1"",""1863""
","
","","1913.2999999970198","Great! Now on the next screen, try pressing '6' to select the third deck.","54","","instructions","2021-07-01 03:08:12.861","","","","","",""
"card-selection-trial","17","72782","0.0-11.0-0.0","A367","true","img/card_backs/set1/yellow.gif","img/card_backs/set1/purple.gif","img/card_backs/set1/red.gif","img/card_backs/set1/green.gif","img/card_backs/set2/pink.gif","img/card_backs/set2/orange.gif","img/card_backs/set2/blue.gif","img/card_backs/set2/gray.gif","""event"",""trial"",""time""
""fullscreenenter"",""1"",""1863""
","
","
","""event"",""trial"",""time""
""fullscreenenter"",""1"",""1863""
","
","","551.2000000029802","","","","practice_card_selection","2021-07-01 03:08:15.425","img/practice_cards/backs/dark_green.gif","2","-200","","",""
"casino-keyboard-response","18","73703","0.0-12.0-0.0","A367","true","img/card_backs/set1/yellow.gif","img/card_backs/set1/purple.gif","img/card_backs/set1/red.gif","img/card_backs/set1/green.gif","img/card_backs/set2/pink.gif","img/card_backs/set2/orange.gif","img/card_backs/set2/blue.gif","img/card_backs/set2/gray.gif","""event"",""trial"",""time""
""fullscreenenter"",""1"",""1863""
","
","
","""event"",""trial"",""time""
""fullscreenenter"",""1"",""1863""
","
","","919.9000000059605","Now on the next screen, try pressing '4' to select the second deck.","52","","instructions","2021-07-01 03:08:16.346","","","","","",""
"card-selection-trial","19","76093","0.0-13.0-0.0","A367","true","img/card_backs/set1/yellow.gif","img/card_backs/set1/purple.gif","img/card_backs/set1/red.gif","img/card_backs/set1/green.gif","img/card_backs/set2/pink.gif","img/card_backs/set2/orange.gif","img/card_backs/set2/blue.gif","img/card_backs/set2/gray.gif","""event"",""trial"",""time""
""fullscreenenter"",""1"",""1863""
","
","
","""event"",""trial"",""time""
""fullscreenenter"",""1"",""1863""
","
","","376.59999999403954","","","","practice_card_selection","2021-07-01 03:08:18.736","img/practice_cards/backs/dark_blue.gif","1","200","","",""
"casino-keyboard-response","20","77034","0.0-14.0-0.0","A367","true","img/card_backs/set1/yellow.gif","img/card_backs/set1/purple.gif","img/card_backs/set1/red.gif","img/card_backs/set1/green.gif","img/card_backs/set2/pink.gif","img/card_backs/set2/orange.gif","img/card_backs/set2/blue.gif","img/card_backs/set2/gray.gif","""event"",""trial"",""time""
""fullscreenenter"",""1"",""1863""
","
","
","""event"",""trial"",""time""
""fullscreenenter"",""1"",""1863""
","
","","939","Finally, try pressing '8' to select the deck all the way on the right.","56","","instructions","2021-07-01 03:08:19.677","","","","","",""
"card-selection-trial","21","79829","0.0-15.0-0.0","A367","true","img/card_backs/set1/yellow.gif","img/card_backs/set1/purple.gif","img/card_backs/set1/red.gif","img/card_backs/set1/green.gif","img/card_backs/set2/pink.gif","img/card_backs/set2/orange.gif","img/card_backs/set2/blue.gif","img/card_backs/set2/gray.gif","""event"",""trial"",""time""
""fullscreenenter"",""1"",""1863""
","
","
","""event"",""trial"",""time""
""fullscreenenter"",""1"",""1863""
","
","","775.5999999940395","","","","practice_card_selection","2021-07-01 03:08:22.472","img/practice_cards/backs/dark_green.gif","3","-200","","",""
"casino-keyboard-response","22","83666","0.0-16.0-0.0","A367","true","img/card_backs/set1/yellow.gif","img/card_backs/set1/purple.gif","img/card_backs/set1/red.gif","img/card_backs/set1/green.gif","img/card_backs/set2/pink.gif","img/card_backs/set2/orange.gif","img/card_backs/set2/blue.gif","img/card_backs/set2/gray.gif","""event"",""trial"",""time""
""fullscreenenter"",""1"",""1863""
","
","
","""event"",""trial"",""time""
""fullscreenenter"",""1"",""1863""
","
","","3835.7000000029802","Great! It seems like you are getting the hang of this.","80","","instructions","2021-07-01 03:08:26.309","","","","","",""
"casino-keyboard-response","23","90988","0.0-16.0-0.1","A367","true","img/card_backs/set1/yellow.gif","img/card_backs/set1/purple.gif","img/card_backs/set1/red.gif","img/card_backs/set1/green.gif","img/card_backs/set2/pink.gif","img/card_backs/set2/orange.gif","img/card_backs/set2/blue.gif","img/card_backs/set2/gray.gif","""event"",""trial"",""time""
""fullscreenenter"",""1"",""1863""
","
","
","""event"",""trial"",""time""
""fullscreenenter"",""1"",""1863""
","
","","7320.70000000298","You may have noticed that some cards will cause you to <b> win </b> tokens while other cards will cause you to <b> lose </b>  tokens.","70","","instructions","2021-07-01 03:08:33.631","","","","","",""
"casino-keyboard-response","24","99268","0.0-16.0-0.2","A367","true","img/card_backs/set1/yellow.gif","img/card_backs/set1/purple.gif","img/card_backs/set1/red.gif","img/card_backs/set1/green.gif","img/card_backs/set2/pink.gif","img/card_backs/set2/orange.gif","img/card_backs/set2/blue.gif","img/card_backs/set2/gray.gif","""event"",""trial"",""time""
""fullscreenenter"",""1"",""1863""
","
","
","""event"",""trial"",""time""
""fullscreenenter"",""1"",""1863""
","
","","8278.20000000298","Each deck has a mix of cards that will cause you to win and lose tokens. </br> However, the cards in each colored deck are different.","73","","instructions","2021-07-01 03:08:41.911","","","","","",""
"casino-keyboard-response","25","107740","0.0-16.0-0.3","A367","true","img/card_backs/set1/yellow.gif","img/card_backs/set1/purple.gif","img/card_backs/set1/red.gif","img/card_backs/set1/green.gif","img/card_backs/set2/pink.gif","img/card_backs/set2/orange.gif","img/card_backs/set2/blue.gif","img/card_backs/set2/gray.gif","""event"",""trial"",""time""
""fullscreenenter"",""1"",""1863""
","
","
","""event"",""trial"",""time""
""fullscreenenter"",""1"",""1863""
","
","","8469.59999999404","Some colored decks are luckier than others. </br> If you choose the lucky decks, you will earn more tokens than if you choose the unlucky decks.","69","","instructions","2021-07-01 03:08:50.383","","","","","",""
"casino-keyboard-response","26","114885","0.0-16.0-0.4","A367","true","img/card_backs/set1/yellow.gif","img/card_backs/set1/purple.gif","img/card_backs/set1/red.gif","img/card_backs/set1/green.gif","img/card_backs/set2/pink.gif","img/card_backs/set2/orange.gif","img/card_backs/set2/blue.gif","img/card_backs/set2/gray.gif","""event"",""trial"",""time""
""fullscreenenter"",""1"",""1863""
","
","
","""event"",""trial"",""time""
""fullscreenenter"",""1"",""1863""
","
","","7143.5","You should try to figure out which decks are lucky. </br> Then, try to choose the lucky decks so you can win the most tokens.","87","","instructions","2021-07-01 03:08:57.528","","","","","",""
"casino-keyboard-response","27","125719","0.0-16.0-0.5","A367","true","img/card_backs/set1/yellow.gif","img/card_backs/set1/purple.gif","img/card_backs/set1/red.gif","img/card_backs/set1/green.gif","img/card_backs/set2/pink.gif","img/card_backs/set2/orange.gif","img/card_backs/set2/blue.gif","img/card_backs/set2/gray.gif","""event"",""trial"",""time""
""fullscreenenter"",""1"",""1863""
","
","
","""event"",""trial"",""time""
""fullscreenenter"",""1"",""1863""
","
","","10831.60000000894","To make it trickier, the casino dealer will switch the locations of the decks on every turn. </br> The color of the deck determines how lucky it is. The location does not matter.","88","","instructions","2021-07-01 03:09:08.362","","","","","",""
"casino-keyboard-response","28","134632","0.0-16.0-0.6","A367","true","img/card_backs/set1/yellow.gif","img/card_backs/set1/purple.gif","img/card_backs/set1/red.gif","img/card_backs/set1/green.gif","img/card_backs/set2/pink.gif","img/card_backs/set2/orange.gif","img/card_backs/set2/blue.gif","img/card_backs/set2/gray.gif","""event"",""trial"",""time""
""fullscreenenter"",""1"",""1863""
","
","
","""event"",""trial"",""time""
""fullscreenenter"",""1"",""1863""
","
","","8911.79999999702","The mix of cards in each colored deck will stay the same throughout the game. </br> That means that a deck that is lucky early on will stay lucky.","79","","instructions","2021-07-01 03:09:17.275","","","","","",""
"casino-keyboard-response","29","142658","0.0-16.0-0.7","A367","true","img/card_backs/set1/yellow.gif","img/card_backs/set1/purple.gif","img/card_backs/set1/red.gif","img/card_backs/set1/green.gif","img/card_backs/set2/pink.gif","img/card_backs/set2/orange.gif","img/card_backs/set2/blue.gif","img/card_backs/set2/gray.gif","""event"",""trial"",""time""
""fullscreenenter"",""1"",""1863""
","
","
","""event"",""trial"",""time""
""fullscreenenter"",""1"",""1863""
","
","","8023.20000000298","Remember though, all the decks have a <b> mix </b> of both <b> good </b> and <b> bad </b> cards so it may take a couple of turns to figure out if a deck is lucky.","69","","instructions","2021-07-01 03:09:25.301","","","","","",""
"casino-keyboard-response","30","150478","0.0-16.0-0.8","A367","true","img/card_backs/set1/yellow.gif","img/card_backs/set1/purple.gif","img/card_backs/set1/red.gif","img/card_backs/set1/green.gif","img/card_backs/set2/pink.gif","img/card_backs/set2/orange.gif","img/card_backs/set2/blue.gif","img/card_backs/set2/gray.gif","""event"",""trial"",""time""
""fullscreenenter"",""1"",""1863""
","
","
","""event"",""trial"",""time""
""fullscreenenter"",""1"",""1863""
","
","","7818.4000000059605","At the end of the game, you will be paid bonus money based on how many tokens you win. </br> If you win more tokens, you will earn more money!","72","","instructions","2021-07-01 03:09:33.121","","","","","",""
"casino-keyboard-response","31","160100","0.0-16.0-0.9","A367","true","img/card_backs/set1/yellow.gif","img/card_backs/set1/purple.gif","img/card_backs/set1/red.gif","img/card_backs/set1/green.gif","img/card_backs/set2/pink.gif","img/card_backs/set2/orange.gif","img/card_backs/set2/blue.gif","img/card_backs/set2/gray.gif","""event"",""trial"",""time""
""fullscreenenter"",""1"",""1863""
","
","
","""event"",""trial"",""time""
""fullscreenenter"",""1"",""1863""
","
","","9619.59999999404","You will never <b> lose </b> money. </br> If you end up with fewer than 0 tokens, you will earn $0 of bonus money, but you will still be paid for playing the game.","83","","instructions","2021-07-01 03:09:42.743","","","","","",""
"casino-keyboard-response","32","163919","0.0-16.0-0.10","A367","true","img/card_backs/set1/yellow.gif","img/card_backs/set1/purple.gif","img/card_backs/set1/red.gif","img/card_backs/set1/green.gif","img/card_backs/set2/pink.gif","img/card_backs/set2/orange.gif","img/card_backs/set2/blue.gif","img/card_backs/set2/gray.gif","""event"",""trial"",""time""
""fullscreenenter"",""1"",""1863""
","
","
","""event"",""trial"",""time""
""fullscreenenter"",""1"",""1863""
","
","","3817.3999999910593","You will have 10 seconds to make each choice.","82","","instructions","2021-07-01 03:09:46.563","","","","","",""
"casino-keyboard-response","33","171801","0.0-16.0-0.11","A367","true","img/card_backs/set1/yellow.gif","img/card_backs/set1/purple.gif","img/card_backs/set1/red.gif","img/card_backs/set1/green.gif","img/card_backs/set2/pink.gif","img/card_backs/set2/orange.gif","img/card_backs/set2/blue.gif","img/card_backs/set2/gray.gif","""event"",""trial"",""time""
""fullscreenenter"",""1"",""1863""
","
","
","""event"",""trial"",""time""
""fullscreenenter"",""1"",""1863""
","
","","7878.4000000059605","Before you play the game for real, you will play with practice decks. </br> The tokens you earn during practice won't count toward your total.","86","","instructions","2021-07-01 03:09:54.444","","","","","",""
"casino-keyboard-response","34","174995","0.0-16.0-0.12","A367","true","img/card_backs/set1/yellow.gif","img/card_backs/set1/purple.gif","img/card_backs/set1/red.gif","img/card_backs/set1/green.gif","img/card_backs/set2/pink.gif","img/card_backs/set2/orange.gif","img/card_backs/set2/blue.gif","img/card_backs/set2/gray.gif","""event"",""trial"",""time""
""fullscreenenter"",""1"",""1863""
","
","
","""event"",""trial"",""time""
""fullscreenenter"",""1"",""1863""
","
","","3193","Ready? Remember, use the '2', '4', '6', and '8' keys to select the decks. </br> Put your fingers on those keys now and then press '2' to begin.","50","","instructions","2021-07-01 03:09:57.639","","","","","",""
"casino-fixation","35","175502","0.0-17.0-0.0","A367","true","img/card_backs/set1/yellow.gif","img/card_backs/set1/purple.gif","img/card_backs/set1/red.gif","img/card_backs/set1/green.gif","img/card_backs/set2/pink.gif","img/card_backs/set2/orange.gif","img/card_backs/set2/blue.gif","img/card_backs/set2/gray.gif","""event"",""trial"",""time""
""fullscreenenter"",""1"",""1863""
","
","
","""event"",""trial"",""time""
""fullscreenenter"",""1"",""1863""
","
","","null","","null","","fixation","2021-07-01 03:09:58.145","","","","","",""
"card-selection-trial","36","178163","0.0-17.0-1.0","A367","true","img/card_backs/set1/yellow.gif","img/card_backs/set1/purple.gif","img/card_backs/set1/red.gif","img/card_backs/set1/green.gif","img/card_backs/set2/pink.gif","img/card_backs/set2/orange.gif","img/card_backs/set2/blue.gif","img/card_backs/set2/gray.gif","""event"",""trial"",""time""
""fullscreenenter"",""1"",""1863""
","
","
","""event"",""trial"",""time""
""fullscreenenter"",""1"",""1863""
","
","","644.6000000089407","","","","practice","2021-07-01 03:10:00.806","img/practice_cards/backs/black.gif","0","100","0","",""
"casino-fixation","37","178675","0.0-17.0-0.1","A367","true","img/card_backs/set1/yellow.gif","img/card_backs/set1/purple.gif","img/card_backs/set1/red.gif","img/card_backs/set1/green.gif","img/card_backs/set2/pink.gif","img/card_backs/set2/orange.gif","img/card_backs/set2/blue.gif","img/card_backs/set2/gray.gif","""event"",""trial"",""time""
""fullscreenenter"",""1"",""1863""
","
","
","""event"",""trial"",""time""
""fullscreenenter"",""1"",""1863""
","
","","null","","null","","fixation","2021-07-01 03:10:01.318","","","","","",""
"card-selection-trial","38","180969","0.0-17.0-1.1","A367","true","img/card_backs/set1/yellow.gif","img/card_backs/set1/purple.gif","img/card_backs/set1/red.gif","img/card_backs/set1/green.gif","img/card_backs/set2/pink.gif","img/card_backs/set2/orange.gif","img/card_backs/set2/blue.gif","img/card_backs/set2/gray.gif","""event"",""trial"",""time""
""fullscreenenter"",""1"",""1863""
","
","
","""event"",""trial"",""time""
""fullscreenenter"",""1"",""1863""
","
","","276.29999999701977","","","","practice","2021-07-01 03:10:03.613","img/practice_cards/backs/dark_green.gif","0","200","0","",""
"casino-fixation","39","181483","0.0-17.0-0.2","A367","true","img/card_backs/set1/yellow.gif","img/card_backs/set1/purple.gif","img/card_backs/set1/red.gif","img/card_backs/set1/green.gif","img/card_backs/set2/pink.gif","img/card_backs/set2/orange.gif","img/card_backs/set2/blue.gif","img/card_backs/set2/gray.gif","""event"",""trial"",""time""
""fullscreenenter"",""1"",""1863""
","
","
","""event"",""trial"",""time""
""fullscreenenter"",""1"",""1863""
","
","","null","","null","","fixation","2021-07-01 03:10:04.126","","","","","",""
"card-selection-trial","40","183849","0.0-17.0-1.2","A367","true","img/card_backs/set1/yellow.gif","img/card_backs/set1/purple.gif","img/card_backs/set1/red.gif","img/card_backs/set1/green.gif","img/card_backs/set2/pink.gif","img/card_backs/set2/orange.gif","img/card_backs/set2/blue.gif","img/card_backs/set2/gray.gif","""event"",""trial"",""time""
""fullscreenenter"",""1"",""1863""
","
","
","""event"",""trial"",""time""
""fullscreenenter"",""1"",""1863""
","
","","355.70000000298023","","","","practice","2021-07-01 03:10:06.492","img/practice_cards/backs/dark_green.gif","0","-200","0","",""
"casino-fixation","41","184360","0.0-17.0-0.3","A367","true","img/card_backs/set1/yellow.gif","img/card_backs/set1/purple.gif","img/card_backs/set1/red.gif","img/card_backs/set1/green.gif","img/card_backs/set2/pink.gif","img/card_backs/set2/orange.gif","img/card_backs/set2/blue.gif","img/card_backs/set2/gray.gif","""event"",""trial"",""time""
""fullscreenenter"",""1"",""1863""
","
","
","""event"",""trial"",""time""
""fullscreenenter"",""1"",""1863""
","
","","null","","null","","fixation","2021-07-01 03:10:07.003","","","","","",""
"card-selection-trial","42","186568","0.0-17.0-1.3","A367","true","img/card_backs/set1/yellow.gif","img/card_backs/set1/purple.gif","img/card_backs/set1/red.gif","img/card_backs/set1/green.gif","img/card_backs/set2/pink.gif","img/card_backs/set2/orange.gif","img/card_backs/set2/blue.gif","img/card_backs/set2/gray.gif","""event"",""trial"",""time""
""fullscreenenter"",""1"",""1863""
","
","
","""event"",""trial"",""time""
""fullscreenenter"",""1"",""1863""
","
","","187.79999999701977","","","","practice","2021-07-01 03:10:09.211","img/practice_cards/backs/brown.gif","0","-100","0","",""
"casino-fixation","43","187069","0.0-17.0-0.4","A367","true","img/card_backs/set1/yellow.gif","img/card_backs/set1/purple.gif","img/card_backs/set1/red.gif","img/card_backs/set1/green.gif","img/card_backs/set2/pink.gif","img/card_backs/set2/orange.gif","img/card_backs/set2/blue.gif","img/card_backs/set2/gray.gif","""event"",""trial"",""time""
""fullscreenenter"",""1"",""1863""
","
","
","""event"",""trial"",""time""
""fullscreenenter"",""1"",""1863""
","
","","null","","null","","fixation","2021-07-01 03:10:09.712","","","","","",""
"card-selection-trial","44","189467","0.0-17.0-1.4","A367","true","img/card_backs/set1/yellow.gif","img/card_backs/set1/purple.gif","img/card_backs/set1/red.gif","img/card_backs/set1/green.gif","img/card_backs/set2/pink.gif","img/card_backs/set2/orange.gif","img/card_backs/set2/blue.gif","img/card_backs/set2/gray.gif","""event"",""trial"",""time""
""fullscreenenter"",""1"",""1863""
","
","
","""event"",""trial"",""time""
""fullscreenenter"",""1"",""1863""
","
","","379.70000000298023","","","","practice","2021-07-01 03:10:12.110","img/practice_cards/backs/black.gif","1","-100","0","",""
"casino-fixation","45","189981","0.0-17.0-0.5","A367","true","img/card_backs/set1/yellow.gif","img/card_backs/set1/purple.gif","img/card_backs/set1/red.gif","img/card_backs/set1/green.gif","img/card_backs/set2/pink.gif","img/card_backs/set2/orange.gif","img/card_backs/set2/blue.gif","img/card_backs/set2/gray.gif","""event"",""trial"",""time""
""fullscreenenter"",""1"",""1863""
","
","
","""event"",""trial"",""time""
""fullscreenenter"",""1"",""1863""
","
","","null","","null","","fixation","2021-07-01 03:10:12.624","","","","","",""
"card-selection-trial","46","192391","0.0-17.0-1.5","A367","true","img/card_backs/set1/yellow.gif","img/card_backs/set1/purple.gif","img/card_backs/set1/red.gif","img/card_backs/set1/green.gif","img/card_backs/set2/pink.gif","img/card_backs/set2/orange.gif","img/card_backs/set2/blue.gif","img/card_backs/set2/gray.gif","""event"",""trial"",""time""
""fullscreenenter"",""1"",""1863""
","
","
","""event"",""trial"",""time""
""fullscreenenter"",""1"",""1863""
","
","","396.90000000596046","","","","practice","2021-07-01 03:10:15.035","img/practice_cards/backs/dark_green.gif","2","200","0","",""
"casino-fixation","47","192908","0.0-17.0-0.6","A367","true","img/card_backs/set1/yellow.gif","img/card_backs/set1/purple.gif","img/card_backs/set1/red.gif","img/card_backs/set1/green.gif","img/card_backs/set2/pink.gif","img/card_backs/set2/orange.gif","img/card_backs/set2/blue.gif","img/card_backs/set2/gray.gif","""event"",""trial"",""time""
""fullscreenenter"",""1"",""1863""
","
","
","""event"",""trial"",""time""
""fullscreenenter"",""1"",""1863""
","
","","null","","null","","fixation","2021-07-01 03:10:15.551","","","","","",""
"card-selection-trial","48","195079","0.0-17.0-1.6","A367","true","img/card_backs/set1/yellow.gif","img/card_backs/set1/purple.gif","img/card_backs/set1/red.gif","img/card_backs/set1/green.gif","img/card_backs/set2/pink.gif","img/card_backs/set2/orange.gif","img/card_backs/set2/blue.gif","img/card_backs/set2/gray.gif","""event"",""trial"",""time""
""fullscreenenter"",""1"",""1863""
","
","
","""event"",""trial"",""time""
""fullscreenenter"",""1"",""1863""
","
","","157.5","","","","practice","2021-07-01 03:10:17.722","img/practice_cards/backs/dark_green.gif","2","-200","0","",""
"casino-fixation","49","195588","0.0-17.0-0.7","A367","true","img/card_backs/set1/yellow.gif","img/card_backs/set1/purple.gif","img/card_backs/set1/red.gif","img/card_backs/set1/green.gif","img/card_backs/set2/pink.gif","img/card_backs/set2/orange.gif","img/card_backs/set2/blue.gif","img/card_backs/set2/gray.gif","""event"",""trial"",""time""
""fullscreenenter"",""1"",""1863""
","
","
","""event"",""trial"",""time""
""fullscreenenter"",""1"",""1863""
","
","","null","","null","","fixation","2021-07-01 03:10:18.231","","","","","",""
"card-selection-trial","50","197854","0.0-17.0-1.7","A367","true","img/card_backs/set1/yellow.gif","img/card_backs/set1/purple.gif","img/card_backs/set1/red.gif","img/card_backs/set1/green.gif","img/card_backs/set2/pink.gif","img/card_backs/set2/orange.gif","img/card_backs/set2/blue.gif","img/card_backs/set2/gray.gif","""event"",""trial"",""time""
""fullscreenenter"",""1"",""1863""
","
","
","""event"",""trial"",""time""
""fullscreenenter"",""1"",""1863""
","
","","260.6000000089407","","","","practice","2021-07-01 03:10:20.497","img/practice_cards/backs/black.gif","3","-100","0","",""
"casino-fixation","51","198368","0.0-17.0-0.8","A367","true","img/card_backs/set1/yellow.gif","img/card_backs/set1/purple.gif","img/card_backs/set1/red.gif","img/card_backs/set1/green.gif","img/card_backs/set2/pink.gif","img/card_backs/set2/orange.gif","img/card_backs/set2/blue.gif","img/card_backs/set2/gray.gif","""event"",""trial"",""time""
""fullscreenenter"",""1"",""1863""
","
","
","""event"",""trial"",""time""
""fullscreenenter"",""1"",""1863""
","
","","null","","null","","fixation","2021-07-01 03:10:21.011","","","","","",""
"card-selection-trial","52","200671","0.0-17.0-1.8","A367","true","img/card_backs/set1/yellow.gif","img/card_backs/set1/purple.gif","img/card_backs/set1/red.gif","img/card_backs/set1/green.gif","img/card_backs/set2/pink.gif","img/card_backs/set2/orange.gif","img/card_backs/set2/blue.gif","img/card_backs/set2/gray.gif","""event"",""trial"",""time""
""fullscreenenter"",""1"",""1863""
","
","
","""event"",""trial"",""time""
""fullscreenenter"",""1"",""1863""
","
","","286.5","","","","practice","2021-07-01 03:10:23.314","img/practice_cards/backs/dark_green.gif","3","-200","0","",""
"casino-fixation","53","201185","0.0-17.0-0.9","A367","true","img/card_backs/set1/yellow.gif","img/card_backs/set1/purple.gif","img/card_backs/set1/red.gif","img/card_backs/set1/green.gif","img/card_backs/set2/pink.gif","img/card_backs/set2/orange.gif","img/card_backs/set2/blue.gif","img/card_backs/set2/gray.gif","""event"",""trial"",""time""
""fullscreenenter"",""1"",""1863""
","
","
","""event"",""trial"",""time""
""fullscreenenter"",""1"",""1863""
","
","","null","","null","","fixation","2021-07-01 03:10:23.828","","","","","",""
"card-selection-trial","54","203305","0.0-17.0-1.9","A367","true","img/card_backs/set1/yellow.gif","img/card_backs/set1/purple.gif","img/card_backs/set1/red.gif","img/card_backs/set1/green.gif","img/card_backs/set2/pink.gif","img/card_backs/set2/orange.gif","img/card_backs/set2/blue.gif","img/card_backs/set2/gray.gif","""event"",""trial"",""time""
""fullscreenenter"",""1"",""1863""
","
","
","""event"",""trial"",""time""
""fullscreenenter"",""1"",""1863""
","
","","111.40000000596046","","","","practice","2021-07-01 03:10:25.948","img/practice_cards/backs/brown.gif","2","100","0","",""
"casino-keyboard-response","55","205952","0.0-18.0","A367","true","img/card_backs/set1/yellow.gif","img/card_backs/set1/purple.gif","img/card_backs/set1/red.gif","img/card_backs/set1/green.gif","img/card_backs/set2/pink.gif","img/card_backs/set2/orange.gif","img/card_backs/set2/blue.gif","img/card_backs/set2/gray.gif","""event"",""trial"",""time""
""fullscreenenter"",""1"",""1863""
","
","
","""event"",""trial"",""time""
""fullscreenenter"",""1"",""1863""
","
","","2645.7999999970198","You earned -300 tokens during the practice round!","82","","","2021-07-01 03:10:28.595","","","","","",""
"casino-keyboard-response","56","209887","0.0-19.0-0.0","A367","true","img/card_backs/set1/yellow.gif","img/card_backs/set1/purple.gif","img/card_backs/set1/red.gif","img/card_backs/set1/green.gif","img/card_backs/set2/pink.gif","img/card_backs/set2/orange.gif","img/card_backs/set2/blue.gif","img/card_backs/set2/gray.gif","""event"",""trial"",""time""
""fullscreenenter"",""1"",""1863""
","
","
","""event"",""trial"",""time""
""fullscreenenter"",""1"",""1863""
","
","","3933.7000000029802","Nice job! You are almost ready to play the real game.","86","","instructions","2021-07-01 03:10:32.531","","","","","",""
"casino-keyboard-response","57","215831","0.0-19.0-0.1","A367","true","img/card_backs/set1/yellow.gif","img/card_backs/set1/purple.gif","img/card_backs/set1/red.gif","img/card_backs/set1/green.gif","img/card_backs/set2/pink.gif","img/card_backs/set2/orange.gif","img/card_backs/set2/blue.gif","img/card_backs/set2/gray.gif","""event"",""trial"",""time""
""fullscreenenter"",""1"",""1863""
","
","
","""event"",""trial"",""time""
""fullscreenenter"",""1"",""1863""
","
","","5941.899999991059","You will play two rounds of the real game. In each round, you will pick 100 cards in total.","73","","instructions","2021-07-01 03:10:38.474","","","","","",""
"casino-keyboard-response","58","219760","0.0-19.0-0.2","A367","true","img/card_backs/set1/yellow.gif","img/card_backs/set1/purple.gif","img/card_backs/set1/red.gif","img/card_backs/set1/green.gif","img/card_backs/set2/pink.gif","img/card_backs/set2/orange.gif","img/card_backs/set2/blue.gif","img/card_backs/set2/gray.gif","""event"",""trial"",""time""
""fullscreenenter"",""1"",""1863""
","
","
","""event"",""trial"",""time""
""fullscreenenter"",""1"",""1863""
","
","","3926.7999999970198","We are now going to ask you some questions about how the game works.","66","","instructions","2021-07-01 03:10:42.403","","","","","",""
"casino-keyboard-response","59","225533","0.0-19.0-0.3","A367","true","img/card_backs/set1/yellow.gif","img/card_backs/set1/purple.gif","img/card_backs/set1/red.gif","img/card_backs/set1/green.gif","img/card_backs/set2/pink.gif","img/card_backs/set2/orange.gif","img/card_backs/set2/blue.gif","img/card_backs/set2/gray.gif","""event"",""trial"",""time""
""fullscreenenter"",""1"",""1863""
","
","
","""event"",""trial"",""time""
""fullscreenenter"",""1"",""1863""
","
","","5771.70000000298","Answer carefully. You will not be able to begin the game until you answer them correctly.","67","","instructions","2021-07-01 03:10:48.176","","","","","",""
"casino-comp_q","60","231380","0.0-20.0-0.0","A367","true","img/card_backs/set1/yellow.gif","img/card_backs/set1/purple.gif","img/card_backs/set1/red.gif","img/card_backs/set1/green.gif","img/card_backs/set2/pink.gif","img/card_backs/set2/orange.gif","img/card_backs/set2/blue.gif","img/card_backs/set2/gray.gif","""event"",""trial"",""time""
""fullscreenenter"",""1"",""1863""
","
","
","""event"",""trial"",""time""
""fullscreenenter"",""1"",""1863""
","
","","5844.9000000059605","True or False: All the decks have some cards that cause you to win tokens and some cards that cause you to lose tokens.","84","","","2021-07-01 03:10:54.024","","","","","",""
"casino-keyboard-response","61","234103","0.0-20.0-1.0","A367","true","img/card_backs/set1/yellow.gif","img/card_backs/set1/purple.gif","img/card_backs/set1/red.gif","img/card_backs/set1/green.gif","img/card_backs/set2/pink.gif","img/card_backs/set2/orange.gif","img/card_backs/set2/blue.gif","img/card_backs/set2/gray.gif","""event"",""trial"",""time""
""fullscreenenter"",""1"",""1863""
","
","
","""event"",""trial"",""time""
""fullscreenenter"",""1"",""1863""
","
","","2720.5999999940395","True is correct! All the decks have a mix of winning and losing cards.","77","","","2021-07-01 03:10:56.746","","","","","true",""
"casino-comp_q","62","236691","0.0-21.0-0.0","A367","true","img/card_backs/set1/yellow.gif","img/card_backs/set1/purple.gif","img/card_backs/set1/red.gif","img/card_backs/set1/green.gif","img/card_backs/set2/pink.gif","img/card_backs/set2/orange.gif","img/card_backs/set2/blue.gif","img/card_backs/set2/gray.gif","""event"",""trial"",""time""
""fullscreenenter"",""1"",""1863""
","
","
","""event"",""trial"",""time""
""fullscreenenter"",""1"",""1863""
","
","","2586.5","True or False: You will have as much time as you want to make your response.","70","","","2021-07-01 03:10:59.334","","","","","",""
"casino-keyboard-response","63","239008","0.0-21.0-1.0","A367","true","img/card_backs/set1/yellow.gif","img/card_backs/set1/purple.gif","img/card_backs/set1/red.gif","img/card_backs/set1/green.gif","img/card_backs/set2/pink.gif","img/card_backs/set2/orange.gif","img/card_backs/set2/blue.gif","img/card_backs/set2/gray.gif","""event"",""trial"",""time""
""fullscreenenter"",""1"",""1863""
","
","
","""event"",""trial"",""time""
""fullscreenenter"",""1"",""1863""
","
","","2313.0999999940395","False is correct! You will only have 10 seconds to make each choice.","75","","","2021-07-01 03:11:01.651","","","","","true",""
"casino-comp_q","64","241342","0.0-22.0-0.0","A367","true","img/card_backs/set1/yellow.gif","img/card_backs/set1/purple.gif","img/card_backs/set1/red.gif","img/card_backs/set1/green.gif","img/card_backs/set2/pink.gif","img/card_backs/set2/orange.gif","img/card_backs/set2/blue.gif","img/card_backs/set2/gray.gif","""event"",""trial"",""time""
""fullscreenenter"",""1"",""1863""
","
","
","""event"",""trial"",""time""
""fullscreenenter"",""1"",""1863""
","
","","2332.5","True or False: The location of the deck determines how lucky it is.","70","","","2021-07-01 03:11:03.985","","","","","",""
"casino-keyboard-response","65","243611","0.0-22.0-1.0","A367","true","img/card_backs/set1/yellow.gif","img/card_backs/set1/purple.gif","img/card_backs/set1/red.gif","img/card_backs/set1/green.gif","img/card_backs/set2/pink.gif","img/card_backs/set2/orange.gif","img/card_backs/set2/blue.gif","img/card_backs/set2/gray.gif","""event"",""trial"",""time""
""fullscreenenter"",""1"",""1863""
","
","
","""event"",""trial"",""time""
""fullscreenenter"",""1"",""1863""
","
","","2267.5999999940395","False is correct! The <i>color</i>  of the deck determines how lucky or unlucky it is.","68","","","2021-07-01 03:11:06.254","","","","","true",""
"casino-keyboard-response","66","247684","0.0-23.0-0.0","A367","true","img/card_backs/set1/yellow.gif","img/card_backs/set1/purple.gif","img/card_backs/set1/red.gif","img/card_backs/set1/green.gif","img/card_backs/set2/pink.gif","img/card_backs/set2/orange.gif","img/card_backs/set2/blue.gif","img/card_backs/set2/gray.gif","""event"",""trial"",""time""
""fullscreenenter"",""1"",""1863""
","
","
","""event"",""trial"",""time""
""fullscreenenter"",""1"",""1863""
","
","","4071.6000000089407","Great job! Now it's time to start the real game.","82","","instructions","2021-07-01 03:11:10.327","","","","","",""
"casino-keyboard-response","67","252520","0.0-23.0-0.1","A367","true","img/card_backs/set1/yellow.gif","img/card_backs/set1/purple.gif","img/card_backs/set1/red.gif","img/card_backs/set1/green.gif","img/card_backs/set2/pink.gif","img/card_backs/set2/orange.gif","img/card_backs/set2/blue.gif","img/card_backs/set2/gray.gif","""event"",""trial"",""time""
""fullscreenenter"",""1"",""1863""
","
","
","""event"",""trial"",""time""
""fullscreenenter"",""1"",""1863""
","
","","4833.9000000059605","Before we start, we're going to head into a new room of the casino.","86","","instructions","2021-07-01 03:11:15.163","","","","","",""
"casino-keyboard-response","68","258520","0.0-24.0-0.0","A367","true","img/card_backs/set1/yellow.gif","img/card_backs/set1/purple.gif","img/card_backs/set1/red.gif","img/card_backs/set1/green.gif","img/card_backs/set2/pink.gif","img/card_backs/set2/orange.gif","img/card_backs/set2/blue.gif","img/card_backs/set2/gray.gif","""event"",""trial"",""time""
""fullscreenenter"",""1"",""1863""
","
","
","""event"",""trial"",""time""
""fullscreenenter"",""1"",""1863""
","
","","5999.100000008941","Here we are! The real game will use different cards, but the rules will be the same.","71","","instructions","2021-07-01 03:11:21.164","","","","","",""
"casino-keyboard-response","69","260255","0.0-24.0-0.1","A367","true","img/card_backs/set1/yellow.gif","img/card_backs/set1/purple.gif","img/card_backs/set1/red.gif","img/card_backs/set1/green.gif","img/card_backs/set2/pink.gif","img/card_backs/set2/orange.gif","img/card_backs/set2/blue.gif","img/card_backs/set2/gray.gif","""event"",""trial"",""time""
""fullscreenenter"",""1"",""1863""
","
","
","""event"",""trial"",""time""
""fullscreenenter"",""1"",""1863""
","
","","1732.7000000029802","Ready? Put your fingers over the '2', '4', 6', and '8' keys so you are ready to play the game. </br> Then press 2 to start.","50","","instructions","2021-07-01 03:11:22.898","","","","","",""
"casino-fixation","70","260770","0.0-25.0-0.0","A367","true","img/card_backs/set1/yellow.gif","img/card_backs/set1/purple.gif","img/card_backs/set1/red.gif","img/card_backs/set1/green.gif","img/card_backs/set2/pink.gif","img/card_backs/set2/orange.gif","img/card_backs/set2/blue.gif","img/card_backs/set2/gray.gif","""event"",""trial"",""time""
""fullscreenenter"",""1"",""1863""
","
","
","""event"",""trial"",""time""
""fullscreenenter"",""1"",""1863""
","
","","null","","null","","fixation","2021-07-01 03:11:23.413","","","","","",""
"card-selection-trial","71","263829","0.0-25.0-1.0","A367","true","img/card_backs/set1/yellow.gif","img/card_backs/set1/purple.gif","img/card_backs/set1/red.gif","img/card_backs/set1/green.gif","img/card_backs/set2/pink.gif","img/card_backs/set2/orange.gif","img/card_backs/set2/blue.gif","img/card_backs/set2/gray.gif","""event"",""trial"",""time""
""fullscreenenter"",""1"",""1863""
","
","
","""event"",""trial"",""time""
""fullscreenenter"",""1"",""1863""
","
","","1046.7000000029802","","","","real_trial","2021-07-01 03:11:26.473","img/card_backs/set1/yellow.gif","1","-190","1","",""
"casino-fixation","72","264343","0.0-25.0-0.1","A367","true","img/card_backs/set1/yellow.gif","img/card_backs/set1/purple.gif","img/card_backs/set1/red.gif","img/card_backs/set1/green.gif","img/card_backs/set2/pink.gif","img/card_backs/set2/orange.gif","img/card_backs/set2/blue.gif","img/card_backs/set2/gray.gif","""event"",""trial"",""time""
""fullscreenenter"",""1"",""1863""
","
","
","""event"",""trial"",""time""
""fullscreenenter"",""1"",""1863""
","
","","null","","null","","fixation","2021-07-01 03:11:26.986","","","","","",""
"card-selection-trial","73","267185","0.0-25.0-1.1","A367","true","img/card_backs/set1/yellow.gif","img/card_backs/set1/purple.gif","img/card_backs/set1/red.gif","img/card_backs/set1/green.gif","img/card_backs/set2/pink.gif","img/card_backs/set2/orange.gif","img/card_backs/set2/blue.gif","img/card_backs/set2/gray.gif","""event"",""trial"",""time""
""fullscreenenter"",""1"",""1863""
","
","
","""event"",""trial"",""time""
""fullscreenenter"",""1"",""1863""
","
","","831","","","","real_trial","2021-07-01 03:11:29.828","img/card_backs/set1/green.gif","2","40","1","",""
"casino-fixation","74","267698","0.0-25.0-0.2","A367","true","img/card_backs/set1/yellow.gif","img/card_backs/set1/purple.gif","img/card_backs/set1/red.gif","img/card_backs/set1/green.gif","img/card_backs/set2/pink.gif","img/card_backs/set2/orange.gif","img/card_backs/set2/blue.gif","img/card_backs/set2/gray.gif","""event"",""trial"",""time""
""fullscreenenter"",""1"",""1863""
","
","
","""event"",""trial"",""time""
""fullscreenenter"",""1"",""1863""
","
","","null","","null","","fixation","2021-07-01 03:11:30.341","","","","","",""
"card-selection-trial","75","269873","0.0-25.0-1.2","A367","true","img/card_backs/set1/yellow.gif","img/card_backs/set1/purple.gif","img/card_backs/set1/red.gif","img/card_backs/set1/green.gif","img/card_backs/set2/pink.gif","img/card_backs/set2/orange.gif","img/card_backs/set2/blue.gif","img/card_backs/set2/gray.gif","""event"",""trial"",""time""
""fullscreenenter"",""1"",""1863""
","
","
","""event"",""trial"",""time""
""fullscreenenter"",""1"",""1863""
","
","","161.8999999910593","","","","real_trial","2021-07-01 03:11:32.516","img/card_backs/set1/purple.gif","2","-190","1","",""
"casino-fixation","76","270376","0.0-25.0-0.3","A367","true","img/card_backs/set1/yellow.gif","img/card_backs/set1/purple.gif","img/card_backs/set1/red.gif","img/card_backs/set1/green.gif","img/card_backs/set2/pink.gif","img/card_backs/set2/orange.gif","img/card_backs/set2/blue.gif","img/card_backs/set2/gray.gif","""event"",""trial"",""time""
""fullscreenenter"",""1"",""1863""
","
","
","""event"",""trial"",""time""
""fullscreenenter"",""1"",""1863""
","
","","null","","null","","fixation","2021-07-01 03:11:33.019","","","","","",""
"card-selection-trial","77","272581","0.0-25.0-1.3","A367","true","img/card_backs/set1/yellow.gif","img/card_backs/set1/purple.gif","img/card_backs/set1/red.gif","img/card_backs/set1/green.gif","img/card_backs/set2/pink.gif","img/card_backs/set2/orange.gif","img/card_backs/set2/blue.gif","img/card_backs/set2/gray.gif","""event"",""trial"",""time""
""fullscreenenter"",""1"",""1863""
","
","
","""event"",""trial"",""time""
""fullscreenenter"",""1"",""1863""
","
","","191.5","","","","real_trial","2021-07-01 03:11:35.224","img/card_backs/set1/green.gif","3","-110","1","",""
"casino-fixation","78","273095","0.0-25.0-0.4","A367","true","img/card_backs/set1/yellow.gif","img/card_backs/set1/purple.gif","img/card_backs/set1/red.gif","img/card_backs/set1/green.gif","img/card_backs/set2/pink.gif","img/card_backs/set2/orange.gif","img/card_backs/set2/blue.gif","img/card_backs/set2/gray.gif","""event"",""trial"",""time""
""fullscreenenter"",""1"",""1863""
","
","
","""event"",""trial"",""time""
""fullscreenenter"",""1"",""1863""
","
","","null","","null","","fixation","2021-07-01 03:11:35.738","","","","","",""
"card-selection-trial","79","275187","0.0-25.0-1.4","A367","true","img/card_backs/set1/yellow.gif","img/card_backs/set1/purple.gif","img/card_backs/set1/red.gif","img/card_backs/set1/green.gif","img/card_backs/set2/pink.gif","img/card_backs/set2/orange.gif","img/card_backs/set2/blue.gif","img/card_backs/set2/gray.gif","""event"",""trial"",""time""
""fullscreenenter"",""1"",""1863""
","
","
","""event"",""trial"",""time""
""fullscreenenter"",""1"",""1863""
","
","","86.20000000298023","","","","real_trial","2021-07-01 03:11:37.830","img/card_backs/set1/green.gif","0","-90","1","",""
"casino-fixation","80","275699","0.0-25.0-0.5","A367","true","img/card_backs/set1/yellow.gif","img/card_backs/set1/purple.gif","img/card_backs/set1/red.gif","img/card_backs/set1/green.gif","img/card_backs/set2/pink.gif","img/card_backs/set2/orange.gif","img/card_backs/set2/blue.gif","img/card_backs/set2/gray.gif","""event"",""trial"",""time""
""fullscreenenter"",""1"",""1863""
","
","
","""event"",""trial"",""time""
""fullscreenenter"",""1"",""1863""
","
","","null","","null","","fixation","2021-07-01 03:11:38.342","","","","","",""
"card-selection-trial","81","277944","0.0-25.0-1.5","A367","true","img/card_backs/set1/yellow.gif","img/card_backs/set1/purple.gif","img/card_backs/set1/red.gif","img/card_backs/set1/green.gif","img/card_backs/set2/pink.gif","img/card_backs/set2/orange.gif","img/card_backs/set2/blue.gif","img/card_backs/set2/gray.gif","""event"",""trial"",""time""
""fullscreenenter"",""1"",""1863""
","
","
","""event"",""trial"",""time""
""fullscreenenter"",""1"",""1863""
","
","","232","","","","real_trial","2021-07-01 03:11:40.587","img/card_backs/set1/green.gif","0","40","1","",""
"casino-fixation","82","278458","0.0-25.0-0.6","A367","true","img/card_backs/set1/yellow.gif","img/card_backs/set1/purple.gif","img/card_backs/set1/red.gif","img/card_backs/set1/green.gif","img/card_backs/set2/pink.gif","img/card_backs/set2/orange.gif","img/card_backs/set2/blue.gif","img/card_backs/set2/gray.gif","""event"",""trial"",""time""
""fullscreenenter"",""1"",""1863""
","
","
","""event"",""trial"",""time""
""fullscreenenter"",""1"",""1863""
","
","","null","","null","","fixation","2021-07-01 03:11:41.101","","","","","",""
"card-selection-trial","83","280488","0.0-25.0-1.6","A367","true","img/card_backs/set1/yellow.gif","img/card_backs/set1/purple.gif","img/card_backs/set1/red.gif","img/card_backs/set1/green.gif","img/card_backs/set2/pink.gif","img/card_backs/set2/orange.gif","img/card_backs/set2/blue.gif","img/card_backs/set2/gray.gif","""event"",""trial"",""time""
""fullscreenenter"",""1"",""1863""
","
","
","""event"",""trial"",""time""
""fullscreenenter"",""1"",""1863""
","
","","16.399999991059303","","","","real_trial","2021-07-01 03:11:43.131","img/card_backs/set1/yellow.gif","0","240","1","",""
"casino-fixation","84","280993","0.0-25.0-0.7","A367","true","img/card_backs/set1/yellow.gif","img/card_backs/set1/purple.gif","img/card_backs/set1/red.gif","img/card_backs/set1/green.gif","img/card_backs/set2/pink.gif","img/card_backs/set2/orange.gif","img/card_backs/set2/blue.gif","img/card_backs/set2/gray.gif","""event"",""trial"",""time""
""fullscreenenter"",""1"",""1863""
","
","
","""event"",""trial"",""time""
""fullscreenenter"",""1"",""1863""
","
","","null","","null","","fixation","2021-07-01 03:11:43.636","","","","","",""
"card-selection-trial","85","283241","0.0-25.0-1.7","A367","true","img/card_backs/set1/yellow.gif","img/card_backs/set1/purple.gif","img/card_backs/set1/red.gif","img/card_backs/set1/green.gif","img/card_backs/set2/pink.gif","img/card_backs/set2/orange.gif","img/card_backs/set2/blue.gif","img/card_backs/set2/gray.gif","""event"",""trial"",""time""
""fullscreenenter"",""1"",""1863""
","
","
","""event"",""trial"",""time""
""fullscreenenter"",""1"",""1863""
","
","","234.5","","","","real_trial","2021-07-01 03:11:45.884","img/card_backs/set1/red.gif","0","60","1","",""
"casino-fixation","86","283753","0.0-25.0-0.8","A367","true","img/card_backs/set1/yellow.gif","img/card_backs/set1/purple.gif","img/card_backs/set1/red.gif","img/card_backs/set1/green.gif","img/card_backs/set2/pink.gif","img/card_backs/set2/orange.gif","img/card_backs/set2/blue.gif","img/card_backs/set2/gray.gif","""event"",""trial"",""time""
""fullscreenenter"",""1"",""1863""
","
","
","""event"",""trial"",""time""
""fullscreenenter"",""1"",""1863""
","
","","null","","null","","fixation","2021-07-01 03:11:46.396","","","","","",""
"card-selection-trial","87","285871","0.0-25.0-1.8","A367","true","img/card_backs/set1/yellow.gif","img/card_backs/set1/purple.gif","img/card_backs/set1/red.gif","img/card_backs/set1/green.gif","img/card_backs/set2/pink.gif","img/card_backs/set2/orange.gif","img/card_backs/set2/blue.gif","img/card_backs/set2/gray.gif","""event"",""trial"",""time""
""fullscreenenter"",""1"",""1863""
","
","
","""event"",""trial"",""time""
""fullscreenenter"",""1"",""1863""
","
","","100","","","","real_trial","2021-07-01 03:11:48.514","img/card_backs/set1/red.gif","0","-110","1","",""
"casino-fixation","88","286386","0.0-25.0-0.9","A367","true","img/card_backs/set1/yellow.gif","img/card_backs/set1/purple.gif","img/card_backs/set1/red.gif","img/card_backs/set1/green.gif","img/card_backs/set2/pink.gif","img/card_backs/set2/orange.gif","img/card_backs/set2/blue.gif","img/card_backs/set2/gray.gif","""event"",""trial"",""time""
""fullscreenenter"",""1"",""1863""
","
","
","""event"",""trial"",""time""
""fullscreenenter"",""1"",""1863""
","
","","null","","null","","fixation","2021-07-01 03:11:49.029","","","","","",""
"card-selection-trial","89","288462","0.0-25.0-1.9","A367","true","img/card_backs/set1/yellow.gif","img/card_backs/set1/purple.gif","img/card_backs/set1/red.gif","img/card_backs/set1/green.gif","img/card_backs/set2/pink.gif","img/card_backs/set2/orange.gif","img/card_backs/set2/blue.gif","img/card_backs/set2/gray.gif","""event"",""trial"",""time""
""fullscreenenter"",""1"",""1863""
","
","
","""event"",""trial"",""time""
""fullscreenenter"",""1"",""1863""
","
","","68.59999999403954","","","","real_trial","2021-07-01 03:11:51.105","img/card_backs/set1/purple.gif","0","240","1","",""
"casino-fixation","90","288966","0.0-25.0-0.10","A367","true","img/card_backs/set1/yellow.gif","img/card_backs/set1/purple.gif","img/card_backs/set1/red.gif","img/card_backs/set1/green.gif","img/card_backs/set2/pink.gif","img/card_backs/set2/orange.gif","img/card_backs/set2/blue.gif","img/card_backs/set2/gray.gif","""event"",""trial"",""time""
""fullscreenenter"",""1"",""1863""
","
","
","""event"",""trial"",""time""
""fullscreenenter"",""1"",""1863""
","
","","null","","null","","fixation","2021-07-01 03:11:51.609","","","","","",""
"card-selection-trial","91","291273","0.0-25.0-1.10","A367","true","img/card_backs/set1/yellow.gif","img/card_backs/set1/purple.gif","img/card_backs/set1/red.gif","img/card_backs/set1/green.gif","img/card_backs/set2/pink.gif","img/card_backs/set2/orange.gif","img/card_backs/set2/blue.gif","img/card_backs/set2/gray.gif","""event"",""trial"",""time""
""fullscreenenter"",""1"",""1863""
","
","
","""event"",""trial"",""time""
""fullscreenenter"",""1"",""1863""
","
","","301","","","","real_trial","2021-07-01 03:11:53.916","img/card_backs/set1/purple.gif","0","-200","1","",""
"casino-fixation","92","291774","0.0-25.0-0.11","A367","true","img/card_backs/set1/yellow.gif","img/card_backs/set1/purple.gif","img/card_backs/set1/red.gif","img/card_backs/set1/green.gif","img/card_backs/set2/pink.gif","img/card_backs/set2/orange.gif","img/card_backs/set2/blue.gif","img/card_backs/set2/gray.gif","""event"",""trial"",""time""
""fullscreenenter"",""1"",""1863""
","
","
","""event"",""trial"",""time""
""fullscreenenter"",""1"",""1863""
","
","","null","","null","","fixation","2021-07-01 03:11:54.417","","","","","",""
"card-selection-trial","93","294157","0.0-25.0-1.11","A367","true","img/card_backs/set1/yellow.gif","img/card_backs/set1/purple.gif","img/card_backs/set1/red.gif","img/card_backs/set1/green.gif","img/card_backs/set2/pink.gif","img/card_backs/set2/orange.gif","img/card_backs/set2/blue.gif","img/card_backs/set2/gray.gif","""event"",""trial"",""time""
""fullscreenenter"",""1"",""1863""
","
","
","""event"",""trial"",""time""
""fullscreenenter"",""1"",""1863""
","
","","377.6000000089407","","","","real_trial","2021-07-01 03:11:56.800","img/card_backs/set1/purple.gif","0","250","1","",""
"casino-fixation","94","294669","0.0-25.0-0.12","A367","true","img/card_backs/set1/yellow.gif","img/card_backs/set1/purple.gif","img/card_backs/set1/red.gif","img/card_backs/set1/green.gif","img/card_backs/set2/pink.gif","img/card_backs/set2/orange.gif","img/card_backs/set2/blue.gif","img/card_backs/set2/gray.gif","""event"",""trial"",""time""
""fullscreenenter"",""1"",""1863""
","
","
","""event"",""trial"",""time""
""fullscreenenter"",""1"",""1863""
","
","","null","","null","","fixation","2021-07-01 03:11:57.313","","","","","",""
"card-selection-trial","95","296868","0.0-25.0-1.12","A367","true","img/card_backs/set1/yellow.gif","img/card_backs/set1/purple.gif","img/card_backs/set1/red.gif","img/card_backs/set1/green.gif","img/card_backs/set2/pink.gif","img/card_backs/set2/orange.gif","img/card_backs/set2/blue.gif","img/card_backs/set2/gray.gif","""event"",""trial"",""time""
""fullscreenenter"",""1"",""1863""
","
","
","""event"",""trial"",""time""
""fullscreenenter"",""1"",""1863""
","
","","193.59999999403954","","","","real_trial","2021-07-01 03:11:59.511","img/card_backs/set1/purple.gif","1","240","1","",""
"casino-fixation","96","297382","0.0-25.0-0.13","A367","true","img/card_backs/set1/yellow.gif","img/card_backs/set1/purple.gif","img/card_backs/set1/red.gif","img/card_backs/set1/green.gif","img/card_backs/set2/pink.gif","img/card_backs/set2/orange.gif","img/card_backs/set2/blue.gif","img/card_backs/set2/gray.gif","""event"",""trial"",""time""
""fullscreenenter"",""1"",""1863""
","
","
","""event"",""trial"",""time""
""fullscreenenter"",""1"",""1863""
","
","","null","","null","","fixation","2021-07-01 03:12:00.025","","","","","",""
"card-selection-trial","97","299493","0.0-25.0-1.13","A367","true","img/card_backs/set1/yellow.gif","img/card_backs/set1/purple.gif","img/card_backs/set1/red.gif","img/card_backs/set1/green.gif","img/card_backs/set2/pink.gif","img/card_backs/set2/orange.gif","img/card_backs/set2/blue.gif","img/card_backs/set2/gray.gif","""event"",""trial"",""time""
""fullscreenenter"",""1"",""1863""
","
","
","""event"",""trial"",""time""
""fullscreenenter"",""1"",""1863""
","
","","107.90000000596046","","","","real_trial","2021-07-01 03:12:02.136","img/card_backs/set1/yellow.gif","1","-210","1","",""
"casino-fixation","98","299995","0.0-25.0-0.14","A367","true","img/card_backs/set1/yellow.gif","img/card_backs/set1/purple.gif","img/card_backs/set1/red.gif","img/card_backs/set1/green.gif","img/card_backs/set2/pink.gif","img/card_backs/set2/orange.gif","img/card_backs/set2/blue.gif","img/card_backs/set2/gray.gif","""event"",""trial"",""time""
""fullscreenenter"",""1"",""1863""
","
","
","""event"",""trial"",""time""
""fullscreenenter"",""1"",""1863""
","
","","null","","null","","fixation","2021-07-01 03:12:02.638","","","","","",""
"card-selection-trial","99","302060","0.0-25.0-1.14","A367","true","img/card_backs/set1/yellow.gif","img/card_backs/set1/purple.gif","img/card_backs/set1/red.gif","img/card_backs/set1/green.gif","img/card_backs/set2/pink.gif","img/card_backs/set2/orange.gif","img/card_backs/set2/blue.gif","img/card_backs/set2/gray.gif","""event"",""trial"",""time""
""fullscreenenter"",""1"",""1863""
","
","
","""event"",""trial"",""time""
""fullscreenenter"",""1"",""1863""
","
","","59.70000000298023","","","","real_trial","2021-07-01 03:12:04.703","img/card_backs/set1/yellow.gif","0","-200","1","",""
"casino-fixation","100","302568","0.0-25.0-0.15","A367","true","img/card_backs/set1/yellow.gif","img/card_backs/set1/purple.gif","img/card_backs/set1/red.gif","img/card_backs/set1/green.gif","img/card_backs/set2/pink.gif","img/card_backs/set2/orange.gif","img/card_backs/set2/blue.gif","img/card_backs/set2/gray.gif","""event"",""trial"",""time""
""fullscreenenter"",""1"",""1863""
","
","
","""event"",""trial"",""time""
""fullscreenenter"",""1"",""1863""
","
","","null","","null","","fixation","2021-07-01 03:12:05.211","","","","","",""
"card-selection-trial","101","304637","0.0-25.0-1.15","A367","true","img/card_backs/set1/yellow.gif","img/card_backs/set1/purple.gif","img/card_backs/set1/red.gif","img/card_backs/set1/green.gif","img/card_backs/set2/pink.gif","img/card_backs/set2/orange.gif","img/card_backs/set2/blue.gif","img/card_backs/set2/gray.gif","""event"",""trial"",""time""
""fullscreenenter"",""1"",""1863""
","
","
","""event"",""trial"",""time""
""fullscreenenter"",""1"",""1863""
","
","","62.70000000298023","","","","real_trial","2021-07-01 03:12:07.280","img/card_backs/set1/yellow.gif","1","-190","1","",""
"casino-fixation","102","305146","0.0-25.0-0.16","A367","true","img/card_backs/set1/yellow.gif","img/card_backs/set1/purple.gif","img/card_backs/set1/red.gif","img/card_backs/set1/green.gif","img/card_backs/set2/pink.gif","img/card_backs/set2/orange.gif","img/card_backs/set2/blue.gif","img/card_backs/set2/gray.gif","""event"",""trial"",""time""
""fullscreenenter"",""1"",""1863""
","
","
","""event"",""trial"",""time""
""fullscreenenter"",""1"",""1863""
","
","","null","","null","","fixation","2021-07-01 03:12:07.789","","","","","",""
"card-selection-trial","103","307195","0.0-25.0-1.16","A367","true","img/card_backs/set1/yellow.gif","img/card_backs/set1/purple.gif","img/card_backs/set1/red.gif","img/card_backs/set1/green.gif","img/card_backs/set2/pink.gif","img/card_backs/set2/orange.gif","img/card_backs/set2/blue.gif","img/card_backs/set2/gray.gif","""event"",""trial"",""time""
""fullscreenenter"",""1"",""1863""
","
","
","""event"",""trial"",""time""
""fullscreenenter"",""1"",""1863""
","
","","43.1000000089407","","","","real_trial","2021-07-01 03:12:09.838","img/card_backs/set1/green.gif","2","40","1","",""
"casino-fixation","104","307703","0.0-25.0-0.17","A367","true","img/card_backs/set1/yellow.gif","img/card_backs/set1/purple.gif","img/card_backs/set1/red.gif","img/card_backs/set1/green.gif","img/card_backs/set2/pink.gif","img/card_backs/set2/orange.gif","img/card_backs/set2/blue.gif","img/card_backs/set2/gray.gif","""event"",""trial"",""time""
""fullscreenenter"",""1"",""1863""
","
","
","""event"",""trial"",""time""
""fullscreenenter"",""1"",""1863""
","
","","null","","null","","fixation","2021-07-01 03:12:10.346","","","","","",""
"card-selection-trial","105","310089","0.0-25.0-1.17","A367","true","img/card_backs/set1/yellow.gif","img/card_backs/set1/purple.gif","img/card_backs/set1/red.gif","img/card_backs/set1/green.gif","img/card_backs/set2/pink.gif","img/card_backs/set2/orange.gif","img/card_backs/set2/blue.gif","img/card_backs/set2/gray.gif","""event"",""trial"",""time""
""fullscreenenter"",""1"",""1863""
","
","
","""event"",""trial"",""time""
""fullscreenenter"",""1"",""1863""
","
","","380.40000000596046","","","","real_trial","2021-07-01 03:12:12.732","img/card_backs/set1/green.gif","2","60","1","",""
"casino-fixation","106","310595","0.0-25.0-0.18","A367","true","img/card_backs/set1/yellow.gif","img/card_backs/set1/purple.gif","img/card_backs/set1/red.gif","img/card_backs/set1/green.gif","img/card_backs/set2/pink.gif","img/card_backs/set2/orange.gif","img/card_backs/set2/blue.gif","img/card_backs/set2/gray.gif","""event"",""trial"",""time""
""fullscreenenter"",""1"",""1863""
","
","
","""event"",""trial"",""time""
""fullscreenenter"",""1"",""1863""
","
","","null","","null","","fixation","2021-07-01 03:12:13.238","","","","","",""
"card-selection-trial","107","312938","0.0-25.0-1.18","A367","true","img/card_backs/set1/yellow.gif","img/card_backs/set1/purple.gif","img/card_backs/set1/red.gif","img/card_backs/set1/green.gif","img/card_backs/set2/pink.gif","img/card_backs/set2/orange.gif","img/card_backs/set2/blue.gif","img/card_backs/set2/gray.gif","""event"",""trial"",""time""
""fullscreenenter"",""1"",""1863""
","
","
","""event"",""trial"",""time""
""fullscreenenter"",""1"",""1863""
","
","","336.29999999701977","","","","real_trial","2021-07-01 03:12:15.583","img/card_backs/set1/purple.gif","2","-190","1","",""
"casino-fixation","108","313447","0.0-25.0-0.19","A367","true","img/card_backs/set1/yellow.gif","img/card_backs/set1/purple.gif","img/card_backs/set1/red.gif","img/card_backs/set1/green.gif","img/card_backs/set2/pink.gif","img/card_backs/set2/orange.gif","img/card_backs/set2/blue.gif","img/card_backs/set2/gray.gif","""event"",""trial"",""time""
""fullscreenenter"",""1"",""1863""
","
","
","""event"",""trial"",""time""
""fullscreenenter"",""1"",""1863""
","
","","null","","null","","fixation","2021-07-01 03:12:16.090","","","","","",""
"card-selection-trial","109","316866","0.0-25.0-1.19","A367","true","img/card_backs/set1/yellow.gif","img/card_backs/set1/purple.gif","img/card_backs/set1/red.gif","img/card_backs/set1/green.gif","img/card_backs/set2/pink.gif","img/card_backs/set2/orange.gif","img/card_backs/set2/blue.gif","img/card_backs/set2/gray.gif","""event"",""trial"",""time""
""fullscreenenter"",""1"",""1863""
","
","
","""event"",""trial"",""time""
""fullscreenenter"",""1"",""1863""
","
","","1397.2999999970198","","","","real_trial","2021-07-01 03:12:19.510","img/card_backs/set1/red.gif","0","-90","1","",""
"casino-fixation","110","317375","0.0-25.0-0.20","A367","true","img/card_backs/set1/yellow.gif","img/card_backs/set1/purple.gif","img/card_backs/set1/red.gif","img/card_backs/set1/green.gif","img/card_backs/set2/pink.gif","img/card_backs/set2/orange.gif","img/card_backs/set2/blue.gif","img/card_backs/set2/gray.gif","""event"",""trial"",""time""
""fullscreenenter"",""1"",""1863""
","
","
","""event"",""trial"",""time""
""fullscreenenter"",""1"",""1863""
","
","","null","","null","","fixation","2021-07-01 03:12:20.018","","","","","",""
"card-selection-trial","111","320369","0.0-25.0-1.20","A367","true","img/card_backs/set1/yellow.gif","img/card_backs/set1/purple.gif","img/card_backs/set1/red.gif","img/card_backs/set1/green.gif","img/card_backs/set2/pink.gif","img/card_backs/set2/orange.gif","img/card_backs/set2/blue.gif","img/card_backs/set2/gray.gif","""event"",""trial"",""time""
""fullscreenenter"",""1"",""1863""
","
","
","""event"",""trial"",""time""
""fullscreenenter"",""1"",""1863""
","
","","974.6000000089407","","","","real_trial","2021-07-01 03:12:23.013","img/card_backs/set1/yellow.gif","2","240","1","",""
"casino-fixation","112","320875","0.0-25.0-0.21","A367","true","img/card_backs/set1/yellow.gif","img/card_backs/set1/purple.gif","img/card_backs/set1/red.gif","img/card_backs/set1/green.gif","img/card_backs/set2/pink.gif","img/card_backs/set2/orange.gif","img/card_backs/set2/blue.gif","img/card_backs/set2/gray.gif","""event"",""trial"",""time""
""fullscreenenter"",""1"",""1863""
","
","
","""event"",""trial"",""time""
""fullscreenenter"",""1"",""1863""
","
","","null","","null","","fixation","2021-07-01 03:12:23.518","","","","","",""
"card-selection-trial","113","323257","0.0-25.0-1.21","A367","true","img/card_backs/set1/yellow.gif","img/card_backs/set1/purple.gif","img/card_backs/set1/red.gif","img/card_backs/set1/green.gif","img/card_backs/set2/pink.gif","img/card_backs/set2/orange.gif","img/card_backs/set2/blue.gif","img/card_backs/set2/gray.gif","""event"",""trial"",""time""
""fullscreenenter"",""1"",""1863""
","
","
","""event"",""trial"",""time""
""fullscreenenter"",""1"",""1863""
","
","","371.59999999403954","","","","real_trial","2021-07-01 03:12:25.900","img/card_backs/set1/yellow.gif","2","-190","1","",""
"casino-fixation","114","323759","0.0-25.0-0.22","A367","true","img/card_backs/set1/yellow.gif","img/card_backs/set1/purple.gif","img/card_backs/set1/red.gif","img/card_backs/set1/green.gif","img/card_backs/set2/pink.gif","img/card_backs/set2/orange.gif","img/card_backs/set2/blue.gif","img/card_backs/set2/gray.gif","""event"",""trial"",""time""
""fullscreenenter"",""1"",""1863""
","
","
","""event"",""trial"",""time""
""fullscreenenter"",""1"",""1863""
","
","","null","","null","","fixation","2021-07-01 03:12:26.402","","","","","",""
"card-selection-trial","115","326521","0.0-25.0-1.22","A367","true","img/card_backs/set1/yellow.gif","img/card_backs/set1/purple.gif","img/card_backs/set1/red.gif","img/card_backs/set1/green.gif","img/card_backs/set2/pink.gif","img/card_backs/set2/orange.gif","img/card_backs/set2/blue.gif","img/card_backs/set2/gray.gif","""event"",""trial"",""time""
""fullscreenenter"",""1"",""1863""
","
","
","""event"",""trial"",""time""
""fullscreenenter"",""1"",""1863""
","
","","750.2999999970198","","","","real_trial","2021-07-01 03:12:29.164","img/card_backs/set1/yellow.gif","0","250","1","",""
"casino-fixation","116","327028","0.0-25.0-0.23","A367","true","img/card_backs/set1/yellow.gif","img/card_backs/set1/purple.gif","img/card_backs/set1/red.gif","img/card_backs/set1/green.gif","img/card_backs/set2/pink.gif","img/card_backs/set2/orange.gif","img/card_backs/set2/blue.gif","img/card_backs/set2/gray.gif","""event"",""trial"",""time""
""fullscreenenter"",""1"",""1863""
","
","
","""event"",""trial"",""time""
""fullscreenenter"",""1"",""1863""
","
","","null","","null","","fixation","2021-07-01 03:12:29.671","","","","","",""
"card-selection-trial","117","329846","0.0-25.0-1.23","A367","true","img/card_backs/set1/yellow.gif","img/card_backs/set1/purple.gif","img/card_backs/set1/red.gif","img/card_backs/set1/green.gif","img/card_backs/set2/pink.gif","img/card_backs/set2/orange.gif","img/card_backs/set2/blue.gif","img/card_backs/set2/gray.gif","""event"",""trial"",""time""
""fullscreenenter"",""1"",""1863""
","
","
","""event"",""trial"",""time""
""fullscreenenter"",""1"",""1863""
","
","","797.6000000089407","","","","real_trial","2021-07-01 03:12:32.489","img/card_backs/set1/yellow.gif","2","250","1","",""
"casino-fixation","118","330359","0.0-25.0-0.24","A367","true","img/card_backs/set1/yellow.gif","img/card_backs/set1/purple.gif","img/card_backs/set1/red.gif","img/card_backs/set1/green.gif","img/card_backs/set2/pink.gif","img/card_backs/set2/orange.gif","img/card_backs/set2/blue.gif","img/card_backs/set2/gray.gif","""event"",""trial"",""time""
""fullscreenenter"",""1"",""1863""
","
","
","""event"",""trial"",""time""
""fullscreenenter"",""1"",""1863""
","
","","null","","null","","fixation","2021-07-01 03:12:33.002","","","","","",""
"card-selection-trial","119","333244","0.0-25.0-1.24","A367","true","img/card_backs/set1/yellow.gif","img/card_backs/set1/purple.gif","img/card_backs/set1/red.gif","img/card_backs/set1/green.gif","img/card_backs/set2/pink.gif","img/card_backs/set2/orange.gif","img/card_backs/set2/blue.gif","img/card_backs/set2/gray.gif","""event"",""trial"",""time""
""fullscreenenter"",""1"",""1863""
","
","
","""event"",""trial"",""time""
""fullscreenenter"",""1"",""1863""
","
","","874.1999999880791","","","","real_trial","2021-07-01 03:12:35.887","img/card_backs/set1/yellow.gif","3","260","1","",""
"casino-fixation","120","333747","0.0-25.0-0.25","A367","true","img/card_backs/set1/yellow.gif","img/card_backs/set1/purple.gif","img/card_backs/set1/red.gif","img/card_backs/set1/green.gif","img/card_backs/set2/pink.gif","img/card_backs/set2/orange.gif","img/card_backs/set2/blue.gif","img/card_backs/set2/gray.gif","""event"",""trial"",""time""
""fullscreenenter"",""1"",""1863""
","
","
","""event"",""trial"",""time""
""fullscreenenter"",""1"",""1863""
","
","","null","","null","","fixation","2021-07-01 03:12:36.390","","","","","",""
"card-selection-trial","121","336426","0.0-25.0-1.25","A367","true","img/card_backs/set1/yellow.gif","img/card_backs/set1/purple.gif","img/card_backs/set1/red.gif","img/card_backs/set1/green.gif","img/card_backs/set2/pink.gif","img/card_backs/set2/orange.gif","img/card_backs/set2/blue.gif","img/card_backs/set2/gray.gif","""event"",""trial"",""time""
""fullscreenenter"",""1"",""1863""
","
","
","""event"",""trial"",""time""
""fullscreenenter"",""1"",""1863""
","
","","673.7999999970198","","","","real_trial","2021-07-01 03:12:39.069","img/card_backs/set1/yellow.gif","2","-200","1","",""
"casino-fixation","122","336943","0.0-25.0-0.26","A367","true","img/card_backs/set1/yellow.gif","img/card_backs/set1/purple.gif","img/card_backs/set1/red.gif","img/card_backs/set1/green.gif","img/card_backs/set2/pink.gif","img/card_backs/set2/orange.gif","img/card_backs/set2/blue.gif","img/card_backs/set2/gray.gif","""event"",""trial"",""time""
""fullscreenenter"",""1"",""1863""
","
","
","""event"",""trial"",""time""
""fullscreenenter"",""1"",""1863""
","
","","null","","null","","fixation","2021-07-01 03:12:39.586","","","","","",""
"card-selection-trial","123","339711","0.0-25.0-1.26","A367","true","img/card_backs/set1/yellow.gif","img/card_backs/set1/purple.gif","img/card_backs/set1/red.gif","img/card_backs/set1/green.gif","img/card_backs/set2/pink.gif","img/card_backs/set2/orange.gif","img/card_backs/set2/blue.gif","img/card_backs/set2/gray.gif","""event"",""trial"",""time""
""fullscreenenter"",""1"",""1863""
","
","
","""event"",""trial"",""time""
""fullscreenenter"",""1"",""1863""
","
","","748.9000000059605","","","","real_trial","2021-07-01 03:12:42.354","img/card_backs/set1/yellow.gif","1","-200","1","",""
"casino-fixation","124","340213","0.0-25.0-0.27","A367","true","img/card_backs/set1/yellow.gif","img/card_backs/set1/purple.gif","img/card_backs/set1/red.gif","img/card_backs/set1/green.gif","img/card_backs/set2/pink.gif","img/card_backs/set2/orange.gif","img/card_backs/set2/blue.gif","img/card_backs/set2/gray.gif","""event"",""trial"",""time""
""fullscreenenter"",""1"",""1863""
","
","
","""event"",""trial"",""time""
""fullscreenenter"",""1"",""1863""
","
","","null","","null","","fixation","2021-07-01 03:12:42.857","","","","","",""
"card-selection-trial","125","343031","0.0-25.0-1.27","A367","true","img/card_backs/set1/yellow.gif","img/card_backs/set1/purple.gif","img/card_backs/set1/red.gif","img/card_backs/set1/green.gif","img/card_backs/set2/pink.gif","img/card_backs/set2/orange.gif","img/card_backs/set2/blue.gif","img/card_backs/set2/gray.gif","""event"",""trial"",""time""
""fullscreenenter"",""1"",""1863""
","
","
","""event"",""trial"",""time""
""fullscreenenter"",""1"",""1863""
","
","","797.5","","","","real_trial","2021-07-01 03:12:45.674","img/card_backs/set1/yellow.gif","2","-190","1","",""
"casino-fixation","126","343535","0.0-25.0-0.28","A367","true","img/card_backs/set1/yellow.gif","img/card_backs/set1/purple.gif","img/card_backs/set1/red.gif","img/card_backs/set1/green.gif","img/card_backs/set2/pink.gif","img/card_backs/set2/orange.gif","img/card_backs/set2/blue.gif","img/card_backs/set2/gray.gif","""event"",""trial"",""time""
""fullscreenenter"",""1"",""1863""
","
","
","""event"",""trial"",""time""
""fullscreenenter"",""1"",""1863""
","
","","null","","null","","fixation","2021-07-01 03:12:46.178","","","","","",""
"card-selection-trial","127","346796","0.0-25.0-1.28","A367","true","img/card_backs/set1/yellow.gif","img/card_backs/set1/purple.gif","img/card_backs/set1/red.gif","img/card_backs/set1/green.gif","img/card_backs/set2/pink.gif","img/card_backs/set2/orange.gif","img/card_backs/set2/blue.gif","img/card_backs/set2/gray.gif","""event"",""trial"",""time""
""fullscreenenter"",""1"",""1863""
","
","
","""event"",""trial"",""time""
""fullscreenenter"",""1"",""1863""
","
","","1245.2000000029802","","","","real_trial","2021-07-01 03:12:49.439","img/card_backs/set1/purple.gif","3","-190","1","",""
"casino-fixation","128","347310","0.0-25.0-0.29","A367","true","img/card_backs/set1/yellow.gif","img/card_backs/set1/purple.gif","img/card_backs/set1/red.gif","img/card_backs/set1/green.gif","img/card_backs/set2/pink.gif","img/card_backs/set2/orange.gif","img/card_backs/set2/blue.gif","img/card_backs/set2/gray.gif","""event"",""trial"",""time""
""fullscreenenter"",""1"",""1863""
","
","
","""event"",""trial"",""time""
""fullscreenenter"",""1"",""1863""
","
","","null","","null","","fixation","2021-07-01 03:12:49.953","","","","","",""
"card-selection-trial","129","350540","0.0-25.0-1.29","A367","true","img/card_backs/set1/yellow.gif","img/card_backs/set1/purple.gif","img/card_backs/set1/red.gif","img/card_backs/set1/green.gif","img/card_backs/set2/pink.gif","img/card_backs/set2/orange.gif","img/card_backs/set2/blue.gif","img/card_backs/set2/gray.gif","""event"",""trial"",""time""
""fullscreenenter"",""1"",""1863""
","
","
","""event"",""trial"",""time""
""fullscreenenter"",""1"",""1863""
","
","","1210.699999988079","","","","real_trial","2021-07-01 03:12:53.183","img/card_backs/set1/purple.gif","2","-190","1","",""
"casino-fixation","130","351048","0.0-25.0-0.30","A367","true","img/card_backs/set1/yellow.gif","img/card_backs/set1/purple.gif","img/card_backs/set1/red.gif","img/card_backs/set1/green.gif","img/card_backs/set2/pink.gif","img/card_backs/set2/orange.gif","img/card_backs/set2/blue.gif","img/card_backs/set2/gray.gif","""event"",""trial"",""time""
""fullscreenenter"",""1"",""1863""
","
","
","""event"",""trial"",""time""
""fullscreenenter"",""1"",""1863""
","
","","null","","null","","fixation","2021-07-01 03:12:53.691","","","","","",""
"card-selection-trial","131","353701","0.0-25.0-1.30","A367","true","img/card_backs/set1/yellow.gif","img/card_backs/set1/purple.gif","img/card_backs/set1/red.gif","img/card_backs/set1/green.gif","img/card_backs/set2/pink.gif","img/card_backs/set2/orange.gif","img/card_backs/set2/blue.gif","img/card_backs/set2/gray.gif","""event"",""trial"",""time""
""fullscreenenter"",""1"",""1863""
","
","
","""event"",""trial"",""time""
""fullscreenenter"",""1"",""1863""
","
","","644.6000000089407","","","","real_trial","2021-07-01 03:12:56.344","img/card_backs/set1/green.gif","0","-110","1","",""
"casino-fixation","132","354215","0.0-25.0-0.31","A367","true","img/card_backs/set1/yellow.gif","img/card_backs/set1/purple.gif","img/card_backs/set1/red.gif","img/card_backs/set1/green.gif","img/card_backs/set2/pink.gif","img/card_backs/set2/orange.gif","img/card_backs/set2/blue.gif","img/card_backs/set2/gray.gif","""event"",""trial"",""time""
""fullscreenenter"",""1"",""1863""
","
","
","""event"",""trial"",""time""
""fullscreenenter"",""1"",""1863""
","
","","null","","null","","fixation","2021-07-01 03:12:56.858","","","","","",""
"card-selection-trial","133","357122","0.0-25.0-1.31","A367","true","img/card_backs/set1/yellow.gif","img/card_backs/set1/purple.gif","img/card_backs/set1/red.gif","img/card_backs/set1/green.gif","img/card_backs/set2/pink.gif","img/card_backs/set2/orange.gif","img/card_backs/set2/blue.gif","img/card_backs/set2/gray.gif","""event"",""trial"",""time""
""fullscreenenter"",""1"",""1863""
","
","
","""event"",""trial"",""time""
""fullscreenenter"",""1"",""1863""
","
","","897.0999999940395","","","","real_trial","2021-07-01 03:12:59.765","img/card_backs/set1/green.gif","2","40","1","",""
"casino-fixation","134","357630","0.0-25.0-0.32","A367","true","img/card_backs/set1/yellow.gif","img/card_backs/set1/purple.gif","img/card_backs/set1/red.gif","img/card_backs/set1/green.gif","img/card_backs/set2/pink.gif","img/card_backs/set2/orange.gif","img/card_backs/set2/blue.gif","img/card_backs/set2/gray.gif","""event"",""trial"",""time""
""fullscreenenter"",""1"",""1863""
","
","
","""event"",""trial"",""time""
""fullscreenenter"",""1"",""1863""
","
","","null","","null","","fixation","2021-07-01 03:13:00.273","","","","","",""
"card-selection-trial","135","362206","0.0-25.0-1.32","A367","true","img/card_backs/set1/yellow.gif","img/card_backs/set1/purple.gif","img/card_backs/set1/red.gif","img/card_backs/set1/green.gif","img/card_backs/set2/pink.gif","img/card_backs/set2/orange.gif","img/card_backs/set2/blue.gif","img/card_backs/set2/gray.gif","""event"",""trial"",""time""
""fullscreenenter"",""1"",""1863""
","
","
","""event"",""trial"",""time""
""fullscreenenter"",""1"",""1863""
","
","","2569.8999999910593","","","","real_trial","2021-07-01 03:13:04.849","img/card_backs/set1/yellow.gif","3","-210","1","",""
"casino-fixation","136","362716","0.0-25.0-0.33","A367","true","img/card_backs/set1/yellow.gif","img/card_backs/set1/purple.gif","img/card_backs/set1/red.gif","img/card_backs/set1/green.gif","img/card_backs/set2/pink.gif","img/card_backs/set2/orange.gif","img/card_backs/set2/blue.gif","img/card_backs/set2/gray.gif","""event"",""trial"",""time""
""fullscreenenter"",""1"",""1863""
","
","
","""event"",""trial"",""time""
""fullscreenenter"",""1"",""1863""
","
","","null","","null","","fixation","2021-07-01 03:13:05.359","","","","","",""
"card-selection-trial","137","365447","0.0-25.0-1.33","A367","true","img/card_backs/set1/yellow.gif","img/card_backs/set1/purple.gif","img/card_backs/set1/red.gif","img/card_backs/set1/green.gif","img/card_backs/set2/pink.gif","img/card_backs/set2/orange.gif","img/card_backs/set2/blue.gif","img/card_backs/set2/gray.gif","""event"",""trial"",""time""
""fullscreenenter"",""1"",""1863""
","
","
","""event"",""trial"",""time""
""fullscreenenter"",""1"",""1863""
","
","","725.3000000119209","","","","real_trial","2021-07-01 03:13:08.090","img/card_backs/set1/yellow.gif","0","240","1","",""
"casino-fixation","138","365957","0.0-25.0-0.34","A367","true","img/card_backs/set1/yellow.gif","img/card_backs/set1/purple.gif","img/card_backs/set1/red.gif","img/card_backs/set1/green.gif","img/card_backs/set2/pink.gif","img/card_backs/set2/orange.gif","img/card_backs/set2/blue.gif","img/card_backs/set2/gray.gif","""event"",""trial"",""time""
""fullscreenenter"",""1"",""1863""
","
","
","""event"",""trial"",""time""
""fullscreenenter"",""1"",""1863""
","
","","null","","null","","fixation","2021-07-01 03:13:08.600","","","","","",""
"card-selection-trial","139","368348","0.0-25.0-1.34","A367","true","img/card_backs/set1/yellow.gif","img/card_backs/set1/purple.gif","img/card_backs/set1/red.gif","img/card_backs/set1/green.gif","img/card_backs/set2/pink.gif","img/card_backs/set2/orange.gif","img/card_backs/set2/blue.gif","img/card_backs/set2/gray.gif","""event"",""trial"",""time""
""fullscreenenter"",""1"",""1863""
","
","
","""event"",""trial"",""time""
""fullscreenenter"",""1"",""1863""
","
","","370.40000000596046","","","","real_trial","2021-07-01 03:13:10.991","img/card_backs/set1/yellow.gif","0","260","1","",""
"casino-fixation","140","368858","0.0-25.0-0.35","A367","true","img/card_backs/set1/yellow.gif","img/card_backs/set1/purple.gif","img/card_backs/set1/red.gif","img/card_backs/set1/green.gif","img/card_backs/set2/pink.gif","img/card_backs/set2/orange.gif","img/card_backs/set2/blue.gif","img/card_backs/set2/gray.gif","""event"",""trial"",""time""
""fullscreenenter"",""1"",""1863""
","
","
","""event"",""trial"",""time""
""fullscreenenter"",""1"",""1863""
","
","","null","","null","","fixation","2021-07-01 03:13:11.501","","","","","",""
"card-selection-trial","141","372055","0.0-25.0-1.35","A367","true","img/card_backs/set1/yellow.gif","img/card_backs/set1/purple.gif","img/card_backs/set1/red.gif","img/card_backs/set1/green.gif","img/card_backs/set2/pink.gif","img/card_backs/set2/orange.gif","img/card_backs/set2/blue.gif","img/card_backs/set2/gray.gif","""event"",""trial"",""time""
""fullscreenenter"",""1"",""1863""
","
","
","""event"",""trial"",""time""
""fullscreenenter"",""1"",""1863""
","
","","1189.2999999970198","","","","real_trial","2021-07-01 03:13:14.699","img/card_backs/set1/yellow.gif","2","-190","1","",""
"casino-fixation","142","372567","0.0-25.0-0.36","A367","true","img/card_backs/set1/yellow.gif","img/card_backs/set1/purple.gif","img/card_backs/set1/red.gif","img/card_backs/set1/green.gif","img/card_backs/set2/pink.gif","img/card_backs/set2/orange.gif","img/card_backs/set2/blue.gif","img/card_backs/set2/gray.gif","""event"",""trial"",""time""
""fullscreenenter"",""1"",""1863""
","
","
","""event"",""trial"",""time""
""fullscreenenter"",""1"",""1863""
","
","","null","","null","","fixation","2021-07-01 03:13:15.210","","","","","",""
"card-selection-trial","143","375524","0.0-25.0-1.36","A367","true","img/card_backs/set1/yellow.gif","img/card_backs/set1/purple.gif","img/card_backs/set1/red.gif","img/card_backs/set1/green.gif","img/card_backs/set2/pink.gif","img/card_backs/set2/orange.gif","img/card_backs/set2/blue.gif","img/card_backs/set2/gray.gif","""event"",""trial"",""time""
""fullscreenenter"",""1"",""1863""
","
","
","""event"",""trial"",""time""
""fullscreenenter"",""1"",""1863""
","
","","947.1000000089407","","","","real_trial","2021-07-01 03:13:18.167","img/card_backs/set1/yellow.gif","3","-190","1","",""
"casino-fixation","144","376034","0.0-25.0-0.37","A367","true","img/card_backs/set1/yellow.gif","img/card_backs/set1/purple.gif","img/card_backs/set1/red.gif","img/card_backs/set1/green.gif","img/card_backs/set2/pink.gif","img/card_backs/set2/orange.gif","img/card_backs/set2/blue.gif","img/card_backs/set2/gray.gif","""event"",""trial"",""time""
""fullscreenenter"",""1"",""1863""
","
","
","""event"",""trial"",""time""
""fullscreenenter"",""1"",""1863""
","
","","null","","null","","fixation","2021-07-01 03:13:18.677","","","","","",""
"card-selection-trial","145","378877","0.0-25.0-1.37","A367","true","img/card_backs/set1/yellow.gif","img/card_backs/set1/purple.gif","img/card_backs/set1/red.gif","img/card_backs/set1/green.gif","img/card_backs/set2/pink.gif","img/card_backs/set2/orange.gif","img/card_backs/set2/blue.gif","img/card_backs/set2/gray.gif","""event"",""trial"",""time""
""fullscreenenter"",""1"",""1863""
","
","
","""event"",""trial"",""time""
""fullscreenenter"",""1"",""1863""
","
","","824","","","","real_trial","2021-07-01 03:13:21.520","img/card_backs/set1/yellow.gif","3","240","1","",""
"casino-fixation","146","379382","0.0-25.0-0.38","A367","true","img/card_backs/set1/yellow.gif","img/card_backs/set1/purple.gif","img/card_backs/set1/red.gif","img/card_backs/set1/green.gif","img/card_backs/set2/pink.gif","img/card_backs/set2/orange.gif","img/card_backs/set2/blue.gif","img/card_backs/set2/gray.gif","""event"",""trial"",""time""
""fullscreenenter"",""1"",""1863""
","
","
","""event"",""trial"",""time""
""fullscreenenter"",""1"",""1863""
","
","","null","","null","","fixation","2021-07-01 03:13:22.026","","","","","",""
"card-selection-trial","147","382107","0.0-25.0-1.38","A367","true","img/card_backs/set1/yellow.gif","img/card_backs/set1/purple.gif","img/card_backs/set1/red.gif","img/card_backs/set1/green.gif","img/card_backs/set2/pink.gif","img/card_backs/set2/orange.gif","img/card_backs/set2/blue.gif","img/card_backs/set2/gray.gif","""event"",""trial"",""time""
""fullscreenenter"",""1"",""1863""
","
","
","""event"",""trial"",""time""
""fullscreenenter"",""1"",""1863""
","
","","705.2999999970198","","","","real_trial","2021-07-01 03:13:24.750","img/card_backs/set1/yellow.gif","2","-190","1","",""
"casino-fixation","148","382621","0.0-25.0-0.39","A367","true","img/card_backs/set1/yellow.gif","img/card_backs/set1/purple.gif","img/card_backs/set1/red.gif","img/card_backs/set1/green.gif","img/card_backs/set2/pink.gif","img/card_backs/set2/orange.gif","img/card_backs/set2/blue.gif","img/card_backs/set2/gray.gif","""event"",""trial"",""time""
""fullscreenenter"",""1"",""1863""
","
","
","""event"",""trial"",""time""
""fullscreenenter"",""1"",""1863""
","
","","null","","null","","fixation","2021-07-01 03:13:25.265","","","","","",""
"card-selection-trial","149","385000","0.0-25.0-1.39","A367","true","img/card_backs/set1/yellow.gif","img/card_backs/set1/purple.gif","img/card_backs/set1/red.gif","img/card_backs/set1/green.gif","img/card_backs/set2/pink.gif","img/card_backs/set2/orange.gif","img/card_backs/set2/blue.gif","img/card_backs/set2/gray.gif","""event"",""trial"",""time""
""fullscreenenter"",""1"",""1863""
","
","
","""event"",""trial"",""time""
""fullscreenenter"",""1"",""1863""
","
","","372.20000000298023","","","","real_trial","2021-07-01 03:13:27.643","img/card_backs/set1/red.gif","0","-110","1","",""
"casino-fixation","150","385507","0.0-25.0-0.40","A367","true","img/card_backs/set1/yellow.gif","img/card_backs/set1/purple.gif","img/card_backs/set1/red.gif","img/card_backs/set1/green.gif","img/card_backs/set2/pink.gif","img/card_backs/set2/orange.gif","img/card_backs/set2/blue.gif","img/card_backs/set2/gray.gif","""event"",""trial"",""time""
""fullscreenenter"",""1"",""1863""
","
","
","""event"",""trial"",""time""
""fullscreenenter"",""1"",""1863""
","
","","null","","null","","fixation","2021-07-01 03:13:28.151","","","","","",""
"card-selection-trial","151","388223","0.0-25.0-1.40","A367","true","img/card_backs/set1/yellow.gif","img/card_backs/set1/purple.gif","img/card_backs/set1/red.gif","img/card_backs/set1/green.gif","img/card_backs/set2/pink.gif","img/card_backs/set2/orange.gif","img/card_backs/set2/blue.gif","img/card_backs/set2/gray.gif","""event"",""trial"",""time""
""fullscreenenter"",""1"",""1863""
","
","
","""event"",""trial"",""time""
""fullscreenenter"",""1"",""1863""
","
","","703.4000000059605","","","","real_trial","2021-07-01 03:13:30.866","img/card_backs/set1/red.gif","1","-110","1","",""
"casino-fixation","152","388738","0.0-25.0-0.41","A367","true","img/card_backs/set1/yellow.gif","img/card_backs/set1/purple.gif","img/card_backs/set1/red.gif","img/card_backs/set1/green.gif","img/card_backs/set2/pink.gif","img/card_backs/set2/orange.gif","img/card_backs/set2/blue.gif","img/card_backs/set2/gray.gif","""event"",""trial"",""time""
""fullscreenenter"",""1"",""1863""
","
","
","""event"",""trial"",""time""
""fullscreenenter"",""1"",""1863""
","
","","null","","null","","fixation","2021-07-01 03:13:31.381","","","","","",""
"card-selection-trial","153","391602","0.0-25.0-1.41","A367","true","img/card_backs/set1/yellow.gif","img/card_backs/set1/purple.gif","img/card_backs/set1/red.gif","img/card_backs/set1/green.gif","img/card_backs/set2/pink.gif","img/card_backs/set2/orange.gif","img/card_backs/set2/blue.gif","img/card_backs/set2/gray.gif","""event"",""trial"",""time""
""fullscreenenter"",""1"",""1863""
","
","
","""event"",""trial"",""time""
""fullscreenenter"",""1"",""1863""
","
","","849.3999999910593","","","","real_trial","2021-07-01 03:13:34.245","img/card_backs/set1/red.gif","2","60","1","",""
"casino-fixation","154","392109","0.0-25.0-0.42","A367","true","img/card_backs/set1/yellow.gif","img/card_backs/set1/purple.gif","img/card_backs/set1/red.gif","img/card_backs/set1/green.gif","img/card_backs/set2/pink.gif","img/card_backs/set2/orange.gif","img/card_backs/set2/blue.gif","img/card_backs/set2/gray.gif","""event"",""trial"",""time""
""fullscreenenter"",""1"",""1863""
","
","
","""event"",""trial"",""time""
""fullscreenenter"",""1"",""1863""
","
","","null","","null","","fixation","2021-07-01 03:13:34.753","","","","","",""
"card-selection-trial","155","395000","0.0-25.0-1.42","A367","true","img/card_backs/set1/yellow.gif","img/card_backs/set1/purple.gif","img/card_backs/set1/red.gif","img/card_backs/set1/green.gif","img/card_backs/set2/pink.gif","img/card_backs/set2/orange.gif","img/card_backs/set2/blue.gif","img/card_backs/set2/gray.gif","""event"",""trial"",""time""
""fullscreenenter"",""1"",""1863""
","
","
","""event"",""trial"",""time""
""fullscreenenter"",""1"",""1863""
","
","","882.7999999970198","","","","real_trial","2021-07-01 03:13:37.643","img/card_backs/set1/green.gif","0","-100","1","",""
"casino-fixation","156","395506","0.0-25.0-0.43","A367","true","img/card_backs/set1/yellow.gif","img/card_backs/set1/purple.gif","img/card_backs/set1/red.gif","img/card_backs/set1/green.gif","img/card_backs/set2/pink.gif","img/card_backs/set2/orange.gif","img/card_backs/set2/blue.gif","img/card_backs/set2/gray.gif","""event"",""trial"",""time""
""fullscreenenter"",""1"",""1863""
","
","
","""event"",""trial"",""time""
""fullscreenenter"",""1"",""1863""
","
","","null","","null","","fixation","2021-07-01 03:13:38.149","","","","","",""
"card-selection-trial","157","398367","0.0-25.0-1.43","A367","true","img/card_backs/set1/yellow.gif","img/card_backs/set1/purple.gif","img/card_backs/set1/red.gif","img/card_backs/set1/green.gif","img/card_backs/set2/pink.gif","img/card_backs/set2/orange.gif","img/card_backs/set2/blue.gif","img/card_backs/set2/gray.gif","""event"",""trial"",""time""
""fullscreenenter"",""1"",""1863""
","
","
","""event"",""trial"",""time""
""fullscreenenter"",""1"",""1863""
","
","","852.6999999880791","","","","real_trial","2021-07-01 03:13:41.010","img/card_backs/set1/green.gif","3","50","1","",""
"casino-fixation","158","398881","0.0-25.0-0.44","A367","true","img/card_backs/set1/yellow.gif","img/card_backs/set1/purple.gif","img/card_backs/set1/red.gif","img/card_backs/set1/green.gif","img/card_backs/set2/pink.gif","img/card_backs/set2/orange.gif","img/card_backs/set2/blue.gif","img/card_backs/set2/gray.gif","""event"",""trial"",""time""
""fullscreenenter"",""1"",""1863""
","
","
","""event"",""trial"",""time""
""fullscreenenter"",""1"",""1863""
","
","","null","","null","","fixation","2021-07-01 03:13:41.524","","","","","",""
"card-selection-trial","159","401639","0.0-25.0-1.44","A367","true","img/card_backs/set1/yellow.gif","img/card_backs/set1/purple.gif","img/card_backs/set1/red.gif","img/card_backs/set1/green.gif","img/card_backs/set2/pink.gif","img/card_backs/set2/orange.gif","img/card_backs/set2/blue.gif","img/card_backs/set2/gray.gif","""event"",""trial"",""time""
""fullscreenenter"",""1"",""1863""
","
","
","""event"",""trial"",""time""
""fullscreenenter"",""1"",""1863""
","
","","741.7999999970198","","","","real_trial","2021-07-01 03:13:44.282","img/card_backs/set1/purple.gif","0","240","1","",""
"casino-fixation","160","402140","0.0-25.0-0.45","A367","true","img/card_backs/set1/yellow.gif","img/card_backs/set1/purple.gif","img/card_backs/set1/red.gif","img/card_backs/set1/green.gif","img/card_backs/set2/pink.gif","img/card_backs/set2/orange.gif","img/card_backs/set2/blue.gif","img/card_backs/set2/gray.gif","""event"",""trial"",""time""
""fullscreenenter"",""1"",""1863""
","
","
","""event"",""trial"",""time""
""fullscreenenter"",""1"",""1863""
","
","","null","","null","","fixation","2021-07-01 03:13:44.784","","","","","",""
"card-selection-trial","161","405050","0.0-25.0-1.45","A367","true","img/card_backs/set1/yellow.gif","img/card_backs/set1/purple.gif","img/card_backs/set1/red.gif","img/card_backs/set1/green.gif","img/card_backs/set2/pink.gif","img/card_backs/set2/orange.gif","img/card_backs/set2/blue.gif","img/card_backs/set2/gray.gif","""event"",""trial"",""time""
""fullscreenenter"",""1"",""1863""
","
","
","""event"",""trial"",""time""
""fullscreenenter"",""1"",""1863""
","
","","892.5","","","","real_trial","2021-07-01 03:13:47.693","img/card_backs/set1/purple.gif","3","250","1","",""
"casino-fixation","162","405559","0.0-25.0-0.46","A367","true","img/card_backs/set1/yellow.gif","img/card_backs/set1/purple.gif","img/card_backs/set1/red.gif","img/card_backs/set1/green.gif","img/card_backs/set2/pink.gif","img/card_backs/set2/orange.gif","img/card_backs/set2/blue.gif","img/card_backs/set2/gray.gif","""event"",""trial"",""time""
""fullscreenenter"",""1"",""1863""
","
","
","""event"",""trial"",""time""
""fullscreenenter"",""1"",""1863""
","
","","null","","null","","fixation","2021-07-01 03:13:48.202","","","","","",""
"card-selection-trial","163","408607","0.0-25.0-1.46","A367","true","img/card_backs/set1/yellow.gif","img/card_backs/set1/purple.gif","img/card_backs/set1/red.gif","img/card_backs/set1/green.gif","img/card_backs/set2/pink.gif","img/card_backs/set2/orange.gif","img/card_backs/set2/blue.gif","img/card_backs/set2/gray.gif","""event"",""trial"",""time""
""fullscreenenter"",""1"",""1863""
","
","
","""event"",""trial"",""time""
""fullscreenenter"",""1"",""1863""
","
","","1038.9000000059605","","","","real_trial","2021-07-01 03:13:51.250","img/card_backs/set1/purple.gif","2","-210","1","",""
"casino-fixation","164","409115","0.0-25.0-0.47","A367","true","img/card_backs/set1/yellow.gif","img/card_backs/set1/purple.gif","img/card_backs/set1/red.gif","img/card_backs/set1/green.gif","img/card_backs/set2/pink.gif","img/card_backs/set2/orange.gif","img/card_backs/set2/blue.gif","img/card_backs/set2/gray.gif","""event"",""trial"",""time""
""fullscreenenter"",""1"",""1863""
","
","
","""event"",""trial"",""time""
""fullscreenenter"",""1"",""1863""
","
","","null","","null","","fixation","2021-07-01 03:13:51.759","","","","","",""
"card-selection-trial","165","411910","0.0-25.0-1.47","A367","true","img/card_backs/set1/yellow.gif","img/card_backs/set1/purple.gif","img/card_backs/set1/red.gif","img/card_backs/set1/green.gif","img/card_backs/set2/pink.gif","img/card_backs/set2/orange.gif","img/card_backs/set2/blue.gif","img/card_backs/set2/gray.gif","""event"",""trial"",""time""
""fullscreenenter"",""1"",""1863""
","
","
","""event"",""trial"",""time""
""fullscreenenter"",""1"",""1863""
","
","","785.7000000029802","","","","real_trial","2021-07-01 03:13:54.554","img/card_backs/set1/purple.gif","1","240","1","",""
"casino-fixation","166","412419","0.0-25.0-0.48","A367","true","img/card_backs/set1/yellow.gif","img/card_backs/set1/purple.gif","img/card_backs/set1/red.gif","img/card_backs/set1/green.gif","img/card_backs/set2/pink.gif","img/card_backs/set2/orange.gif","img/card_backs/set2/blue.gif","img/card_backs/set2/gray.gif","""event"",""trial"",""time""
""fullscreenenter"",""1"",""1863""
","
","
","""event"",""trial"",""time""
""fullscreenenter"",""1"",""1863""
","
","","null","","null","","fixation","2021-07-01 03:13:55.062","","","","","",""
"card-selection-trial","167","415178","0.0-25.0-1.48","A367","true","img/card_backs/set1/yellow.gif","img/card_backs/set1/purple.gif","img/card_backs/set1/red.gif","img/card_backs/set1/green.gif","img/card_backs/set2/pink.gif","img/card_backs/set2/orange.gif","img/card_backs/set2/blue.gif","img/card_backs/set2/gray.gif","""event"",""trial"",""time""
""fullscreenenter"",""1"",""1863""
","
","
","""event"",""trial"",""time""
""fullscreenenter"",""1"",""1863""
","
