"trial_type","trial_index","time_elapsed","internal_node_id","sub_id","risk_good_first","block1_A","block1_B","block1_C","block1_D","block2_A","block2_B","block2_C","block2_D","interactions","blur_events","focus_events","fullscreenenter_events","fullscreenexit_events","success","rt","stimulus","key_press","button_pressed","task_part","timestamp","card_choice","choice_position","points_earned","block","correct","response"
"pavlovia","0","7","0.0-0.0","1030","false","img/card_backs/set1/purple.gif","img/card_backs/set1/yellow.gif","img/card_backs/set1/red.gif","img/card_backs/set1/green.gif","img/card_backs/set2/pink.gif","img/card_backs/set2/blue.gif","img/card_backs/set2/gray.gif","img/card_backs/set2/orange.gif","""event"",""trial"",""time""
""fullscreenenter"",""1"",""2771""
","
","
","""event"",""trial"",""time""
""fullscreenenter"",""1"",""2771""
","
","","","","","","","","","","","","",""
"fullscreen","1","3749","0.0-1.0","1030","false","img/card_backs/set1/purple.gif","img/card_backs/set1/yellow.gif","img/card_backs/set1/red.gif","img/card_backs/set1/green.gif","img/card_backs/set2/pink.gif","img/card_backs/set2/blue.gif","img/card_backs/set2/gray.gif","img/card_backs/set2/orange.gif","""event"",""trial"",""time""
""fullscreenenter"",""1"",""2771""
""blur"",""2"",""7839""
""focus"",""2"",""9531""
","""event"",""trial"",""time""
""blur"",""2"",""7839""
","""event"",""trial"",""time""
""focus"",""2"",""9531""
","""event"",""trial"",""time""
""fullscreenenter"",""1"",""2771""
","
","true","","","","","","","","","","","",""
"audio-keyboard-response","2","9846","0.0-2.0","1030","false","img/card_backs/set1/purple.gif","img/card_backs/set1/yellow.gif","img/card_backs/set1/red.gif","img/card_backs/set1/green.gif","img/card_backs/set2/pink.gif","img/card_backs/set2/blue.gif","img/card_backs/set2/gray.gif","img/card_backs/set2/orange.gif","""event"",""trial"",""time""
""fullscreenenter"",""1"",""2771""
""blur"",""2"",""7839""
""focus"",""2"",""9531""
","""event"",""trial"",""time""
""blur"",""2"",""7839""
","""event"",""trial"",""time""
""focus"",""2"",""9531""
","""event"",""trial"",""time""
""fullscreenenter"",""1"",""2771""
","
","","6011","audio/beep_loop.wav","32","","","","","","","","",""
"audio-button-response","3","11181","0.0-3.0","1030","false","img/card_backs/set1/purple.gif","img/card_backs/set1/yellow.gif","img/card_backs/set1/red.gif","img/card_backs/set1/green.gif","img/card_backs/set2/pink.gif","img/card_backs/set2/blue.gif","img/card_backs/set2/gray.gif","img/card_backs/set2/orange.gif","""event"",""trial"",""time""
""fullscreenenter"",""1"",""2771""
""blur"",""2"",""7839""
""focus"",""2"",""9531""
","""event"",""trial"",""time""
""blur"",""2"",""7839""
","""event"",""trial"",""time""
""focus"",""2"",""9531""
","""event"",""trial"",""time""
""fullscreenenter"",""1"",""2771""
","
","","NaN","audio/turtle.mp3","","3","","","","","","","",""
"audio-button-response","4","13338","0.0-4.0","1030","false","img/card_backs/set1/purple.gif","img/card_backs/set1/yellow.gif","img/card_backs/set1/red.gif","img/card_backs/set1/green.gif","img/card_backs/set2/pink.gif","img/card_backs/set2/blue.gif","img/card_backs/set2/gray.gif","img/card_backs/set2/orange.gif","""event"",""trial"",""time""
""fullscreenenter"",""1"",""2771""
""blur"",""2"",""7839""
""focus"",""2"",""9531""
","""event"",""trial"",""time""
""blur"",""2"",""7839""
","""event"",""trial"",""time""
""focus"",""2"",""9531""
","""event"",""trial"",""time""
""fullscreenenter"",""1"",""2771""
","
","","NaN","audio/shark.mp3","","2","","","","","","","",""
"fullscreen","5","17491","0.0-5.0","1030","false","img/card_backs/set1/purple.gif","img/card_backs/set1/yellow.gif","img/card_backs/set1/red.gif","img/card_backs/set1/green.gif","img/card_backs/set2/pink.gif","img/card_backs/set2/blue.gif","img/card_backs/set2/gray.gif","img/card_backs/set2/orange.gif","""event"",""trial"",""time""
""fullscreenenter"",""1"",""2771""
""blur"",""2"",""7839""
""focus"",""2"",""9531""
","""event"",""trial"",""time""
""blur"",""2"",""7839""
","""event"",""trial"",""time""
""focus"",""2"",""9531""
","""event"",""trial"",""time""
""fullscreenenter"",""1"",""2771""
","
","true","","","","","","","","","","","",""
"casino-keyboard-response","6","21003","0.0-6.0-0.0","1030","false","img/card_backs/set1/purple.gif","img/card_backs/set1/yellow.gif","img/card_backs/set1/red.gif","img/card_backs/set1/green.gif","img/card_backs/set2/pink.gif","img/card_backs/set2/blue.gif","img/card_backs/set2/gray.gif","img/card_backs/set2/orange.gif","""event"",""trial"",""time""
""fullscreenenter"",""1"",""2771""
""blur"",""2"",""7839""
""focus"",""2"",""9531""
","""event"",""trial"",""time""
""blur"",""2"",""7839""
","""event"",""trial"",""time""
""focus"",""2"",""9531""
","""event"",""trial"",""time""
""fullscreenenter"",""1"",""2771""
","
","","3506.9000000059605","Welcome to the casino!","71","","instructions","2021-08-09 17:18:22.075","","","","","",""
"casino-keyboard-response","7","30895","0.0-6.0-0.1","1030","false","img/card_backs/set1/purple.gif","img/card_backs/set1/yellow.gif","img/card_backs/set1/red.gif","img/card_backs/set1/green.gif","img/card_backs/set2/pink.gif","img/card_backs/set2/blue.gif","img/card_backs/set2/gray.gif","img/card_backs/set2/orange.gif","""event"",""trial"",""time""
""fullscreenenter"",""1"",""2771""
""blur"",""2"",""7839""
""focus"",""2"",""9531""
","""event"",""trial"",""time""
""blur"",""2"",""7839""
","""event"",""trial"",""time""
""focus"",""2"",""9531""
","""event"",""trial"",""time""
""fullscreenenter"",""1"",""2771""
","
","","9889.799999982119","Today you will be playing a game to earn tokens. </br> At the end of the experiment, you will be paid a bonus based on how many tokens you win. ","69","","instructions","2021-08-09 17:18:31.966","","","","","",""
"casino-keyboard-response","8","38516","0.0-6.0-0.2","1030","false","img/card_backs/set1/purple.gif","img/card_backs/set1/yellow.gif","img/card_backs/set1/red.gif","img/card_backs/set1/green.gif","img/card_backs/set2/pink.gif","img/card_backs/set2/blue.gif","img/card_backs/set2/gray.gif","img/card_backs/set2/orange.gif","""event"",""trial"",""time""
""fullscreenenter"",""1"",""2771""
""blur"",""2"",""7839""
""focus"",""2"",""9531""
","""event"",""trial"",""time""
""blur"",""2"",""7839""
","""event"",""trial"",""time""
""focus"",""2"",""9531""
","""event"",""trial"",""time""
""fullscreenenter"",""1"",""2771""
","
","","7617.300000011921","On every turn, you will be shown four different decks of cards. </br> You need to select a card from one of the four decks.  ","75","","instructions","2021-08-09 17:18:39.587","","","","","",""
"casino-keyboard-response","9","43282","0.0-6.0-0.3","1030","false","img/card_backs/set1/purple.gif","img/card_backs/set1/yellow.gif","img/card_backs/set1/red.gif","img/card_backs/set1/green.gif","img/card_backs/set2/pink.gif","img/card_backs/set2/blue.gif","img/card_backs/set2/gray.gif","img/card_backs/set2/orange.gif","""event"",""trial"",""time""
""fullscreenenter"",""1"",""2771""
""blur"",""2"",""7839""
""focus"",""2"",""9531""
","""event"",""trial"",""time""
""blur"",""2"",""7839""
","""event"",""trial"",""time""
""focus"",""2"",""9531""
","""event"",""trial"",""time""
""fullscreenenter"",""1"",""2771""
","
","","4763.5999999940395","On the next screen, you will see what the decks will look like. ","66","","instructions","2021-08-09 17:18:44.354","","","","","",""
"card-selection-trial","10","47288","0.0-7.0-0.0","1030","false","img/card_backs/set1/purple.gif","img/card_backs/set1/yellow.gif","img/card_backs/set1/red.gif","img/card_backs/set1/green.gif","img/card_backs/set2/pink.gif","img/card_backs/set2/blue.gif","img/card_backs/set2/gray.gif","img/card_backs/set2/orange.gif","""event"",""trial"",""time""
""fullscreenenter"",""1"",""2771""
""blur"",""2"",""7839""
""focus"",""2"",""9531""
","""event"",""trial"",""time""
""blur"",""2"",""7839""
","""event"",""trial"",""time""
""focus"",""2"",""9531""
","""event"",""trial"",""time""
""fullscreenenter"",""1"",""2771""
","
","","null","","","","practice","2021-08-09 17:18:48.359","null","null","null","0","",""
"casino-keyboard-response","11","54633","0.0-8.0-0.0","1030","false","img/card_backs/set1/purple.gif","img/card_backs/set1/yellow.gif","img/card_backs/set1/red.gif","img/card_backs/set1/green.gif","img/card_backs/set2/pink.gif","img/card_backs/set2/blue.gif","img/card_backs/set2/gray.gif","img/card_backs/set2/orange.gif","""event"",""trial"",""time""
""fullscreenenter"",""1"",""2771""
""blur"",""2"",""7839""
""focus"",""2"",""9531""
","""event"",""trial"",""time""
""blur"",""2"",""7839""
","""event"",""trial"",""time""
""focus"",""2"",""9531""
","""event"",""trial"",""time""
""fullscreenenter"",""1"",""2771""
","
","","7343.0999999940395","You should pick a card from a deck using the '2', '4', '6', and '8' keys at the top of the keyboard.","85","","instructions","2021-08-09 17:18:55.704","","","","","",""
"casino-keyboard-response","12","60109","0.0-8.0-0.1","1030","false","img/card_backs/set1/purple.gif","img/card_backs/set1/yellow.gif","img/card_backs/set1/red.gif","img/card_backs/set1/green.gif","img/card_backs/set2/pink.gif","img/card_backs/set2/blue.gif","img/card_backs/set2/gray.gif","img/card_backs/set2/orange.gif","""event"",""trial"",""time""
""fullscreenenter"",""1"",""2771""
""blur"",""2"",""7839""
""focus"",""2"",""9531""
","""event"",""trial"",""time""
""blur"",""2"",""7839""
","""event"",""trial"",""time""
""focus"",""2"",""9531""
","""event"",""trial"",""time""
""fullscreenenter"",""1"",""2771""
","
","","5474.800000011921","Once you select a card, it will turn over and you will see how many tokens you earned.","83","","instructions","2021-08-09 17:19:01.180","","","","","",""
"casino-keyboard-response","13","74606","0.0-8.0-0.2","1030","false","img/card_backs/set1/purple.gif","img/card_backs/set1/yellow.gif","img/card_backs/set1/red.gif","img/card_backs/set1/green.gif","img/card_backs/set2/pink.gif","img/card_backs/set2/blue.gif","img/card_backs/set2/gray.gif","img/card_backs/set2/orange.gif","""event"",""trial"",""time""
""fullscreenenter"",""1"",""2771""
""blur"",""2"",""7839""
""focus"",""2"",""9531""
","""event"",""trial"",""time""
""blur"",""2"",""7839""
","""event"",""trial"",""time""
""focus"",""2"",""9531""
","""event"",""trial"",""time""
""fullscreenenter"",""1"",""2771""
","
","","14495.90000000596","Let's try practicing that! </br> First, try to put your fingers over the '2', '4', '6', and '8' keys. </br>  You can use whatever fingers are most comfortable for you. Try to find a comfortable position now. ","50","","instructions","2021-08-09 17:19:15.677","","","","","",""
"casino-keyboard-response","14","80301","0.0-8.0-0.3","1030","false","img/card_backs/set1/purple.gif","img/card_backs/set1/yellow.gif","img/card_backs/set1/red.gif","img/card_backs/set1/green.gif","img/card_backs/set2/pink.gif","img/card_backs/set2/blue.gif","img/card_backs/set2/gray.gif","img/card_backs/set2/orange.gif","""event"",""trial"",""time""
""fullscreenenter"",""1"",""2771""
""blur"",""2"",""7839""
""focus"",""2"",""9531""
","""event"",""trial"",""time""
""blur"",""2"",""7839""
","""event"",""trial"",""time""
""focus"",""2"",""9531""
","""event"",""trial"",""time""
""fullscreenenter"",""1"",""2771""
","
","","5691.5999999940395","Okay ready? </br> On the next screen, press '2' to select the left deck. ","50","","instructions","2021-08-09 17:19:21.372","","","","","",""
"card-selection-trial","15","83191","0.0-9.0-0.0","1030","false","img/card_backs/set1/purple.gif","img/card_backs/set1/yellow.gif","img/card_backs/set1/red.gif","img/card_backs/set1/green.gif","img/card_backs/set2/pink.gif","img/card_backs/set2/blue.gif","img/card_backs/set2/gray.gif","img/card_backs/set2/orange.gif","""event"",""trial"",""time""
""fullscreenenter"",""1"",""2771""
""blur"",""2"",""7839""
""focus"",""2"",""9531""
","""event"",""trial"",""time""
""blur"",""2"",""7839""
","""event"",""trial"",""time""
""focus"",""2"",""9531""
","""event"",""trial"",""time""
""fullscreenenter"",""1"",""2771""
","
","","873.5999999940395","","","","practice_card_selection","2021-08-09 17:19:24.262","img/practice_cards/backs/brown.gif","0","100","","",""
"casino-keyboard-response","16","88837","0.0-10.0-0.0","1030","false","img/card_backs/set1/purple.gif","img/card_backs/set1/yellow.gif","img/card_backs/set1/red.gif","img/card_backs/set1/green.gif","img/card_backs/set2/pink.gif","img/card_backs/set2/blue.gif","img/card_backs/set2/gray.gif","img/card_backs/set2/orange.gif","""event"",""trial"",""time""
""fullscreenenter"",""1"",""2771""
""blur"",""2"",""7839""
""focus"",""2"",""9531""
","""event"",""trial"",""time""
""blur"",""2"",""7839""
","""event"",""trial"",""time""
""focus"",""2"",""9531""
","""event"",""trial"",""time""
""fullscreenenter"",""1"",""2771""
","
","","5644.5","Great! Now on the next screen, try pressing '6' to select the third deck.","54","","instructions","2021-08-09 17:19:29.908","","","","","",""
"card-selection-trial","17","91860","0.0-11.0-0.0","1030","false","img/card_backs/set1/purple.gif","img/card_backs/set1/yellow.gif","img/card_backs/set1/red.gif","img/card_backs/set1/green.gif","img/card_backs/set2/pink.gif","img/card_backs/set2/blue.gif","img/card_backs/set2/gray.gif","img/card_backs/set2/orange.gif","""event"",""trial"",""time""
""fullscreenenter"",""1"",""2771""
""blur"",""2"",""7839""
""focus"",""2"",""9531""
","""event"",""trial"",""time""
""blur"",""2"",""7839""
","""event"",""trial"",""time""
""focus"",""2"",""9531""
","""event"",""trial"",""time""
""fullscreenenter"",""1"",""2771""
","
","","1016.5","","","","practice_card_selection","2021-08-09 17:19:32.931","img/practice_cards/backs/dark_green.gif","2","200","","",""
"casino-keyboard-response","18","96488","0.0-12.0-0.0","1030","false","img/card_backs/set1/purple.gif","img/card_backs/set1/yellow.gif","img/card_backs/set1/red.gif","img/card_backs/set1/green.gif","img/card_backs/set2/pink.gif","img/card_backs/set2/blue.gif","img/card_backs/set2/gray.gif","img/card_backs/set2/orange.gif","""event"",""trial"",""time""
""fullscreenenter"",""1"",""2771""
""blur"",""2"",""7839""
""focus"",""2"",""9531""
","""event"",""trial"",""time""
""blur"",""2"",""7839""
","""event"",""trial"",""time""
""focus"",""2"",""9531""
","""event"",""trial"",""time""
""fullscreenenter"",""1"",""2771""
","
","","4626.700000017881","Now on the next screen, try pressing '4' to select the second deck.","52","","instructions","2021-08-09 17:19:37.559","","","","","",""
"card-selection-trial","19","100448","0.0-13.0-0.0","1030","false","img/card_backs/set1/purple.gif","img/card_backs/set1/yellow.gif","img/card_backs/set1/red.gif","img/card_backs/set1/green.gif","img/card_backs/set2/pink.gif","img/card_backs/set2/blue.gif","img/card_backs/set2/gray.gif","img/card_backs/set2/orange.gif","""event"",""trial"",""time""
""fullscreenenter"",""1"",""2771""
""blur"",""2"",""7839""
""focus"",""2"",""9531""
","""event"",""trial"",""time""
""blur"",""2"",""7839""
","""event"",""trial"",""time""
""focus"",""2"",""9531""
","""event"",""trial"",""time""
""fullscreenenter"",""1"",""2771""
","
","","1951.699999988079","","","","practice_card_selection","2021-08-09 17:19:41.519","img/practice_cards/backs/brown.gif","1","-100","","",""
"casino-keyboard-response","20","104957","0.0-14.0-0.0","1030","false","img/card_backs/set1/purple.gif","img/card_backs/set1/yellow.gif","img/card_backs/set1/red.gif","img/card_backs/set1/green.gif","img/card_backs/set2/pink.gif","img/card_backs/set2/blue.gif","img/card_backs/set2/gray.gif","img/card_backs/set2/orange.gif","""event"",""trial"",""time""
""fullscreenenter"",""1"",""2771""
""blur"",""2"",""7839""
""focus"",""2"",""9531""
","""event"",""trial"",""time""
""blur"",""2"",""7839""
","""event"",""trial"",""time""
""focus"",""2"",""9531""
","""event"",""trial"",""time""
""fullscreenenter"",""1"",""2771""
","
","","4507.0999999940395","Finally, try pressing '8' to select the deck all the way on the right.","56","","instructions","2021-08-09 17:19:46.028","","","","","",""
"card-selection-trial","21","107706","0.0-15.0-0.0","1030","false","img/card_backs/set1/purple.gif","img/card_backs/set1/yellow.gif","img/card_backs/set1/red.gif","img/card_backs/set1/green.gif","img/card_backs/set2/pink.gif","img/card_backs/set2/blue.gif","img/card_backs/set2/gray.gif","img/card_backs/set2/orange.gif","""event"",""trial"",""time""
""fullscreenenter"",""1"",""2771""
""blur"",""2"",""7839""
""focus"",""2"",""9531""
","""event"",""trial"",""time""
""blur"",""2"",""7839""
","""event"",""trial"",""time""
""focus"",""2"",""9531""
","""event"",""trial"",""time""
""fullscreenenter"",""1"",""2771""
","
","","739","","","","practice_card_selection","2021-08-09 17:19:48.777","img/practice_cards/backs/brown.gif","3","-100","","",""
"casino-keyboard-response","22","111740","0.0-16.0-0.0","1030","false","img/card_backs/set1/purple.gif","img/card_backs/set1/yellow.gif","img/card_backs/set1/red.gif","img/card_backs/set1/green.gif","img/card_backs/set2/pink.gif","img/card_backs/set2/blue.gif","img/card_backs/set2/gray.gif","img/card_backs/set2/orange.gif","""event"",""trial"",""time""
""fullscreenenter"",""1"",""2771""
""blur"",""2"",""7839""
""focus"",""2"",""9531""
","""event"",""trial"",""time""
""blur"",""2"",""7839""
","""event"",""trial"",""time""
""focus"",""2"",""9531""
","""event"",""trial"",""time""
""fullscreenenter"",""1"",""2771""
","
","","4033.4000000059605","Great! It seems like you are getting the hang of this.","80","","instructions","2021-08-09 17:19:52.812","","","","","",""
"casino-keyboard-response","23","119335","0.0-16.0-0.1","1030","false","img/card_backs/set1/purple.gif","img/card_backs/set1/yellow.gif","img/card_backs/set1/red.gif","img/card_backs/set1/green.gif","img/card_backs/set2/pink.gif","img/card_backs/set2/blue.gif","img/card_backs/set2/gray.gif","img/card_backs/set2/orange.gif","""event"",""trial"",""time""
""fullscreenenter"",""1"",""2771""
""blur"",""2"",""7839""
""focus"",""2"",""9531""
","""event"",""trial"",""time""
""blur"",""2"",""7839""
","""event"",""trial"",""time""
""focus"",""2"",""9531""
","""event"",""trial"",""time""
""fullscreenenter"",""1"",""2771""
","
","","7592","You may have noticed that some cards will cause you to <b> win </b> tokens while other cards will cause you to <b> lose </b>  tokens.","70","","instructions","2021-08-09 17:20:00.406","","","","","",""
"casino-keyboard-response","24","128370","0.0-16.0-0.2","1030","false","img/card_backs/set1/purple.gif","img/card_backs/set1/yellow.gif","img/card_backs/set1/red.gif","img/card_backs/set1/green.gif","img/card_backs/set2/pink.gif","img/card_backs/set2/blue.gif","img/card_backs/set2/gray.gif","img/card_backs/set2/orange.gif","""event"",""trial"",""time""
""fullscreenenter"",""1"",""2771""
""blur"",""2"",""7839""
""focus"",""2"",""9531""
","""event"",""trial"",""time""
""blur"",""2"",""7839""
","""event"",""trial"",""time""
""focus"",""2"",""9531""
","""event"",""trial"",""time""
""fullscreenenter"",""1"",""2771""
","
","","9032.299999982119","Each deck has a mix of cards that will cause you to win and lose tokens. </br> However, the cards in each colored deck are different.","73","","instructions","2021-08-09 17:20:09.441","","","","","",""
"casino-keyboard-response","25","137844","0.0-16.0-0.3","1030","false","img/card_backs/set1/purple.gif","img/card_backs/set1/yellow.gif","img/card_backs/set1/red.gif","img/card_backs/set1/green.gif","img/card_backs/set2/pink.gif","img/card_backs/set2/blue.gif","img/card_backs/set2/gray.gif","img/card_backs/set2/orange.gif","""event"",""trial"",""time""
""fullscreenenter"",""1"",""2771""
""blur"",""2"",""7839""
""focus"",""2"",""9531""
","""event"",""trial"",""time""
""blur"",""2"",""7839""
","""event"",""trial"",""time""
""focus"",""2"",""9531""
","""event"",""trial"",""time""
""fullscreenenter"",""1"",""2771""
","
","","9471.700000017881","Some colored decks are luckier than others. </br> If you choose the lucky decks, you will earn more tokens than if you choose the unlucky decks.","69","","instructions","2021-08-09 17:20:18.915","","","","","",""
"casino-keyboard-response","26","286203","0.0-16.0-0.4","1030","false","img/card_backs/set1/purple.gif","img/card_backs/set1/yellow.gif","img/card_backs/set1/red.gif","img/card_backs/set1/green.gif","img/card_backs/set2/pink.gif","img/card_backs/set2/blue.gif","img/card_backs/set2/gray.gif","img/card_backs/set2/orange.gif","""event"",""trial"",""time""
""fullscreenenter"",""1"",""2771""
""blur"",""2"",""7839""
""focus"",""2"",""9531""
","""event"",""trial"",""time""
""blur"",""2"",""7839""
","""event"",""trial"",""time""
""focus"",""2"",""9531""
","""event"",""trial"",""time""
""fullscreenenter"",""1"",""2771""
","
","","148358","You should try to figure out which decks are lucky. </br> Then, try to choose the lucky decks so you can win the most tokens.","87","","instructions","2021-08-09 17:22:47.274","","","","","",""
"casino-keyboard-response","27","297605","0.0-16.0-0.5","1030","false","img/card_backs/set1/purple.gif","img/card_backs/set1/yellow.gif","img/card_backs/set1/red.gif","img/card_backs/set1/green.gif","img/card_backs/set2/pink.gif","img/card_backs/set2/blue.gif","img/card_backs/set2/gray.gif","img/card_backs/set2/orange.gif","""event"",""trial"",""time""
""fullscreenenter"",""1"",""2771""
""blur"",""2"",""7839""
""focus"",""2"",""9531""
","""event"",""trial"",""time""
""blur"",""2"",""7839""
","""event"",""trial"",""time""
""focus"",""2"",""9531""
","""event"",""trial"",""time""
""fullscreenenter"",""1"",""2771""
","
","","11396.5","To make it trickier, the casino dealer will switch the locations of the decks on every turn. </br> The color of the deck determines how lucky it is. The location does not matter.","88","","instructions","2021-08-09 17:22:58.676","","","","","",""
"casino-keyboard-response","28","307652","0.0-16.0-0.6","1030","false","img/card_backs/set1/purple.gif","img/card_backs/set1/yellow.gif","img/card_backs/set1/red.gif","img/card_backs/set1/green.gif","img/card_backs/set2/pink.gif","img/card_backs/set2/blue.gif","img/card_backs/set2/gray.gif","img/card_backs/set2/orange.gif","""event"",""trial"",""time""
""fullscreenenter"",""1"",""2771""
""blur"",""2"",""7839""
""focus"",""2"",""9531""
","""event"",""trial"",""time""
""blur"",""2"",""7839""
","""event"",""trial"",""time""
""focus"",""2"",""9531""
","""event"",""trial"",""time""
""fullscreenenter"",""1"",""2771""
","
","","10040.199999988079","The mix of cards in each colored deck will stay the same throughout the game. </br> That means that a deck that is lucky early on will stay lucky.","79","","instructions","2021-08-09 17:23:08.723","","","","","",""
"casino-keyboard-response","29","317803","0.0-16.0-0.7","1030","false","img/card_backs/set1/purple.gif","img/card_backs/set1/yellow.gif","img/card_backs/set1/red.gif","img/card_backs/set1/green.gif","img/card_backs/set2/pink.gif","img/card_backs/set2/blue.gif","img/card_backs/set2/gray.gif","img/card_backs/set2/orange.gif","""event"",""trial"",""time""
""fullscreenenter"",""1"",""2771""
""blur"",""2"",""7839""
""focus"",""2"",""9531""
","""event"",""trial"",""time""
""blur"",""2"",""7839""
","""event"",""trial"",""time""
""focus"",""2"",""9531""
","""event"",""trial"",""time""
""fullscreenenter"",""1"",""2771""
","
","","10148.59999999404","Remember though, all the decks have a <b> mix </b> of both <b> good </b> and <b> bad </b> cards so it may take a couple of turns to figure out if a deck is lucky.","69","","instructions","2021-08-09 17:23:18.874","","","","","",""
"casino-keyboard-response","30","325939","0.0-16.0-0.8","1030","false","img/card_backs/set1/purple.gif","img/card_backs/set1/yellow.gif","img/card_backs/set1/red.gif","img/card_backs/set1/green.gif","img/card_backs/set2/pink.gif","img/card_backs/set2/blue.gif","img/card_backs/set2/gray.gif","img/card_backs/set2/orange.gif","""event"",""trial"",""time""
""fullscreenenter"",""1"",""2771""
""blur"",""2"",""7839""
""focus"",""2"",""9531""
","""event"",""trial"",""time""
""blur"",""2"",""7839""
","""event"",""trial"",""time""
""focus"",""2"",""9531""
","""event"",""trial"",""time""
""fullscreenenter"",""1"",""2771""
","
","","8134.0999999940395","At the end of the game, you will be paid bonus money based on how many tokens you win. </br> If you win more tokens, you will earn more money!","72","","instructions","2021-08-09 17:23:27.010","","","","","",""
"casino-keyboard-response","31","336517","0.0-16.0-0.9","1030","false","img/card_backs/set1/purple.gif","img/card_backs/set1/yellow.gif","img/card_backs/set1/red.gif","img/card_backs/set1/green.gif","img/card_backs/set2/pink.gif","img/card_backs/set2/blue.gif","img/card_backs/set2/gray.gif","img/card_backs/set2/orange.gif","""event"",""trial"",""time""
""fullscreenenter"",""1"",""2771""
""blur"",""2"",""7839""
""focus"",""2"",""9531""
","""event"",""trial"",""time""
""blur"",""2"",""7839""
","""event"",""trial"",""time""
""focus"",""2"",""9531""
","""event"",""trial"",""time""
""fullscreenenter"",""1"",""2771""
","
","","10573.699999988079","You will never <b> lose </b> money. </br> If you end up with fewer than 0 tokens, you will earn $0 of bonus money, but you will still be paid for playing the game.","83","","instructions","2021-08-09 17:23:37.588","","","","","",""
"casino-keyboard-response","32","340730","0.0-16.0-0.10","1030","false","img/card_backs/set1/purple.gif","img/card_backs/set1/yellow.gif","img/card_backs/set1/red.gif","img/card_backs/set1/green.gif","img/card_backs/set2/pink.gif","img/card_backs/set2/blue.gif","img/card_backs/set2/gray.gif","img/card_backs/set2/orange.gif","""event"",""trial"",""time""
""fullscreenenter"",""1"",""2771""
""blur"",""2"",""7839""
""focus"",""2"",""9531""
","""event"",""trial"",""time""
""blur"",""2"",""7839""
","""event"",""trial"",""time""
""focus"",""2"",""9531""
","""event"",""trial"",""time""
""fullscreenenter"",""1"",""2771""
","
","","4210.0999999940395","You will have 10 seconds to make each choice.","82","","instructions","2021-08-09 17:23:41.801","","","","","",""
"casino-keyboard-response","33","348971","0.0-16.0-0.11","1030","false","img/card_backs/set1/purple.gif","img/card_backs/set1/yellow.gif","img/card_backs/set1/red.gif","img/card_backs/set1/green.gif","img/card_backs/set2/pink.gif","img/card_backs/set2/blue.gif","img/card_backs/set2/gray.gif","img/card_backs/set2/orange.gif","""event"",""trial"",""time""
""fullscreenenter"",""1"",""2771""
""blur"",""2"",""7839""
""focus"",""2"",""9531""
","""event"",""trial"",""time""
""blur"",""2"",""7839""
","""event"",""trial"",""time""
""focus"",""2"",""9531""
","""event"",""trial"",""time""
""fullscreenenter"",""1"",""2771""
","
","","8236.90000000596","Before you play the game for real, you will play with practice decks. </br> The tokens you earn during practice won't count toward your total.","86","","instructions","2021-08-09 17:23:50.042","","","","","",""
"casino-keyboard-response","34","360395","0.0-16.0-0.12","1030","false","img/card_backs/set1/purple.gif","img/card_backs/set1/yellow.gif","img/card_backs/set1/red.gif","img/card_backs/set1/green.gif","img/card_backs/set2/pink.gif","img/card_backs/set2/blue.gif","img/card_backs/set2/gray.gif","img/card_backs/set2/orange.gif","""event"",""trial"",""time""
""fullscreenenter"",""1"",""2771""
""blur"",""2"",""7839""
""focus"",""2"",""9531""
","""event"",""trial"",""time""
""blur"",""2"",""7839""
","""event"",""trial"",""time""
""focus"",""2"",""9531""
","""event"",""trial"",""time""
""fullscreenenter"",""1"",""2771""
","
","","11421.5","Ready? Remember, use the '2', '4', '6', and '8' keys to select the decks. </br> Put your fingers on those keys now and then press '2' to begin.","50","","instructions","2021-08-09 17:24:01.466","","","","","",""
"casino-fixation","35","360901","0.0-17.0-0.0","1030","false","img/card_backs/set1/purple.gif","img/card_backs/set1/yellow.gif","img/card_backs/set1/red.gif","img/card_backs/set1/green.gif","img/card_backs/set2/pink.gif","img/card_backs/set2/blue.gif","img/card_backs/set2/gray.gif","img/card_backs/set2/orange.gif","""event"",""trial"",""time""
""fullscreenenter"",""1"",""2771""
""blur"",""2"",""7839""
""focus"",""2"",""9531""
","""event"",""trial"",""time""
""blur"",""2"",""7839""
","""event"",""trial"",""time""
""focus"",""2"",""9531""
","""event"",""trial"",""time""
""fullscreenenter"",""1"",""2771""
","
","","null","","null","","fixation","2021-08-09 17:24:01.972","","","","","",""
"card-selection-trial","36","364070","0.0-17.0-1.0","1030","false","img/card_backs/set1/purple.gif","img/card_backs/set1/yellow.gif","img/card_backs/set1/red.gif","img/card_backs/set1/green.gif","img/card_backs/set2/pink.gif","img/card_backs/set2/blue.gif","img/card_backs/set2/gray.gif","img/card_backs/set2/orange.gif","""event"",""trial"",""time""
""fullscreenenter"",""1"",""2771""
""blur"",""2"",""7839""
""focus"",""2"",""9531""
","""event"",""trial"",""time""
""blur"",""2"",""7839""
","""event"",""trial"",""time""
""focus"",""2"",""9531""
","""event"",""trial"",""time""
""fullscreenenter"",""1"",""2771""
","
","","1152.7999999821186","","","","practice","2021-08-09 17:24:05.142","img/practice_cards/backs/dark_blue.gif","1","-200","0","",""
"casino-fixation","37","364577","0.0-17.0-0.1","1030","false","img/card_backs/set1/purple.gif","img/card_backs/set1/yellow.gif","img/card_backs/set1/red.gif","img/card_backs/set1/green.gif","img/card_backs/set2/pink.gif","img/card_backs/set2/blue.gif","img/card_backs/set2/gray.gif","img/card_backs/set2/orange.gif","""event"",""trial"",""time""
""fullscreenenter"",""1"",""2771""
""blur"",""2"",""7839""
""focus"",""2"",""9531""
","""event"",""trial"",""time""
""blur"",""2"",""7839""
","""event"",""trial"",""time""
""focus"",""2"",""9531""
","""event"",""trial"",""time""
""fullscreenenter"",""1"",""2771""
","
","","null","","null","","fixation","2021-08-09 17:24:05.648","","","","","",""
"card-selection-trial","38","368350","0.0-17.0-1.1","1030","false","img/card_backs/set1/purple.gif","img/card_backs/set1/yellow.gif","img/card_backs/set1/red.gif","img/card_backs/set1/green.gif","img/card_backs/set2/pink.gif","img/card_backs/set2/blue.gif","img/card_backs/set2/gray.gif","img/card_backs/set2/orange.gif","""event"",""trial"",""time""
""fullscreenenter"",""1"",""2771""
""blur"",""2"",""7839""
""focus"",""2"",""9531""
","""event"",""trial"",""time""
""blur"",""2"",""7839""
","""event"",""trial"",""time""
""focus"",""2"",""9531""
","""event"",""trial"",""time""
""fullscreenenter"",""1"",""2771""
","
","","1763.2000000178814","","","","practice","2021-08-09 17:24:09.421","img/practice_cards/backs/dark_blue.gif","2","-200","0","",""
"casino-fixation","39","368854","0.0-17.0-0.2","1030","false","img/card_backs/set1/purple.gif","img/card_backs/set1/yellow.gif","img/card_backs/set1/red.gif","img/card_backs/set1/green.gif","img/card_backs/set2/pink.gif","img/card_backs/set2/blue.gif","img/card_backs/set2/gray.gif","img/card_backs/set2/orange.gif","""event"",""trial"",""time""
""fullscreenenter"",""1"",""2771""
""blur"",""2"",""7839""
""focus"",""2"",""9531""
","""event"",""trial"",""time""
""blur"",""2"",""7839""
","""event"",""trial"",""time""
""focus"",""2"",""9531""
","""event"",""trial"",""time""
""fullscreenenter"",""1"",""2771""
","
","","null","","null","","fixation","2021-08-09 17:24:09.925","","","","","",""
"card-selection-trial","40","371772","0.0-17.0-1.2","1030","false","img/card_backs/set1/purple.gif","img/card_backs/set1/yellow.gif","img/card_backs/set1/red.gif","img/card_backs/set1/green.gif","img/card_backs/set2/pink.gif","img/card_backs/set2/blue.gif","img/card_backs/set2/gray.gif","img/card_backs/set2/orange.gif","""event"",""trial"",""time""
""fullscreenenter"",""1"",""2771""
""blur"",""2"",""7839""
""focus"",""2"",""9531""
","""event"",""trial"",""time""
""blur"",""2"",""7839""
","""event"",""trial"",""time""
""focus"",""2"",""9531""
","""event"",""trial"",""time""
""fullscreenenter"",""1"",""2771""
","
","","905.0999999940395","","","","practice","2021-08-09 17:24:12.843","img/practice_cards/backs/dark_blue.gif","3","-200","0","",""
"casino-fixation","41","372277","0.0-17.0-0.3","1030","false","img/card_backs/set1/purple.gif","img/card_backs/set1/yellow.gif","img/card_backs/set1/red.gif","img/card_backs/set1/green.gif","img/card_backs/set2/pink.gif","img/card_backs/set2/blue.gif","img/card_backs/set2/gray.gif","img/card_backs/set2/orange.gif","""event"",""trial"",""time""
""fullscreenenter"",""1"",""2771""
""blur"",""2"",""7839""
""focus"",""2"",""9531""
","""event"",""trial"",""time""
""blur"",""2"",""7839""
","""event"",""trial"",""time""
""focus"",""2"",""9531""
","""event"",""trial"",""time""
""fullscreenenter"",""1"",""2771""
","
","","null","","null","","fixation","2021-08-09 17:24:13.349","","","","","",""
"card-selection-trial","42","375608","0.0-17.0-1.3","1030","false","img/card_backs/set1/purple.gif","img/card_backs/set1/yellow.gif","img/card_backs/set1/red.gif","img/card_backs/set1/green.gif","img/card_backs/set2/pink.gif","img/card_backs/set2/blue.gif","img/card_backs/set2/gray.gif","img/card_backs/set2/orange.gif","""event"",""trial"",""time""
""fullscreenenter"",""1"",""2771""
""blur"",""2"",""7839""
""focus"",""2"",""9531""
","""event"",""trial"",""time""
""blur"",""2"",""7839""
","""event"",""trial"",""time""
""focus"",""2"",""9531""
","""event"",""trial"",""time""
""fullscreenenter"",""1"",""2771""
","
","","1316","","","","practice","2021-08-09 17:24:16.679","img/practice_cards/backs/dark_green.gif","0","-200","0","",""
"casino-fixation","43","376113","0.0-17.0-0.4","1030","false","img/card_backs/set1/purple.gif","img/card_backs/set1/yellow.gif","img/card_backs/set1/red.gif","img/card_backs/set1/green.gif","img/card_backs/set2/pink.gif","img/card_backs/set2/blue.gif","img/card_backs/set2/gray.gif","img/card_backs/set2/orange.gif","""event"",""trial"",""time""
""fullscreenenter"",""1"",""2771""
""blur"",""2"",""7839""
""focus"",""2"",""9531""
","""event"",""trial"",""time""
""blur"",""2"",""7839""
","""event"",""trial"",""time""
""focus"",""2"",""9531""
","""event"",""trial"",""time""
""fullscreenenter"",""1"",""2771""
","
","","null","","null","","fixation","2021-08-09 17:24:17.184","","","","","",""
"card-selection-trial","44","379123","0.0-17.0-1.4","1030","false","img/card_backs/set1/purple.gif","img/card_backs/set1/yellow.gif","img/card_backs/set1/red.gif","img/card_backs/set1/green.gif","img/card_backs/set2/pink.gif","img/card_backs/set2/blue.gif","img/card_backs/set2/gray.gif","img/card_backs/set2/orange.gif","""event"",""trial"",""time""
""fullscreenenter"",""1"",""2771""
""blur"",""2"",""7839""
""focus"",""2"",""9531""
","""event"",""trial"",""time""
""blur"",""2"",""7839""
","""event"",""trial"",""time""
""focus"",""2"",""9531""
","""event"",""trial"",""time""
""fullscreenenter"",""1"",""2771""
","
","","1000.4000000059605","","","","practice","2021-08-09 17:24:20.194","img/practice_cards/backs/black.gif","2","-100","0","",""
"casino-fixation","45","379626","0.0-17.0-0.5","1030","false","img/card_backs/set1/purple.gif","img/card_backs/set1/yellow.gif","img/card_backs/set1/red.gif","img/card_backs/set1/green.gif","img/card_backs/set2/pink.gif","img/card_backs/set2/blue.gif","img/card_backs/set2/gray.gif","img/card_backs/set2/orange.gif","""event"",""trial"",""time""
""fullscreenenter"",""1"",""2771""
""blur"",""2"",""7839""
""focus"",""2"",""9531""
","""event"",""trial"",""time""
""blur"",""2"",""7839""
","""event"",""trial"",""time""
""focus"",""2"",""9531""
","""event"",""trial"",""time""
""fullscreenenter"",""1"",""2771""
","
","","null","","null","","fixation","2021-08-09 17:24:20.697","","","","","",""
"card-selection-trial","46","383870","0.0-17.0-1.5","1030","false","img/card_backs/set1/purple.gif","img/card_backs/set1/yellow.gif","img/card_backs/set1/red.gif","img/card_backs/set1/green.gif","img/card_backs/set2/pink.gif","img/card_backs/set2/blue.gif","img/card_backs/set2/gray.gif","img/card_backs/set2/orange.gif","""event"",""trial"",""time""
""fullscreenenter"",""1"",""2771""
""blur"",""2"",""7839""
""focus"",""2"",""9531""
","""event"",""trial"",""time""
""blur"",""2"",""7839""
","""event"",""trial"",""time""
""focus"",""2"",""9531""
","""event"",""trial"",""time""
""fullscreenenter"",""1"",""2771""
","
","","2232.800000011921","","","","practice","2021-08-09 17:24:24.941","img/practice_cards/backs/dark_blue.gif","2","200","0","",""
"casino-fixation","47","384376","0.0-17.0-0.6","1030","false","img/card_backs/set1/purple.gif","img/card_backs/set1/yellow.gif","img/card_backs/set1/red.gif","img/card_backs/set1/green.gif","img/card_backs/set2/pink.gif","img/card_backs/set2/blue.gif","img/card_backs/set2/gray.gif","img/card_backs/set2/orange.gif","""event"",""trial"",""time""
""fullscreenenter"",""1"",""2771""
""blur"",""2"",""7839""
""focus"",""2"",""9531""
","""event"",""trial"",""time""
""blur"",""2"",""7839""
","""event"",""trial"",""time""
""focus"",""2"",""9531""
","""event"",""trial"",""time""
""fullscreenenter"",""1"",""2771""
","
","","null","","null","","fixation","2021-08-09 17:24:25.447","","","","","",""
"card-selection-trial","48","388737","0.0-17.0-1.6","1030","false","img/card_backs/set1/purple.gif","img/card_backs/set1/yellow.gif","img/card_backs/set1/red.gif","img/card_backs/set1/green.gif","img/card_backs/set2/pink.gif","img/card_backs/set2/blue.gif","img/card_backs/set2/gray.gif","img/card_backs/set2/orange.gif","""event"",""trial"",""time""
""fullscreenenter"",""1"",""2771""
""blur"",""2"",""7839""
""focus"",""2"",""9531""
","""event"",""trial"",""time""
""blur"",""2"",""7839""
","""event"",""trial"",""time""
""focus"",""2"",""9531""
","""event"",""trial"",""time""
""fullscreenenter"",""1"",""2771""
","
","","2346.199999988079","","","","practice","2021-08-09 17:24:29.808","img/practice_cards/backs/dark_blue.gif","3","-200","0","",""
"casino-fixation","49","389245","0.0-17.0-0.7","1030","false","img/card_backs/set1/purple.gif","img/card_backs/set1/yellow.gif","img/card_backs/set1/red.gif","img/card_backs/set1/green.gif","img/card_backs/set2/pink.gif","img/card_backs/set2/blue.gif","img/card_backs/set2/gray.gif","img/card_backs/set2/orange.gif","""event"",""trial"",""time""
""fullscreenenter"",""1"",""2771""
""blur"",""2"",""7839""
""focus"",""2"",""9531""
","""event"",""trial"",""time""
""blur"",""2"",""7839""
","""event"",""trial"",""time""
""focus"",""2"",""9531""
","""event"",""trial"",""time""
""fullscreenenter"",""1"",""2771""
","
","","null","","null","","fixation","2021-08-09 17:24:30.316","","","","","",""
"card-selection-trial","50","392353","0.0-17.0-1.7","1030","false","img/card_backs/set1/purple.gif","img/card_backs/set1/yellow.gif","img/card_backs/set1/red.gif","img/card_backs/set1/green.gif","img/card_backs/set2/pink.gif","img/card_backs/set2/blue.gif","img/card_backs/set2/gray.gif","img/card_backs/set2/orange.gif","""event"",""trial"",""time""
""fullscreenenter"",""1"",""2771""
""blur"",""2"",""7839""
""focus"",""2"",""9531""
","""event"",""trial"",""time""
""blur"",""2"",""7839""
","""event"",""trial"",""time""
""focus"",""2"",""9531""
","""event"",""trial"",""time""
""fullscreenenter"",""1"",""2771""
","
","","1098.5","","","","practice","2021-08-09 17:24:33.425","img/practice_cards/backs/dark_green.gif","1","200","0","",""
"casino-fixation","51","392860","0.0-17.0-0.8","1030","false","img/card_backs/set1/purple.gif","img/card_backs/set1/yellow.gif","img/card_backs/set1/red.gif","img/card_backs/set1/green.gif","img/card_backs/set2/pink.gif","img/card_backs/set2/blue.gif","img/card_backs/set2/gray.gif","img/card_backs/set2/orange.gif","""event"",""trial"",""time""
""fullscreenenter"",""1"",""2771""
""blur"",""2"",""7839""
""focus"",""2"",""9531""
","""event"",""trial"",""time""
""blur"",""2"",""7839""
","""event"",""trial"",""time""
""focus"",""2"",""9531""
","""event"",""trial"",""time""
""fullscreenenter"",""1"",""2771""
","
","","null","","null","","fixation","2021-08-09 17:24:33.931","","","","","",""
"card-selection-trial","52","395883","0.0-17.0-1.8","1030","false","img/card_backs/set1/purple.gif","img/card_backs/set1/yellow.gif","img/card_backs/set1/red.gif","img/card_backs/set1/green.gif","img/card_backs/set2/pink.gif","img/card_backs/set2/blue.gif","img/card_backs/set2/gray.gif","img/card_backs/set2/orange.gif","""event"",""trial"",""time""
""fullscreenenter"",""1"",""2771""
""blur"",""2"",""7839""
""focus"",""2"",""9531""
","""event"",""trial"",""time""
""blur"",""2"",""7839""
","""event"",""trial"",""time""
""focus"",""2"",""9531""
","""event"",""trial"",""time""
""fullscreenenter"",""1"",""2771""
","
","","1013.4000000059605","","","","practice","2021-08-09 17:24:36.955","img/practice_cards/backs/dark_green.gif","2","-200","0","",""
"casino-fixation","53","396390","0.0-17.0-0.9","1030","false","img/card_backs/set1/purple.gif","img/card_backs/set1/yellow.gif","img/card_backs/set1/red.gif","img/card_backs/set1/green.gif","img/card_backs/set2/pink.gif","img/card_backs/set2/blue.gif","img/card_backs/set2/gray.gif","img/card_backs/set2/orange.gif","""event"",""trial"",""time""
""fullscreenenter"",""1"",""2771""
""blur"",""2"",""7839""
""focus"",""2"",""9531""
","""event"",""trial"",""time""
""blur"",""2"",""7839""
","""event"",""trial"",""time""
""focus"",""2"",""9531""
","""event"",""trial"",""time""
""fullscreenenter"",""1"",""2771""
","
","","null","","null","","fixation","2021-08-09 17:24:37.461","","","","","",""
"card-selection-trial","54","399292","0.0-17.0-1.9","1030","false","img/card_backs/set1/purple.gif","img/card_backs/set1/yellow.gif","img/card_backs/set1/red.gif","img/card_backs/set1/green.gif","img/card_backs/set2/pink.gif","img/card_backs/set2/blue.gif","img/card_backs/set2/gray.gif","img/card_backs/set2/orange.gif","""event"",""trial"",""time""
""fullscreenenter"",""1"",""2771""
""blur"",""2"",""7839""
""focus"",""2"",""9531""
","""event"",""trial"",""time""
""blur"",""2"",""7839""
","""event"",""trial"",""time""
""focus"",""2"",""9531""
","""event"",""trial"",""time""
""fullscreenenter"",""1"",""2771""
","
","","891","","","","practice","2021-08-09 17:24:40.363","img/practice_cards/backs/dark_blue.gif","0","-200","0","",""
"casino-keyboard-response","55","402016","0.0-18.0","1030","false","img/card_backs/set1/purple.gif","img/card_backs/set1/yellow.gif","img/card_backs/set1/red.gif","img/card_backs/set1/green.gif","img/card_backs/set2/pink.gif","img/card_backs/set2/blue.gif","img/card_backs/set2/gray.gif","img/card_backs/set2/orange.gif","""event"",""trial"",""time""
""fullscreenenter"",""1"",""2771""
""blur"",""2"",""7839""
""focus"",""2"",""9531""
","""event"",""trial"",""time""
""blur"",""2"",""7839""
","""event"",""trial"",""time""
""focus"",""2"",""9531""
","""event"",""trial"",""time""
""fullscreenenter"",""1"",""2771""
","
","","2721.2000000178814","You earned -1100 tokens during the practice round!","82","","","2021-08-09 17:24:43.087","","","","","",""
"casino-keyboard-response","56","406416","0.0-19.0-0.0","1030","false","img/card_backs/set1/purple.gif","img/card_backs/set1/yellow.gif","img/card_backs/set1/red.gif","img/card_backs/set1/green.gif","img/card_backs/set2/pink.gif","img/card_backs/set2/blue.gif","img/card_backs/set2/gray.gif","img/card_backs/set2/orange.gif","""event"",""trial"",""time""
""fullscreenenter"",""1"",""2771""
""blur"",""2"",""7839""
""focus"",""2"",""9531""
","""event"",""trial"",""time""
""blur"",""2"",""7839""
","""event"",""trial"",""time""
""focus"",""2"",""9531""
","""event"",""trial"",""time""
""fullscreenenter"",""1"",""2771""
","
","","4394.600000023842","Nice job! You are almost ready to play the real game.","86","","instructions","2021-08-09 17:24:47.487","","","","","",""
"casino-keyboard-response","57","413408","0.0-19.0-0.1","1030","false","img/card_backs/set1/purple.gif","img/card_backs/set1/yellow.gif","img/card_backs/set1/red.gif","img/card_backs/set1/green.gif","img/card_backs/set2/pink.gif","img/card_backs/set2/blue.gif","img/card_backs/set2/gray.gif","img/card_backs/set2/orange.gif","""event"",""trial"",""time""
""fullscreenenter"",""1"",""2771""
""blur"",""2"",""7839""
""focus"",""2"",""9531""
","""event"",""trial"",""time""
""blur"",""2"",""7839""
","""event"",""trial"",""time""
""focus"",""2"",""9531""
","""event"",""trial"",""time""
""fullscreenenter"",""1"",""2771""
","
","","6989.800000011921","You will play two rounds of the real game. In each round, you will pick 100 cards in total.","73","","instructions","2021-08-09 17:24:54.479","","","","","",""
"casino-keyboard-response","58","417448","0.0-19.0-0.2","1030","false","img/card_backs/set1/purple.gif","img/card_backs/set1/yellow.gif","img/card_backs/set1/red.gif","img/card_backs/set1/green.gif","img/card_backs/set2/pink.gif","img/card_backs/set2/blue.gif","img/card_backs/set2/gray.gif","img/card_backs/set2/orange.gif","""event"",""trial"",""time""
""fullscreenenter"",""1"",""2771""
""blur"",""2"",""7839""
""focus"",""2"",""9531""
","""event"",""trial"",""time""
""blur"",""2"",""7839""
","""event"",""trial"",""time""
""focus"",""2"",""9531""
","""event"",""trial"",""time""
""fullscreenenter"",""1"",""2771""
","
","","4037.600000023842","We are now going to ask you some questions about how the game works.","66","","instructions","2021-08-09 17:24:58.519","","","","","",""
"casino-keyboard-response","59","423545","0.0-19.0-0.3","1030","false","img/card_backs/set1/purple.gif","img/card_backs/set1/yellow.gif","img/card_backs/set1/red.gif","img/card_backs/set1/green.gif","img/card_backs/set2/pink.gif","img/card_backs/set2/blue.gif","img/card_backs/set2/gray.gif","img/card_backs/set2/orange.gif","""event"",""trial"",""time""
""fullscreenenter"",""1"",""2771""
""blur"",""2"",""7839""
""focus"",""2"",""9531""
","""event"",""trial"",""time""
""blur"",""2"",""7839""
","""event"",""trial"",""time""
""focus"",""2"",""9531""
","""event"",""trial"",""time""
""fullscreenenter"",""1"",""2771""
","
","","6095","Answer carefully. You will not be able to begin the game until you answer them correctly.","67","","instructions","2021-08-09 17:25:04.616","","","","","",""
"casino-comp_q","60","430273","0.0-20.0-0.0","1030","false","img/card_backs/set1/purple.gif","img/card_backs/set1/yellow.gif","img/card_backs/set1/red.gif","img/card_backs/set1/green.gif","img/card_backs/set2/pink.gif","img/card_backs/set2/blue.gif","img/card_backs/set2/gray.gif","img/card_backs/set2/orange.gif","""event"",""trial"",""time""
""fullscreenenter"",""1"",""2771""
""blur"",""2"",""7839""
""focus"",""2"",""9531""
","""event"",""trial"",""time""
""blur"",""2"",""7839""
","""event"",""trial"",""time""
""focus"",""2"",""9531""
","""event"",""trial"",""time""
""fullscreenenter"",""1"",""2771""
","
","","6725.800000011921","True or False: All the decks have some cards that cause you to win tokens and some cards that cause you to lose tokens.","84","","","2021-08-09 17:25:11.345","","","","","",""
"casino-keyboard-response","61","433024","0.0-20.0-1.0","1030","false","img/card_backs/set1/purple.gif","img/card_backs/set1/yellow.gif","img/card_backs/set1/red.gif","img/card_backs/set1/green.gif","img/card_backs/set2/pink.gif","img/card_backs/set2/blue.gif","img/card_backs/set2/gray.gif","img/card_backs/set2/orange.gif","""event"",""trial"",""time""
""fullscreenenter"",""1"",""2771""
""blur"",""2"",""7839""
""focus"",""2"",""9531""
","""event"",""trial"",""time""
""blur"",""2"",""7839""
","""event"",""trial"",""time""
""focus"",""2"",""9531""
","""event"",""trial"",""time""
""fullscreenenter"",""1"",""2771""
","
","","2747.7000000178814","True is correct! All the decks have a mix of winning and losing cards.","77","","","2021-08-09 17:25:14.096","","","","","true",""
"casino-comp_q","62","435593","0.0-21.0-0.0","1030","false","img/card_backs/set1/purple.gif","img/card_backs/set1/yellow.gif","img/card_backs/set1/red.gif","img/card_backs/set1/green.gif","img/card_backs/set2/pink.gif","img/card_backs/set2/blue.gif","img/card_backs/set2/gray.gif","img/card_backs/set2/orange.gif","""event"",""trial"",""time""
""fullscreenenter"",""1"",""2771""
""blur"",""2"",""7839""
""focus"",""2"",""9531""
","""event"",""trial"",""time""
""blur"",""2"",""7839""
","""event"",""trial"",""time""
""focus"",""2"",""9531""
","""event"",""trial"",""time""
""fullscreenenter"",""1"",""2771""
","
","","2564.699999988079","True or False: You will have as much time as you want to make your response.","70","","","2021-08-09 17:25:16.664","","","","","",""
"casino-keyboard-response","63","440696","0.0-21.0-1.0","1030","false","img/card_backs/set1/purple.gif","img/card_backs/set1/yellow.gif","img/card_backs/set1/red.gif","img/card_backs/set1/green.gif","img/card_backs/set2/pink.gif","img/card_backs/set2/blue.gif","img/card_backs/set2/gray.gif","img/card_backs/set2/orange.gif","""event"",""trial"",""time""
""fullscreenenter"",""1"",""2771""
""blur"",""2"",""7839""
""focus"",""2"",""9531""
","""event"",""trial"",""time""
""blur"",""2"",""7839""
","""event"",""trial"",""time""
""focus"",""2"",""9531""
","""event"",""trial"",""time""
""fullscreenenter"",""1"",""2771""
","
","","5102.299999982119","False is correct! You will only have 10 seconds to make each choice.","75","","","2021-08-09 17:25:21.768","","","","","true",""
"casino-comp_q","64","446288","0.0-22.0-0.0","1030","false","img/card_backs/set1/purple.gif","img/card_backs/set1/yellow.gif","img/card_backs/set1/red.gif","img/card_backs/set1/green.gif","img/card_backs/set2/pink.gif","img/card_backs/set2/blue.gif","img/card_backs/set2/gray.gif","img/card_backs/set2/orange.gif","""event"",""trial"",""time""
""fullscreenenter"",""1"",""2771""
""blur"",""2"",""7839""
""focus"",""2"",""9531""
","""event"",""trial"",""time""
""blur"",""2"",""7839""
","""event"",""trial"",""time""
""focus"",""2"",""9531""
","""event"",""trial"",""time""
""fullscreenenter"",""1"",""2771""
","
","","5589.5999999940395","True or False: The location of the deck determines how lucky it is.","70","","","2021-08-09 17:25:27.359","","","","","",""
"casino-keyboard-response","65","449245","0.0-22.0-1.0","1030","false","img/card_backs/set1/purple.gif","img/card_backs/set1/yellow.gif","img/card_backs/set1/red.gif","img/card_backs/set1/green.gif","img/card_backs/set2/pink.gif","img/card_backs/set2/blue.gif","img/card_backs/set2/gray.gif","img/card_backs/set2/orange.gif","""event"",""trial"",""time""
""fullscreenenter"",""1"",""2771""
""blur"",""2"",""7839""
""focus"",""2"",""9531""
","""event"",""trial"",""time""
""blur"",""2"",""7839""
","""event"",""trial"",""time""
""focus"",""2"",""9531""
","""event"",""trial"",""time""
""fullscreenenter"",""1"",""2771""
","
","","2954.5999999940395","False is correct! The <i>color</i>  of the deck determines how lucky or unlucky it is.","68","","","2021-08-09 17:25:30.317","","","","","true",""
"casino-keyboard-response","66","453615","0.0-23.0-0.0","1030","false","img/card_backs/set1/purple.gif","img/card_backs/set1/yellow.gif","img/card_backs/set1/red.gif","img/card_backs/set1/green.gif","img/card_backs/set2/pink.gif","img/card_backs/set2/blue.gif","img/card_backs/set2/gray.gif","img/card_backs/set2/orange.gif","""event"",""trial"",""time""
""fullscreenenter"",""1"",""2771""
""blur"",""2"",""7839""
""focus"",""2"",""9531""
","""event"",""trial"",""time""
""blur"",""2"",""7839""
","""event"",""trial"",""time""
""focus"",""2"",""9531""
","""event"",""trial"",""time""
""fullscreenenter"",""1"",""2771""
","
","","4367.600000023842","Great job! Now it's time to start the real game.","82","","instructions","2021-08-09 17:25:34.686","","","","","",""
"casino-keyboard-response","67","458688","0.0-23.0-0.1","1030","false","img/card_backs/set1/purple.gif","img/card_backs/set1/yellow.gif","img/card_backs/set1/red.gif","img/card_backs/set1/green.gif","img/card_backs/set2/pink.gif","img/card_backs/set2/blue.gif","img/card_backs/set2/gray.gif","img/card_backs/set2/orange.gif","""event"",""trial"",""time""
""fullscreenenter"",""1"",""2771""
""blur"",""2"",""7839""
""focus"",""2"",""9531""
","""event"",""trial"",""time""
""blur"",""2"",""7839""
","""event"",""trial"",""time""
""focus"",""2"",""9531""
","""event"",""trial"",""time""
""fullscreenenter"",""1"",""2771""
","
","","5070.199999988079","Before we start, we're going to head into a new room of the casino.","86","","instructions","2021-08-09 17:25:39.759","","","","","",""
"casino-keyboard-response","68","464861","0.0-24.0-0.0","1030","false","img/card_backs/set1/purple.gif","img/card_backs/set1/yellow.gif","img/card_backs/set1/red.gif","img/card_backs/set1/green.gif","img/card_backs/set2/pink.gif","img/card_backs/set2/blue.gif","img/card_backs/set2/gray.gif","img/card_backs/set2/orange.gif","""event"",""trial"",""time""
""fullscreenenter"",""1"",""2771""
""blur"",""2"",""7839""
""focus"",""2"",""9531""
","""event"",""trial"",""time""
""blur"",""2"",""7839""
","""event"",""trial"",""time""
""focus"",""2"",""9531""
","""event"",""trial"",""time""
""fullscreenenter"",""1"",""2771""
","
","","6171.199999988079","Here we are! The real game will use different cards, but the rules will be the same.","71","","instructions","2021-08-09 17:25:45.932","","","","","",""
"casino-keyboard-response","69","474408","0.0-24.0-0.1","1030","false","img/card_backs/set1/purple.gif","img/card_backs/set1/yellow.gif","img/card_backs/set1/red.gif","img/card_backs/set1/green.gif","img/card_backs/set2/pink.gif","img/card_backs/set2/blue.gif","img/card_backs/set2/gray.gif","img/card_backs/set2/orange.gif","""event"",""trial"",""time""
""fullscreenenter"",""1"",""2771""
""blur"",""2"",""7839""
""focus"",""2"",""9531""
","""event"",""trial"",""time""
""blur"",""2"",""7839""
","""event"",""trial"",""time""
""focus"",""2"",""9531""
","""event"",""trial"",""time""
""fullscreenenter"",""1"",""2771""
","
","","9545","Ready? Put your fingers over the '2', '4', 6', and '8' keys so you are ready to play the game. </br> Then press 2 to start.","50","","instructions","2021-08-09 17:25:55.479","","","","","",""
"casino-fixation","70","474911","0.0-25.0-0.0","1030","false","img/card_backs/set1/purple.gif","img/card_backs/set1/yellow.gif","img/card_backs/set1/red.gif","img/card_backs/set1/green.gif","img/card_backs/set2/pink.gif","img/card_backs/set2/blue.gif","img/card_backs/set2/gray.gif","img/card_backs/set2/orange.gif","""event"",""trial"",""time""
""fullscreenenter"",""1"",""2771""
""blur"",""2"",""7839""
""focus"",""2"",""9531""
","""event"",""trial"",""time""
""blur"",""2"",""7839""
","""event"",""trial"",""time""
""focus"",""2"",""9531""
","""event"",""trial"",""time""
""fullscreenenter"",""1"",""2771""
","
","","null","","null","","fixation","2021-08-09 17:25:55.983","","","","","",""
"card-selection-trial","71","477948","0.0-25.0-1.0","1030","false","img/card_backs/set1/purple.gif","img/card_backs/set1/yellow.gif","img/card_backs/set1/red.gif","img/card_backs/set1/green.gif","img/card_backs/set2/pink.gif","img/card_backs/set2/blue.gif","img/card_backs/set2/gray.gif","img/card_backs/set2/orange.gif","""event"",""trial"",""time""
""fullscreenenter"",""1"",""2771""
""blur"",""2"",""7839""
""focus"",""2"",""9531""
","""event"",""trial"",""time""
""blur"",""2"",""7839""
","""event"",""trial"",""time""
""focus"",""2"",""9531""
","""event"",""trial"",""time""
""fullscreenenter"",""1"",""2771""
","
","","1023.0999999940395","","","","real_trial","2021-08-09 17:25:59.019","img/card_backs/set1/purple.gif","0","200","1","",""
"casino-fixation","72","478453","0.0-25.0-0.1","1030","false","img/card_backs/set1/purple.gif","img/card_backs/set1/yellow.gif","img/card_backs/set1/red.gif","img/card_backs/set1/green.gif","img/card_backs/set2/pink.gif","img/card_backs/set2/blue.gif","img/card_backs/set2/gray.gif","img/card_backs/set2/orange.gif","""event"",""trial"",""time""
""fullscreenenter"",""1"",""2771""
""blur"",""2"",""7839""
""focus"",""2"",""9531""
","""event"",""trial"",""time""
""blur"",""2"",""7839""
","""event"",""trial"",""time""
""focus"",""2"",""9531""
","""event"",""trial"",""time""
""fullscreenenter"",""1"",""2771""
","
","","null","","null","","fixation","2021-08-09 17:25:59.524","","","","","",""
"card-selection-trial","73","481072","0.0-25.0-1.1","1030","false","img/card_backs/set1/purple.gif","img/card_backs/set1/yellow.gif","img/card_backs/set1/red.gif","img/card_backs/set1/green.gif","img/card_backs/set2/pink.gif","img/card_backs/set2/blue.gif","img/card_backs/set2/gray.gif","img/card_backs/set2/orange.gif","""event"",""trial"",""time""
""fullscreenenter"",""1"",""2771""
""blur"",""2"",""7839""
""focus"",""2"",""9531""
","""event"",""trial"",""time""
""blur"",""2"",""7839""
","""event"",""trial"",""time""
""focus"",""2"",""9531""
","""event"",""trial"",""time""
""fullscreenenter"",""1"",""2771""
","
","","609.0999999940395","","","","real_trial","2021-08-09 17:26:02.143","img/card_backs/set1/purple.gif","0","-230","1","",""
"casino-fixation","74","481578","0.0-25.0-0.2","1030","false","img/card_backs/set1/purple.gif","img/card_backs/set1/yellow.gif","img/card_backs/set1/red.gif","img/card_backs/set1/green.gif","img/card_backs/set2/pink.gif","img/card_backs/set2/blue.gif","img/card_backs/set2/gray.gif","img/card_backs/set2/orange.gif","""event"",""trial"",""time""
""fullscreenenter"",""1"",""2771""
""blur"",""2"",""7839""
""focus"",""2"",""9531""
","""event"",""trial"",""time""
""blur"",""2"",""7839""
","""event"",""trial"",""time""
""focus"",""2"",""9531""
","""event"",""trial"",""time""
""fullscreenenter"",""1"",""2771""
","
","","null","","null","","fixation","2021-08-09 17:26:02.649","","","","","",""
"card-selection-trial","75","484656","0.0-25.0-1.2","1030","false","img/card_backs/set1/purple.gif","img/card_backs/set1/yellow.gif","img/card_backs/set1/red.gif","img/card_backs/set1/green.gif","img/card_backs/set2/pink.gif","img/card_backs/set2/blue.gif","img/card_backs/set2/gray.gif","img/card_backs/set2/orange.gif","""event"",""trial"",""time""
""fullscreenenter"",""1"",""2771""
""blur"",""2"",""7839""
""focus"",""2"",""9531""
","""event"",""trial"",""time""
""blur"",""2"",""7839""
","""event"",""trial"",""time""
""focus"",""2"",""9531""
","""event"",""trial"",""time""
""fullscreenenter"",""1"",""2771""
","
","","1068","","","","real_trial","2021-08-09 17:26:05.727","img/card_backs/set1/purple.gif","1","-230","1","",""
"casino-fixation","76","485162","0.0-25.0-0.3","1030","false","img/card_backs/set1/purple.gif","img/card_backs/set1/yellow.gif","img/card_backs/set1/red.gif","img/card_backs/set1/green.gif","img/card_backs/set2/pink.gif","img/card_backs/set2/blue.gif","img/card_backs/set2/gray.gif","img/card_backs/set2/orange.gif","""event"",""trial"",""time""
""fullscreenenter"",""1"",""2771""
""blur"",""2"",""7839""
""focus"",""2"",""9531""
","""event"",""trial"",""time""
""blur"",""2"",""7839""
","""event"",""trial"",""time""
""focus"",""2"",""9531""
","""event"",""trial"",""time""
""fullscreenenter"",""1"",""2771""
","
","","null","","null","","fixation","2021-08-09 17:26:06.233","","","","","",""
"card-selection-trial","77","488122","0.0-25.0-1.3","1030","false","img/card_backs/set1/purple.gif","img/card_backs/set1/yellow.gif","img/card_backs/set1/red.gif","img/card_backs/set1/green.gif","img/card_backs/set2/pink.gif","img/card_backs/set2/blue.gif","img/card_backs/set2/gray.gif","img/card_backs/set2/orange.gif","""event"",""trial"",""time""
""fullscreenenter"",""1"",""2771""
""blur"",""2"",""7839""
""focus"",""2"",""9531""
","""event"",""trial"",""time""
""blur"",""2"",""7839""
","""event"",""trial"",""time""
""focus"",""2"",""9531""
","""event"",""trial"",""time""
""fullscreenenter"",""1"",""2771""
","
","","950.2999999821186","","","","real_trial","2021-08-09 17:26:09.194","img/card_backs/set1/purple.gif","2","190","1","",""
"casino-fixation","78","488629","0.0-25.0-0.4","1030","false","img/card_backs/set1/purple.gif","img/card_backs/set1/yellow.gif","img/card_backs/set1/red.gif","img/card_backs/set1/green.gif","img/card_backs/set2/pink.gif","img/card_backs/set2/blue.gif","img/card_backs/set2/gray.gif","img/card_backs/set2/orange.gif","""event"",""trial"",""time""
""fullscreenenter"",""1"",""2771""
""blur"",""2"",""7839""
""focus"",""2"",""9531""
","""event"",""trial"",""time""
""blur"",""2"",""7839""
","""event"",""trial"",""time""
""focus"",""2"",""9531""
","""event"",""trial"",""time""
""fullscreenenter"",""1"",""2771""
","
","","null","","null","","fixation","2021-08-09 17:26:09.700","","","","","",""
"card-selection-trial","79","491440","0.0-25.0-1.4","1030","false","img/card_backs/set1/purple.gif","img/card_backs/set1/yellow.gif","img/card_backs/set1/red.gif","img/card_backs/set1/green.gif","img/card_backs/set2/pink.gif","img/card_backs/set2/blue.gif","img/card_backs/set2/gray.gif","img/card_backs/set2/orange.gif","""event"",""trial"",""time""
""fullscreenenter"",""1"",""2771""
""blur"",""2"",""7839""
""focus"",""2"",""9531""
","""event"",""trial"",""time""
""blur"",""2"",""7839""
","""event"",""trial"",""time""
""focus"",""2"",""9531""
","""event"",""trial"",""time""
""fullscreenenter"",""1"",""2771""
","
","","805.8000000119209","","","","real_trial","2021-08-09 17:26:12.511","img/card_backs/set1/purple.gif","1","190","1","",""
"casino-fixation","80","491946","0.0-25.0-0.5","1030","false","img/card_backs/set1/purple.gif","img/card_backs/set1/yellow.gif","img/card_backs/set1/red.gif","img/card_backs/set1/green.gif","img/card_backs/set2/pink.gif","img/card_backs/set2/blue.gif","img/card_backs/set2/gray.gif","img/card_backs/set2/orange.gif","""event"",""trial"",""time""
""fullscreenenter"",""1"",""2771""
""blur"",""2"",""7839""
""focus"",""2"",""9531""
","""event"",""trial"",""time""
""blur"",""2"",""7839""
","""event"",""trial"",""time""
""focus"",""2"",""9531""
","""event"",""trial"",""time""
""fullscreenenter"",""1"",""2771""
","
","","null","","null","","fixation","2021-08-09 17:26:13.017","","","","","",""
"card-selection-trial","81","494896","0.0-25.0-1.5","1030","false","img/card_backs/set1/purple.gif","img/card_backs/set1/yellow.gif","img/card_backs/set1/red.gif","img/card_backs/set1/green.gif","img/card_backs/set2/pink.gif","img/card_backs/set2/blue.gif","img/card_backs/set2/gray.gif","img/card_backs/set2/orange.gif","""event"",""trial"",""time""
""fullscreenenter"",""1"",""2771""
""blur"",""2"",""7839""
""focus"",""2"",""9531""
","""event"",""trial"",""time""
""blur"",""2"",""7839""
","""event"",""trial"",""time""
""focus"",""2"",""9531""
","""event"",""trial"",""time""
""fullscreenenter"",""1"",""2771""
","
","","940","","","","real_trial","2021-08-09 17:26:15.967","img/card_backs/set1/red.gif","2","100","1","",""
"casino-fixation","82","495400","0.0-25.0-0.6","1030","false","img/card_backs/set1/purple.gif","img/card_backs/set1/yellow.gif","img/card_backs/set1/red.gif","img/card_backs/set1/green.gif","img/card_backs/set2/pink.gif","img/card_backs/set2/blue.gif","img/card_backs/set2/gray.gif","img/card_backs/set2/orange.gif","""event"",""trial"",""time""
""fullscreenenter"",""1"",""2771""
""blur"",""2"",""7839""
""focus"",""2"",""9531""
","""event"",""trial"",""time""
""blur"",""2"",""7839""
","""event"",""trial"",""time""
""focus"",""2"",""9531""
","""event"",""trial"",""time""
""fullscreenenter"",""1"",""2771""
","
","","null","","null","","fixation","2021-08-09 17:26:16.471","","","","","",""
"card-selection-trial","83","497930","0.0-25.0-1.6","1030","false","img/card_backs/set1/purple.gif","img/card_backs/set1/yellow.gif","img/card_backs/set1/red.gif","img/card_backs/set1/green.gif","img/card_backs/set2/pink.gif","img/card_backs/set2/blue.gif","img/card_backs/set2/gray.gif","img/card_backs/set2/orange.gif","""event"",""trial"",""time""
""fullscreenenter"",""1"",""2771""
""blur"",""2"",""7839""
""focus"",""2"",""9531""
","""event"",""trial"",""time""
""blur"",""2"",""7839""
","""event"",""trial"",""time""
""focus"",""2"",""9531""
","""event"",""trial"",""time""
""fullscreenenter"",""1"",""2771""
","
","","519.0999999940395","","","","real_trial","2021-08-09 17:26:19.002","img/card_backs/set1/purple.gif","3","-250","1","",""
"casino-fixation","84","498436","0.0-25.0-0.7","1030","false","img/card_backs/set1/purple.gif","img/card_backs/set1/yellow.gif","img/card_backs/set1/red.gif","img/card_backs/set1/green.gif","img/card_backs/set2/pink.gif","img/card_backs/set2/blue.gif","img/card_backs/set2/gray.gif","img/card_backs/set2/orange.gif","""event"",""trial"",""time""
""fullscreenenter"",""1"",""2771""
""blur"",""2"",""7839""
""focus"",""2"",""9531""
","""event"",""trial"",""time""
""blur"",""2"",""7839""
","""event"",""trial"",""time""
""focus"",""2"",""9531""
","""event"",""trial"",""time""
""fullscreenenter"",""1"",""2771""
","
","","null","","null","","fixation","2021-08-09 17:26:19.507","","","","","",""
"card-selection-trial","85","500950","0.0-25.0-1.7","1030","false","img/card_backs/set1/purple.gif","img/card_backs/set1/yellow.gif","img/card_backs/set1/red.gif","img/card_backs/set1/green.gif","img/card_backs/set2/pink.gif","img/card_backs/set2/blue.gif","img/card_backs/set2/gray.gif","img/card_backs/set2/orange.gif","""event"",""trial"",""time""
""fullscreenenter"",""1"",""2771""
""blur"",""2"",""7839""
""focus"",""2"",""9531""
","""event"",""trial"",""time""
""blur"",""2"",""7839""
","""event"",""trial"",""time""
""focus"",""2"",""9531""
","""event"",""trial"",""time""
""fullscreenenter"",""1"",""2771""
","
","","503.5","","","","real_trial","2021-08-09 17:26:22.022","img/card_backs/set1/green.gif","0","-60","1","",""
"casino-fixation","86","501455","0.0-25.0-0.8","1030","false","img/card_backs/set1/purple.gif","img/card_backs/set1/yellow.gif","img/card_backs/set1/red.gif","img/card_backs/set1/green.gif","img/card_backs/set2/pink.gif","img/card_backs/set2/blue.gif","img/card_backs/set2/gray.gif","img/card_backs/set2/orange.gif","""event"",""trial"",""time""
""fullscreenenter"",""1"",""2771""
""blur"",""2"",""7839""
""focus"",""2"",""9531""
","""event"",""trial"",""time""
""blur"",""2"",""7839""
","""event"",""trial"",""time""
""focus"",""2"",""9531""
","""event"",""trial"",""time""
""fullscreenenter"",""1"",""2771""
","
","","null","","null","","fixation","2021-08-09 17:26:22.526","","","","","",""
"card-selection-trial","87","504043","0.0-25.0-1.8","1030","false","img/card_backs/set1/purple.gif","img/card_backs/set1/yellow.gif","img/card_backs/set1/red.gif","img/card_backs/set1/green.gif","img/card_backs/set2/pink.gif","img/card_backs/set2/blue.gif","img/card_backs/set2/gray.gif","img/card_backs/set2/orange.gif","""event"",""trial"",""time""
""fullscreenenter"",""1"",""2771""
""blur"",""2"",""7839""
""focus"",""2"",""9531""
","""event"",""trial"",""time""
""blur"",""2"",""7839""
","""event"",""trial"",""time""
""focus"",""2"",""9531""
","""event"",""trial"",""time""
""fullscreenenter"",""1"",""2771""
","
","","575.8999999761581","","","","real_trial","2021-08-09 17:26:25.114","img/card_backs/set1/green.gif","0","110","1","",""
"casino-fixation","88","504549","0.0-25.0-0.9","1030","false","img/card_backs/set1/purple.gif","img/card_backs/set1/yellow.gif","img/card_backs/set1/red.gif","img/card_backs/set1/green.gif","img/card_backs/set2/pink.gif","img/card_backs/set2/blue.gif","img/card_backs/set2/gray.gif","img/card_backs/set2/orange.gif","""event"",""trial"",""time""
""fullscreenenter"",""1"",""2771""
""blur"",""2"",""7839""
""focus"",""2"",""9531""
","""event"",""trial"",""time""
""blur"",""2"",""7839""
","""event"",""trial"",""time""
""focus"",""2"",""9531""
","""event"",""trial"",""time""
""fullscreenenter"",""1"",""2771""
","
","","null","","null","","fixation","2021-08-09 17:26:25.620","","","","","",""
"card-selection-trial","89","507083","0.0-25.0-1.9","1030","false","img/card_backs/set1/purple.gif","img/card_backs/set1/yellow.gif","img/card_backs/set1/red.gif","img/card_backs/set1/green.gif","img/card_backs/set2/pink.gif","img/card_backs/set2/blue.gif","img/card_backs/set2/gray.gif","img/card_backs/set2/orange.gif","""event"",""trial"",""time""
""fullscreenenter"",""1"",""2771""
""blur"",""2"",""7839""
""focus"",""2"",""9531""
","""event"",""trial"",""time""
""blur"",""2"",""7839""
","""event"",""trial"",""time""
""focus"",""2"",""9531""
","""event"",""trial"",""time""
""fullscreenenter"",""1"",""2771""
","
","","520.4000000059605","","","","real_trial","2021-08-09 17:26:28.154","img/card_backs/set1/purple.gif","3","190","1","",""
"casino-fixation","90","507589","0.0-25.0-0.10","1030","false","img/card_backs/set1/purple.gif","img/card_backs/set1/yellow.gif","img/card_backs/set1/red.gif","img/card_backs/set1/green.gif","img/card_backs/set2/pink.gif","img/card_backs/set2/blue.gif","img/card_backs/set2/gray.gif","img/card_backs/set2/orange.gif","""event"",""trial"",""time""
""fullscreenenter"",""1"",""2771""
""blur"",""2"",""7839""
""focus"",""2"",""9531""
","""event"",""trial"",""time""
""blur"",""2"",""7839""
","""event"",""trial"",""time""
""focus"",""2"",""9531""
","""event"",""trial"",""time""
""fullscreenenter"",""1"",""2771""
","
","","null","","null","","fixation","2021-08-09 17:26:28.660","","","","","",""
"card-selection-trial","91","510864","0.0-25.0-1.10","1030","false","img/card_backs/set1/purple.gif","img/card_backs/set1/yellow.gif","img/card_backs/set1/red.gif","img/card_backs/set1/green.gif","img/card_backs/set2/pink.gif","img/card_backs/set2/blue.gif","img/card_backs/set2/gray.gif","img/card_backs/set2/orange.gif","""event"",""trial"",""time""
""fullscreenenter"",""1"",""2771""
""blur"",""2"",""7839""
""focus"",""2"",""9531""
","""event"",""trial"",""time""
""blur"",""2"",""7839""
","""event"",""trial"",""time""
""focus"",""2"",""9531""
","""event"",""trial"",""time""
""fullscreenenter"",""1"",""2771""
","
","","1264.0999999940395","","","","real_trial","2021-08-09 17:26:31.935","img/card_backs/set1/yellow.gif","2","-230","1","",""
"casino-fixation","92","511371","0.0-25.0-0.11","1030","false","img/card_backs/set1/purple.gif","img/card_backs/set1/yellow.gif","img/card_backs/set1/red.gif","img/card_backs/set1/green.gif","img/card_backs/set2/pink.gif","img/card_backs/set2/blue.gif","img/card_backs/set2/gray.gif","img/card_backs/set2/orange.gif","""event"",""trial"",""time""
""fullscreenenter"",""1"",""2771""
""blur"",""2"",""7839""
""focus"",""2"",""9531""
","""event"",""trial"",""time""
""blur"",""2"",""7839""
","""event"",""trial"",""time""
""focus"",""2"",""9531""
","""event"",""trial"",""time""
""fullscreenenter"",""1"",""2771""
","
","","null","","null","","fixation","2021-08-09 17:26:32.442","","","","","",""
"card-selection-trial","93","513994","0.0-25.0-1.11","1030","false","img/card_backs/set1/purple.gif","img/card_backs/set1/yellow.gif","img/card_backs/set1/red.gif","img/card_backs/set1/green.gif","img/card_backs/set2/pink.gif","img/card_backs/set2/blue.gif","img/card_backs/set2/gray.gif","img/card_backs/set2/orange.gif","""event"",""trial"",""time""
""fullscreenenter"",""1"",""2771""
""blur"",""2"",""7839""
""focus"",""2"",""9531""
","""event"",""trial"",""time""
""blur"",""2"",""7839""
","""event"",""trial"",""time""
""focus"",""2"",""9531""
","""event"",""trial"",""time""
""fullscreenenter"",""1"",""2771""
","
","","612","","","","real_trial","2021-08-09 17:26:35.065","img/card_backs/set1/yellow.gif","3","-250","1","",""
"casino-fixation","94","514500","0.0-25.0-0.12","1030","false","img/card_backs/set1/purple.gif","img/card_backs/set1/yellow.gif","img/card_backs/set1/red.gif","img/card_backs/set1/green.gif","img/card_backs/set2/pink.gif","img/card_backs/set2/blue.gif","img/card_backs/set2/gray.gif","img/card_backs/set2/orange.gif","""event"",""trial"",""time""
""fullscreenenter"",""1"",""2771""
""blur"",""2"",""7839""
""focus"",""2"",""9531""
","""event"",""trial"",""time""
""blur"",""2"",""7839""
","""event"",""trial"",""time""
""focus"",""2"",""9531""
","""event"",""trial"",""time""
""fullscreenenter"",""1"",""2771""
","
","","null","","null","","fixation","2021-08-09 17:26:35.571","","","","","",""
"card-selection-trial","95","517216","0.0-25.0-1.12","1030","false","img/card_backs/set1/purple.gif","img/card_backs/set1/yellow.gif","img/card_backs/set1/red.gif","img/card_backs/set1/green.gif","img/card_backs/set2/pink.gif","img/card_backs/set2/blue.gif","img/card_backs/set2/gray.gif","img/card_backs/set2/orange.gif","""event"",""trial"",""time""
""fullscreenenter"",""1"",""2771""
""blur"",""2"",""7839""
""focus"",""2"",""9531""
","""event"",""trial"",""time""
""blur"",""2"",""7839""
","""event"",""trial"",""time""
""focus"",""2"",""9531""
","""event"",""trial"",""time""
""fullscreenenter"",""1"",""2771""
","
","","706.0999999940395","","","","real_trial","2021-08-09 17:26:38.287","img/card_backs/set1/yellow.gif","0","-230","1","",""
"casino-fixation","96","517722","0.0-25.0-0.13","1030","false","img/card_backs/set1/purple.gif","img/card_backs/set1/yellow.gif","img/card_backs/set1/red.gif","img/card_backs/set1/green.gif","img/card_backs/set2/pink.gif","img/card_backs/set2/blue.gif","img/card_backs/set2/gray.gif","img/card_backs/set2/orange.gif","""event"",""trial"",""time""
""fullscreenenter"",""1"",""2771""
""blur"",""2"",""7839""
""focus"",""2"",""9531""
","""event"",""trial"",""time""
""blur"",""2"",""7839""
","""event"",""trial"",""time""
""focus"",""2"",""9531""
","""event"",""trial"",""time""
""fullscreenenter"",""1"",""2771""
","
","","null","","null","","fixation","2021-08-09 17:26:38.793","","","","","",""
"card-selection-trial","97","520772","0.0-25.0-1.13","1030","false","img/card_backs/set1/purple.gif","img/card_backs/set1/yellow.gif","img/card_backs/set1/red.gif","img/card_backs/set1/green.gif","img/card_backs/set2/pink.gif","img/card_backs/set2/blue.gif","img/card_backs/set2/gray.gif","img/card_backs/set2/orange.gif","""event"",""trial"",""time""
""fullscreenenter"",""1"",""2771""
""blur"",""2"",""7839""
""focus"",""2"",""9531""
","""event"",""trial"",""time""
""blur"",""2"",""7839""
","""event"",""trial"",""time""
""focus"",""2"",""9531""
","""event"",""trial"",""time""
""fullscreenenter"",""1"",""2771""
","
","","1037.4000000059605","","","","real_trial","2021-08-09 17:26:41.843","img/card_backs/set1/purple.gif","1","190","1","",""
"casino-fixation","98","521279","0.0-25.0-0.14","1030","false","img/card_backs/set1/purple.gif","img/card_backs/set1/yellow.gif","img/card_backs/set1/red.gif","img/card_backs/set1/green.gif","img/card_backs/set2/pink.gif","img/card_backs/set2/blue.gif","img/card_backs/set2/gray.gif","img/card_backs/set2/orange.gif","""event"",""trial"",""time""
""fullscreenenter"",""1"",""2771""
""blur"",""2"",""7839""
""focus"",""2"",""9531""
","""event"",""trial"",""time""
""blur"",""2"",""7839""
","""event"",""trial"",""time""
""focus"",""2"",""9531""
","""event"",""trial"",""time""
""fullscreenenter"",""1"",""2771""
","
","","null","","null","","fixation","2021-08-09 17:26:42.350","","","","","",""
"card-selection-trial","99","523850","0.0-25.0-1.14","1030","false","img/card_backs/set1/purple.gif","img/card_backs/set1/yellow.gif","img/card_backs/set1/red.gif","img/card_backs/set1/green.gif","img/card_backs/set2/pink.gif","img/card_backs/set2/blue.gif","img/card_backs/set2/gray.gif","img/card_backs/set2/orange.gif","""event"",""trial"",""time""
""fullscreenenter"",""1"",""2771""
""blur"",""2"",""7839""
""focus"",""2"",""9531""
","""event"",""trial"",""time""
""blur"",""2"",""7839""
","""event"",""trial"",""time""
""focus"",""2"",""9531""
","""event"",""trial"",""time""
""fullscreenenter"",""1"",""2771""
","
","","559.0999999940395","","","","real_trial","2021-08-09 17:26:44.921","img/card_backs/set1/purple.gif","1","180","1","",""
"casino-fixation","100","524357","0.0-25.0-0.15","1030","false","img/card_backs/set1/purple.gif","img/card_backs/set1/yellow.gif","img/card_backs/set1/red.gif","img/card_backs/set1/green.gif","img/card_backs/set2/pink.gif","img/card_backs/set2/blue.gif","img/card_backs/set2/gray.gif","img/card_backs/set2/orange.gif","""event"",""trial"",""time""
""fullscreenenter"",""1"",""2771""
""blur"",""2"",""7839""
""focus"",""2"",""9531""
","""event"",""trial"",""time""
""blur"",""2"",""7839""
","""event"",""trial"",""time""
""focus"",""2"",""9531""
","""event"",""trial"",""time""
""fullscreenenter"",""1"",""2771""
","
","","null","","null","","fixation","2021-08-09 17:26:45.428","","","","","",""
"card-selection-trial","101","526928","0.0-25.0-1.15","1030","false","img/card_backs/set1/purple.gif","img/card_backs/set1/yellow.gif","img/card_backs/set1/red.gif","img/card_backs/set1/green.gif","img/card_backs/set2/pink.gif","img/card_backs/set2/blue.gif","img/card_backs/set2/gray.gif","img/card_backs/set2/orange.gif","""event"",""trial"",""time""
""fullscreenenter"",""1"",""2771""
""blur"",""2"",""7839""
""focus"",""2"",""9531""
","""event"",""trial"",""time""
""blur"",""2"",""7839""
","""event"",""trial"",""time""
""focus"",""2"",""9531""
","""event"",""trial"",""time""
""fullscreenenter"",""1"",""2771""
","
","","556.5999999940395","","","","real_trial","2021-08-09 17:26:47.999","img/card_backs/set1/purple.gif","3","180","1","",""
"casino-fixation","102","527434","0.0-25.0-0.16","1030","false","img/card_backs/set1/purple.gif","img/card_backs/set1/yellow.gif","img/card_backs/set1/red.gif","img/card_backs/set1/green.gif","img/card_backs/set2/pink.gif","img/card_backs/set2/blue.gif","img/card_backs/set2/gray.gif","img/card_backs/set2/orange.gif","""event"",""trial"",""time""
""fullscreenenter"",""1"",""2771""
""blur"",""2"",""7839""
""focus"",""2"",""9531""
","""event"",""trial"",""time""
""blur"",""2"",""7839""
","""event"",""trial"",""time""
""focus"",""2"",""9531""
","""event"",""trial"",""time""
""fullscreenenter"",""1"",""2771""
","
","","null","","null","","fixation","2021-08-09 17:26:48.505","","","","","",""
"card-selection-trial","103","530004","0.0-25.0-1.16","1030","false","img/card_backs/set1/purple.gif","img/card_backs/set1/yellow.gif","img/card_backs/set1/red.gif","img/card_backs/set1/green.gif","img/card_backs/set2/pink.gif","img/card_backs/set2/blue.gif","img/card_backs/set2/gray.gif","img/card_backs/set2/orange.gif","""event"",""trial"",""time""
""fullscreenenter"",""1"",""2771""
""blur"",""2"",""7839""
""focus"",""2"",""9531""
","""event"",""trial"",""time""
""blur"",""2"",""7839""
","""event"",""trial"",""time""
""focus"",""2"",""9531""
","""event"",""trial"",""time""
""fullscreenenter"",""1"",""2771""
","
","","557.8000000119209","","","","real_trial","2021-08-09 17:26:51.075","img/card_backs/set1/purple.gif","3","-230","1","",""
"casino-fixation","104","530506","0.0-25.0-0.17","1030","false","img/card_backs/set1/purple.gif","img/card_backs/set1/yellow.gif","img/card_backs/set1/red.gif","img/card_backs/set1/green.gif","img/card_backs/set2/pink.gif","img/card_backs/set2/blue.gif","img/card_backs/set2/gray.gif","img/card_backs/set2/orange.gif","""event"",""trial"",""time""
""fullscreenenter"",""1"",""2771""
""blur"",""2"",""7839""
""focus"",""2"",""9531""
","""event"",""trial"",""time""
""blur"",""2"",""7839""
","""event"",""trial"",""time""
""focus"",""2"",""9531""
","""event"",""trial"",""time""
""fullscreenenter"",""1"",""2771""
","
","","null","","null","","fixation","2021-08-09 17:26:51.577","","","","","",""
"card-selection-trial","105","533985","0.0-25.0-1.17","1030","false","img/card_backs/set1/purple.gif","img/card_backs/set1/yellow.gif","img/card_backs/set1/red.gif","img/card_backs/set1/green.gif","img/card_backs/set2/pink.gif","img/card_backs/set2/blue.gif","img/card_backs/set2/gray.gif","img/card_backs/set2/orange.gif","""event"",""trial"",""time""
""fullscreenenter"",""1"",""2771""
""blur"",""2"",""7839""
""focus"",""2"",""9531""
","""event"",""trial"",""time""
""blur"",""2"",""7839""
","""event"",""trial"",""time""
""focus"",""2"",""9531""
","""event"",""trial"",""time""
""fullscreenenter"",""1"",""2771""
","
","","1467.7000000178814","","","","real_trial","2021-08-09 17:26:55.056","img/card_backs/set1/green.gif","2","120","1","",""
"casino-fixation","106","534490","0.0-25.0-0.18","1030","false","img/card_backs/set1/purple.gif","img/card_backs/set1/yellow.gif","img/card_backs/set1/red.gif","img/card_backs/set1/green.gif","img/card_backs/set2/pink.gif","img/card_backs/set2/blue.gif","img/card_backs/set2/gray.gif","img/card_backs/set2/orange.gif","""event"",""trial"",""time""
""fullscreenenter"",""1"",""2771""
""blur"",""2"",""7839""
""focus"",""2"",""9531""
","""event"",""trial"",""time""
""blur"",""2"",""7839""
","""event"",""trial"",""time""
""focus"",""2"",""9531""
","""event"",""trial"",""time""
""fullscreenenter"",""1"",""2771""
","
","","null","","null","","fixation","2021-08-09 17:26:55.561","","","","","",""
"card-selection-trial","107","537871","0.0-25.0-1.18","1030","false","img/card_backs/set1/purple.gif","img/card_backs/set1/yellow.gif","img/card_backs/set1/red.gif","img/card_backs/set1/green.gif","img/card_backs/set2/pink.gif","img/card_backs/set2/blue.gif","img/card_backs/set2/gray.gif","img/card_backs/set2/orange.gif","""event"",""trial"",""time""
""fullscreenenter"",""1"",""2771""
""blur"",""2"",""7839""
""focus"",""2"",""9531""
","""event"",""trial"",""time""
""blur"",""2"",""7839""
","""event"",""trial"",""time""
""focus"",""2"",""9531""
","""event"",""trial"",""time""
""fullscreenenter"",""1"",""2771""
","
","","1372.9000000059605","","","","real_trial","2021-08-09 17:26:58.942","img/card_backs/set1/green.gif","1","100","1","",""
"casino-fixation","108","538378","0.0-25.0-0.19","1030","false","img/card_backs/set1/purple.gif","img/card_backs/set1/yellow.gif","img/card_backs/set1/red.gif","img/card_backs/set1/green.gif","img/card_backs/set2/pink.gif","img/card_backs/set2/blue.gif","img/card_backs/set2/gray.gif","img/card_backs/set2/orange.gif","""event"",""trial"",""time""
""fullscreenenter"",""1"",""2771""
""blur"",""2"",""7839""
""focus"",""2"",""9531""
","""event"",""trial"",""time""
""blur"",""2"",""7839""
","""event"",""trial"",""time""
""focus"",""2"",""9531""
","""event"",""trial"",""time""
""fullscreenenter"",""1"",""2771""
","
","","null","","null","","fixation","2021-08-09 17:26:59.449","","","","","",""
"card-selection-trial","109","542762","0.0-25.0-1.19","1030","false","img/card_backs/set1/purple.gif","img/card_backs/set1/yellow.gif","img/card_backs/set1/red.gif","img/card_backs/set1/green.gif","img/card_backs/set2/pink.gif","img/card_backs/set2/blue.gif","img/card_backs/set2/gray.gif","img/card_backs/set2/orange.gif","""event"",""trial"",""time""
""fullscreenenter"",""1"",""2771""
""blur"",""2"",""7839""
""focus"",""2"",""9531""
","""event"",""trial"",""time""
""blur"",""2"",""7839""
","""event"",""trial"",""time""
""focus"",""2"",""9531""
","""event"",""trial"",""time""
""fullscreenenter"",""1"",""2771""
","
","","2372.0999999940395","","","","real_trial","2021-08-09 17:27:03.833","img/card_backs/set1/red.gif","1","120","1","",""
"casino-fixation","110","543268","0.0-25.0-0.20","1030","false","img/card_backs/set1/purple.gif","img/card_backs/set1/yellow.gif","img/card_backs/set1/red.gif","img/card_backs/set1/green.gif","img/card_backs/set2/pink.gif","img/card_backs/set2/blue.gif","img/card_backs/set2/gray.gif","img/card_backs/set2/orange.gif","""event"",""trial"",""time""
""fullscreenenter"",""1"",""2771""
""blur"",""2"",""7839""
""focus"",""2"",""9531""
","""event"",""trial"",""time""
""blur"",""2"",""7839""
","""event"",""trial"",""time""
""focus"",""2"",""9531""
","""event"",""trial"",""time""
""fullscreenenter"",""1"",""2771""
","
","","null","","null","","fixation","2021-08-09 17:27:04.339","","","","","",""
"card-selection-trial","111","546458","0.0-25.0-1.20","1030","false","img/card_backs/set1/purple.gif","img/card_backs/set1/yellow.gif","img/card_backs/set1/red.gif","img/card_backs/set1/green.gif","img/card_backs/set2/pink.gif","img/card_backs/set2/blue.gif","img/card_backs/set2/gray.gif","img/card_backs/set2/orange.gif","""event"",""trial"",""time""
""fullscreenenter"",""1"",""2771""
""blur"",""2"",""7839""
""focus"",""2"",""9531""
","""event"",""trial"",""time""
""blur"",""2"",""7839""
","""event"",""trial"",""time""
""focus"",""2"",""9531""
","""event"",""trial"",""time""
""fullscreenenter"",""1"",""2771""
","
","","1177.9000000059605","","","","real_trial","2021-08-09 17:27:07.529","img/card_backs/set1/red.gif","2","110","1","",""
"casino-fixation","112","546963","0.0-25.0-0.21","1030","false","img/card_backs/set1/purple.gif","img/card_backs/set1/yellow.gif","img/card_backs/set1/red.gif","img/card_backs/set1/green.gif","img/card_backs/set2/pink.gif","img/card_backs/set2/blue.gif","img/card_backs/set2/gray.gif","img/card_backs/set2/orange.gif","""event"",""trial"",""time""
""fullscreenenter"",""1"",""2771""
""blur"",""2"",""7839""
""focus"",""2"",""9531""
","""event"",""trial"",""time""
""blur"",""2"",""7839""
","""event"",""trial"",""time""
""focus"",""2"",""9531""
","""event"",""trial"",""time""
""fullscreenenter"",""1"",""2771""
","
","","null","","null","","fixation","2021-08-09 17:27:08.034","","","","","",""
"card-selection-trial","113","549679","0.0-25.0-1.21","1030","false","img/card_backs/set1/purple.gif","img/card_backs/set1/yellow.gif","img/card_backs/set1/red.gif","img/card_backs/set1/green.gif","img/card_backs/set2/pink.gif","img/card_backs/set2/blue.gif","img/card_backs/set2/gray.gif","img/card_backs/set2/orange.gif","""event"",""trial"",""time""
""fullscreenenter"",""1"",""2771""
""blur"",""2"",""7839""
""focus"",""2"",""9531""
","""event"",""trial"",""time""
""blur"",""2"",""7839""
","""event"",""trial"",""time""
""focus"",""2"",""9531""
","""event"",""trial"",""time""
""fullscreenenter"",""1"",""2771""
","
","","706.7000000178814","","","","real_trial","2021-08-09 17:27:10.750","img/card_backs/set1/red.gif","2","100","1","",""
"casino-fixation","114","550185","0.0-25.0-0.22","1030","false","img/card_backs/set1/purple.gif","img/card_backs/set1/yellow.gif","img/card_backs/set1/red.gif","img/card_backs/set1/green.gif","img/card_backs/set2/pink.gif","img/card_backs/set2/blue.gif","img/card_backs/set2/gray.gif","img/card_backs/set2/orange.gif","""event"",""trial"",""time""
""fullscreenenter"",""1"",""2771""
""blur"",""2"",""7839""
""focus"",""2"",""9531""
","""event"",""trial"",""time""
""blur"",""2"",""7839""
","""event"",""trial"",""time""
""focus"",""2"",""9531""
","""event"",""trial"",""time""
""fullscreenenter"",""1"",""2771""
","
","","null","","null","","fixation","2021-08-09 17:27:11.256","","","","","",""
"card-selection-trial","115","552665","0.0-25.0-1.22","1030","false","img/card_backs/set1/purple.gif","img/card_backs/set1/yellow.gif","img/card_backs/set1/red.gif","img/card_backs/set1/green.gif","img/card_backs/set2/pink.gif","img/card_backs/set2/blue.gif","img/card_backs/set2/gray.gif","img/card_backs/set2/orange.gif","""event"",""trial"",""time""
""fullscreenenter"",""1"",""2771""
""blur"",""2"",""7839""
""focus"",""2"",""9531""
","""event"",""trial"",""time""
""blur"",""2"",""7839""
","""event"",""trial"",""time""
""focus"",""2"",""9531""
","""event"",""trial"",""time""
""fullscreenenter"",""1"",""2771""
","
","","469.40000000596046","","","","real_trial","2021-08-09 17:27:13.737","img/card_backs/set1/red.gif","3","100","1","",""
"casino-fixation","116","553172","0.0-25.0-0.23","1030","false","img/card_backs/set1/purple.gif","img/card_backs/set1/yellow.gif","img/card_backs/set1/red.gif","img/card_backs/set1/green.gif","img/card_backs/set2/pink.gif","img/card_backs/set2/blue.gif","img/card_backs/set2/gray.gif","img/card_backs/set2/orange.gif","""event"",""trial"",""time""
""fullscreenenter"",""1"",""2771""
""blur"",""2"",""7839""
""focus"",""2"",""9531""
","""event"",""trial"",""time""
""blur"",""2"",""7839""
","""event"",""trial"",""time""
""focus"",""2"",""9531""
","""event"",""trial"",""time""
""fullscreenenter"",""1"",""2771""
","
","","null","","null","","fixation","2021-08-09 17:27:14.243","","","","","",""
"card-selection-trial","117","555577","0.0-25.0-1.23","1030","false","img/card_backs/set1/purple.gif","img/card_backs/set1/yellow.gif","img/card_backs/set1/red.gif","img/card_backs/set1/green.gif","img/card_backs/set2/pink.gif","img/card_backs/set2/blue.gif","img/card_backs/set2/gray.gif","img/card_backs/set2/orange.gif","""event"",""trial"",""time""
""fullscreenenter"",""1"",""2771""
""blur"",""2"",""7839""
""focus"",""2"",""9531""
","""event"",""trial"",""time""
""blur"",""2"",""7839""
","""event"",""trial"",""time""
""focus"",""2"",""9531""
","""event"",""trial"",""time""
""fullscreenenter"",""1"",""2771""
","
","","393.2999999821186","","","","real_trial","2021-08-09 17:27:16.648","img/card_backs/set1/green.gif","3","-70","1","",""
"casino-fixation","118","556079","0.0-25.0-0.24","1030","false","img/card_backs/set1/purple.gif","img/card_backs/set1/yellow.gif","img/card_backs/set1/red.gif","img/card_backs/set1/green.gif","img/card_backs/set2/pink.gif","img/card_backs/set2/blue.gif","img/card_backs/set2/gray.gif","img/card_backs/set2/orange.gif","""event"",""trial"",""time""
""fullscreenenter"",""1"",""2771""
""blur"",""2"",""7839""
""focus"",""2"",""9531""
","""event"",""trial"",""time""
""blur"",""2"",""7839""
","""event"",""trial"",""time""
""focus"",""2"",""9531""
","""event"",""trial"",""time""
""fullscreenenter"",""1"",""2771""
","
","","null","","null","","fixation","2021-08-09 17:27:17.150","","","","","",""
"card-selection-trial","119","559354","0.0-25.0-1.24","1030","false","img/card_backs/set1/purple.gif","img/card_backs/set1/yellow.gif","img/card_backs/set1/red.gif","img/card_backs/set1/green.gif","img/card_backs/set2/pink.gif","img/card_backs/set2/blue.gif","img/card_backs/set2/gray.gif","img/card_backs/set2/orange.gif","""event"",""trial"",""time""
""fullscreenenter"",""1"",""2771""
""blur"",""2"",""7839""
""focus"",""2"",""9531""
","""event"",""trial"",""time""
""blur"",""2"",""7839""
","""event"",""trial"",""time""
""focus"",""2"",""9531""
","""event"",""trial"",""time""
""fullscreenenter"",""1"",""2771""
","
","","1261.9000000059605","","","","real_trial","2021-08-09 17:27:20.425","img/card_backs/set1/purple.gif","2","180","1","",""
"casino-fixation","120","559860","0.0-25.0-0.25","1030","false","img/card_backs/set1/purple.gif","img/card_backs/set1/yellow.gif","img/card_backs/set1/red.gif","img/card_backs/set1/green.gif","img/card_backs/set2/pink.gif","img/card_backs/set2/blue.gif","img/card_backs/set2/gray.gif","img/card_backs/set2/orange.gif","""event"",""trial"",""time""
""fullscreenenter"",""1"",""2771""
""blur"",""2"",""7839""
""focus"",""2"",""9531""
","""event"",""trial"",""time""
""blur"",""2"",""7839""
","""event"",""trial"",""time""
""focus"",""2"",""9531""
","""event"",""trial"",""time""
""fullscreenenter"",""1"",""2771""
","
","","null","","null","","fixation","2021-08-09 17:27:20.931","","","","","",""
"card-selection-trial","121","562955","0.0-25.0-1.25","1030","false","img/card_backs/set1/purple.gif","img/card_backs/set1/yellow.gif","img/card_backs/set1/red.gif","img/card_backs/set1/green.gif","img/card_backs/set2/pink.gif","img/card_backs/set2/blue.gif","img/card_backs/set2/gray.gif","img/card_backs/set2/orange.gif","""event"",""trial"",""time""
""fullscreenenter"",""1"",""2771""
""blur"",""2"",""7839""
""focus"",""2"",""9531""
","""event"",""trial"",""time""
""blur"",""2"",""7839""
","""event"",""trial"",""time""
""focus"",""2"",""9531""
","""event"",""trial"",""time""
""fullscreenenter"",""1"",""2771""
","
","","1081.9000000059605","","","","real_trial","2021-08-09 17:27:24.026","img/card_backs/set1/purple.gif","0","190","1","",""
"casino-fixation","122","563460","0.0-25.0-0.26","1030","false","img/card_backs/set1/purple.gif","img/card_backs/set1/yellow.gif","img/card_backs/set1/red.gif","img/card_backs/set1/green.gif","img/card_backs/set2/pink.gif","img/card_backs/set2/blue.gif","img/card_backs/set2/gray.gif","img/card_backs/set2/orange.gif","""event"",""trial"",""time""
""fullscreenenter"",""1"",""2771""
""blur"",""2"",""7839""
""focus"",""2"",""9531""
","""event"",""trial"",""time""
""blur"",""2"",""7839""
","""event"",""trial"",""time""
""focus"",""2"",""9531""
","""event"",""trial"",""time""
""fullscreenenter"",""1"",""2771""
","
","","null","","null","","fixation","2021-08-09 17:27:24.531","","","","","",""
"card-selection-trial","123","566575","0.0-25.0-1.26","1030","false","img/card_backs/set1/purple.gif","img/card_backs/set1/yellow.gif","img/card_backs/set1/red.gif","img/card_backs/set1/green.gif","img/card_backs/set2/pink.gif","img/card_backs/set2/blue.gif","img/card_backs/set2/gray.gif","img/card_backs/set2/orange.gif","""event"",""trial"",""time""
""fullscreenenter"",""1"",""2771""
""blur"",""2"",""7839""
""focus"",""2"",""9531""
","""event"",""trial"",""time""
""blur"",""2"",""7839""
","""event"",""trial"",""time""
""focus"",""2"",""9531""
","""event"",""trial"",""time""
""fullscreenenter"",""1"",""2771""
","
","","1106.0999999940395","","","","real_trial","2021-08-09 17:27:27.646","img/card_backs/set1/purple.gif","2","190","1","",""
"casino-fixation","124","567081","0.0-25.0-0.27","1030","false","img/card_backs/set1/purple.gif","img/card_backs/set1/yellow.gif","img/card_backs/set1/red.gif","img/card_backs/set1/green.gif","img/card_backs/set2/pink.gif","img/card_backs/set2/blue.gif","img/card_backs/set2/gray.gif","img/card_backs/set2/orange.gif","""event"",""trial"",""time""
""fullscreenenter"",""1"",""2771""
""blur"",""2"",""7839""
""focus"",""2"",""9531""
","""event"",""trial"",""time""
""blur"",""2"",""7839""
","""event"",""trial"",""time""
""focus"",""2"",""9531""
","""event"",""trial"",""time""
""fullscreenenter"",""1"",""2771""
","
","","null","","null","","fixation","2021-08-09 17:27:28.152","","","","","",""
"card-selection-trial","125","569705","0.0-25.0-1.27","1030","false","img/card_backs/set1/purple.gif","img/card_backs/set1/yellow.gif","img/card_backs/set1/red.gif","img/card_backs/set1/green.gif","img/card_backs/set2/pink.gif","img/card_backs/set2/blue.gif","img/card_backs/set2/gray.gif","img/card_backs/set2/orange.gif","""event"",""trial"",""time""
""fullscreenenter"",""1"",""2771""
""blur"",""2"",""7839""
""focus"",""2"",""9531""
","""event"",""trial"",""time""
""blur"",""2"",""7839""
","""event"",""trial"",""time""
""focus"",""2"",""9531""
","""event"",""trial"",""time""
""fullscreenenter"",""1"",""2771""
","
","","611.9000000059605","","","","real_trial","2021-08-09 17:27:30.776","img/card_backs/set1/purple.gif","0","180","1","",""
"casino-fixation","126","570212","0.0-25.0-0.28","1030","false","img/card_backs/set1/purple.gif","img/card_backs/set1/yellow.gif","img/card_backs/set1/red.gif","img/card_backs/set1/green.gif","img/card_backs/set2/pink.gif","img/card_backs/set2/blue.gif","img/card_backs/set2/gray.gif","img/card_backs/set2/orange.gif","""event"",""trial"",""time""
""fullscreenenter"",""1"",""2771""
""blur"",""2"",""7839""
""focus"",""2"",""9531""
","""event"",""trial"",""time""
""blur"",""2"",""7839""
","""event"",""trial"",""time""
""focus"",""2"",""9531""
","""event"",""trial"",""time""
""fullscreenenter"",""1"",""2771""
","
","","null","","null","","fixation","2021-08-09 17:27:31.283","","","","","",""
"card-selection-trial","127","573343","0.0-25.0-1.28","1030","false","img/card_backs/set1/purple.gif","img/card_backs/set1/yellow.gif","img/card_backs/set1/red.gif","img/card_backs/set1/green.gif","img/card_backs/set2/pink.gif","img/card_backs/set2/blue.gif","img/card_backs/set2/gray.gif","img/card_backs/set2/orange.gif","""event"",""trial"",""time""
""fullscreenenter"",""1"",""2771""
""blur"",""2"",""7839""
""focus"",""2"",""9531""
","""event"",""trial"",""time""
""blur"",""2"",""7839""
","""event"",""trial"",""time""
""focus"",""2"",""9531""
","""event"",""trial"",""time""
""fullscreenenter"",""1"",""2771""
","
","","1121.7999999821186","","","","real_trial","2021-08-09 17:27:34.414","img/card_backs/set1/purple.gif","1","180","1","",""
"casino-fixation","128","573848","0.0-25.0-0.29","1030","false","img/card_backs/set1/purple.gif","img/card_backs/set1/yellow.gif","img/card_backs/set1/red.gif","img/card_backs/set1/green.gif","img/card_backs/set2/pink.gif","img/card_backs/set2/blue.gif","img/card_backs/set2/gray.gif","img/card_backs/set2/orange.gif","""event"",""trial"",""time""
""fullscreenenter"",""1"",""2771""
""blur"",""2"",""7839""
""focus"",""2"",""9531""
","""event"",""trial"",""time""
""blur"",""2"",""7839""
","""event"",""trial"",""time""
""focus"",""2"",""9531""
","""event"",""trial"",""time""
""fullscreenenter"",""1"",""2771""
","
","","null","","null","","fixation","2021-08-09 17:27:34.919","","","","","",""
"card-selection-trial","129","576393","0.0-25.0-1.29","1030","false","img/card_backs/set1/purple.gif","img/card_backs/set1/yellow.gif","img/card_backs/set1/red.gif","img/card_backs/set1/green.gif","img/card_backs/set2/pink.gif","img/card_backs/set2/blue.gif","img/card_backs/set2/gray.gif","img/card_backs/set2/orange.gif","""event"",""trial"",""time""
""fullscreenenter"",""1"",""2771""
""blur"",""2"",""7839""
""focus"",""2"",""9531""
","""event"",""trial"",""time""
""blur"",""2"",""7839""
","""event"",""trial"",""time""
""focus"",""2"",""9531""
","""event"",""trial"",""time""
""fullscreenenter"",""1"",""2771""
","
","","532.5","","","","real_trial","2021-08-09 17:27:37.464","img/card_backs/set1/purple.gif","3","200","1","",""
"casino-fixation","130","576899","0.0-25.0-0.30","1030","false","img/card_backs/set1/purple.gif","img/card_backs/set1/yellow.gif","img/card_backs/set1/red.gif","img/card_backs/set1/green.gif","img/card_backs/set2/pink.gif","img/card_backs/set2/blue.gif","img/card_backs/set2/gray.gif","img/card_backs/set2/orange.gif","""event"",""trial"",""time""
""fullscreenenter"",""1"",""2771""
""blur"",""2"",""7839""
""focus"",""2"",""9531""
","""event"",""trial"",""time""
""blur"",""2"",""7839""
","""event"",""trial"",""time""
""focus"",""2"",""9531""
","""event"",""trial"",""time""
""fullscreenenter"",""1"",""2771""
","
","","null","","null","","fixation","2021-08-09 17:27:37.970","","","","","",""
"card-selection-trial","131","579490","0.0-25.0-1.30","1030","false","img/card_backs/set1/purple.gif","img/card_backs/set1/yellow.gif","img/card_backs/set1/red.gif","img/card_backs/set1/green.gif","img/card_backs/set2/pink.gif","img/card_backs/set2/blue.gif","img/card_backs/set2/gray.gif","img/card_backs/set2/orange.gif","""event"",""trial"",""time""
""fullscreenenter"",""1"",""2771""
""blur"",""2"",""7839""
""focus"",""2"",""9531""
","""event"",""trial"",""time""
