"trial_type","trial_index","time_elapsed","internal_node_id","sub_id","risk_good_first","block1_A","block1_B","block1_C","block1_D","block2_A","block2_B","block2_C","block2_D","interactions","blur_events","focus_events","fullscreenenter_events","fullscreenexit_events","success","rt","stimulus","key_press","button_pressed","task_part","timestamp","card_choice","choice_position","points_earned","block","correct","response"
"pavlovia","0","8","0.0-0.0","A586","false","img/card_backs/set1/green.gif","img/card_backs/set1/purple.gif","img/card_backs/set1/yellow.gif","img/card_backs/set1/red.gif","img/card_backs/set2/orange.gif","img/card_backs/set2/blue.gif","img/card_backs/set2/pink.gif","img/card_backs/set2/gray.gif","""event"",""trial"",""time""
""fullscreenenter"",""1"",""3554""
","
","
","""event"",""trial"",""time""
""fullscreenenter"",""1"",""3554""
","
","","","","","","","","","","","","",""
"fullscreen","1","4507","0.0-1.0","A586","false","img/card_backs/set1/green.gif","img/card_backs/set1/purple.gif","img/card_backs/set1/yellow.gif","img/card_backs/set1/red.gif","img/card_backs/set2/orange.gif","img/card_backs/set2/blue.gif","img/card_backs/set2/pink.gif","img/card_backs/set2/gray.gif","""event"",""trial"",""time""
""fullscreenenter"",""1"",""3554""
","
","
","""event"",""trial"",""time""
""fullscreenenter"",""1"",""3554""
","
","true","","","","","","","","","","","",""
"audio-keyboard-response","2","9895","0.0-2.0","A586","false","img/card_backs/set1/green.gif","img/card_backs/set1/purple.gif","img/card_backs/set1/yellow.gif","img/card_backs/set1/red.gif","img/card_backs/set2/orange.gif","img/card_backs/set2/blue.gif","img/card_backs/set2/pink.gif","img/card_backs/set2/gray.gif","""event"",""trial"",""time""
""fullscreenenter"",""1"",""3554""
","
","
","""event"",""trial"",""time""
""fullscreenenter"",""1"",""3554""
","
","","5269","audio/beep_loop.wav","32","","","","","","","","",""
"audio-button-response","3","13164","0.0-3.0","A586","false","img/card_backs/set1/green.gif","img/card_backs/set1/purple.gif","img/card_backs/set1/yellow.gif","img/card_backs/set1/red.gif","img/card_backs/set2/orange.gif","img/card_backs/set2/blue.gif","img/card_backs/set2/pink.gif","img/card_backs/set2/gray.gif","""event"",""trial"",""time""
""fullscreenenter"",""1"",""3554""
","
","
","""event"",""trial"",""time""
""fullscreenenter"",""1"",""3554""
","
","","NaN","audio/turtle.mp3","","3","","","","","","","",""
"audio-button-response","4","15741","0.0-4.0","A586","false","img/card_backs/set1/green.gif","img/card_backs/set1/purple.gif","img/card_backs/set1/yellow.gif","img/card_backs/set1/red.gif","img/card_backs/set2/orange.gif","img/card_backs/set2/blue.gif","img/card_backs/set2/pink.gif","img/card_backs/set2/gray.gif","""event"",""trial"",""time""
""fullscreenenter"",""1"",""3554""
","
","
","""event"",""trial"",""time""
""fullscreenenter"",""1"",""3554""
","
","","NaN","audio/shark.mp3","","2","","","","","","","",""
"fullscreen","5","18972","0.0-5.0","A586","false","img/card_backs/set1/green.gif","img/card_backs/set1/purple.gif","img/card_backs/set1/yellow.gif","img/card_backs/set1/red.gif","img/card_backs/set2/orange.gif","img/card_backs/set2/blue.gif","img/card_backs/set2/pink.gif","img/card_backs/set2/gray.gif","""event"",""trial"",""time""
""fullscreenenter"",""1"",""3554""
","
","
","""event"",""trial"",""time""
""fullscreenenter"",""1"",""3554""
","
","true","","","","","","","","","","","",""
"casino-keyboard-response","6","22766","0.0-6.0-0.0","A586","false","img/card_backs/set1/green.gif","img/card_backs/set1/purple.gif","img/card_backs/set1/yellow.gif","img/card_backs/set1/red.gif","img/card_backs/set2/orange.gif","img/card_backs/set2/blue.gif","img/card_backs/set2/pink.gif","img/card_backs/set2/gray.gif","""event"",""trial"",""time""
""fullscreenenter"",""1"",""3554""
","
","
","""event"",""trial"",""time""
""fullscreenenter"",""1"",""3554""
","
","","3788.454999914393","Welcome to the casino!","71","","instructions","2021-04-04 23:02:43.425","","","","","",""
"casino-keyboard-response","7","32607","0.0-6.0-0.1","A586","false","img/card_backs/set1/green.gif","img/card_backs/set1/purple.gif","img/card_backs/set1/yellow.gif","img/card_backs/set1/red.gif","img/card_backs/set2/orange.gif","img/card_backs/set2/blue.gif","img/card_backs/set2/pink.gif","img/card_backs/set2/gray.gif","""event"",""trial"",""time""
""fullscreenenter"",""1"",""3554""
","
","
","""event"",""trial"",""time""
""fullscreenenter"",""1"",""3554""
","
","","9836.91000007093","Today you will be playing a game to earn tokens. </br> At the end of the experiment, you will be paid a bonus based on how many tokens you win. ","69","","instructions","2021-04-04 23:02:53.265","","","","","",""
"casino-keyboard-response","8","42008","0.0-6.0-0.2","A586","false","img/card_backs/set1/green.gif","img/card_backs/set1/purple.gif","img/card_backs/set1/yellow.gif","img/card_backs/set1/red.gif","img/card_backs/set2/orange.gif","img/card_backs/set2/blue.gif","img/card_backs/set2/pink.gif","img/card_backs/set2/gray.gif","""event"",""trial"",""time""
""fullscreenenter"",""1"",""3554""
","
","
","""event"",""trial"",""time""
""fullscreenenter"",""1"",""3554""
","
","","9397.344999946654","On every turn, you will be shown four different decks of cards. </br> You need to select a card from one of the four decks.  ","75","","instructions","2021-04-04 23:03:02.666","","","","","",""
"casino-keyboard-response","9","47699","0.0-6.0-0.3","A586","false","img/card_backs/set1/green.gif","img/card_backs/set1/purple.gif","img/card_backs/set1/yellow.gif","img/card_backs/set1/red.gif","img/card_backs/set2/orange.gif","img/card_backs/set2/blue.gif","img/card_backs/set2/pink.gif","img/card_backs/set2/gray.gif","""event"",""trial"",""time""
""fullscreenenter"",""1"",""3554""
","
","
","""event"",""trial"",""time""
""fullscreenenter"",""1"",""3554""
","
","","5684.965000022203","On the next screen, you will see what the decks will look like. ","66","","instructions","2021-04-04 23:03:08.357","","","","","",""
"card-selection-trial","10","51743","0.0-7.0-0.0","A586","false","img/card_backs/set1/green.gif","img/card_backs/set1/purple.gif","img/card_backs/set1/yellow.gif","img/card_backs/set1/red.gif","img/card_backs/set2/orange.gif","img/card_backs/set2/blue.gif","img/card_backs/set2/pink.gif","img/card_backs/set2/gray.gif","""event"",""trial"",""time""
""fullscreenenter"",""1"",""3554""
","
","
","""event"",""trial"",""time""
""fullscreenenter"",""1"",""3554""
","
","","null","","","","practice","2021-04-04 23:03:12.402","null","null","null","0","",""
"casino-keyboard-response","11","61222","0.0-8.0-0.0","A586","false","img/card_backs/set1/green.gif","img/card_backs/set1/purple.gif","img/card_backs/set1/yellow.gif","img/card_backs/set1/red.gif","img/card_backs/set2/orange.gif","img/card_backs/set2/blue.gif","img/card_backs/set2/pink.gif","img/card_backs/set2/gray.gif","""event"",""trial"",""time""
""fullscreenenter"",""1"",""3554""
","
","
","""event"",""trial"",""time""
""fullscreenenter"",""1"",""3554""
","
","","9475.940000033006","You should pick a card from a deck using the '2', '4', '6', and '8' keys at the top of the keyboard.","85","","instructions","2021-04-04 23:03:21.880","","","","","",""
"casino-keyboard-response","12","66587","0.0-8.0-0.1","A586","false","img/card_backs/set1/green.gif","img/card_backs/set1/purple.gif","img/card_backs/set1/yellow.gif","img/card_backs/set1/red.gif","img/card_backs/set2/orange.gif","img/card_backs/set2/blue.gif","img/card_backs/set2/pink.gif","img/card_backs/set2/gray.gif","""event"",""trial"",""time""
""fullscreenenter"",""1"",""3554""
","
","
","""event"",""trial"",""time""
""fullscreenenter"",""1"",""3554""
","
","","5362.6350001432","Once you select a card, it will turn over and you will see how many tokens you earned.","83","","instructions","2021-04-04 23:03:27.245","","","","","",""
"casino-keyboard-response","13","90839","0.0-8.0-0.2","A586","false","img/card_backs/set1/green.gif","img/card_backs/set1/purple.gif","img/card_backs/set1/yellow.gif","img/card_backs/set1/red.gif","img/card_backs/set2/orange.gif","img/card_backs/set2/blue.gif","img/card_backs/set2/pink.gif","img/card_backs/set2/gray.gif","""event"",""trial"",""time""
""fullscreenenter"",""1"",""3554""
","
","
","""event"",""trial"",""time""
""fullscreenenter"",""1"",""3554""
","
","","24249.305000063032","Let's try practicing that! </br> First, try to put your fingers over the '2', '4', '6', and '8' keys. </br>  You can use whatever fingers are most comfortable for you. Try to find a comfortable position now. ","50","","instructions","2021-04-04 23:03:51.497","","","","","",""
"casino-keyboard-response","14","96516","0.0-8.0-0.3","A586","false","img/card_backs/set1/green.gif","img/card_backs/set1/purple.gif","img/card_backs/set1/yellow.gif","img/card_backs/set1/red.gif","img/card_backs/set2/orange.gif","img/card_backs/set2/blue.gif","img/card_backs/set2/pink.gif","img/card_backs/set2/gray.gif","""event"",""trial"",""time""
""fullscreenenter"",""1"",""3554""
","
","
","""event"",""trial"",""time""
""fullscreenenter"",""1"",""3554""
","
","","5674.370000138879","Okay ready? </br> On the next screen, press '2' to select the left deck. ","50","","instructions","2021-04-04 23:03:57.175","","","","","",""
"card-selection-trial","15","99189","0.0-9.0-0.0","A586","false","img/card_backs/set1/green.gif","img/card_backs/set1/purple.gif","img/card_backs/set1/yellow.gif","img/card_backs/set1/red.gif","img/card_backs/set2/orange.gif","img/card_backs/set2/blue.gif","img/card_backs/set2/pink.gif","img/card_backs/set2/gray.gif","""event"",""trial"",""time""
""fullscreenenter"",""1"",""3554""
","
","
","""event"",""trial"",""time""
""fullscreenenter"",""1"",""3554""
","
","","642.3549999017268","","","","practice_card_selection","2021-04-04 23:03:59.847","img/practice_cards/backs/dark_blue.gif","0","200","","",""
"casino-keyboard-response","16","104940","0.0-10.0-0.0","A586","false","img/card_backs/set1/green.gif","img/card_backs/set1/purple.gif","img/card_backs/set1/yellow.gif","img/card_backs/set1/red.gif","img/card_backs/set2/orange.gif","img/card_backs/set2/blue.gif","img/card_backs/set2/pink.gif","img/card_backs/set2/gray.gif","""event"",""trial"",""time""
""fullscreenenter"",""1"",""3554""
","
","
","""event"",""trial"",""time""
""fullscreenenter"",""1"",""3554""
","
","","5748.774999985471","Great! Now on the next screen, try pressing '6' to select the third deck.","54","","instructions","2021-04-04 23:04:05.598","","","","","",""
"card-selection-trial","17","108373","0.0-11.0-0.0","A586","false","img/card_backs/set1/green.gif","img/card_backs/set1/purple.gif","img/card_backs/set1/yellow.gif","img/card_backs/set1/red.gif","img/card_backs/set2/orange.gif","img/card_backs/set2/blue.gif","img/card_backs/set2/pink.gif","img/card_backs/set2/gray.gif","""event"",""trial"",""time""
""fullscreenenter"",""1"",""3554""
","
","
","""event"",""trial"",""time""
""fullscreenenter"",""1"",""3554""
","
","","1404.785000020638","","","","practice_card_selection","2021-04-04 23:04:09.032","img/practice_cards/backs/dark_green.gif","2","200","","",""
"casino-keyboard-response","18","113136","0.0-12.0-0.0","A586","false","img/card_backs/set1/green.gif","img/card_backs/set1/purple.gif","img/card_backs/set1/yellow.gif","img/card_backs/set1/red.gif","img/card_backs/set2/orange.gif","img/card_backs/set2/blue.gif","img/card_backs/set2/pink.gif","img/card_backs/set2/gray.gif","""event"",""trial"",""time""
""fullscreenenter"",""1"",""3554""
","
","
","""event"",""trial"",""time""
""fullscreenenter"",""1"",""3554""
","
","","4759.635000023991","Now on the next screen, try pressing '4' to select the second deck.","52","","instructions","2021-04-04 23:04:13.794","","","","","",""
"card-selection-trial","19","115828","0.0-13.0-0.0","A586","false","img/card_backs/set1/green.gif","img/card_backs/set1/purple.gif","img/card_backs/set1/yellow.gif","img/card_backs/set1/red.gif","img/card_backs/set2/orange.gif","img/card_backs/set2/blue.gif","img/card_backs/set2/pink.gif","img/card_backs/set2/gray.gif","""event"",""trial"",""time""
""fullscreenenter"",""1"",""3554""
","
","
","""event"",""trial"",""time""
""fullscreenenter"",""1"",""3554""
","
","","669.6200000587851","","","","practice_card_selection","2021-04-04 23:04:16.486","img/practice_cards/backs/brown.gif","1","-100","","",""
"casino-keyboard-response","20","144049","0.0-14.0-0.0","A586","false","img/card_backs/set1/green.gif","img/card_backs/set1/purple.gif","img/card_backs/set1/yellow.gif","img/card_backs/set1/red.gif","img/card_backs/set2/orange.gif","img/card_backs/set2/blue.gif","img/card_backs/set2/pink.gif","img/card_backs/set2/gray.gif","""event"",""trial"",""time""
""fullscreenenter"",""1"",""3554""
","
","
","""event"",""trial"",""time""
""fullscreenenter"",""1"",""3554""
","
","","28219.67999986373","Finally, try pressing '8' to select the deck all the way on the right.","56","","instructions","2021-04-04 23:04:44.707","","","","","",""
"card-selection-trial","21","146739","0.0-15.0-0.0","A586","false","img/card_backs/set1/green.gif","img/card_backs/set1/purple.gif","img/card_backs/set1/yellow.gif","img/card_backs/set1/red.gif","img/card_backs/set2/orange.gif","img/card_backs/set2/blue.gif","img/card_backs/set2/pink.gif","img/card_backs/set2/gray.gif","""event"",""trial"",""time""
""fullscreenenter"",""1"",""3554""
","
","
","""event"",""trial"",""time""
""fullscreenenter"",""1"",""3554""
","
","","670.285000000149","","","","practice_card_selection","2021-04-04 23:04:47.397","img/practice_cards/backs/black.gif","3","100","","",""
"casino-keyboard-response","22","150744","0.0-16.0-0.0","A586","false","img/card_backs/set1/green.gif","img/card_backs/set1/purple.gif","img/card_backs/set1/yellow.gif","img/card_backs/set1/red.gif","img/card_backs/set2/orange.gif","img/card_backs/set2/blue.gif","img/card_backs/set2/pink.gif","img/card_backs/set2/gray.gif","""event"",""trial"",""time""
""fullscreenenter"",""1"",""3554""
","
","
","""event"",""trial"",""time""
""fullscreenenter"",""1"",""3554""
","
","","4003.5200000274926","Great! It seems like you are getting the hang of this.","80","","instructions","2021-04-04 23:04:51.402","","","","","",""
"casino-keyboard-response","23","158147","0.0-16.0-0.1","A586","false","img/card_backs/set1/green.gif","img/card_backs/set1/purple.gif","img/card_backs/set1/yellow.gif","img/card_backs/set1/red.gif","img/card_backs/set2/orange.gif","img/card_backs/set2/blue.gif","img/card_backs/set2/pink.gif","img/card_backs/set2/gray.gif","""event"",""trial"",""time""
""fullscreenenter"",""1"",""3554""
","
","
","""event"",""trial"",""time""
""fullscreenenter"",""1"",""3554""
","
","","7399.730000179261","You may have noticed that some cards will cause you to <b> win </b> tokens while other cards will cause you to <b> lose </b>  tokens.","70","","instructions","2021-04-04 23:04:58.806","","","","","",""
"casino-keyboard-response","24","166626","0.0-16.0-0.2","A586","false","img/card_backs/set1/green.gif","img/card_backs/set1/purple.gif","img/card_backs/set1/yellow.gif","img/card_backs/set1/red.gif","img/card_backs/set2/orange.gif","img/card_backs/set2/blue.gif","img/card_backs/set2/pink.gif","img/card_backs/set2/gray.gif","""event"",""trial"",""time""
""fullscreenenter"",""1"",""3554""
","
","
","""event"",""trial"",""time""
""fullscreenenter"",""1"",""3554""
","
","","8475.709999911487","Each deck has a mix of cards that will cause you to win and lose tokens. </br> However, the cards in each colored deck are different.","73","","instructions","2021-04-04 23:05:07.284","","","","","",""
"casino-keyboard-response","25","175131","0.0-16.0-0.3","A586","false","img/card_backs/set1/green.gif","img/card_backs/set1/purple.gif","img/card_backs/set1/yellow.gif","img/card_backs/set1/red.gif","img/card_backs/set2/orange.gif","img/card_backs/set2/blue.gif","img/card_backs/set2/pink.gif","img/card_backs/set2/gray.gif","""event"",""trial"",""time""
""fullscreenenter"",""1"",""3554""
","
","
","""event"",""trial"",""time""
""fullscreenenter"",""1"",""3554""
","
","","8502.654999960214","Some colored decks are luckier than others. </br> If you choose the lucky decks, you will earn more tokens than if you choose the unlucky decks.","69","","instructions","2021-04-04 23:05:15.789","","","","","",""
"casino-keyboard-response","26","184064","0.0-16.0-0.4","A586","false","img/card_backs/set1/green.gif","img/card_backs/set1/purple.gif","img/card_backs/set1/yellow.gif","img/card_backs/set1/red.gif","img/card_backs/set2/orange.gif","img/card_backs/set2/blue.gif","img/card_backs/set2/pink.gif","img/card_backs/set2/gray.gif","""event"",""trial"",""time""
""fullscreenenter"",""1"",""3554""
","
","
","""event"",""trial"",""time""
""fullscreenenter"",""1"",""3554""
","
","","8928.890000097454","You should try to figure out which decks are lucky. </br> Then, try to choose the lucky decks so you can win the most tokens.","87","","instructions","2021-04-04 23:05:24.722","","","","","",""
"casino-keyboard-response","27","195898","0.0-16.0-0.5","A586","false","img/card_backs/set1/green.gif","img/card_backs/set1/purple.gif","img/card_backs/set1/yellow.gif","img/card_backs/set1/red.gif","img/card_backs/set2/orange.gif","img/card_backs/set2/blue.gif","img/card_backs/set2/pink.gif","img/card_backs/set2/gray.gif","""event"",""trial"",""time""
""fullscreenenter"",""1"",""3554""
","
","
","""event"",""trial"",""time""
""fullscreenenter"",""1"",""3554""
","
","","11830.15999989584","To make it trickier, the casino dealer will switch the locations of the decks on every turn. </br> The color of the deck determines how lucky it is. The location does not matter.","88","","instructions","2021-04-04 23:05:36.556","","","","","",""
"casino-keyboard-response","28","205746","0.0-16.0-0.6","A586","false","img/card_backs/set1/green.gif","img/card_backs/set1/purple.gif","img/card_backs/set1/yellow.gif","img/card_backs/set1/red.gif","img/card_backs/set2/orange.gif","img/card_backs/set2/blue.gif","img/card_backs/set2/pink.gif","img/card_backs/set2/gray.gif","""event"",""trial"",""time""
""fullscreenenter"",""1"",""3554""
","
","
","""event"",""trial"",""time""
""fullscreenenter"",""1"",""3554""
","
","","9845.65500007011","The mix of cards in each colored deck will stay the same throughout the game. </br> That means that a deck that is lucky early on will stay lucky.","79","","instructions","2021-04-04 23:05:46.405","","","","","",""
"casino-keyboard-response","29","214130","0.0-16.0-0.7","A586","false","img/card_backs/set1/green.gif","img/card_backs/set1/purple.gif","img/card_backs/set1/yellow.gif","img/card_backs/set1/red.gif","img/card_backs/set2/orange.gif","img/card_backs/set2/blue.gif","img/card_backs/set2/pink.gif","img/card_backs/set2/gray.gif","""event"",""trial"",""time""
""fullscreenenter"",""1"",""3554""
","
","
","""event"",""trial"",""time""
""fullscreenenter"",""1"",""3554""
","
","","8380.160000175238","Remember though, all the decks have a <b> mix </b> of both <b> good </b> and <b> bad </b> cards so it may take a couple of turns to figure out if a deck is lucky.","69","","instructions","2021-04-04 23:05:54.788","","","","","",""
"casino-keyboard-response","30","222330","0.0-16.0-0.8","A586","false","img/card_backs/set1/green.gif","img/card_backs/set1/purple.gif","img/card_backs/set1/yellow.gif","img/card_backs/set1/red.gif","img/card_backs/set2/orange.gif","img/card_backs/set2/blue.gif","img/card_backs/set2/pink.gif","img/card_backs/set2/gray.gif","""event"",""trial"",""time""
""fullscreenenter"",""1"",""3554""
","
","
","""event"",""trial"",""time""
""fullscreenenter"",""1"",""3554""
","
","","8196.925000054762","At the end of the game, you will be paid bonus money based on how many tokens you win. </br> If you win more tokens, you will earn more money!","72","","instructions","2021-04-04 23:06:02.988","","","","","",""
"casino-keyboard-response","31","232672","0.0-16.0-0.9","A586","false","img/card_backs/set1/green.gif","img/card_backs/set1/purple.gif","img/card_backs/set1/yellow.gif","img/card_backs/set1/red.gif","img/card_backs/set2/orange.gif","img/card_backs/set2/blue.gif","img/card_backs/set2/pink.gif","img/card_backs/set2/gray.gif","""event"",""trial"",""time""
""fullscreenenter"",""1"",""3554""
","
","
","""event"",""trial"",""time""
""fullscreenenter"",""1"",""3554""
","
","","10338.890000013635","You will never <b> lose </b> money. </br> If you end up with fewer than 0 tokens, you will earn $0 of bonus money, but you will still be paid for playing the game.","83","","instructions","2021-04-04 23:06:13.330","","","","","",""
"casino-keyboard-response","32","237349","0.0-16.0-0.10","A586","false","img/card_backs/set1/green.gif","img/card_backs/set1/purple.gif","img/card_backs/set1/yellow.gif","img/card_backs/set1/red.gif","img/card_backs/set2/orange.gif","img/card_backs/set2/blue.gif","img/card_backs/set2/pink.gif","img/card_backs/set2/gray.gif","""event"",""trial"",""time""
""fullscreenenter"",""1"",""3554""
","
","
","""event"",""trial"",""time""
""fullscreenenter"",""1"",""3554""
","
","","4671.039999928325","You will have 10 seconds to make each choice.","82","","instructions","2021-04-04 23:06:18.007","","","","","",""
"casino-keyboard-response","33","245598","0.0-16.0-0.11","A586","false","img/card_backs/set1/green.gif","img/card_backs/set1/purple.gif","img/card_backs/set1/yellow.gif","img/card_backs/set1/red.gif","img/card_backs/set2/orange.gif","img/card_backs/set2/blue.gif","img/card_backs/set2/pink.gif","img/card_backs/set2/gray.gif","""event"",""trial"",""time""
""fullscreenenter"",""1"",""3554""
","
","
","""event"",""trial"",""time""
""fullscreenenter"",""1"",""3554""
","
","","8246.900000143796","Before you play the game for real, you will play with practice decks. </br> The tokens you earn during practice won't count toward your total.","86","","instructions","2021-04-04 23:06:26.257","","","","","",""
"casino-keyboard-response","34","255662","0.0-16.0-0.12","A586","false","img/card_backs/set1/green.gif","img/card_backs/set1/purple.gif","img/card_backs/set1/yellow.gif","img/card_backs/set1/red.gif","img/card_backs/set2/orange.gif","img/card_backs/set2/blue.gif","img/card_backs/set2/pink.gif","img/card_backs/set2/gray.gif","""event"",""trial"",""time""
""fullscreenenter"",""1"",""3554""
","
","
","""event"",""trial"",""time""
""fullscreenenter"",""1"",""3554""
","
","","10060.825000051409","Ready? Remember, use the '2', '4', '6', and '8' keys to select the decks. </br> Put your fingers on those keys now and then press '2' to begin.","50","","instructions","2021-04-04 23:06:36.320","","","","","",""
"casino-fixation","35","256180","0.0-17.0-0.0","A586","false","img/card_backs/set1/green.gif","img/card_backs/set1/purple.gif","img/card_backs/set1/yellow.gif","img/card_backs/set1/red.gif","img/card_backs/set2/orange.gif","img/card_backs/set2/blue.gif","img/card_backs/set2/pink.gif","img/card_backs/set2/gray.gif","""event"",""trial"",""time""
""fullscreenenter"",""1"",""3554""
","
","
","""event"",""trial"",""time""
""fullscreenenter"",""1"",""3554""
","
","","null","","null","","fixation","2021-04-04 23:06:36.838","","","","","",""
"card-selection-trial","36","259017","0.0-17.0-1.0","A586","false","img/card_backs/set1/green.gif","img/card_backs/set1/purple.gif","img/card_backs/set1/yellow.gif","img/card_backs/set1/red.gif","img/card_backs/set2/orange.gif","img/card_backs/set2/blue.gif","img/card_backs/set2/pink.gif","img/card_backs/set2/gray.gif","""event"",""trial"",""time""
""fullscreenenter"",""1"",""3554""
","
","
","""event"",""trial"",""time""
""fullscreenenter"",""1"",""3554""
","
","","820.090000052005","","","","practice","2021-04-04 23:06:39.676","img/practice_cards/backs/brown.gif","0","-100","0","",""
"casino-fixation","37","259522","0.0-17.0-0.1","A586","false","img/card_backs/set1/green.gif","img/card_backs/set1/purple.gif","img/card_backs/set1/yellow.gif","img/card_backs/set1/red.gif","img/card_backs/set2/orange.gif","img/card_backs/set2/blue.gif","img/card_backs/set2/pink.gif","img/card_backs/set2/gray.gif","""event"",""trial"",""time""
""fullscreenenter"",""1"",""3554""
","
","
","""event"",""trial"",""time""
""fullscreenenter"",""1"",""3554""
","
","","null","","null","","fixation","2021-04-04 23:06:40.181","","","","","",""
"card-selection-trial","38","262985","0.0-17.0-1.1","A586","false","img/card_backs/set1/green.gif","img/card_backs/set1/purple.gif","img/card_backs/set1/yellow.gif","img/card_backs/set1/red.gif","img/card_backs/set2/orange.gif","img/card_backs/set2/blue.gif","img/card_backs/set2/pink.gif","img/card_backs/set2/gray.gif","""event"",""trial"",""time""
""fullscreenenter"",""1"",""3554""
","
","
","""event"",""trial"",""time""
""fullscreenenter"",""1"",""3554""
","
","","1435.984999872744","","","","practice","2021-04-04 23:06:43.643","img/practice_cards/backs/black.gif","1","-100","0","",""
"casino-fixation","39","263508","0.0-17.0-0.2","A586","false","img/card_backs/set1/green.gif","img/card_backs/set1/purple.gif","img/card_backs/set1/yellow.gif","img/card_backs/set1/red.gif","img/card_backs/set2/orange.gif","img/card_backs/set2/blue.gif","img/card_backs/set2/pink.gif","img/card_backs/set2/gray.gif","""event"",""trial"",""time""
""fullscreenenter"",""1"",""3554""
","
","
","""event"",""trial"",""time""
""fullscreenenter"",""1"",""3554""
","
","","null","","null","","fixation","2021-04-04 23:06:44.166","","","","","",""
"card-selection-trial","40","266207","0.0-17.0-1.2","A586","false","img/card_backs/set1/green.gif","img/card_backs/set1/purple.gif","img/card_backs/set1/yellow.gif","img/card_backs/set1/red.gif","img/card_backs/set2/orange.gif","img/card_backs/set2/blue.gif","img/card_backs/set2/pink.gif","img/card_backs/set2/gray.gif","""event"",""trial"",""time""
""fullscreenenter"",""1"",""3554""
","
","
","""event"",""trial"",""time""
""fullscreenenter"",""1"",""3554""
","
","","688.8200000394136","","","","practice","2021-04-04 23:06:46.865","img/practice_cards/backs/brown.gif","2","-100","0","",""
"casino-fixation","41","266721","0.0-17.0-0.3","A586","false","img/card_backs/set1/green.gif","img/card_backs/set1/purple.gif","img/card_backs/set1/yellow.gif","img/card_backs/set1/red.gif","img/card_backs/set2/orange.gif","img/card_backs/set2/blue.gif","img/card_backs/set2/pink.gif","img/card_backs/set2/gray.gif","""event"",""trial"",""time""
""fullscreenenter"",""1"",""3554""
","
","
","""event"",""trial"",""time""
""fullscreenenter"",""1"",""3554""
","
","","null","","null","","fixation","2021-04-04 23:06:47.379","","","","","",""
"card-selection-trial","42","270718","0.0-17.0-1.3","A586","false","img/card_backs/set1/green.gif","img/card_backs/set1/purple.gif","img/card_backs/set1/yellow.gif","img/card_backs/set1/red.gif","img/card_backs/set2/orange.gif","img/card_backs/set2/blue.gif","img/card_backs/set2/pink.gif","img/card_backs/set2/gray.gif","""event"",""trial"",""time""
""fullscreenenter"",""1"",""3554""
","
","
","""event"",""trial"",""time""
""fullscreenenter"",""1"",""3554""
","
","","1968.445000005886","","","","practice","2021-04-04 23:06:51.376","img/practice_cards/backs/dark_green.gif","2","-200","0","",""
"casino-fixation","43","271241","0.0-17.0-0.4","A586","false","img/card_backs/set1/green.gif","img/card_backs/set1/purple.gif","img/card_backs/set1/yellow.gif","img/card_backs/set1/red.gif","img/card_backs/set2/orange.gif","img/card_backs/set2/blue.gif","img/card_backs/set2/pink.gif","img/card_backs/set2/gray.gif","""event"",""trial"",""time""
""fullscreenenter"",""1"",""3554""
","
","
","""event"",""trial"",""time""
""fullscreenenter"",""1"",""3554""
","
","","null","","null","","fixation","2021-04-04 23:06:51.899","","","","","",""
"card-selection-trial","44","274080","0.0-17.0-1.4","A586","false","img/card_backs/set1/green.gif","img/card_backs/set1/purple.gif","img/card_backs/set1/yellow.gif","img/card_backs/set1/red.gif","img/card_backs/set2/orange.gif","img/card_backs/set2/blue.gif","img/card_backs/set2/pink.gif","img/card_backs/set2/gray.gif","""event"",""trial"",""time""
""fullscreenenter"",""1"",""3554""
","
","
","""event"",""trial"",""time""
""fullscreenenter"",""1"",""3554""
","
","","810.109999962151","","","","practice","2021-04-04 23:06:54.738","img/practice_cards/backs/dark_blue.gif","0","-200","0","",""
"casino-fixation","45","274601","0.0-17.0-0.5","A586","false","img/card_backs/set1/green.gif","img/card_backs/set1/purple.gif","img/card_backs/set1/yellow.gif","img/card_backs/set1/red.gif","img/card_backs/set2/orange.gif","img/card_backs/set2/blue.gif","img/card_backs/set2/pink.gif","img/card_backs/set2/gray.gif","""event"",""trial"",""time""
""fullscreenenter"",""1"",""3554""
","
","
","""event"",""trial"",""time""
""fullscreenenter"",""1"",""3554""
","
","","null","","null","","fixation","2021-04-04 23:06:55.259","","","","","",""
"card-selection-trial","46","278035","0.0-17.0-1.5","A586","false","img/card_backs/set1/green.gif","img/card_backs/set1/purple.gif","img/card_backs/set1/yellow.gif","img/card_backs/set1/red.gif","img/card_backs/set2/orange.gif","img/card_backs/set2/blue.gif","img/card_backs/set2/pink.gif","img/card_backs/set2/gray.gif","""event"",""trial"",""time""
""fullscreenenter"",""1"",""3554""
","
","
","""event"",""trial"",""time""
""fullscreenenter"",""1"",""3554""
","
","","1420.6550000235438","","","","practice","2021-04-04 23:06:58.694","img/practice_cards/backs/black.gif","2","-100","0","",""
"casino-fixation","47","278558","0.0-17.0-0.6","A586","false","img/card_backs/set1/green.gif","img/card_backs/set1/purple.gif","img/card_backs/set1/yellow.gif","img/card_backs/set1/red.gif","img/card_backs/set2/orange.gif","img/card_backs/set2/blue.gif","img/card_backs/set2/pink.gif","img/card_backs/set2/gray.gif","""event"",""trial"",""time""
""fullscreenenter"",""1"",""3554""
","
","
","""event"",""trial"",""time""
""fullscreenenter"",""1"",""3554""
","
","","null","","null","","fixation","2021-04-04 23:06:59.216","","","","","",""
"card-selection-trial","48","282985","0.0-17.0-1.6","A586","false","img/card_backs/set1/green.gif","img/card_backs/set1/purple.gif","img/card_backs/set1/yellow.gif","img/card_backs/set1/red.gif","img/card_backs/set2/orange.gif","img/card_backs/set2/blue.gif","img/card_backs/set2/pink.gif","img/card_backs/set2/gray.gif","""event"",""trial"",""time""
""fullscreenenter"",""1"",""3554""
","
","
","""event"",""trial"",""time""
""fullscreenenter"",""1"",""3554""
","
","","2414.9299999698997","","","","practice","2021-04-04 23:07:03.643","img/practice_cards/backs/brown.gif","3","100","0","",""
"casino-fixation","49","283508","0.0-17.0-0.7","A586","false","img/card_backs/set1/green.gif","img/card_backs/set1/purple.gif","img/card_backs/set1/yellow.gif","img/card_backs/set1/red.gif","img/card_backs/set2/orange.gif","img/card_backs/set2/blue.gif","img/card_backs/set2/pink.gif","img/card_backs/set2/gray.gif","""event"",""trial"",""time""
""fullscreenenter"",""1"",""3554""
","
","
","""event"",""trial"",""time""
""fullscreenenter"",""1"",""3554""
","
","","null","","null","","fixation","2021-04-04 23:07:04.166","","","","","",""
"card-selection-trial","50","286142","0.0-17.0-1.7","A586","false","img/card_backs/set1/green.gif","img/card_backs/set1/purple.gif","img/card_backs/set1/yellow.gif","img/card_backs/set1/red.gif","img/card_backs/set2/orange.gif","img/card_backs/set2/blue.gif","img/card_backs/set2/pink.gif","img/card_backs/set2/gray.gif","""event"",""trial"",""time""
""fullscreenenter"",""1"",""3554""
","
","
","""event"",""trial"",""time""
""fullscreenenter"",""1"",""3554""
","
","","618.8149999361485","","","","practice","2021-04-04 23:07:06.801","img/practice_cards/backs/brown.gif","0","100","0","",""
"casino-fixation","51","286658","0.0-17.0-0.8","A586","false","img/card_backs/set1/green.gif","img/card_backs/set1/purple.gif","img/card_backs/set1/yellow.gif","img/card_backs/set1/red.gif","img/card_backs/set2/orange.gif","img/card_backs/set2/blue.gif","img/card_backs/set2/pink.gif","img/card_backs/set2/gray.gif","""event"",""trial"",""time""
""fullscreenenter"",""1"",""3554""
","
","
","""event"",""trial"",""time""
""fullscreenenter"",""1"",""3554""
","
","","null","","null","","fixation","2021-04-04 23:07:07.316","","","","","",""
"card-selection-trial","52","289289","0.0-17.0-1.8","A586","false","img/card_backs/set1/green.gif","img/card_backs/set1/purple.gif","img/card_backs/set1/yellow.gif","img/card_backs/set1/red.gif","img/card_backs/set2/orange.gif","img/card_backs/set2/blue.gif","img/card_backs/set2/pink.gif","img/card_backs/set2/gray.gif","""event"",""trial"",""time""
""fullscreenenter"",""1"",""3554""
","
","
","""event"",""trial"",""time""
""fullscreenenter"",""1"",""3554""
","
","","617.3249999992549","","","","practice","2021-04-04 23:07:09.948","img/practice_cards/backs/brown.gif","0","-100","0","",""
"casino-fixation","53","289807","0.0-17.0-0.9","A586","false","img/card_backs/set1/green.gif","img/card_backs/set1/purple.gif","img/card_backs/set1/yellow.gif","img/card_backs/set1/red.gif","img/card_backs/set2/orange.gif","img/card_backs/set2/blue.gif","img/card_backs/set2/pink.gif","img/card_backs/set2/gray.gif","""event"",""trial"",""time""
""fullscreenenter"",""1"",""3554""
","
","
","""event"",""trial"",""time""
""fullscreenenter"",""1"",""3554""
","
","","null","","null","","fixation","2021-04-04 23:07:10.465","","","","","",""
"card-selection-trial","54","292928","0.0-17.0-1.9","A586","false","img/card_backs/set1/green.gif","img/card_backs/set1/purple.gif","img/card_backs/set1/yellow.gif","img/card_backs/set1/red.gif","img/card_backs/set2/orange.gif","img/card_backs/set2/blue.gif","img/card_backs/set2/pink.gif","img/card_backs/set2/gray.gif","""event"",""trial"",""time""
""fullscreenenter"",""1"",""3554""
","
","
","""event"",""trial"",""time""
""fullscreenenter"",""1"",""3554""
","
","","1105.2550000604242","","","","practice","2021-04-04 23:07:13.586","img/practice_cards/backs/brown.gif","1","100","0","",""
"casino-keyboard-response","55","296131","0.0-18.0","A586","false","img/card_backs/set1/green.gif","img/card_backs/set1/purple.gif","img/card_backs/set1/yellow.gif","img/card_backs/set1/red.gif","img/card_backs/set2/orange.gif","img/card_backs/set2/blue.gif","img/card_backs/set2/pink.gif","img/card_backs/set2/gray.gif","""event"",""trial"",""time""
""fullscreenenter"",""1"",""3554""
","
","
","""event"",""trial"",""time""
""fullscreenenter"",""1"",""3554""
","
","","3199.6549998875707","You earned -600 tokens during the practice round!","82","","","2021-04-04 23:07:16.789","","","","","",""
"casino-keyboard-response","56","300338","0.0-19.0-0.0","A586","false","img/card_backs/set1/green.gif","img/card_backs/set1/purple.gif","img/card_backs/set1/yellow.gif","img/card_backs/set1/red.gif","img/card_backs/set2/orange.gif","img/card_backs/set2/blue.gif","img/card_backs/set2/pink.gif","img/card_backs/set2/gray.gif","""event"",""trial"",""time""
""fullscreenenter"",""1"",""3554""
","
","
","""event"",""trial"",""time""
""fullscreenenter"",""1"",""3554""
","
","","4204.665000084788","Nice job! You are almost ready to play the real game.","86","","instructions","2021-04-04 23:07:20.996","","","","","",""
"casino-keyboard-response","57","307013","0.0-19.0-0.1","A586","false","img/card_backs/set1/green.gif","img/card_backs/set1/purple.gif","img/card_backs/set1/yellow.gif","img/card_backs/set1/red.gif","img/card_backs/set2/orange.gif","img/card_backs/set2/blue.gif","img/card_backs/set2/pink.gif","img/card_backs/set2/gray.gif","""event"",""trial"",""time""
""fullscreenenter"",""1"",""3554""
","
","
","""event"",""trial"",""time""
""fullscreenenter"",""1"",""3554""
","
","","6672.444999916479","You will play two rounds of the real game. In each round, you will pick 100 cards in total.","73","","instructions","2021-04-04 23:07:27.671","","","","","",""
"casino-keyboard-response","58","311141","0.0-19.0-0.2","A586","false","img/card_backs/set1/green.gif","img/card_backs/set1/purple.gif","img/card_backs/set1/yellow.gif","img/card_backs/set1/red.gif","img/card_backs/set2/orange.gif","img/card_backs/set2/blue.gif","img/card_backs/set2/pink.gif","img/card_backs/set2/gray.gif","""event"",""trial"",""time""
""fullscreenenter"",""1"",""3554""
","
","
","""event"",""trial"",""time""
""fullscreenenter"",""1"",""3554""
","
","","4125.114999944344","We are now going to ask you some questions about how the game works.","66","","instructions","2021-04-04 23:07:31.799","","","","","",""
"casino-keyboard-response","59","317868","0.0-19.0-0.3","A586","false","img/card_backs/set1/green.gif","img/card_backs/set1/purple.gif","img/card_backs/set1/yellow.gif","img/card_backs/set1/red.gif","img/card_backs/set2/orange.gif","img/card_backs/set2/blue.gif","img/card_backs/set2/pink.gif","img/card_backs/set2/gray.gif","""event"",""trial"",""time""
""fullscreenenter"",""1"",""3554""
","
","
","""event"",""trial"",""time""
""fullscreenenter"",""1"",""3554""
","
","","6724.285000003874","Answer carefully. You will not be able to begin the game until you answer them correctly.","67","","instructions","2021-04-04 23:07:38.527","","","","","",""
"casino-comp_q","60","327325","0.0-20.0-0.0","A586","false","img/card_backs/set1/green.gif","img/card_backs/set1/purple.gif","img/card_backs/set1/yellow.gif","img/card_backs/set1/red.gif","img/card_backs/set2/orange.gif","img/card_backs/set2/blue.gif","img/card_backs/set2/pink.gif","img/card_backs/set2/gray.gif","""event"",""trial"",""time""
""fullscreenenter"",""1"",""3554""
","
","
","""event"",""trial"",""time""
""fullscreenenter"",""1"",""3554""
","
","","9453.305000206456","True or False: All the decks have some cards that cause you to win tokens and some cards that cause you to lose tokens.","84","","","2021-04-04 23:07:47.983","","","","","",""
"casino-keyboard-response","61","332284","0.0-20.0-1.0","A586","false","img/card_backs/set1/green.gif","img/card_backs/set1/purple.gif","img/card_backs/set1/yellow.gif","img/card_backs/set1/red.gif","img/card_backs/set2/orange.gif","img/card_backs/set2/blue.gif","img/card_backs/set2/pink.gif","img/card_backs/set2/gray.gif","""event"",""trial"",""time""
""fullscreenenter"",""1"",""3554""
","
","
","""event"",""trial"",""time""
""fullscreenenter"",""1"",""3554""
","
","","4956.129999831319","True is correct! All the decks have a mix of winning and losing cards.","77","","","2021-04-04 23:07:52.943","","","","","true",""
"casino-comp_q","62","336300","0.0-21.0-0.0","A586","false","img/card_backs/set1/green.gif","img/card_backs/set1/purple.gif","img/card_backs/set1/yellow.gif","img/card_backs/set1/red.gif","img/card_backs/set2/orange.gif","img/card_backs/set2/blue.gif","img/card_backs/set2/pink.gif","img/card_backs/set2/gray.gif","""event"",""trial"",""time""
""fullscreenenter"",""1"",""3554""
","
","
","""event"",""trial"",""time""
""fullscreenenter"",""1"",""3554""
","
","","4009.4600000884384","True or False: You will have as much time as you want to make your response.","70","","","2021-04-04 23:07:56.958","","","","","",""
"casino-keyboard-response","63","340422","0.0-21.0-1.0","A586","false","img/card_backs/set1/green.gif","img/card_backs/set1/purple.gif","img/card_backs/set1/yellow.gif","img/card_backs/set1/red.gif","img/card_backs/set2/orange.gif","img/card_backs/set2/blue.gif","img/card_backs/set2/pink.gif","img/card_backs/set2/gray.gif","""event"",""trial"",""time""
""fullscreenenter"",""1"",""3554""
","
","
","""event"",""trial"",""time""
""fullscreenenter"",""1"",""3554""
","
","","4119.21999999322","False is correct! You will only have 10 seconds to make each choice.","75","","","2021-04-04 23:08:01.080","","","","","true",""
"casino-comp_q","64","346196","0.0-22.0-0.0","A586","false","img/card_backs/set1/green.gif","img/card_backs/set1/purple.gif","img/card_backs/set1/yellow.gif","img/card_backs/set1/red.gif","img/card_backs/set2/orange.gif","img/card_backs/set2/blue.gif","img/card_backs/set2/pink.gif","img/card_backs/set2/gray.gif","""event"",""trial"",""time""
""fullscreenenter"",""1"",""3554""
","
","
","""event"",""trial"",""time""
""fullscreenenter"",""1"",""3554""
","
","","5770.529999863356","True or False: The location of the deck determines how lucky it is.","70","","","2021-04-04 23:08:06.854","","","","","",""
"casino-keyboard-response","65","350640","0.0-22.0-1.0","A586","false","img/card_backs/set1/green.gif","img/card_backs/set1/purple.gif","img/card_backs/set1/yellow.gif","img/card_backs/set1/red.gif","img/card_backs/set2/orange.gif","img/card_backs/set2/blue.gif","img/card_backs/set2/pink.gif","img/card_backs/set2/gray.gif","""event"",""trial"",""time""
""fullscreenenter"",""1"",""3554""
","
","
","""event"",""trial"",""time""
""fullscreenenter"",""1"",""3554""
","
","","4441.899999976158","False is correct! The <i>color</i>  of the deck determines how lucky or unlucky it is.","68","","","2021-04-04 23:08:11.299","","","","","true",""
"casino-keyboard-response","66","354813","0.0-23.0-0.0","A586","false","img/card_backs/set1/green.gif","img/card_backs/set1/purple.gif","img/card_backs/set1/yellow.gif","img/card_backs/set1/red.gif","img/card_backs/set2/orange.gif","img/card_backs/set2/blue.gif","img/card_backs/set2/pink.gif","img/card_backs/set2/gray.gif","""event"",""trial"",""time""
""fullscreenenter"",""1"",""3554""
","
","
","""event"",""trial"",""time""
""fullscreenenter"",""1"",""3554""
","
","","4168.950000079349","Great job! Now it's time to start the real game.","82","","instructions","2021-04-04 23:08:15.471","","","","","",""
"casino-keyboard-response","67","359943","0.0-23.0-0.1","A586","false","img/card_backs/set1/green.gif","img/card_backs/set1/purple.gif","img/card_backs/set1/yellow.gif","img/card_backs/set1/red.gif","img/card_backs/set2/orange.gif","img/card_backs/set2/blue.gif","img/card_backs/set2/pink.gif","img/card_backs/set2/gray.gif","""event"",""trial"",""time""
""fullscreenenter"",""1"",""3554""
","
","
","""event"",""trial"",""time""
""fullscreenenter"",""1"",""3554""
","
","","5127.3849999997765","Before we start, we're going to head into a new room of the casino.","86","","instructions","2021-04-04 23:08:20.601","","","","","",""
"casino-keyboard-response","68","366403","0.0-24.0-0.0","A586","false","img/card_backs/set1/green.gif","img/card_backs/set1/purple.gif","img/card_backs/set1/yellow.gif","img/card_backs/set1/red.gif","img/card_backs/set2/orange.gif","img/card_backs/set2/blue.gif","img/card_backs/set2/pink.gif","img/card_backs/set2/gray.gif","""event"",""trial"",""time""
""fullscreenenter"",""1"",""3554""
","
","
","""event"",""trial"",""time""
""fullscreenenter"",""1"",""3554""
","
","","6457.504999823868","Here we are! The real game will use different cards, but the rules will be the same.","71","","instructions","2021-04-04 23:08:27.061","","","","","",""
"casino-keyboard-response","69","376151","0.0-24.0-0.1","A586","false","img/card_backs/set1/green.gif","img/card_backs/set1/purple.gif","img/card_backs/set1/yellow.gif","img/card_backs/set1/red.gif","img/card_backs/set2/orange.gif","img/card_backs/set2/blue.gif","img/card_backs/set2/pink.gif","img/card_backs/set2/gray.gif","""event"",""trial"",""time""
""fullscreenenter"",""1"",""3554""
","
","
","""event"",""trial"",""time""
""fullscreenenter"",""1"",""3554""
","
","","9744.974999921396","Ready? Put your fingers over the '2', '4', 6', and '8' keys so you are ready to play the game. </br> Then press 2 to start.","50","","instructions","2021-04-04 23:08:36.809","","","","","",""
"casino-fixation","70","376656","0.0-25.0-0.0","A586","false","img/card_backs/set1/green.gif","img/card_backs/set1/purple.gif","img/card_backs/set1/yellow.gif","img/card_backs/set1/red.gif","img/card_backs/set2/orange.gif","img/card_backs/set2/blue.gif","img/card_backs/set2/pink.gif","img/card_backs/set2/gray.gif","""event"",""trial"",""time""
""fullscreenenter"",""1"",""3554""
","
","
","""event"",""trial"",""time""
""fullscreenenter"",""1"",""3554""
","
","","null","","null","","fixation","2021-04-04 23:08:37.314","","","","","",""
"card-selection-trial","71","379396","0.0-25.0-1.0","A586","false","img/card_backs/set1/green.gif","img/card_backs/set1/purple.gif","img/card_backs/set1/yellow.gif","img/card_backs/set1/red.gif","img/card_backs/set2/orange.gif","img/card_backs/set2/blue.gif","img/card_backs/set2/pink.gif","img/card_backs/set2/gray.gif","""event"",""trial"",""time""
""fullscreenenter"",""1"",""3554""
","
","
","""event"",""trial"",""time""
""fullscreenenter"",""1"",""3554""
","
","","687.4049999751151","","","","real_trial","2021-04-04 23:08:40.054","img/card_backs/set1/red.gif","0","120","1","",""
"casino-fixation","72","379919","0.0-25.0-0.1","A586","false","img/card_backs/set1/green.gif","img/card_backs/set1/purple.gif","img/card_backs/set1/yellow.gif","img/card_backs/set1/red.gif","img/card_backs/set2/orange.gif","img/card_backs/set2/blue.gif","img/card_backs/set2/pink.gif","img/card_backs/set2/gray.gif","""event"",""trial"",""time""
""fullscreenenter"",""1"",""3554""
","
","
","""event"",""trial"",""time""
""fullscreenenter"",""1"",""3554""
","
","","null","","null","","fixation","2021-04-04 23:08:40.577","","","","","",""
"card-selection-trial","73","382938","0.0-25.0-1.1","A586","false","img/card_backs/set1/green.gif","img/card_backs/set1/purple.gif","img/card_backs/set1/yellow.gif","img/card_backs/set1/red.gif","img/card_backs/set2/orange.gif","img/card_backs/set2/blue.gif","img/card_backs/set2/pink.gif","img/card_backs/set2/gray.gif","""event"",""trial"",""time""
""fullscreenenter"",""1"",""3554""
","
","
","""event"",""trial"",""time""
""fullscreenenter"",""1"",""3554""
","
","","994.9449999257922","","","","real_trial","2021-04-04 23:08:43.596","img/card_backs/set1/red.gif","1","-70","1","",""
"casino-fixation","74","383460","0.0-25.0-0.2","A586","false","img/card_backs/set1/green.gif","img/card_backs/set1/purple.gif","img/card_backs/set1/yellow.gif","img/card_backs/set1/red.gif","img/card_backs/set2/orange.gif","img/card_backs/set2/blue.gif","img/card_backs/set2/pink.gif","img/card_backs/set2/gray.gif","""event"",""trial"",""time""
""fullscreenenter"",""1"",""3554""
","
","
","""event"",""trial"",""time""
""fullscreenenter"",""1"",""3554""
","
","","null","","null","","fixation","2021-04-04 23:08:44.118","","","","","",""
"card-selection-trial","75","386640","0.0-25.0-1.2","A586","false","img/card_backs/set1/green.gif","img/card_backs/set1/purple.gif","img/card_backs/set1/yellow.gif","img/card_backs/set1/red.gif","img/card_backs/set2/orange.gif","img/card_backs/set2/blue.gif","img/card_backs/set2/pink.gif","img/card_backs/set2/gray.gif","""event"",""trial"",""time""
""fullscreenenter"",""1"",""3554""
","
","
","""event"",""trial"",""time""
""fullscreenenter"",""1"",""3554""
","
","","1163.6749999597669","","","","real_trial","2021-04-04 23:08:47.298","img/card_backs/set1/green.gif","0","190","1","",""
"casino-fixation","76","387161","0.0-25.0-0.3","A586","false","img/card_backs/set1/green.gif","img/card_backs/set1/purple.gif","img/card_backs/set1/yellow.gif","img/card_backs/set1/red.gif","img/card_backs/set2/orange.gif","img/card_backs/set2/blue.gif","img/card_backs/set2/pink.gif","img/card_backs/set2/gray.gif","""event"",""trial"",""time""
""fullscreenenter"",""1"",""3554""
","
","
","""event"",""trial"",""time""
""fullscreenenter"",""1"",""3554""
","
","","null","","null","","fixation","2021-04-04 23:08:47.819","","","","","",""
"card-selection-trial","77","390031","0.0-25.0-1.3","A586","false","img/card_backs/set1/green.gif","img/card_backs/set1/purple.gif","img/card_backs/set1/yellow.gif","img/card_backs/set1/red.gif","img/card_backs/set2/orange.gif","img/card_backs/set2/blue.gif","img/card_backs/set2/pink.gif","img/card_backs/set2/gray.gif","""event"",""trial"",""time""
""fullscreenenter"",""1"",""3554""
","
","
","""event"",""trial"",""time""
""fullscreenenter"",""1"",""3554""
","
","","860.5700000189245","","","","real_trial","2021-04-04 23:08:50.689","img/card_backs/set1/green.gif","3","190","1","",""
"casino-fixation","78","390542","0.0-25.0-0.4","A586","false","img/card_backs/set1/green.gif","img/card_backs/set1/purple.gif","img/card_backs/set1/yellow.gif","img/card_backs/set1/red.gif","img/card_backs/set2/orange.gif","img/card_backs/set2/blue.gif","img/card_backs/set2/pink.gif","img/card_backs/set2/gray.gif","""event"",""trial"",""time""
""fullscreenenter"",""1"",""3554""
","
","
","""event"",""trial"",""time""
""fullscreenenter"",""1"",""3554""
","
","","null","","null","","fixation","2021-04-04 23:08:51.200","","","","","",""
"card-selection-trial","79","393220","0.0-25.0-1.4","A586","false","img/card_backs/set1/green.gif","img/card_backs/set1/purple.gif","img/card_backs/set1/yellow.gif","img/card_backs/set1/red.gif","img/card_backs/set2/orange.gif","img/card_backs/set2/blue.gif","img/card_backs/set2/pink.gif","img/card_backs/set2/gray.gif","""event"",""trial"",""time""
""fullscreenenter"",""1"",""3554""
","
","
","""event"",""trial"",""time""
""fullscreenenter"",""1"",""3554""
","
","","657.4349999427795","","","","real_trial","2021-04-04 23:08:53.878","img/card_backs/set1/green.gif","2","200","1","",""
"casino-fixation","80","393731","0.0-25.0-0.5","A586","false","img/card_backs/set1/green.gif","img/card_backs/set1/purple.gif","img/card_backs/set1/yellow.gif","img/card_backs/set1/red.gif","img/card_backs/set2/orange.gif","img/card_backs/set2/blue.gif","img/card_backs/set2/pink.gif","img/card_backs/set2/gray.gif","""event"",""trial"",""time""
""fullscreenenter"",""1"",""3554""
","
","
","""event"",""trial"",""time""
""fullscreenenter"",""1"",""3554""
","
","","null","","null","","fixation","2021-04-04 23:08:54.390","","","","","",""
"card-selection-trial","81","396356","0.0-25.0-1.5","A586","false","img/card_backs/set1/green.gif","img/card_backs/set1/purple.gif","img/card_backs/set1/yellow.gif","img/card_backs/set1/red.gif","img/card_backs/set2/orange.gif","img/card_backs/set2/blue.gif","img/card_backs/set2/pink.gif","img/card_backs/set2/gray.gif","""event"",""trial"",""time""
""fullscreenenter"",""1"",""3554""
","
","
","""event"",""trial"",""time""
""fullscreenenter"",""1"",""3554""
","
","","598.6349999438971","","","","real_trial","2021-04-04 23:08:57.014","img/card_backs/set1/green.gif","3","190","1","",""
"casino-fixation","82","396878","0.0-25.0-0.6","A586","false","img/card_backs/set1/green.gif","img/card_backs/set1/purple.gif","img/card_backs/set1/yellow.gif","img/card_backs/set1/red.gif","img/card_backs/set2/orange.gif","img/card_backs/set2/blue.gif","img/card_backs/set2/pink.gif","img/card_backs/set2/gray.gif","""event"",""trial"",""time""
""fullscreenenter"",""1"",""3554""
","
","
","""event"",""trial"",""time""
""fullscreenenter"",""1"",""3554""
","
","","null","","null","","fixation","2021-04-04 23:08:57.537","","","","","",""
"card-selection-trial","83","399417","0.0-25.0-1.6","A586","false","img/card_backs/set1/green.gif","img/card_backs/set1/purple.gif","img/card_backs/set1/yellow.gif","img/card_backs/set1/red.gif","img/card_backs/set2/orange.gif","img/card_backs/set2/blue.gif","img/card_backs/set2/pink.gif","img/card_backs/set2/gray.gif","""event"",""trial"",""time""
""fullscreenenter"",""1"",""3554""
","
","
","""event"",""trial"",""time""
""fullscreenenter"",""1"",""3554""
","
","","525.2249999903142","","","","real_trial","2021-04-04 23:09:00.075","img/card_backs/set1/green.gif","3","-240","1","",""
"casino-fixation","84","399923","0.0-25.0-0.7","A586","false","img/card_backs/set1/green.gif","img/card_backs/set1/purple.gif","img/card_backs/set1/yellow.gif","img/card_backs/set1/red.gif","img/card_backs/set2/orange.gif","img/card_backs/set2/blue.gif","img/card_backs/set2/pink.gif","img/card_backs/set2/gray.gif","""event"",""trial"",""time""
""fullscreenenter"",""1"",""3554""
","
","
","""event"",""trial"",""time""
""fullscreenenter"",""1"",""3554""
","
","","null","","null","","fixation","2021-04-04 23:09:00.581","","","","","",""
"card-selection-trial","85","402522","0.0-25.0-1.7","A586","false","img/card_backs/set1/green.gif","img/card_backs/set1/purple.gif","img/card_backs/set1/yellow.gif","img/card_backs/set1/red.gif","img/card_backs/set2/orange.gif","img/card_backs/set2/blue.gif","img/card_backs/set2/pink.gif","img/card_backs/set2/gray.gif","""event"",""trial"",""time""
""fullscreenenter"",""1"",""3554""
","
","
","""event"",""trial"",""time""
""fullscreenenter"",""1"",""3554""
","
","","569.385000038892","","","","real_trial","2021-04-04 23:09:03.180","img/card_backs/set1/green.gif","0","200","1","",""
"casino-fixation","86","403038","0.0-25.0-0.8","A586","false","img/card_backs/set1/green.gif","img/card_backs/set1/purple.gif","img/card_backs/set1/yellow.gif","img/card_backs/set1/red.gif","img/card_backs/set2/orange.gif","img/card_backs/set2/blue.gif","img/card_backs/set2/pink.gif","img/card_backs/set2/gray.gif","""event"",""trial"",""time""
""fullscreenenter"",""1"",""3554""
","
","
","""event"",""trial"",""time""
""fullscreenenter"",""1"",""3554""
","
","","null","","null","","fixation","2021-04-04 23:09:03.696","","","","","",""
"card-selection-trial","87","405782","0.0-25.0-1.8","A586","false","img/card_backs/set1/green.gif","img/card_backs/set1/purple.gif","img/card_backs/set1/yellow.gif","img/card_backs/set1/red.gif","img/card_backs/set2/orange.gif","img/card_backs/set2/blue.gif","img/card_backs/set2/pink.gif","img/card_backs/set2/gray.gif","""event"",""trial"",""time""
""fullscreenenter"",""1"",""3554""
","
","
","""event"",""trial"",""time""
""fullscreenenter"",""1"",""3554""
","
","","729.5099999755621","","","","real_trial","2021-04-04 23:09:06.441","img/card_backs/set1/green.gif","2","-240","1","",""
"casino-fixation","88","406288","0.0-25.0-0.9","A586","false","img/card_backs/set1/green.gif","img/card_backs/set1/purple.gif","img/card_backs/set1/yellow.gif","img/card_backs/set1/red.gif","img/card_backs/set2/orange.gif","img/card_backs/set2/blue.gif","img/card_backs/set2/pink.gif","img/card_backs/set2/gray.gif","""event"",""trial"",""time""
""fullscreenenter"",""1"",""3554""
","
","
","""event"",""trial"",""time""
""fullscreenenter"",""1"",""3554""
","
","","null","","null","","fixation","2021-04-04 23:09:06.947","","","","","",""
"card-selection-trial","89","408767","0.0-25.0-1.9","A586","false","img/card_backs/set1/green.gif","img/card_backs/set1/purple.gif","img/card_backs/set1/yellow.gif","img/card_backs/set1/red.gif","img/card_backs/set2/orange.gif","img/card_backs/set2/blue.gif","img/card_backs/set2/pink.gif","img/card_backs/set2/gray.gif","""event"",""trial"",""time""
""fullscreenenter"",""1"",""3554""
","
","
","""event"",""trial"",""time""
""fullscreenenter"",""1"",""3554""
","
","","458.66500004194677","","","","real_trial","2021-04-04 23:09:09.425","img/card_backs/set1/green.gif","3","180","1","",""
"casino-fixation","90","409273","0.0-25.0-0.10","A586","false","img/card_backs/set1/green.gif","img/card_backs/set1/purple.gif","img/card_backs/set1/yellow.gif","img/card_backs/set1/red.gif","img/card_backs/set2/orange.gif","img/card_backs/set2/blue.gif","img/card_backs/set2/pink.gif","img/card_backs/set2/gray.gif","""event"",""trial"",""time""
""fullscreenenter"",""1"",""3554""
","
","
","""event"",""trial"",""time""
""fullscreenenter"",""1"",""3554""
","
","","null","","null","","fixation","2021-04-04 23:09:09.931","","","","","",""
"card-selection-trial","91","412069","0.0-25.0-1.10","A586","false","img/card_backs/set1/green.gif","img/card_backs/set1/purple.gif","img/card_backs/set1/yellow.gif","img/card_backs/set1/red.gif","img/card_backs/set2/orange.gif","img/card_backs/set2/blue.gif","img/card_backs/set2/pink.gif","img/card_backs/set2/gray.gif","""event"",""trial"",""time""
""fullscreenenter"",""1"",""3554""
","
","
","""event"",""trial"",""time""
""fullscreenenter"",""1"",""3554""
","
","","787.2450000140816","","","","real_trial","2021-04-04 23:09:12.727","img/card_backs/set1/green.gif","1","200","1","",""
"casino-fixation","92","412575","0.0-25.0-0.11","A586","false","img/card_backs/set1/green.gif","img/card_backs/set1/purple.gif","img/card_backs/set1/yellow.gif","img/card_backs/set1/red.gif","img/card_backs/set2/orange.gif","img/card_backs/set2/blue.gif","img/card_backs/set2/pink.gif","img/card_backs/set2/gray.gif","""event"",""trial"",""time""
""fullscreenenter"",""1"",""3554""
","
","
","""event"",""trial"",""time""
""fullscreenenter"",""1"",""3554""
","
","","null","","null","","fixation","2021-04-04 23:09:13.233","","","","","",""
"card-selection-trial","93","415252","0.0-25.0-1.11","A586","false","img/card_backs/set1/green.gif","img/card_backs/set1/purple.gif","img/card_backs/set1/yellow.gif","img/card_backs/set1/red.gif","img/card_backs/set2/orange.gif","img/card_backs/set2/blue.gif","img/card_backs/set2/pink.gif","img/card_backs/set2/gray.gif","""event"",""trial"",""time""
""fullscreenenter"",""1"",""3554""
","
","
","""event"",""trial"",""time""
""fullscreenenter"",""1"",""3554""
","
","","661.8399999570101","","","","real_trial","2021-04-04 23:09:15.910","img/card_backs/set1/purple.gif","3","-240","1","",""
"casino-fixation","94","415760","0.0-25.0-0.12","A586","false","img/card_backs/set1/green.gif","img/card_backs/set1/purple.gif","img/card_backs/set1/yellow.gif","img/card_backs/set1/red.gif","img/card_backs/set2/orange.gif","img/card_backs/set2/blue.gif","img/card_backs/set2/pink.gif","img/card_backs/set2/gray.gif","""event"",""trial"",""time""
""fullscreenenter"",""1"",""3554""
","
","
","""event"",""trial"",""time""
""fullscreenenter"",""1"",""3554""
","
","","null","","null","","fixation","2021-04-04 23:09:16.418","","","","","",""
"card-selection-trial","95","418434","0.0-25.0-1.12","A586","false","img/card_backs/set1/green.gif","img/card_backs/set1/purple.gif","img/card_backs/set1/yellow.gif","img/card_backs/set1/red.gif","img/card_backs/set2/orange.gif","img/card_backs/set2/blue.gif","img/card_backs/set2/pink.gif","img/card_backs/set2/gray.gif","""event"",""trial"",""time""
""fullscreenenter"",""1"",""3554""
","
","
","""event"",""trial"",""time""
""fullscreenenter"",""1"",""3554""
","
","","658.3400000818074","","","","real_trial","2021-04-04 23:09:19.092","img/card_backs/set1/purple.gif","2","200","1","",""
"casino-fixation","96","418943","0.0-25.0-0.13","A586","false","img/card_backs/set1/green.gif","img/card_backs/set1/purple.gif","img/card_backs/set1/yellow.gif","img/card_backs/set1/red.gif","img/card_backs/set2/orange.gif","img/card_backs/set2/blue.gif","img/card_backs/set2/pink.gif","img/card_backs/set2/gray.gif","""event"",""trial"",""time""
""fullscreenenter"",""1"",""3554""
","
","
","""event"",""trial"",""time""
""fullscreenenter"",""1"",""3554""
","
","","null","","null","","fixation","2021-04-04 23:09:19.602","","","","","",""
"card-selection-trial","97","421641","0.0-25.0-1.13","A586","false","img/card_backs/set1/green.gif","img/card_backs/set1/purple.gif","img/card_backs/set1/yellow.gif","img/card_backs/set1/red.gif","img/card_backs/set2/orange.gif","img/card_backs/set2/blue.gif","img/card_backs/set2/pink.gif","img/card_backs/set2/gray.gif","""event"",""trial"",""time""
""fullscreenenter"",""1"",""3554""
","
","
","""event"",""trial"",""time""
""fullscreenenter"",""1"",""3554""
","
","","686.1949998419732","","","","real_trial","2021-04-04 23:09:22.299","img/card_backs/set1/yellow.gif","3","-60","1","",""
"casino-fixation","98","422146","0.0-25.0-0.14","A586","false","img/card_backs/set1/green.gif","img/card_backs/set1/purple.gif","img/card_backs/set1/yellow.gif","img/card_backs/set1/red.gif","img/card_backs/set2/orange.gif","img/card_backs/set2/blue.gif","img/card_backs/set2/pink.gif","img/card_backs/set2/gray.gif","""event"",""trial"",""time""
""fullscreenenter"",""1"",""3554""
","
","
","""event"",""trial"",""time""
""fullscreenenter"",""1"",""3554""
","
","","null","","null","","fixation","2021-04-04 23:09:22.804","","","","","",""
"card-selection-trial","99","424624","0.0-25.0-1.14","A586","false","img/card_backs/set1/green.gif","img/card_backs/set1/purple.gif","img/card_backs/set1/yellow.gif","img/card_backs/set1/red.gif","img/card_backs/set2/orange.gif","img/card_backs/set2/blue.gif","img/card_backs/set2/pink.gif","img/card_backs/set2/gray.gif","""event"",""trial"",""time""
""fullscreenenter"",""1"",""3554""
","
","
","""event"",""trial"",""time""
""fullscreenenter"",""1"",""3554""
","
","","464.0599999111146","","","","real_trial","2021-04-04 23:09:25.282","img/card_backs/set1/yellow.gif","0","-70","1","",""
"casino-fixation","100","425131","0.0-25.0-0.15","A586","false","img/card_backs/set1/green.gif","img/card_backs/set1/purple.gif","img/card_backs/set1/yellow.gif","img/card_backs/set1/red.gif","img/card_backs/set2/orange.gif","img/card_backs/set2/blue.gif","img/card_backs/set2/pink.gif","img/card_backs/set2/gray.gif","""event"",""trial"",""time""
""fullscreenenter"",""1"",""3554""
","
","
","""event"",""trial"",""time""
""fullscreenenter"",""1"",""3554""
","
","","null","","null","","fixation","2021-04-04 23:09:25.789","","","","","",""
"card-selection-trial","101","428507","0.0-25.0-1.15","A586","false","img/card_backs/set1/green.gif","img/card_backs/set1/purple.gif","img/card_backs/set1/yellow.gif","img/card_backs/set1/red.gif","img/card_backs/set2/orange.gif","img/card_backs/set2/blue.gif","img/card_backs/set2/pink.gif","img/card_backs/set2/gray.gif","""event"",""trial"",""time""
""fullscreenenter"",""1"",""3554""
","
","
","""event"",""trial"",""time""
""fullscreenenter"",""1"",""3554""
","
","","1352.0149998366833","","","","real_trial","2021-04-04 23:09:29.165","img/card_backs/set1/red.gif","1","120","1","",""
"casino-fixation","102","429018","0.0-25.0-0.16","A586","false","img/card_backs/set1/green.gif","img/card_backs/set1/purple.gif","img/card_backs/set1/yellow.gif","img/card_backs/set1/red.gif","img/card_backs/set2/orange.gif","img/card_backs/set2/blue.gif","img/card_backs/set2/pink.gif","img/card_backs/set2/gray.gif","""event"",""trial"",""time""
""fullscreenenter"",""1"",""3554""
","
","
","""event"",""trial"",""time""
""fullscreenenter"",""1"",""3554""
","
","","null","","null","","fixation","2021-04-04 23:09:29.676","","","","","",""
"card-selection-trial","103","432073","0.0-25.0-1.16","A586","false","img/card_backs/set1/green.gif","img/card_backs/set1/purple.gif","img/card_backs/set1/yellow.gif","img/card_backs/set1/red.gif","img/card_backs/set2/orange.gif","img/card_backs/set2/blue.gif","img/card_backs/set2/pink.gif","img/card_backs/set2/gray.gif","""event"",""trial"",""time""
""fullscreenenter"",""1"",""3554""
","
","
","""event"",""trial"",""time""
""fullscreenenter"",""1"",""3554""
","
","","1042.6549999974668","","","","real_trial","2021-04-04 23:09:32.731","img/card_backs/set1/yellow.gif","1","-70","1","",""
"casino-fixation","104","432582","0.0-25.0-0.17","A586","false","img/card_backs/set1/green.gif","img/card_backs/set1/purple.gif","img/card_backs/set1/yellow.gif","img/card_backs/set1/red.gif","img/card_backs/set2/orange.gif","img/card_backs/set2/blue.gif","img/card_backs/set2/pink.gif","img/card_backs/set2/gray.gif","""event"",""trial"",""time""
""fullscreenenter"",""1"",""3554""
","
","
","""event"",""trial"",""time""
""fullscreenenter"",""1"",""3554""
","
","","null","","null","","fixation","2021-04-04 23:09:33.240","","","","","",""
"card-selection-trial","105","435646","0.0-25.0-1.17","A586","false","img/card_backs/set1/green.gif","img/card_backs/set1/purple.gif","img/card_backs/set1/yellow.gif","img/card_backs/set1/red.gif","img/card_backs/set2/orange.gif","img/card_backs/set2/blue.gif","img/card_backs/set2/pink.gif","img/card_backs/set2/gray.gif","""event"",""trial"",""time""
""fullscreenenter"",""1"",""3554""
","
","
","""event"",""trial"",""time""
""fullscreenenter"",""1"",""3554""
","
","","1049.7200000099838","","","","real_trial","2021-04-04 23:09:36.304","img/card_backs/set1/red.gif","1","100","1","",""
"casino-fixation","106","436151","0.0-25.0-0.18","A586","false","img/card_backs/set1/green.gif","img/card_backs/set1/purple.gif","img/card_backs/set1/yellow.gif","img/card_backs/set1/red.gif","img/card_backs/set2/orange.gif","img/card_backs/set2/blue.gif","img/card_backs/set2/pink.gif","img/card_backs/set2/gray.gif","""event"",""trial"",""time""
""fullscreenenter"",""1"",""3554""
","
","
","""event"",""trial"",""time""
""fullscreenenter"",""1"",""3554""
","
","","null","","null","","fixation","2021-04-04 23:09:36.809","","","","","",""
"card-selection-trial","107","439012","0.0-25.0-1.18","A586","false","img/card_backs/set1/green.gif","img/card_backs/set1/purple.gif","img/card_backs/set1/yellow.gif","img/card_backs/set1/red.gif","img/card_backs/set2/orange.gif","img/card_backs/set2/blue.gif","img/card_backs/set2/pink.gif","img/card_backs/set2/gray.gif","""event"",""trial"",""time""
""fullscreenenter"",""1"",""3554""
","
","
","""event"",""trial"",""time""
""fullscreenenter"",""1"",""3554""
","
","","848.194999853149","","","","real_trial","2021-04-04 23:09:39.670","img/card_backs/set1/green.gif","1","-240","1","",""
"casino-fixation","108","439519","0.0-25.0-0.19","A586","false","img/card_backs/set1/green.gif","img/card_backs/set1/purple.gif","img/card_backs/set1/yellow.gif","img/card_backs/set1/red.gif","img/card_backs/set2/orange.gif","img/card_backs/set2/blue.gif","img/card_backs/set2/pink.gif","img/card_backs/set2/gray.gif","""event"",""trial"",""time""
""fullscreenenter"",""1"",""3554""
","
","
","""event"",""trial"",""time""
""fullscreenenter"",""1"",""3554""
","
","","null","","null","","fixation","2021-04-04 23:09:40.177","","","","","",""
"card-selection-trial","109","441961","0.0-25.0-1.19","A586","false","img/card_backs/set1/green.gif","img/card_backs/set1/purple.gif","img/card_backs/set1/yellow.gif","img/card_backs/set1/red.gif","img/card_backs/set2/orange.gif","img/card_backs/set2/blue.gif","img/card_backs/set2/pink.gif","img/card_backs/set2/gray.gif","""event"",""trial"",""time""
""fullscreenenter"",""1"",""3554""
","
","
","""event"",""trial"",""time""
""fullscreenenter"",""1"",""3554""
","
","","427.94000008143485","","","","real_trial","2021-04-04 23:09:42.619","img/card_backs/set1/green.gif","1","-240","1","",""
"casino-fixation","110","442494","0.0-25.0-0.20","A586","false","img/card_backs/set1/green.gif","img/card_backs/set1/purple.gif","img/card_backs/set1/yellow.gif","img/card_backs/set1/red.gif","img/card_backs/set2/orange.gif","img/card_backs/set2/blue.gif","img/card_backs/set2/pink.gif","img/card_backs/set2/gray.gif","""event"",""trial"",""time""
""fullscreenenter"",""1"",""3554""
","
","
","""event"",""trial"",""time""
""fullscreenenter"",""1"",""3554""
","
","","null","","null","","fixation","2021-04-04 23:09:43.152","","","","","",""
"card-selection-trial","111","445024","0.0-25.0-1.20","A586","false","img/card_backs/set1/green.gif","img/card_backs/set1/purple.gif","img/card_backs/set1/yellow.gif","img/card_backs/set1/red.gif","img/card_backs/set2/orange.gif","img/card_backs/set2/blue.gif","img/card_backs/set2/pink.gif","img/card_backs/set2/gray.gif","""event"",""trial"",""time""
""fullscreenenter"",""1"",""3554""
","
","
","""event"",""trial"",""time""
""fullscreenenter"",""1"",""3554""
","
","","519.3699998781085","","","","real_trial","2021-04-04 23:09:45.682","img/card_backs/set1/green.gif","0","-230","1","",""
"casino-fixation","112","445534","0.0-25.0-0.21","A586","false","img/card_backs/set1/green.gif","img/card_backs/set1/purple.gif","img/card_backs/set1/yellow.gif","img/card_backs/set1/red.gif","img/card_backs/set2/orange.gif","img/card_backs/set2/blue.gif","img/card_backs/set2/pink.gif","img/card_backs/set2/gray.gif","""event"",""trial"",""time""
""fullscreenenter"",""1"",""3554""
","
","
","""event"",""trial"",""time""
""fullscreenenter"",""1"",""3554""
","
","","null","","null","","fixation","2021-04-04 23:09:46.192","","","","","",""
"card-selection-trial","113","448748","0.0-25.0-1.21","A586","false","img/card_backs/set1/green.gif","img/card_backs/set1/purple.gif","img/card_backs/set1/yellow.gif","img/card_backs/set1/red.gif","img/card_backs/set2/orange.gif","img/card_backs/set2/blue.gif","img/card_backs/set2/pink.gif","img/card_backs/set2/gray.gif","""event"",""trial"",""time""
""fullscreenenter"",""1"",""3554""
","
","
","""event"",""trial"",""time""
""fullscreenenter"",""1"",""3554""
","
","","1204.365000128746","","","","real_trial","2021-04-04 23:09:49.406","img/card_backs/set1/purple.gif","1","-240","1","",""
"casino-fixation","114","449253","0.0-25.0-0.22","A586","false","img/card_backs/set1/green.gif","img/card_backs/set1/purple.gif","img/card_backs/set1/yellow.gif","img/card_backs/set1/red.gif","img/card_backs/set2/orange.gif","img/card_backs/set2/blue.gif","img/card_backs/set2/pink.gif","img/card_backs/set2/gray.gif","""event"",""trial"",""time""
""fullscreenenter"",""1"",""3554""
","
","
","""event"",""trial"",""time""
""fullscreenenter"",""1"",""3554""
","
","","null","","null","","fixation","2021-04-04 23:09:49.911","","","","","",""
"card-selection-trial","115","452402","0.0-25.0-1.22","A586","false","img/card_backs/set1/green.gif","img/card_backs/set1/purple.gif","img/card_backs/set1/yellow.gif","img/card_backs/set1/red.gif","img/card_backs/set2/orange.gif","img/card_backs/set2/blue.gif","img/card_backs/set2/pink.gif","img/card_backs/set2/gray.gif","""event"",""trial"",""time""
""fullscreenenter"",""1"",""3554""
","
","
","""event"",""trial"",""time""
""fullscreenenter"",""1"",""3554""
","
","","1138.645000057295","","","","real_trial","2021-04-04 23:09:53.060","img/card_backs/set1/yellow.gif","3","-60","1","",""
"casino-fixation","116","452912","0.0-25.0-0.23","A586","false","img/card_backs/set1/green.gif","img/card_backs/set1/purple.gif","img/card_backs/set1/yellow.gif","img/card_backs/set1/red.gif","img/card_backs/set2/orange.gif","img/card_backs/set2/blue.gif","img/card_backs/set2/pink.gif","img/card_backs/set2/gray.gif","""event"",""trial"",""time""
""fullscreenenter"",""1"",""3554""
","
","
","""event"",""trial"",""time""
""fullscreenenter"",""1"",""3554""
","
","","null","","null","","fixation","2021-04-04 23:09:53.570","","","","","",""
"card-selection-trial","117","457097","0.0-25.0-1.23","A586","false","img/card_backs/set1/green.gif","img/card_backs/set1/purple.gif","img/card_backs/set1/yellow.gif","img/card_backs/set1/red.gif","img/card_backs/set2/orange.gif","img/card_backs/set2/blue.gif","img/card_backs/set2/pink.gif","img/card_backs/set2/gray.gif","""event"",""trial"",""time""
""fullscreenenter"",""1"",""3554""
","
","
","""event"",""trial"",""time""
""fullscreenenter"",""1"",""3554""
","
","","2169.3949999753386","","","","real_trial","2021-04-04 23:09:57.755","img/card_backs/set1/red.gif","2","100","1","",""
"casino-fixation","118","457601","0.0-25.0-0.24","A586","false","img/card_backs/set1/green.gif","img/card_backs/set1/purple.gif","img/card_backs/set1/yellow.gif","img/card_backs/set1/red.gif","img/card_backs/set2/orange.gif","img/card_backs/set2/blue.gif","img/card_backs/set2/pink.gif","img/card_backs/set2/gray.gif","""event"",""trial"",""time""
""fullscreenenter"",""1"",""3554""
","
","
","""event"",""trial"",""time""
""fullscreenenter"",""1"",""3554""
","
","","null","","null","","fixation","2021-04-04 23:09:58.259","","","","","",""
"card-selection-trial","119","460903","0.0-25.0-1.24","A586","false","img/card_backs/set1/green.gif","img/card_backs/set1/purple.gif","img/card_backs/set1/yellow.gif","img/card_backs/set1/red.gif","img/card_backs/set2/orange.gif","img/card_backs/set2/blue.gif","img/card_backs/set2/pink.gif","img/card_backs/set2/gray.gif","""event"",""trial"",""time""
""fullscreenenter"",""1"",""3554""
","
","
","""event"",""trial"",""time""
""fullscreenenter"",""1"",""3554""
","
","","1289.5250001456589","","","","real_trial","2021-04-04 23:10:01.561","img/card_backs/set1/red.gif","1","100","1","",""
"casino-fixation","120","461410","0.0-25.0-0.25","A586","false","img/card_backs/set1/green.gif","img/card_backs/set1/purple.gif","img/card_backs/set1/yellow.gif","img/card_backs/set1/red.gif","img/card_backs/set2/orange.gif","img/card_backs/set2/blue.gif","img/card_backs/set2/pink.gif","img/card_backs/set2/gray.gif","""event"",""trial"",""time""
""fullscreenenter"",""1"",""3554""
","
","
","""event"",""trial"",""time""
""fullscreenenter"",""1"",""3554""
","
","","null","","null","","fixation","2021-04-04 23:10:02.068","","","","","",""
"card-selection-trial","121","463946","0.0-25.0-1.25","A586","false","img/card_backs/set1/green.gif","img/card_backs/set1/purple.gif","img/card_backs/set1/yellow.gif","img/card_backs/set1/red.gif","img/card_backs/set2/orange.gif","img/card_backs/set2/blue.gif","img/card_backs/set2/pink.gif","img/card_backs/set2/gray.gif","""event"",""trial"",""time""
""fullscreenenter"",""1"",""3554""
","
","
","""event"",""trial"",""time""
""fullscreenenter"",""1"",""3554""
","
","","524.6500000357628","","","","real_trial","2021-04-04 23:10:04.604","img/card_backs/set1/red.gif","3","110","1","",""
"casino-fixation","122","464453","0.0-25.0-0.26","A586","false","img/card_backs/set1/green.gif","img/card_backs/set1/purple.gif","img/card_backs/set1/yellow.gif","img/card_backs/set1/red.gif","img/card_backs/set2/orange.gif","img/card_backs/set2/blue.gif","img/card_backs/set2/pink.gif","img/card_backs/set2/gray.gif","""event"",""trial"",""time""
""fullscreenenter"",""1"",""3554""
","
","
","""event"",""trial"",""time""
""fullscreenenter"",""1"",""3554""
","
","","null","","null","","fixation","2021-04-04 23:10:05.112","","","","","",""
"card-selection-trial","123","466870","0.0-25.0-1.26","A586","false","img/card_backs/set1/green.gif","img/card_backs/set1/purple.gif","img/card_backs/set1/yellow.gif","img/card_backs/set1/red.gif","img/card_backs/set2/orange.gif","img/card_backs/set2/blue.gif","img/card_backs/set2/pink.gif","img/card_backs/set2/gray.gif","""event"",""trial"",""time""
""fullscreenenter"",""1"",""3554""
","
","
","""event"",""trial"",""time""
""fullscreenenter"",""1"",""3554""
","
","","404.6350000426173","","","","real_trial","2021-04-04 23:10:07.528","img/card_backs/set1/red.gif","1","100","1","",""
"casino-fixation","124","467375","0.0-25.0-0.27","A586","false","img/card_backs/set1/green.gif","img/card_backs/set1/purple.gif","img/card_backs/set1/yellow.gif","img/card_backs/set1/red.gif","img/card_backs/set2/orange.gif","img/card_backs/set2/blue.gif","img/card_backs/set2/pink.gif","img/card_backs/set2/gray.gif","""event"",""trial"",""time""
""fullscreenenter"",""1"",""3554""
","
","
","""event"",""trial"",""time""
""fullscreenenter"",""1"",""3554""
","
","","null","","null","","fixation","2021-04-04 23:10:08.034","","","","","",""
"card-selection-trial","125","469771","0.0-25.0-1.27","A586","false","img/card_backs/set1/green.gif","img/card_backs/set1/purple.gif","img/card_backs/set1/yellow.gif","img/card_backs/set1/red.gif","img/card_backs/set2/orange.gif","img/card_backs/set2/blue.gif","img/card_backs/set2/pink.gif","img/card_backs/set2/gray.gif","""event"",""trial"",""time""
""fullscreenenter"",""1"",""3554""
","
","
","""event"",""trial"",""time""
""fullscreenenter"",""1"",""3554""
","
","","383.93000001087785","","","","real_trial","2021-04-04 23:10:10.429","img/card_backs/set1/red.gif","1","110","1","",""
"casino-fixation","126","470276","0.0-25.0-0.28","A586","false","img/card_backs/set1/green.gif","img/card_backs/set1/purple.gif","img/card_backs/set1/yellow.gif","img/card_backs/set1/red.gif","img/card_backs/set2/orange.gif","img/card_backs/set2/blue.gif","img/card_backs/set2/pink.gif","img/card_backs/set2/gray.gif","""event"",""trial"",""time""
""fullscreenenter"",""1"",""3554""
","
","
","""event"",""trial"",""time""
""fullscreenenter"",""1"",""3554""
","
","","null","","null","","fixation","2021-04-04 23:10:10.934","","","","","",""
"card-selection-trial","127","472721","0.0-25.0-1.28","A586","false","img/card_backs/set1/green.gif","img/card_backs/set1/purple.gif","img/card_backs/set1/yellow.gif","img/card_backs/set1/red.gif","img/card_backs/set2/orange.gif","img/card_backs/set2/blue.gif","img/card_backs/set2/pink.gif","img/card_backs/set2/gray.gif","""event"",""trial"",""time""
""fullscreenenter"",""1"",""3554""
","
","
","""event"",""trial"",""time""
""fullscreenenter"",""1"",""3554""
","
","","433.7800000794232","","","","real_trial","2021-04-04 23:10:13.379","img/card_backs/set1/red.gif","1","120","1","",""
"casino-fixation","128","473227","0.0-25.0-0.29","A586","false","img/card_backs/set1/green.gif","img/card_backs/set1/purple.gif","img/card_backs/set1/yellow.gif","img/card_backs/set1/red.gif","img/card_backs/set2/orange.gif","img/card_backs/set2/blue.gif","img/card_backs/set2/pink.gif","img/card_backs/set2/gray.gif","""event"",""trial"",""time""
""fullscreenenter"",""1"",""3554""
","
","
","""event"",""trial"",""time""
""fullscreenenter"",""1"",""3554""
","
","","null","","null","","fixation","2021-04-04 23:10:13.885","","","","","",""
"card-selection-trial","129","475754","0.0-25.0-1.29","A586","false","img/card_backs/set1/green.gif","img/card_backs/set1/purple.gif","img/card_backs/set1/yellow.gif","img/card_backs/set1/red.gif","img/card_backs/set2/orange.gif","img/card_backs/set2/blue.gif","img/card_backs/set2/pink.gif","img/card_backs/set2/gray.gif","""event"",""trial"",""time""
""fullscreenenter"",""1"",""3554""
","
","
","""event"",""trial"",""time""
""fullscreenenter"",""1"",""3554""
","
","","516.4499999955297","","","","real_trial","2021-04-04 23:10:16.412","img/card_backs/set1/red.gif","2","-70","1","",""
"casino-fixation","130","476260","0.0-25.0-0.30","A586","false","img/card_backs/set1/green.gif","img/card_backs/set1/purple.gif","img/card_backs/set1/yellow.gif","img/card_backs/set1/red.gif","img/card_backs/set2/orange.gif","img/card_backs/set2/blue.gif","img/card_backs/set2/pink.gif","img/card_backs/set2/gray.gif","""event"",""trial"",""time""
""fullscreenenter"",""1"",""3554""
","
","
","""event"",""trial"",""time""
""fullscreenenter"",""1"",""3554""
","
","","null","","null","","fixation","2021-04-04 23:10:16.918","","","","","",""
"card-selection-trial","131","478756","0.0-25.0-1.30","A586","false","img/card_backs/set1/green.gif","img/card_backs/set1/purple.gif","img/card_backs/set1/yellow.gif","img/card_backs/set1/red.gif","img/card_backs/set2/orange.gif","img/card_backs/set2/blue.gif","img/card_backs/set2/pink.gif","img/card_backs/set2/gray.gif","""event"",""trial"",""time""
""fullscreenenter"",""1"",""3554""
","
","
","""event"",""trial"",""time""
""fullscreenenter"",""1"",""3554""
","
","","479.4850000180304","","","","real_trial","2021-04-04 23:10:19.414","img/card_backs/set1/red.gif","0","-60","1","",""
"casino-fixation","132","479272","0.0-25.0-0.31","A586","false","img/card_backs/set1/green.gif","img/card_backs/set1/purple.gif","img/card_backs/set1/yellow.gif","img/card_backs/set1/red.gif","img/card_backs/set2/orange.gif","img/card_backs/set2/blue.gif","img/card_backs/set2/pink.gif","img/card_backs/set2/gray.gif","""event"",""trial"",""time""
""fullscreenenter"",""1"",""3554""
","
","
","""event"",""trial"",""time""
""fullscreenenter"",""1"",""3554""
","
","","null","","null","","fixation","2021-04-04 23:10:19.930","","","","","",""
"card-selection-trial","133","481755","0.0-25.0-1.31","A586","false","img/card_backs/set1/green.gif","img/card_backs/set1/purple.gif","img/card_backs/set1/yellow.gif","img/card_backs/set1/red.gif","img/card_backs/set2/orange.gif","img/card_backs/set2/blue.gif","img/card_backs/set2/pink.gif","img/card_backs/set2/gray.gif","""event"",""trial"",""time""
""fullscreenenter"",""1"",""3554""
","
","
","""event"",""trial"",""time""
""fullscreenenter"",""1"",""3554""
","
","","465.74999997392297","","","","real_trial","2021-04-04 23:10:22.414","img/card_backs/set1/red.gif","2","110","1","",""
"casino-fixation","134","482262","0.0-25.0-0.32","A586","false","img/card_backs/set1/green.gif","img/card_backs/set1/purple.gif","img/card_backs/set1/yellow.gif","img/card_backs/set1/red.gif","img/card_backs/set2/orange.gif","img/card_backs/set2/blue.gif","img/card_backs/set2/pink.gif","img/card_backs/set2/gray.gif","""event"",""trial"",""time""
""fullscreenenter"",""1"",""3554""
","
","
","""event"",""trial"",""time""
""fullscreenenter"",""1"",""3554""
","
","","null","","null","","fixation","2021-04-04 23:10:22.920","","","","","",""
"card-selection-trial","135","484884","0.0-25.0-1.32","A586","false","img/card_backs/set1/green.gif","img/card_backs/set1/purple.gif","img/card_backs/set1/yellow.gif","img/card_backs/set1/red.gif","img/card_backs/set2/orange.gif","img/card_backs/set2/blue.gif","img/card_backs/set2/pink.gif","img/card_backs/set2/gray.gif","""event"",""trial"",""time""
""fullscreenenter"",""1"",""3554""
","
","
","""event"",""trial"",""time""
""fullscreenenter"",""1"",""3554""
","
","","609.3200000468642","","","","real_trial","2021-04-04 23:10:25.542","img/card_backs/set1/red.gif","1","100","1","",""
"casino-fixation","136","485392","0.0-25.0-0.33","A586","false","img/card_backs/set1/green.gif","img/card_backs/set1/purple.gif","img/card_backs/set1/yellow.gif","img/card_backs/set1/red.gif","img/card_backs/set2/orange.gif","img/card_backs/set2/blue.gif","img/card_backs/set2/pink.gif","img/card_backs/set2/gray.gif","""event"",""trial"",""time""
""fullscreenenter"",""1"",""3554""
","
","
","""event"",""trial"",""time""
""fullscreenenter"",""1"",""3554""
","
","","null","","null","","fixation","2021-04-04 23:10:26.050","","","","","",""
"card-selection-trial","137","487969","0.0-25.0-1.33","A586","false","img/card_backs/set1/green.gif","img/card_backs/set1/purple.gif","img/card_backs/set1/yellow.gif","img/card_backs/set1/red.gif","img/card_backs/set2/orange.gif","img/card_backs/set2/blue.gif","img/card_backs/set2/pink.gif","img/card_backs/set2/gray.gif","""event"",""trial"",""time""
""fullscreenenter"",""1"",""3554""
","
","
","""event"",""trial"",""time""
""fullscreenenter"",""1"",""3554""
","
","","559.0949999168515","","","","real_trial","2021-04-04 23:10:28.627","img/card_backs/set1/red.gif","2","-70","1","",""
"casino-fixation","138","488476","0.0-25.0-0.34","A586","false","img/card_backs/set1/green.gif","img/card_backs/set1/purple.gif","img/card_backs/set1/yellow.gif","img/card_backs/set1/red.gif","img/card_backs/set2/orange.gif","img/card_backs/set2/blue.gif","img/card_backs/set2/pink.gif","img/card_backs/set2/gray.gif","""event"",""trial"",""time""
""fullscreenenter"",""1"",""3554""
","
","
","""event"",""trial"",""time""
""fullscreenenter"",""1"",""3554""
","
","","null","","null","","fixation","2021-04-04 23:10:29.134","","","","","",""
"card-selection-trial","139","490973","0.0-25.0-1.34","A586","false","img/card_backs/set1/green.gif","img/card_backs/set1/purple.gif","img/card_backs/set1/yellow.gif","img/card_backs/set1/red.gif","img/card_backs/set2/orange.gif","img/card_backs/set2/blue.gif","img/card_backs/set2/pink.gif","img/card_backs/set2/gray.gif","""event"",""trial"",""time""
""fullscreenenter"",""1"",""3554""
","
","
","""event"",""trial"",""time""
""fullscreenenter"",""1"",""3554""
","
","","481.0199998319149","","","","real_trial","2021-04-04 23:10:31.631","img/card_backs/set1/red.gif","0","110","1","",""
"casino-fixation","140","491479","0.0-25.0-0.35","A586","false","img/card_backs/set1/green.gif","img/card_backs/set1/purple.gif","img/card_backs/set1/yellow.gif","img/card_backs/set1/red.gif","img/card_backs/set2/orange.gif","img/card_backs/set2/blue.gif","img/card_backs/set2/pink.gif","img/card_backs/set2/gray.gif","""event"",""trial"",""time""
""fullscreenenter"",""1"",""3554""
","
","
","""event"",""trial"",""time""
""fullscreenenter"",""1"",""3554""
","
","","null","","null","","fixation","2021-04-04 23:10:32.137","","","","","",""
"card-selection-trial","141","493938","0.0-25.0-1.35","A586","false","img/card_backs/set1/green.gif","img/card_backs/set1/purple.gif","img/card_backs/set1/yellow.gif","img/card_backs/set1/red.gif","img/card_backs/set2/orange.gif","img/card_backs/set2/blue.gif","img/card_backs/set2/pink.gif","img/card_backs/set2/gray.gif","""event"",""trial"",""time""
""fullscreenenter"",""1"",""3554""
","
","
","""event"",""trial"",""time""
""fullscreenenter"",""1"",""3554""
","
","","446.43000001087785","","","","real_trial","2021-04-04 23:10:34.596","img/card_backs/set1/red.gif","2","-60","1","",""
"casino-fixation","142","494442","0.0-25.0-0.36","A586","false","img/card_backs/set1/green.gif","img/card_backs/set1/purple.gif","img/card_backs/set1/yellow.gif","img/card_backs/set1/red.gif","img/card_backs/set2/orange.gif","img/card_backs/set2/blue.gif","img/card_backs/set2/pink.gif","img/card_backs/set2/gray.gif","""event"",""trial"",""time""
""fullscreenenter"",""1"",""3554""
","
","
","""event"",""trial"",""time""
""fullscreenenter"",""1"",""3554""
","
","","null","","null","","fixation","2021-04-04 23:10:35.101","","","","","",""
"card-selection-trial","143","496905","0.0-25.0-1.36","A586","false","img/card_backs/set1/green.gif","img/card_backs/set1/purple.gif","img/card_backs/set1/yellow.gif","img/card_backs/set1/red.gif","img/card_backs/set2/orange.gif","img/card_backs/set2/blue.gif","img/card_backs/set2/pink.gif","img/card_backs/set2/gray.gif","""event"",""trial"",""time""
""fullscreenenter"",""1"",""3554""
","
","
","""event"",""trial"",""time""
""fullscreenenter"",""1"",""3554""
","
","","453.0849999282509","","","","real_trial","2021-04-04 23:10:37.563","img/card_backs/set1/red.gif","2","-70","1","",""
"casino-fixation","144","497411","0.0-25.0-0.37","A586","false","img/card_backs/set1/green.gif","img/card_backs/set1/purple.gif","img/card_backs/set1/yellow.gif","img/card_backs/set1/red.gif","img/card_backs/set2/orange.gif","img/card_backs/set2/blue.gif","img/card_backs/set2/pink.gif","img/card_backs/set2/gray.gif","""event"",""trial"",""time""
""fullscreenenter"",""1"",""3554""
","
","
","""event"",""trial"",""time""
""fullscreenenter"",""1"",""3554""
","
","","null","","null","","fixation","2021-04-04 23:10:38.069","","","","","",""
"card-selection-trial","145","499887","0.0-25.0-1.37","A586","false","img/card_backs/set1/green.gif","img/card_backs/set1/purple.gif","img/card_backs/set1/yellow.gif","img/card_backs/set1/red.gif","img/card_backs/set2/orange.gif","img/card_backs/set2/blue.gif","img/card_backs/set2/pink.gif","img/card_backs/set2/gray.gif","""event"",""trial"",""time""
""fullscreenenter"",""1"",""3554""
","
","
","""event"",""trial"",""time""
""fullscreenenter"",""1"",""3554""
","
","","466.5749999694526","","","","real_trial","2021-04-04 23:10:40.545","img/card_backs/set1/red.gif","1","120","1","",""
"casino-fixation","146","500394","0.0-25.0-0.38","A586","false","img/card_backs/set1/green.gif","img/card_backs/set1/purple.gif","img/card_backs/set1/yellow.gif","img/card_backs/set1/red.gif","img/card_backs/set2/orange.gif","img/card_backs/set2/blue.gif","img/card_backs/set2/pink.gif","img/card_backs/set2/gray.gif","""event"",""trial"",""time""
""fullscreenenter"",""1"",""3554""
","
","
","""event"",""trial"",""time""
""fullscreenenter"",""1"",""3554""
","
","","null","","null","","fixation","2021-04-04 23:10:41.052","","","","","",""
"card-selection-trial","147","502911","0.0-25.0-1.38","A586","false","img/card_backs/set1/green.gif","img/card_backs/set1/purple.gif","img/card_backs/set1/yellow.gif","img/card_backs/set1/red.gif","img/card_backs/set2/orange.gif","img/card_backs/set2/blue.gif","img/card_backs/set2/pink.gif","img/card_backs/set2/gray.gif","""event"",""trial"",""time""
""fullscreenenter"",""1"",""3554""
","
","
","""event"",""trial"",""time""
""fullscreenenter"",""1"",""3554""
","
","","499.4350001215935","","","","real_trial","2021-04-04 23:10:43.570","img/card_backs/set1/red.gif","0","-50","1","",""
"casino-fixation","148","503419","0.0-25.0-0.39","A586","false","img/card_backs/set1/green.gif","img/card_backs/set1/purple.gif","img/card_backs/set1/yellow.gif","img/card_backs/set1/red.gif","img/card_backs/set2/orange.gif","img/card_backs/set2/blue.gif","img/card_backs/set2/pink.gif","img/card_backs/set2/gray.gif","""event"",""trial"",""time""
""fullscreenenter"",""1"",""3554""
","
","
","""event"",""trial"",""time""
""fullscreenenter"",""1"",""3554""
","
","","null","","null","","fixation","2021-04-04 23:10:44.077","","","","","",""
"card-selection-trial","149","505905","0.0-25.0-1.39","A586","false","img/card_backs/set1/green.gif","img/card_backs/set1/purple.gif","img/card_backs/set1/yellow.gif","img/card_backs/set1/red.gif","img/card_backs/set2/orange.gif","img/card_backs/set2/blue.gif","img/card_backs/set2/pink.gif","img/card_backs/set2/gray.gif","""event"",""trial"",""time""
""fullscreenenter"",""1"",""3554""
","
","
","""event"",""trial"",""time""
""fullscreenenter"",""1"",""3554""
","
","","468.2400000747293","","","","real_trial","2021-04-04 23:10:46.563","img/card_backs/set1/red.gif","2","110","1","",""
"casino-fixation","150","506416","0.0-25.0-0.40","A586","false","img/card_backs/set1/green.gif","img/card_backs/set1/purple.gif","img/card_backs/set1/yellow.gif","img/card_backs/set1/red.gif","img/card_backs/set2/orange.gif","img/card_backs/set2/blue.gif","img/card_backs/set2/pink.gif","img/card_backs/set2/gray.gif","""event"",""trial"",""time""
""fullscreenenter"",""1"",""3554""
","
","
","""event"",""trial"",""time""
""fullscreenenter"",""1"",""3554""
","
","","null","","null","","fixation","2021-04-04 23:10:47.075","","","","","",""
"card-selection-trial","151","508837","0.0-25.0-1.40","A586","false","img/card_backs/set1/green.gif","img/card_backs/set1/purple.gif","img/card_backs/set1/yellow.gif","img/card_backs/set1/red.gif","img/card_backs/set2/orange.gif","img/card_backs/set2/blue.gif","img/card_backs/set2/pink.gif","img/card_backs/set2/gray.gif","""event"",""trial"",""time""
""fullscreenenter"",""1"",""3554""
","
","
","""event"",""trial"",""time""
""fullscreenenter"",""1"",""3554""
","
","","398.03000004030764","","","","real_trial","2021-04-04 23:10:49.496","img/card_backs/set1/red.gif","2","-50","1","",""
"casino-fixation","152","509345","0.0-25.0-0.41","A586","false","img/card_backs/set1/green.gif","img/card_backs/set1/purple.gif","img/card_backs/set1/yellow.gif","img/card_backs/set1/red.gif","img/card_backs/set2/orange.gif","img/card_backs/set2/blue.gif","img/card_backs/set2/pink.gif","img/card_backs/set2/gray.gif","""event"",""trial"",""time""
""fullscreenenter"",""1"",""3554""
","
","
","""event"",""trial"",""time""
""fullscreenenter"",""1"",""3554""
","
","","null","","null","","fixation","2021-04-04 23:10:50.003","","","","","",""
"card-selection-trial","153","511911","0.0-25.0-1.41","A586","false","img/card_backs/set1/green.gif","img/card_backs/set1/purple.gif","img/card_backs/set1/yellow.gif","img/card_backs/set1/red.gif","img/card_backs/set2/orange.gif","img/card_backs/set2/blue.gif","img/card_backs/set2/pink.gif","img/card_backs/set2/gray.gif","""event"",""trial"",""time""
""fullscreenenter"",""1"",""3554""
","
","
","""event"",""trial"",""time""
""fullscreenenter"",""1"",""3554""
","
","","546.4600000996143","","","","real_trial","2021-04-04 23:10:52.569","img/card_backs/set1/red.gif","1","-70","1","",""
"casino-fixation","154","512416","0.0-25.0-0.42","A586","false","img/card_backs/set1/green.gif","img/card_backs/set1/purple.gif","img/card_backs/set1/yellow.gif","img/card_backs/set1/red.gif","img/card_backs/set2/orange.gif","img/card_backs/set2/blue.gif","img/card_backs/set2/pink.gif","img/card_backs/set2/gray.gif","""event"",""trial"",""time""
""fullscreenenter"",""1"",""3554""
","
","
","""event"",""trial"",""time""
""fullscreenenter"",""1"",""3554""
","
","","null","","null","","fixation","2021-04-04 23:10:53.074","","","","","",""
"card-selection-trial","155","514881","0.0-25.0-1.42","A586","false","img/card_backs/set1/green.gif","img/card_backs/set1/purple.gif","img/card_backs/set1/yellow.gif","img/card_backs/set1/red.gif","img/card_backs/set2/orange.gif","img/card_backs/set2/blue.gif","img/card_backs/set2/pink.gif","img/card_backs/set2/gray.gif","""event"",""trial"",""time""
""fullscreenenter"",""1"",""3554""
","
","
","""event"",""trial"",""time""
""fullscreenenter"",""1"",""3554""
","
","","445.8599998615682","","","","real_trial","2021-04-04 23:10:55.539","img/card_backs/set1/red.gif","2","110","1","",""
"casino-fixation","156","515386","0.0-25.0-0.43","A586","false","img/card_backs/set1/green.gif","img/card_backs/set1/purple.gif","img/card_backs/set1/yellow.gif","img/card_backs/set1/red.gif","img/card_backs/set2/orange.gif","img/card_backs/set2/blue.gif","img/card_backs/set2/pink.gif","img/card_backs/set2/gray.gif","""event"",""trial"",""time""
""fullscreenenter"",""1"",""3554""
","
","
","""event"",""trial"",""time""
""fullscreenenter"",""1"",""3554""
","
","","null","","null","","fixation","2021-04-04 23:10:56.044","","","","","",""
"card-selection-trial","157","517851","0.0-25.0-1.43","A586","false","img/card_backs/set1/green.gif","img/card_backs/set1/purple.gif","img/card_backs/set1/yellow.gif","img/card_backs/set1/red.gif","img/card_backs/set2/orange.gif","img/card_backs/set2/blue.gif","img/card_backs/set2/pink.gif","img/card_backs/set2/gray.gif","""event"",""trial"",""time""
""fullscreenenter"",""1"",""3554""
","
","
","""event"",""trial"",""time""
""fullscreenenter"",""1"",""3554""
","
","","448.9200001116842","","","","real_trial","2021-04-04 23:10:58.510","img/card_backs/set1/red.gif","0","-60","1","",""
"casino-fixation","158","518364","0.0-25.0-0.44","A586","false","img/card_backs/set1/green.gif","img/card_backs/set1/purple.gif","img/card_backs/set1/yellow.gif","img/card_backs/set1/red.gif","img/card_backs/set2/orange.gif","img/card_backs/set2/blue.gif","img/card_backs/set2/pink.gif","img/card_backs/set2/gray.gif","""event"",""trial"",""time""
""fullscreenenter"",""1"",""3554""
","
","
","""event"",""trial"",""time""
""fullscreenenter"",""1"",""3554""
","
","","null","","null","","fixation","2021-04-04 23:10:59.022","","","","","",""
"card-selection-trial","159","521076","0.0-25.0-1.44","A586","false","img/card_backs/set1/green.gif","img/card_backs/set1/purple.gif","img/card_backs/set1/yellow.gif","img/card_backs/set1/red.gif","img/card_backs/set2/orange.gif","img/card_backs/set2/blue.gif","img/card_backs/set2/pink.gif","img/card_backs/set2/gray.gif","""event"",""trial"",""time""
""fullscreenenter"",""1"",""3554""
","
","
","""event"",""trial"",""time""
""fullscreenenter"",""1"",""3554""
","
","","700.5849999841303","","","","real_trial","2021-04-04 23:11:01.734","img/card_backs/set1/red.gif","1","-70","1","",""
"casino-fixation","160","521585","0.0-25.0-0.45","A586","false","img/card_backs/set1/green.gif","img/card_backs/set1/purple.gif","img/card_backs/set1/yellow.gif","img/card_backs/set1/red.gif","img/card_backs/set2/orange.gif","img/card_backs/set2/blue.gif","img/card_backs/set2/pink.gif","img/card_backs/set2/gray.gif","""event"",""trial"",""time""
""fullscreenenter"",""1"",""3554""
","
","
","""event"",""trial"",""time""
""fullscreenenter"",""1"",""3554""
","
","","null","","null","","fixation","2021-04-04 23:11:02.243","","","","","",""
"card-selection-trial","161","524563","0.0-25.0-1.45","A586","false","img/card_backs/set1/green.gif","img/card_backs/set1/purple.gif","img/card_backs/set1/yellow.gif","img/card_backs/set1/red.gif","img/card_backs/set2/orange.gif","img/card_backs/set2/blue.gif","img/card_backs/set2/pink.gif","img/card_backs/set2/gray.gif","""event"",""trial"",""time""
""fullscreenenter"",""1"",""3554""
","
","
","""event"",""trial"",""time""
""fullscreenenter"",""1"",""3554""
","
","","956.4699998591095","","","","real_trial","2021-04-04 23:11:05.222","img/card_backs/set1/yellow.gif","2","-60","1","",""
"casino-fixation","162","525073","0.0-25.0-0.46","A586","false","img/card_backs/set1/green.gif","img/card_backs/set1/purple.gif","img/card_backs/set1/yellow.gif","img/card_backs/set1/red.gif","img/card_backs/set2/orange.gif","img/card_backs/set2/blue.gif","img/card_backs/set2/pink.gif","img/card_backs/set2/gray.gif","""event"",""trial"",""time""
""fullscreenenter"",""1"",""3554""
","
","
","""event"",""trial"",""time""
""fullscreenenter"",""1"",""3554""
","
","","null","","null","","fixation","2021-04-04 23:11:05.731","","","","","",""
"card-selection-trial","163","531532","0.0-25.0-1.46","A586","false","img/card_backs/set1/green.gif","img/card_backs/set1/purple.gif","img/card_backs/set1/yellow.gif","img/card_backs/set1/red.gif","img/card_backs/set2/orange.gif","img/card_backs/set2/blue.gif","img/card_backs/set2/pink.gif","img/card_backs/set2/gray.gif","""event"",""trial"",""time""
""fullscreenenter"",""1"",""3554""
","
","
","""event"",""trial"",""time""
""fullscreenenter"",""1"",""3554""
","
","","4442.100000102073","","","","real_trial","2021-04-04 23:11:12.190","img/card_backs/set1/green.gif","1","-230","1","",""
"casino-fixation","164","532036","0.0-25.0-0.47","A586","false","img/card_backs/set1/green.gif","img/card_backs/set1/purple.gif","img/card_backs/set1/yellow.gif","img/card_backs/set1/red.gif","img/card_backs/set2/orange.gif","img/card_backs/set2/blue.gif","img/card_backs/set2/pink.gif","img/card_backs/set2/gray.gif","""event"",""trial"",""time""
""fullscreenenter"",""1"",""3554""
","
","
","""event"",""trial"",""time""
""fullscreenenter"",""1"",""3554""
","
","","null","","null","","fixation","2021-04-04 23:11:12.694","","","","","",""
"card-selection-trial","165","534405","0.0-25.0-1.47","A586","false","img/card_backs/set1/green.gif","img/card_backs/set1/purple.gif","img/card_backs/set1/yellow.gif","img/card_backs/set1/red.gif","img/card_backs/set2/orange.gif","img/card_backs/set2/blue.gif","img/card_backs/set2/pink.gif","img/card_backs/set2/gray.gif","""event"",""trial"",""time""
""fullscreenenter"",""1"",""3554""
","
","
","""event"",""trial"",""time""
""fullscreenenter"",""1"",""3554""
","
","","352.1099998615682","","","","real_trial","2021-04-04 23:11:15.063","img/card_backs/set1/green.gif","2","180","1","",""
"casino-fixation","166","534911","0.0-25.0-0.48","A586","false","img/card_backs/set1/green.gif","img/card_backs/set1/purple.gif","img/card_backs/set1/yellow.gif","img/card_backs/set1/red.gif","img/card_backs/set2/orange.gif","img/card_backs/set2/blue.gif","img/card_backs/set2/pink.gif","img/card_backs/set2/gray.gif","""event"",""trial"",""time""
""fullscreenenter"",""1"",""3554""
","
","
","""event"",""trial"",""time""
""fullscreenenter"",""1"",""3554""
","
","","null","","null","","fixation","2021-04-04 23:11:15.569","","","","","",""
