"trial_type","trial_index","time_elapsed","internal_node_id","sub_id","risk_good_first","block1_A","block1_B","block1_C","block1_D","block2_A","block2_B","block2_C","block2_D","interactions","blur_events","focus_events","fullscreenenter_events","fullscreenexit_events","success","rt","stimulus","key_press","button_pressed","task_part","timestamp","card_choice","choice_position","points_earned","block","correct","response"
"pavlovia","0","6","0.0-0.0","216","true","img/card_backs/set1/green.gif","img/card_backs/set1/red.gif","img/card_backs/set1/yellow.gif","img/card_backs/set1/purple.gif","img/card_backs/set2/gray.gif","img/card_backs/set2/pink.gif","img/card_backs/set2/orange.gif","img/card_backs/set2/blue.gif","""event"",""trial"",""time""
""fullscreenenter"",""1"",""4597""
","
","
","""event"",""trial"",""time""
""fullscreenenter"",""1"",""4597""
","
","","","","","","","","","","","","",""
"fullscreen","1","5579","0.0-1.0","216","true","img/card_backs/set1/green.gif","img/card_backs/set1/red.gif","img/card_backs/set1/yellow.gif","img/card_backs/set1/purple.gif","img/card_backs/set2/gray.gif","img/card_backs/set2/pink.gif","img/card_backs/set2/orange.gif","img/card_backs/set2/blue.gif","""event"",""trial"",""time""
""fullscreenenter"",""1"",""4597""
","
","
","""event"",""trial"",""time""
""fullscreenenter"",""1"",""4597""
","
","true","","","","","","","","","","","",""
"audio-keyboard-response","2","8426","0.0-2.0","216","true","img/card_backs/set1/green.gif","img/card_backs/set1/red.gif","img/card_backs/set1/yellow.gif","img/card_backs/set1/purple.gif","img/card_backs/set2/gray.gif","img/card_backs/set2/pink.gif","img/card_backs/set2/orange.gif","img/card_backs/set2/blue.gif","""event"",""trial"",""time""
""fullscreenenter"",""1"",""4597""
","
","
","""event"",""trial"",""time""
""fullscreenenter"",""1"",""4597""
","
","","2741","audio/beep_loop.wav","32","","","","","","","","",""
"audio-button-response","3","10413","0.0-3.0","216","true","img/card_backs/set1/green.gif","img/card_backs/set1/red.gif","img/card_backs/set1/yellow.gif","img/card_backs/set1/purple.gif","img/card_backs/set2/gray.gif","img/card_backs/set2/pink.gif","img/card_backs/set2/orange.gif","img/card_backs/set2/blue.gif","""event"",""trial"",""time""
""fullscreenenter"",""1"",""4597""
","
","
","""event"",""trial"",""time""
""fullscreenenter"",""1"",""4597""
","
","","NaN","audio/turtle.mp3","","3","","","","","","","",""
"audio-button-response","4","12740","0.0-4.0","216","true","img/card_backs/set1/green.gif","img/card_backs/set1/red.gif","img/card_backs/set1/yellow.gif","img/card_backs/set1/purple.gif","img/card_backs/set2/gray.gif","img/card_backs/set2/pink.gif","img/card_backs/set2/orange.gif","img/card_backs/set2/blue.gif","""event"",""trial"",""time""
""fullscreenenter"",""1"",""4597""
","
","
","""event"",""trial"",""time""
""fullscreenenter"",""1"",""4597""
","
","","NaN","audio/shark.mp3","","2","","","","","","","",""
"fullscreen","5","16587","0.0-5.0","216","true","img/card_backs/set1/green.gif","img/card_backs/set1/red.gif","img/card_backs/set1/yellow.gif","img/card_backs/set1/purple.gif","img/card_backs/set2/gray.gif","img/card_backs/set2/pink.gif","img/card_backs/set2/orange.gif","img/card_backs/set2/blue.gif","""event"",""trial"",""time""
""fullscreenenter"",""1"",""4597""
","
","
","""event"",""trial"",""time""
""fullscreenenter"",""1"",""4597""
","
","true","","","","","","","","","","","",""
"casino-keyboard-response","6","23171","0.0-6.0-0.0","216","true","img/card_backs/set1/green.gif","img/card_backs/set1/red.gif","img/card_backs/set1/yellow.gif","img/card_backs/set1/purple.gif","img/card_backs/set2/gray.gif","img/card_backs/set2/pink.gif","img/card_backs/set2/orange.gif","img/card_backs/set2/blue.gif","""event"",""trial"",""time""
""fullscreenenter"",""1"",""4597""
","
","
","""event"",""trial"",""time""
""fullscreenenter"",""1"",""4597""
","
","","6576.449999993201","Welcome to the casino!","71","","instructions","2021-03-30 22:48:10.644","","","","","",""
"casino-keyboard-response","7","33069","0.0-6.0-0.1","216","true","img/card_backs/set1/green.gif","img/card_backs/set1/red.gif","img/card_backs/set1/yellow.gif","img/card_backs/set1/purple.gif","img/card_backs/set2/gray.gif","img/card_backs/set2/pink.gif","img/card_backs/set2/orange.gif","img/card_backs/set2/blue.gif","""event"",""trial"",""time""
""fullscreenenter"",""1"",""4597""
","
","
","""event"",""trial"",""time""
""fullscreenenter"",""1"",""4597""
","
","","9894.195000000764","Today you will be playing a game to earn tokens. </br> At the end of the experiment, you will be paid a bonus based on how many tokens you win. ","69","","instructions","2021-03-30 22:48:20.543","","","","","",""
"casino-keyboard-response","8","40788","0.0-6.0-0.2","216","true","img/card_backs/set1/green.gif","img/card_backs/set1/red.gif","img/card_backs/set1/yellow.gif","img/card_backs/set1/purple.gif","img/card_backs/set2/gray.gif","img/card_backs/set2/pink.gif","img/card_backs/set2/orange.gif","img/card_backs/set2/blue.gif","""event"",""trial"",""time""
""fullscreenenter"",""1"",""4597""
","
","
","""event"",""trial"",""time""
""fullscreenenter"",""1"",""4597""
","
","","7714.334999996936","On every turn, you will be shown four different decks of cards. </br> You need to select a card from one of the four decks.  ","75","","instructions","2021-03-30 22:48:28.261","","","","","",""
"casino-keyboard-response","9","45699","0.0-6.0-0.3","216","true","img/card_backs/set1/green.gif","img/card_backs/set1/red.gif","img/card_backs/set1/yellow.gif","img/card_backs/set1/purple.gif","img/card_backs/set2/gray.gif","img/card_backs/set2/pink.gif","img/card_backs/set2/orange.gif","img/card_backs/set2/blue.gif","""event"",""trial"",""time""
""fullscreenenter"",""1"",""4597""
","
","
","""event"",""trial"",""time""
""fullscreenenter"",""1"",""4597""
","
","","4906.575000000885","On the next screen, you will see what the decks will look like. ","66","","instructions","2021-03-30 22:48:33.172","","","","","",""
"card-selection-trial","10","49707","0.0-7.0-0.0","216","true","img/card_backs/set1/green.gif","img/card_backs/set1/red.gif","img/card_backs/set1/yellow.gif","img/card_backs/set1/purple.gif","img/card_backs/set2/gray.gif","img/card_backs/set2/pink.gif","img/card_backs/set2/orange.gif","img/card_backs/set2/blue.gif","""event"",""trial"",""time""
""fullscreenenter"",""1"",""4597""
","
","
","""event"",""trial"",""time""
""fullscreenenter"",""1"",""4597""
","
","","null","","","","practice","2021-03-30 22:48:37.180","null","null","null","0","",""
"casino-keyboard-response","11","57772","0.0-8.0-0.0","216","true","img/card_backs/set1/green.gif","img/card_backs/set1/red.gif","img/card_backs/set1/yellow.gif","img/card_backs/set1/purple.gif","img/card_backs/set2/gray.gif","img/card_backs/set2/pink.gif","img/card_backs/set2/orange.gif","img/card_backs/set2/blue.gif","""event"",""trial"",""time""
""fullscreenenter"",""1"",""4597""
","
","
","""event"",""trial"",""time""
""fullscreenenter"",""1"",""4597""
","
","","8061.119999998482","You should pick a card from a deck using the '2', '4', '6', and '8' keys at the top of the keyboard.","85","","instructions","2021-03-30 22:48:45.245","","","","","",""
"casino-keyboard-response","12","63334","0.0-8.0-0.1","216","true","img/card_backs/set1/green.gif","img/card_backs/set1/red.gif","img/card_backs/set1/yellow.gif","img/card_backs/set1/purple.gif","img/card_backs/set2/gray.gif","img/card_backs/set2/pink.gif","img/card_backs/set2/orange.gif","img/card_backs/set2/blue.gif","""event"",""trial"",""time""
""fullscreenenter"",""1"",""4597""
","
","
","""event"",""trial"",""time""
""fullscreenenter"",""1"",""4597""
","
","","5558.9900000195485","Once you select a card, it will turn over and you will see how many tokens you earned.","83","","instructions","2021-03-30 22:48:50.807","","","","","",""
"casino-keyboard-response","13","96387","0.0-8.0-0.2","216","true","img/card_backs/set1/green.gif","img/card_backs/set1/red.gif","img/card_backs/set1/yellow.gif","img/card_backs/set1/purple.gif","img/card_backs/set2/gray.gif","img/card_backs/set2/pink.gif","img/card_backs/set2/orange.gif","img/card_backs/set2/blue.gif","""event"",""trial"",""time""
""fullscreenenter"",""1"",""4597""
","
","
","""event"",""trial"",""time""
""fullscreenenter"",""1"",""4597""
","
","","33050.13499999768","Let's try practicing that! </br> First, try to put your fingers over the '2', '4', '6', and '8' keys. </br>  You can use whatever fingers are most comfortable for you. Try to find a comfortable position now. ","50","","instructions","2021-03-30 22:49:23.860","","","","","",""
"casino-keyboard-response","14","101472","0.0-8.0-0.3","216","true","img/card_backs/set1/green.gif","img/card_backs/set1/red.gif","img/card_backs/set1/yellow.gif","img/card_backs/set1/purple.gif","img/card_backs/set2/gray.gif","img/card_backs/set2/pink.gif","img/card_backs/set2/orange.gif","img/card_backs/set2/blue.gif","""event"",""trial"",""time""
""fullscreenenter"",""1"",""4597""
","
","
","""event"",""trial"",""time""
""fullscreenenter"",""1"",""4597""
","
","","5080.935000005411","Okay ready? </br> On the next screen, press '2' to select the left deck. ","50","","instructions","2021-03-30 22:49:28.945","","","","","",""
"card-selection-trial","15","104584","0.0-9.0-0.0","216","true","img/card_backs/set1/green.gif","img/card_backs/set1/red.gif","img/card_backs/set1/yellow.gif","img/card_backs/set1/purple.gif","img/card_backs/set2/gray.gif","img/card_backs/set2/pink.gif","img/card_backs/set2/orange.gif","img/card_backs/set2/blue.gif","""event"",""trial"",""time""
""fullscreenenter"",""1"",""4597""
","
","
","""event"",""trial"",""time""
""fullscreenenter"",""1"",""4597""
","
","","1102.2900000098161","","","","practice_card_selection","2021-03-30 22:49:32.058","img/practice_cards/backs/black.gif","0","-100","","",""
"casino-keyboard-response","16","110350","0.0-10.0-0.0","216","true","img/card_backs/set1/green.gif","img/card_backs/set1/red.gif","img/card_backs/set1/yellow.gif","img/card_backs/set1/purple.gif","img/card_backs/set2/gray.gif","img/card_backs/set2/pink.gif","img/card_backs/set2/orange.gif","img/card_backs/set2/blue.gif","""event"",""trial"",""time""
""fullscreenenter"",""1"",""4597""
","
","
","""event"",""trial"",""time""
""fullscreenenter"",""1"",""4597""
","
","","5761.585000000196","Great! Now on the next screen, try pressing '6' to select the third deck.","54","","instructions","2021-03-30 22:49:37.823","","","","","",""
"card-selection-trial","17","113027","0.0-11.0-0.0","216","true","img/card_backs/set1/green.gif","img/card_backs/set1/red.gif","img/card_backs/set1/yellow.gif","img/card_backs/set1/purple.gif","img/card_backs/set2/gray.gif","img/card_backs/set2/pink.gif","img/card_backs/set2/orange.gif","img/card_backs/set2/blue.gif","""event"",""trial"",""time""
""fullscreenenter"",""1"",""4597""
","
","
","""event"",""trial"",""time""
""fullscreenenter"",""1"",""4597""
","
","","666.495000012219","","","","practice_card_selection","2021-03-30 22:49:40.500","img/practice_cards/backs/dark_green.gif","2","-200","","",""
"casino-keyboard-response","18","117463","0.0-12.0-0.0","216","true","img/card_backs/set1/green.gif","img/card_backs/set1/red.gif","img/card_backs/set1/yellow.gif","img/card_backs/set1/purple.gif","img/card_backs/set2/gray.gif","img/card_backs/set2/pink.gif","img/card_backs/set2/orange.gif","img/card_backs/set2/blue.gif","""event"",""trial"",""time""
""fullscreenenter"",""1"",""4597""
","
","
","""event"",""trial"",""time""
""fullscreenenter"",""1"",""4597""
","
","","4432.070000009844","Now on the next screen, try pressing '4' to select the second deck.","52","","instructions","2021-03-30 22:49:44.936","","","","","",""
"card-selection-trial","19","119906","0.0-13.0-0.0","216","true","img/card_backs/set1/green.gif","img/card_backs/set1/red.gif","img/card_backs/set1/yellow.gif","img/card_backs/set1/purple.gif","img/card_backs/set2/gray.gif","img/card_backs/set2/pink.gif","img/card_backs/set2/orange.gif","img/card_backs/set2/blue.gif","""event"",""trial"",""time""
""fullscreenenter"",""1"",""4597""
","
","
","""event"",""trial"",""time""
""fullscreenenter"",""1"",""4597""
","
","","431.4449999947101","","","","practice_card_selection","2021-03-30 22:49:47.380","img/practice_cards/backs/dark_blue.gif","1","-200","","",""
"casino-keyboard-response","20","126157","0.0-14.0-0.0","216","true","img/card_backs/set1/green.gif","img/card_backs/set1/red.gif","img/card_backs/set1/yellow.gif","img/card_backs/set1/purple.gif","img/card_backs/set2/gray.gif","img/card_backs/set2/pink.gif","img/card_backs/set2/orange.gif","img/card_backs/set2/blue.gif","""event"",""trial"",""time""
""fullscreenenter"",""1"",""4597""
","
","
","""event"",""trial"",""time""
""fullscreenenter"",""1"",""4597""
","
","","6247.8700000210665","Finally, try pressing '8' to select the deck all the way on the right.","56","","instructions","2021-03-30 22:49:53.630","","","","","",""
"card-selection-trial","21","129205","0.0-15.0-0.0","216","true","img/card_backs/set1/green.gif","img/card_backs/set1/red.gif","img/card_backs/set1/yellow.gif","img/card_backs/set1/purple.gif","img/card_backs/set2/gray.gif","img/card_backs/set2/pink.gif","img/card_backs/set2/orange.gif","img/card_backs/set2/blue.gif","""event"",""trial"",""time""
""fullscreenenter"",""1"",""4597""
","
","
","""event"",""trial"",""time""
""fullscreenenter"",""1"",""4597""
","
","","1036.5750000055414","","","","practice_card_selection","2021-03-30 22:49:56.679","img/practice_cards/backs/black.gif","3","100","","",""
"casino-keyboard-response","22","134819","0.0-16.0-0.0","216","true","img/card_backs/set1/green.gif","img/card_backs/set1/red.gif","img/card_backs/set1/yellow.gif","img/card_backs/set1/purple.gif","img/card_backs/set2/gray.gif","img/card_backs/set2/pink.gif","img/card_backs/set2/orange.gif","img/card_backs/set2/blue.gif","""event"",""trial"",""time""
""fullscreenenter"",""1"",""4597""
","
","
","""event"",""trial"",""time""
""fullscreenenter"",""1"",""4597""
","
","","5609.560000011697","Great! It seems like you are getting the hang of this.","80","","instructions","2021-03-30 22:50:02.292","","","","","",""
"casino-keyboard-response","23","142107","0.0-16.0-0.1","216","true","img/card_backs/set1/green.gif","img/card_backs/set1/red.gif","img/card_backs/set1/yellow.gif","img/card_backs/set1/purple.gif","img/card_backs/set2/gray.gif","img/card_backs/set2/pink.gif","img/card_backs/set2/orange.gif","img/card_backs/set2/blue.gif","""event"",""trial"",""time""
""fullscreenenter"",""1"",""4597""
","
","
","""event"",""trial"",""time""
""fullscreenenter"",""1"",""4597""
","
","","7284.034999989672","You may have noticed that some cards will cause you to <b> win </b> tokens while other cards will cause you to <b> lose </b>  tokens.","70","","instructions","2021-03-30 22:50:09.580","","","","","",""
"casino-keyboard-response","24","150460","0.0-16.0-0.2","216","true","img/card_backs/set1/green.gif","img/card_backs/set1/red.gif","img/card_backs/set1/yellow.gif","img/card_backs/set1/purple.gif","img/card_backs/set2/gray.gif","img/card_backs/set2/pink.gif","img/card_backs/set2/orange.gif","img/card_backs/set2/blue.gif","""event"",""trial"",""time""
""fullscreenenter"",""1"",""4597""
","
","
","""event"",""trial"",""time""
""fullscreenenter"",""1"",""4597""
","
","","8347.974999982398","Each deck has a mix of cards that will cause you to win and lose tokens. </br> However, the cards in each colored deck are different.","73","","instructions","2021-03-30 22:50:17.933","","","","","",""
"casino-keyboard-response","25","160016","0.0-16.0-0.3","216","true","img/card_backs/set1/green.gif","img/card_backs/set1/red.gif","img/card_backs/set1/yellow.gif","img/card_backs/set1/purple.gif","img/card_backs/set2/gray.gif","img/card_backs/set2/pink.gif","img/card_backs/set2/orange.gif","img/card_backs/set2/blue.gif","""event"",""trial"",""time""
""fullscreenenter"",""1"",""4597""
","
","
","""event"",""trial"",""time""
""fullscreenenter"",""1"",""4597""
","
","","9550.805000006221","Some colored decks are luckier than others. </br> If you choose the lucky decks, you will earn more tokens than if you choose the unlucky decks.","69","","instructions","2021-03-30 22:50:27.489","","","","","",""
"casino-keyboard-response","26","168002","0.0-16.0-0.4","216","true","img/card_backs/set1/green.gif","img/card_backs/set1/red.gif","img/card_backs/set1/yellow.gif","img/card_backs/set1/purple.gif","img/card_backs/set2/gray.gif","img/card_backs/set2/pink.gif","img/card_backs/set2/orange.gif","img/card_backs/set2/blue.gif","""event"",""trial"",""time""
""fullscreenenter"",""1"",""4597""
","
","
","""event"",""trial"",""time""
""fullscreenenter"",""1"",""4597""
","
","","7982.765000022482","You should try to figure out which decks are lucky. </br> Then, try to choose the lucky decks so you can win the most tokens.","87","","instructions","2021-03-30 22:50:35.476","","","","","",""
"casino-keyboard-response","27","179168","0.0-16.0-0.5","216","true","img/card_backs/set1/green.gif","img/card_backs/set1/red.gif","img/card_backs/set1/yellow.gif","img/card_backs/set1/purple.gif","img/card_backs/set2/gray.gif","img/card_backs/set2/pink.gif","img/card_backs/set2/orange.gif","img/card_backs/set2/blue.gif","""event"",""trial"",""time""
""fullscreenenter"",""1"",""4597""
","
","
","""event"",""trial"",""time""
""fullscreenenter"",""1"",""4597""
","
","","11161.674999981187","To make it trickier, the casino dealer will switch the locations of the decks on every turn. </br> The color of the deck determines how lucky it is. The location does not matter.","88","","instructions","2021-03-30 22:50:46.641","","","","","",""
"casino-keyboard-response","28","189020","0.0-16.0-0.6","216","true","img/card_backs/set1/green.gif","img/card_backs/set1/red.gif","img/card_backs/set1/yellow.gif","img/card_backs/set1/purple.gif","img/card_backs/set2/gray.gif","img/card_backs/set2/pink.gif","img/card_backs/set2/orange.gif","img/card_backs/set2/blue.gif","""event"",""trial"",""time""
""fullscreenenter"",""1"",""4597""
","
","
","""event"",""trial"",""time""
""fullscreenenter"",""1"",""4597""
","
","","9847.635000012815","The mix of cards in each colored deck will stay the same throughout the game. </br> That means that a deck that is lucky early on will stay lucky.","79","","instructions","2021-03-30 22:50:56.493","","","","","",""
"casino-keyboard-response","29","197485","0.0-16.0-0.7","216","true","img/card_backs/set1/green.gif","img/card_backs/set1/red.gif","img/card_backs/set1/yellow.gif","img/card_backs/set1/purple.gif","img/card_backs/set2/gray.gif","img/card_backs/set2/pink.gif","img/card_backs/set2/orange.gif","img/card_backs/set2/blue.gif","""event"",""trial"",""time""
""fullscreenenter"",""1"",""4597""
","
","
","""event"",""trial"",""time""
""fullscreenenter"",""1"",""4597""
","
","","8459.759999997914","Remember though, all the decks have a <b> mix </b> of both <b> good </b> and <b> bad </b> cards so it may take a couple of turns to figure out if a deck is lucky.","69","","instructions","2021-03-30 22:51:04.958","","","","","",""
"casino-keyboard-response","30","205584","0.0-16.0-0.8","216","true","img/card_backs/set1/green.gif","img/card_backs/set1/red.gif","img/card_backs/set1/yellow.gif","img/card_backs/set1/purple.gif","img/card_backs/set2/gray.gif","img/card_backs/set2/pink.gif","img/card_backs/set2/orange.gif","img/card_backs/set2/blue.gif","""event"",""trial"",""time""
""fullscreenenter"",""1"",""4597""
","
","
","""event"",""trial"",""time""
""fullscreenenter"",""1"",""4597""
","
","","8096.235000004526","At the end of the game, you will be paid bonus money based on how many tokens you win. </br> If you win more tokens, you will earn more money!","72","","instructions","2021-03-30 22:51:13.058","","","","","",""
"casino-keyboard-response","31","215793","0.0-16.0-0.9","216","true","img/card_backs/set1/green.gif","img/card_backs/set1/red.gif","img/card_backs/set1/yellow.gif","img/card_backs/set1/purple.gif","img/card_backs/set2/gray.gif","img/card_backs/set2/pink.gif","img/card_backs/set2/orange.gif","img/card_backs/set2/blue.gif","""event"",""trial"",""time""
""fullscreenenter"",""1"",""4597""
","
","
","""event"",""trial"",""time""
""fullscreenenter"",""1"",""4597""
","
","","10205.029999982798","You will never <b> lose </b> money. </br> If you end up with fewer than 0 tokens, you will earn $0 of bonus money, but you will still be paid for playing the game.","83","","instructions","2021-03-30 22:51:23.266","","","","","",""
"casino-keyboard-response","32","220075","0.0-16.0-0.10","216","true","img/card_backs/set1/green.gif","img/card_backs/set1/red.gif","img/card_backs/set1/yellow.gif","img/card_backs/set1/purple.gif","img/card_backs/set2/gray.gif","img/card_backs/set2/pink.gif","img/card_backs/set2/orange.gif","img/card_backs/set2/blue.gif","""event"",""trial"",""time""
""fullscreenenter"",""1"",""4597""
","
","
","""event"",""trial"",""time""
""fullscreenenter"",""1"",""4597""
","
","","4273.914999997942","You will have 10 seconds to make each choice.","82","","instructions","2021-03-30 22:51:27.548","","","","","",""
"casino-keyboard-response","33","228266","0.0-16.0-0.11","216","true","img/card_backs/set1/green.gif","img/card_backs/set1/red.gif","img/card_backs/set1/yellow.gif","img/card_backs/set1/purple.gif","img/card_backs/set2/gray.gif","img/card_backs/set2/pink.gif","img/card_backs/set2/orange.gif","img/card_backs/set2/blue.gif","""event"",""trial"",""time""
""fullscreenenter"",""1"",""4597""
","
","
","""event"",""trial"",""time""
""fullscreenenter"",""1"",""4597""
","
","","8188.055000005988","Before you play the game for real, you will play with practice decks. </br> The tokens you earn during practice won't count toward your total.","86","","instructions","2021-03-30 22:51:35.739","","","","","",""
"casino-keyboard-response","34","236837","0.0-16.0-0.12","216","true","img/card_backs/set1/green.gif","img/card_backs/set1/red.gif","img/card_backs/set1/yellow.gif","img/card_backs/set1/purple.gif","img/card_backs/set2/gray.gif","img/card_backs/set2/pink.gif","img/card_backs/set2/orange.gif","img/card_backs/set2/blue.gif","""event"",""trial"",""time""
""fullscreenenter"",""1"",""4597""
","
","
","""event"",""trial"",""time""
""fullscreenenter"",""1"",""4597""
","
","","8564.140000002226","Ready? Remember, use the '2', '4', '6', and '8' keys to select the decks. </br> Put your fingers on those keys now and then press '2' to begin.","50","","instructions","2021-03-30 22:51:44.310","","","","","",""
"casino-fixation","35","237342","0.0-17.0-0.0","216","true","img/card_backs/set1/green.gif","img/card_backs/set1/red.gif","img/card_backs/set1/yellow.gif","img/card_backs/set1/purple.gif","img/card_backs/set2/gray.gif","img/card_backs/set2/pink.gif","img/card_backs/set2/orange.gif","img/card_backs/set2/blue.gif","""event"",""trial"",""time""
""fullscreenenter"",""1"",""4597""
","
","
","""event"",""trial"",""time""
""fullscreenenter"",""1"",""4597""
","
","","null","","null","","fixation","2021-03-30 22:51:44.815","","","","","",""
"card-selection-trial","36","240555","0.0-17.0-1.0","216","true","img/card_backs/set1/green.gif","img/card_backs/set1/red.gif","img/card_backs/set1/yellow.gif","img/card_backs/set1/purple.gif","img/card_backs/set2/gray.gif","img/card_backs/set2/pink.gif","img/card_backs/set2/orange.gif","img/card_backs/set2/blue.gif","""event"",""trial"",""time""
""fullscreenenter"",""1"",""4597""
","
","
","""event"",""trial"",""time""
""fullscreenenter"",""1"",""4597""
","
","","1202.0049999991897","","","","practice","2021-03-30 22:51:48.028","img/practice_cards/backs/dark_green.gif","1","-200","0","",""
"casino-fixation","37","241058","0.0-17.0-0.1","216","true","img/card_backs/set1/green.gif","img/card_backs/set1/red.gif","img/card_backs/set1/yellow.gif","img/card_backs/set1/purple.gif","img/card_backs/set2/gray.gif","img/card_backs/set2/pink.gif","img/card_backs/set2/orange.gif","img/card_backs/set2/blue.gif","""event"",""trial"",""time""
""fullscreenenter"",""1"",""4597""
","
","
","""event"",""trial"",""time""
""fullscreenenter"",""1"",""4597""
","
","","null","","null","","fixation","2021-03-30 22:51:48.532","","","","","",""
"card-selection-trial","38","243498","0.0-17.0-1.1","216","true","img/card_backs/set1/green.gif","img/card_backs/set1/red.gif","img/card_backs/set1/yellow.gif","img/card_backs/set1/purple.gif","img/card_backs/set2/gray.gif","img/card_backs/set2/pink.gif","img/card_backs/set2/orange.gif","img/card_backs/set2/blue.gif","""event"",""trial"",""time""
""fullscreenenter"",""1"",""4597""
","
","
","""event"",""trial"",""time""
""fullscreenenter"",""1"",""4597""
","
","","427.4499999883119","","","","practice","2021-03-30 22:51:50.971","img/practice_cards/backs/dark_blue.gif","2","200","0","",""
"casino-fixation","39","244000","0.0-17.0-0.2","216","true","img/card_backs/set1/green.gif","img/card_backs/set1/red.gif","img/card_backs/set1/yellow.gif","img/card_backs/set1/purple.gif","img/card_backs/set2/gray.gif","img/card_backs/set2/pink.gif","img/card_backs/set2/orange.gif","img/card_backs/set2/blue.gif","""event"",""trial"",""time""
""fullscreenenter"",""1"",""4597""
","
","
","""event"",""trial"",""time""
""fullscreenenter"",""1"",""4597""
","
","","null","","null","","fixation","2021-03-30 22:51:51.473","","","","","",""
"card-selection-trial","40","246336","0.0-17.0-1.2","216","true","img/card_backs/set1/green.gif","img/card_backs/set1/red.gif","img/card_backs/set1/yellow.gif","img/card_backs/set1/purple.gif","img/card_backs/set2/gray.gif","img/card_backs/set2/pink.gif","img/card_backs/set2/orange.gif","img/card_backs/set2/blue.gif","""event"",""trial"",""time""
""fullscreenenter"",""1"",""4597""
","
","
","""event"",""trial"",""time""
""fullscreenenter"",""1"",""4597""
","
","","324.71000001532957","","","","practice","2021-03-30 22:51:53.809","img/practice_cards/backs/brown.gif","0","-100","0","",""
"casino-fixation","41","246839","0.0-17.0-0.3","216","true","img/card_backs/set1/green.gif","img/card_backs/set1/red.gif","img/card_backs/set1/yellow.gif","img/card_backs/set1/purple.gif","img/card_backs/set2/gray.gif","img/card_backs/set2/pink.gif","img/card_backs/set2/orange.gif","img/card_backs/set2/blue.gif","""event"",""trial"",""time""
""fullscreenenter"",""1"",""4597""
","
","
","""event"",""trial"",""time""
""fullscreenenter"",""1"",""4597""
","
","","null","","null","","fixation","2021-03-30 22:51:54.312","","","","","",""
"card-selection-trial","42","249070","0.0-17.0-1.3","216","true","img/card_backs/set1/green.gif","img/card_backs/set1/red.gif","img/card_backs/set1/yellow.gif","img/card_backs/set1/purple.gif","img/card_backs/set2/gray.gif","img/card_backs/set2/pink.gif","img/card_backs/set2/orange.gif","img/card_backs/set2/blue.gif","""event"",""trial"",""time""
""fullscreenenter"",""1"",""4597""
","
","
","""event"",""trial"",""time""
""fullscreenenter"",""1"",""4597""
","
","","220.73999998974614","","","","practice","2021-03-30 22:51:56.543","img/practice_cards/backs/brown.gif","3","100","0","",""
"casino-fixation","43","249572","0.0-17.0-0.4","216","true","img/card_backs/set1/green.gif","img/card_backs/set1/red.gif","img/card_backs/set1/yellow.gif","img/card_backs/set1/purple.gif","img/card_backs/set2/gray.gif","img/card_backs/set2/pink.gif","img/card_backs/set2/orange.gif","img/card_backs/set2/blue.gif","""event"",""trial"",""time""
""fullscreenenter"",""1"",""4597""
","
","
","""event"",""trial"",""time""
""fullscreenenter"",""1"",""4597""
","
","","null","","null","","fixation","2021-03-30 22:51:57.045","","","","","",""
"card-selection-trial","44","252019","0.0-17.0-1.4","216","true","img/card_backs/set1/green.gif","img/card_backs/set1/red.gif","img/card_backs/set1/yellow.gif","img/card_backs/set1/purple.gif","img/card_backs/set2/gray.gif","img/card_backs/set2/pink.gif","img/card_backs/set2/orange.gif","img/card_backs/set2/blue.gif","""event"",""trial"",""time""
""fullscreenenter"",""1"",""4597""
","
","
","""event"",""trial"",""time""
""fullscreenenter"",""1"",""4597""
","
","","437.50500000896864","","","","practice","2021-03-30 22:51:59.492","img/practice_cards/backs/brown.gif","2","-100","0","",""
"casino-fixation","45","252521","0.0-17.0-0.5","216","true","img/card_backs/set1/green.gif","img/card_backs/set1/red.gif","img/card_backs/set1/yellow.gif","img/card_backs/set1/purple.gif","img/card_backs/set2/gray.gif","img/card_backs/set2/pink.gif","img/card_backs/set2/orange.gif","img/card_backs/set2/blue.gif","""event"",""trial"",""time""
""fullscreenenter"",""1"",""4597""
","
","
","""event"",""trial"",""time""
""fullscreenenter"",""1"",""4597""
","
","","null","","null","","fixation","2021-03-30 22:51:59.995","","","","","",""
"card-selection-trial","46","254770","0.0-17.0-1.5","216","true","img/card_backs/set1/green.gif","img/card_backs/set1/red.gif","img/card_backs/set1/yellow.gif","img/card_backs/set1/purple.gif","img/card_backs/set2/gray.gif","img/card_backs/set2/pink.gif","img/card_backs/set2/orange.gif","img/card_backs/set2/blue.gif","""event"",""trial"",""time""
""fullscreenenter"",""1"",""4597""
","
","
","""event"",""trial"",""time""
""fullscreenenter"",""1"",""4597""
","
","","235.71999999694526","","","","practice","2021-03-30 22:52:02.243","img/practice_cards/backs/brown.gif","1","-100","0","",""
"casino-fixation","47","255272","0.0-17.0-0.6","216","true","img/card_backs/set1/green.gif","img/card_backs/set1/red.gif","img/card_backs/set1/yellow.gif","img/card_backs/set1/purple.gif","img/card_backs/set2/gray.gif","img/card_backs/set2/pink.gif","img/card_backs/set2/orange.gif","img/card_backs/set2/blue.gif","""event"",""trial"",""time""
""fullscreenenter"",""1"",""4597""
","
","
","""event"",""trial"",""time""
""fullscreenenter"",""1"",""4597""
","
","","null","","null","","fixation","2021-03-30 22:52:02.745","","","","","",""
"card-selection-trial","48","257504","0.0-17.0-1.6","216","true","img/card_backs/set1/green.gif","img/card_backs/set1/red.gif","img/card_backs/set1/yellow.gif","img/card_backs/set1/purple.gif","img/card_backs/set2/gray.gif","img/card_backs/set2/pink.gif","img/card_backs/set2/orange.gif","img/card_backs/set2/blue.gif","""event"",""trial"",""time""
""fullscreenenter"",""1"",""4597""
","
","
","""event"",""trial"",""time""
""fullscreenenter"",""1"",""4597""
","
","","221.16499999538064","","","","practice","2021-03-30 22:52:04.977","img/practice_cards/backs/black.gif","3","100","0","",""
"casino-fixation","49","258007","0.0-17.0-0.7","216","true","img/card_backs/set1/green.gif","img/card_backs/set1/red.gif","img/card_backs/set1/yellow.gif","img/card_backs/set1/purple.gif","img/card_backs/set2/gray.gif","img/card_backs/set2/pink.gif","img/card_backs/set2/orange.gif","img/card_backs/set2/blue.gif","""event"",""trial"",""time""
""fullscreenenter"",""1"",""4597""
","
","
","""event"",""trial"",""time""
""fullscreenenter"",""1"",""4597""
","
","","null","","null","","fixation","2021-03-30 22:52:05.480","","","","","",""
"card-selection-trial","50","260183","0.0-17.0-1.7","216","true","img/card_backs/set1/green.gif","img/card_backs/set1/red.gif","img/card_backs/set1/yellow.gif","img/card_backs/set1/purple.gif","img/card_backs/set2/gray.gif","img/card_backs/set2/pink.gif","img/card_backs/set2/orange.gif","img/card_backs/set2/blue.gif","""event"",""trial"",""time""
""fullscreenenter"",""1"",""4597""
","
","
","""event"",""trial"",""time""
""fullscreenenter"",""1"",""4597""
","
","","164.0449999831617","","","","practice","2021-03-30 22:52:07.656","img/practice_cards/backs/black.gif","0","100","0","",""
"casino-fixation","51","260685","0.0-17.0-0.8","216","true","img/card_backs/set1/green.gif","img/card_backs/set1/red.gif","img/card_backs/set1/yellow.gif","img/card_backs/set1/purple.gif","img/card_backs/set2/gray.gif","img/card_backs/set2/pink.gif","img/card_backs/set2/orange.gif","img/card_backs/set2/blue.gif","""event"",""trial"",""time""
""fullscreenenter"",""1"",""4597""
","
","
","""event"",""trial"",""time""
""fullscreenenter"",""1"",""4597""
","
","","null","","null","","fixation","2021-03-30 22:52:08.158","","","","","",""
"card-selection-trial","52","263148","0.0-17.0-1.8","216","true","img/card_backs/set1/green.gif","img/card_backs/set1/red.gif","img/card_backs/set1/yellow.gif","img/card_backs/set1/purple.gif","img/card_backs/set2/gray.gif","img/card_backs/set2/pink.gif","img/card_backs/set2/orange.gif","img/card_backs/set2/blue.gif","""event"",""trial"",""time""
""fullscreenenter"",""1"",""4597""
","
","
","""event"",""trial"",""time""
""fullscreenenter"",""1"",""4597""
","
","","450.50500001525506","","","","practice","2021-03-30 22:52:10.621","img/practice_cards/backs/black.gif","0","100","0","",""
"casino-fixation","53","263650","0.0-17.0-0.9","216","true","img/card_backs/set1/green.gif","img/card_backs/set1/red.gif","img/card_backs/set1/yellow.gif","img/card_backs/set1/purple.gif","img/card_backs/set2/gray.gif","img/card_backs/set2/pink.gif","img/card_backs/set2/orange.gif","img/card_backs/set2/blue.gif","""event"",""trial"",""time""
""fullscreenenter"",""1"",""4597""
","
","
","""event"",""trial"",""time""
""fullscreenenter"",""1"",""4597""
","
","","null","","null","","fixation","2021-03-30 22:52:11.123","","","","","",""
"card-selection-trial","54","266236","0.0-17.0-1.9","216","true","img/card_backs/set1/green.gif","img/card_backs/set1/red.gif","img/card_backs/set1/yellow.gif","img/card_backs/set1/purple.gif","img/card_backs/set2/gray.gif","img/card_backs/set2/pink.gif","img/card_backs/set2/orange.gif","img/card_backs/set2/blue.gif","""event"",""trial"",""time""
""fullscreenenter"",""1"",""4597""
","
","
","""event"",""trial"",""time""
""fullscreenenter"",""1"",""4597""
","
","","574.0150000201538","","","","practice","2021-03-30 22:52:13.709","img/practice_cards/backs/black.gif","3","100","0","",""
"casino-keyboard-response","55","269365","0.0-18.0","216","true","img/card_backs/set1/green.gif","img/card_backs/set1/red.gif","img/card_backs/set1/yellow.gif","img/card_backs/set1/purple.gif","img/card_backs/set2/gray.gif","img/card_backs/set2/pink.gif","img/card_backs/set2/orange.gif","img/card_backs/set2/blue.gif","""event"",""trial"",""time""
""fullscreenenter"",""1"",""4597""
","
","
","""event"",""trial"",""time""
""fullscreenenter"",""1"",""4597""
","
","","3124.695000005886","You earned 200 tokens during the practice round!","75","","","2021-03-30 22:52:16.839","","","","","",""
"casino-keyboard-response","56","273526","0.0-19.0-0.0","216","true","img/card_backs/set1/green.gif","img/card_backs/set1/red.gif","img/card_backs/set1/yellow.gif","img/card_backs/set1/purple.gif","img/card_backs/set2/gray.gif","img/card_backs/set2/pink.gif","img/card_backs/set2/orange.gif","img/card_backs/set2/blue.gif","""event"",""trial"",""time""
""fullscreenenter"",""1"",""4597""
","
","
","""event"",""trial"",""time""
""fullscreenenter"",""1"",""4597""
","
","","4158.854999986943","Nice job! You are almost ready to play the real game.","86","","instructions","2021-03-30 22:52:20.999","","","","","",""
"casino-keyboard-response","57","279837","0.0-19.0-0.1","216","true","img/card_backs/set1/green.gif","img/card_backs/set1/red.gif","img/card_backs/set1/yellow.gif","img/card_backs/set1/purple.gif","img/card_backs/set2/gray.gif","img/card_backs/set2/pink.gif","img/card_backs/set2/orange.gif","img/card_backs/set2/blue.gif","""event"",""trial"",""time""
""fullscreenenter"",""1"",""4597""
","
","
","""event"",""trial"",""time""
""fullscreenenter"",""1"",""4597""
","
","","6307.135000010021","You will play two rounds of the real game. In each round, you will pick 100 cards in total.","73","","instructions","2021-03-30 22:52:27.310","","","","","",""
"casino-keyboard-response","58","284166","0.0-19.0-0.2","216","true","img/card_backs/set1/green.gif","img/card_backs/set1/red.gif","img/card_backs/set1/yellow.gif","img/card_backs/set1/purple.gif","img/card_backs/set2/gray.gif","img/card_backs/set2/pink.gif","img/card_backs/set2/orange.gif","img/card_backs/set2/blue.gif","""event"",""trial"",""time""
""fullscreenenter"",""1"",""4597""
","
","
","""event"",""trial"",""time""
""fullscreenenter"",""1"",""4597""
","
","","4323.879999981727","We are now going to ask you some questions about how the game works.","66","","instructions","2021-03-30 22:52:31.639","","","","","",""
"casino-keyboard-response","59","290387","0.0-19.0-0.3","216","true","img/card_backs/set1/green.gif","img/card_backs/set1/red.gif","img/card_backs/set1/yellow.gif","img/card_backs/set1/purple.gif","img/card_backs/set2/gray.gif","img/card_backs/set2/pink.gif","img/card_backs/set2/orange.gif","img/card_backs/set2/blue.gif","""event"",""trial"",""time""
""fullscreenenter"",""1"",""4597""
","
","
","""event"",""trial"",""time""
""fullscreenenter"",""1"",""4597""
","
","","6217.780000006314","Answer carefully. You will not be able to begin the game until you answer them correctly.","67","","instructions","2021-03-30 22:52:37.860","","","","","",""
"casino-comp_q","60","297355","0.0-20.0-0.0","216","true","img/card_backs/set1/green.gif","img/card_backs/set1/red.gif","img/card_backs/set1/yellow.gif","img/card_backs/set1/purple.gif","img/card_backs/set2/gray.gif","img/card_backs/set2/pink.gif","img/card_backs/set2/orange.gif","img/card_backs/set2/blue.gif","""event"",""trial"",""time""
""fullscreenenter"",""1"",""4597""
","
","
","""event"",""trial"",""time""
""fullscreenenter"",""1"",""4597""
","
","","6965.215000003809","True or False: All the decks have some cards that cause you to win tokens and some cards that cause you to lose tokens.","84","","","2021-03-30 22:52:44.829","","","","","",""
"casino-keyboard-response","61","300956","0.0-20.0-1.0","216","true","img/card_backs/set1/green.gif","img/card_backs/set1/red.gif","img/card_backs/set1/yellow.gif","img/card_backs/set1/purple.gif","img/card_backs/set2/gray.gif","img/card_backs/set2/pink.gif","img/card_backs/set2/orange.gif","img/card_backs/set2/blue.gif","""event"",""trial"",""time""
""fullscreenenter"",""1"",""4597""
","
","
","""event"",""trial"",""time""
""fullscreenenter"",""1"",""4597""
","
","","3596.3950000004843","True is correct! All the decks have a mix of winning and losing cards.","77","","","2021-03-30 22:52:48.429","","","","","true",""
"casino-comp_q","62","305391","0.0-21.0-0.0","216","true","img/card_backs/set1/green.gif","img/card_backs/set1/red.gif","img/card_backs/set1/yellow.gif","img/card_backs/set1/purple.gif","img/card_backs/set2/gray.gif","img/card_backs/set2/pink.gif","img/card_backs/set2/orange.gif","img/card_backs/set2/blue.gif","""event"",""trial"",""time""
""fullscreenenter"",""1"",""4597""
","
","
","""event"",""trial"",""time""
""fullscreenenter"",""1"",""4597""
","
","","4426.955000002636","True or False: You will have as much time as you want to make your response.","70","","","2021-03-30 22:52:52.864","","","","","",""
"casino-keyboard-response","63","308012","0.0-21.0-1.0","216","true","img/card_backs/set1/green.gif","img/card_backs/set1/red.gif","img/card_backs/set1/yellow.gif","img/card_backs/set1/purple.gif","img/card_backs/set2/gray.gif","img/card_backs/set2/pink.gif","img/card_backs/set2/orange.gif","img/card_backs/set2/blue.gif","""event"",""trial"",""time""
""fullscreenenter"",""1"",""4597""
","
","
","""event"",""trial"",""time""
""fullscreenenter"",""1"",""4597""
","
","","2619.024999992689","False is correct! You will only have 10 seconds to make each choice.","75","","","2021-03-30 22:52:55.485","","","","","true",""
"casino-comp_q","64","312262","0.0-22.0-0.0","216","true","img/card_backs/set1/green.gif","img/card_backs/set1/red.gif","img/card_backs/set1/yellow.gif","img/card_backs/set1/purple.gif","img/card_backs/set2/gray.gif","img/card_backs/set2/pink.gif","img/card_backs/set2/orange.gif","img/card_backs/set2/blue.gif","""event"",""trial"",""time""
""fullscreenenter"",""1"",""4597""
","
","
","""event"",""trial"",""time""
""fullscreenenter"",""1"",""4597""
","
","","4246.664999984205","True or False: The location of the deck determines how lucky it is.","70","","","2021-03-30 22:52:59.735","","","","","",""
"casino-keyboard-response","65","315141","0.0-22.0-1.0","216","true","img/card_backs/set1/green.gif","img/card_backs/set1/red.gif","img/card_backs/set1/yellow.gif","img/card_backs/set1/purple.gif","img/card_backs/set2/gray.gif","img/card_backs/set2/pink.gif","img/card_backs/set2/orange.gif","img/card_backs/set2/blue.gif","""event"",""trial"",""time""
""fullscreenenter"",""1"",""4597""
","
","
","""event"",""trial"",""time""
""fullscreenenter"",""1"",""4597""
","
","","2874.549999978626","False is correct! The <i>color</i>  of the deck determines how lucky or unlucky it is.","68","","","2021-03-30 22:53:02.614","","","","","true",""
"casino-keyboard-response","66","320978","0.0-23.0-0.0","216","true","img/card_backs/set1/green.gif","img/card_backs/set1/red.gif","img/card_backs/set1/yellow.gif","img/card_backs/set1/purple.gif","img/card_backs/set2/gray.gif","img/card_backs/set2/pink.gif","img/card_backs/set2/orange.gif","img/card_backs/set2/blue.gif","""event"",""trial"",""time""
""fullscreenenter"",""1"",""4597""
","
","
","""event"",""trial"",""time""
""fullscreenenter"",""1"",""4597""
","
","","5834.410000010394","Great job! Now it's time to start the real game.","82","","instructions","2021-03-30 22:53:08.451","","","","","",""
"casino-keyboard-response","67","326289","0.0-23.0-0.1","216","true","img/card_backs/set1/green.gif","img/card_backs/set1/red.gif","img/card_backs/set1/yellow.gif","img/card_backs/set1/purple.gif","img/card_backs/set2/gray.gif","img/card_backs/set2/pink.gif","img/card_backs/set2/orange.gif","img/card_backs/set2/blue.gif","""event"",""trial"",""time""
""fullscreenenter"",""1"",""4597""
","
","
","""event"",""trial"",""time""
""fullscreenenter"",""1"",""4597""
","
","","5308.450000011362","Before we start, we're going to head into a new room of the casino.","86","","instructions","2021-03-30 22:53:13.762","","","","","",""
"casino-keyboard-response","68","333528","0.0-24.0-0.0","216","true","img/card_backs/set1/green.gif","img/card_backs/set1/red.gif","img/card_backs/set1/yellow.gif","img/card_backs/set1/purple.gif","img/card_backs/set2/gray.gif","img/card_backs/set2/pink.gif","img/card_backs/set2/orange.gif","img/card_backs/set2/blue.gif","""event"",""trial"",""time""
""fullscreenenter"",""1"",""4597""
","
","
","""event"",""trial"",""time""
""fullscreenenter"",""1"",""4597""
","
","","7236.39499998535","Here we are! The real game will use different cards, but the rules will be the same.","71","","instructions","2021-03-30 22:53:21.002","","","","","",""
"casino-keyboard-response","69","348067","0.0-24.0-0.1","216","true","img/card_backs/set1/green.gif","img/card_backs/set1/red.gif","img/card_backs/set1/yellow.gif","img/card_backs/set1/purple.gif","img/card_backs/set2/gray.gif","img/card_backs/set2/pink.gif","img/card_backs/set2/orange.gif","img/card_backs/set2/blue.gif","""event"",""trial"",""time""
""fullscreenenter"",""1"",""4597""
","
","
","""event"",""trial"",""time""
""fullscreenenter"",""1"",""4597""
","
","","14535.544999991544","Ready? Put your fingers over the '2', '4', 6', and '8' keys so you are ready to play the game. </br> Then press 2 to start.","50","","instructions","2021-03-30 22:53:35.541","","","","","",""
"casino-fixation","70","348570","0.0-25.0-0.0","216","true","img/card_backs/set1/green.gif","img/card_backs/set1/red.gif","img/card_backs/set1/yellow.gif","img/card_backs/set1/purple.gif","img/card_backs/set2/gray.gif","img/card_backs/set2/pink.gif","img/card_backs/set2/orange.gif","img/card_backs/set2/blue.gif","""event"",""trial"",""time""
""fullscreenenter"",""1"",""4597""
","
","
","""event"",""trial"",""time""
""fullscreenenter"",""1"",""4597""
","
","","null","","null","","fixation","2021-03-30 22:53:36.043","","","","","",""
"card-selection-trial","71","352483","0.0-25.0-1.0","216","true","img/card_backs/set1/green.gif","img/card_backs/set1/red.gif","img/card_backs/set1/yellow.gif","img/card_backs/set1/purple.gif","img/card_backs/set2/gray.gif","img/card_backs/set2/pink.gif","img/card_backs/set2/orange.gif","img/card_backs/set2/blue.gif","""event"",""trial"",""time""
""fullscreenenter"",""1"",""4597""
","
","
","""event"",""trial"",""time""
""fullscreenenter"",""1"",""4597""
","
","","1896.4299999934155","","","","real_trial","2021-03-30 22:53:39.956","img/card_backs/set1/purple.gif","0","-100","1","",""
"casino-fixation","72","352986","0.0-25.0-0.1","216","true","img/card_backs/set1/green.gif","img/card_backs/set1/red.gif","img/card_backs/set1/yellow.gif","img/card_backs/set1/purple.gif","img/card_backs/set2/gray.gif","img/card_backs/set2/pink.gif","img/card_backs/set2/orange.gif","img/card_backs/set2/blue.gif","""event"",""trial"",""time""
""fullscreenenter"",""1"",""4597""
","
","
","""event"",""trial"",""time""
""fullscreenenter"",""1"",""4597""
","
","","null","","null","","fixation","2021-03-30 22:53:40.459","","","","","",""
"card-selection-trial","73","356324","0.0-25.0-1.1","216","true","img/card_backs/set1/green.gif","img/card_backs/set1/red.gif","img/card_backs/set1/yellow.gif","img/card_backs/set1/purple.gif","img/card_backs/set2/gray.gif","img/card_backs/set2/pink.gif","img/card_backs/set2/orange.gif","img/card_backs/set2/blue.gif","""event"",""trial"",""time""
""fullscreenenter"",""1"",""4597""
","
","
","""event"",""trial"",""time""
""fullscreenenter"",""1"",""4597""
","
","","1326.070000010077","","","","real_trial","2021-03-30 22:53:43.797","img/card_backs/set1/purple.gif","1","-100","1","",""
"casino-fixation","74","356827","0.0-25.0-0.2","216","true","img/card_backs/set1/green.gif","img/card_backs/set1/red.gif","img/card_backs/set1/yellow.gif","img/card_backs/set1/purple.gif","img/card_backs/set2/gray.gif","img/card_backs/set2/pink.gif","img/card_backs/set2/orange.gif","img/card_backs/set2/blue.gif","""event"",""trial"",""time""
""fullscreenenter"",""1"",""4597""
","
","
","""event"",""trial"",""time""
""fullscreenenter"",""1"",""4597""
","
","","null","","null","","fixation","2021-03-30 22:53:44.300","","","","","",""
"card-selection-trial","75","359717","0.0-25.0-1.2","216","true","img/card_backs/set1/green.gif","img/card_backs/set1/red.gif","img/card_backs/set1/yellow.gif","img/card_backs/set1/purple.gif","img/card_backs/set2/gray.gif","img/card_backs/set2/pink.gif","img/card_backs/set2/orange.gif","img/card_backs/set2/blue.gif","""event"",""trial"",""time""
""fullscreenenter"",""1"",""4597""
","
","
","""event"",""trial"",""time""
""fullscreenenter"",""1"",""4597""
","
","","879.1700000001583","","","","real_trial","2021-03-30 22:53:47.190","img/card_backs/set1/purple.gif","2","60","1","",""
"casino-fixation","76","360219","0.0-25.0-0.3","216","true","img/card_backs/set1/green.gif","img/card_backs/set1/red.gif","img/card_backs/set1/yellow.gif","img/card_backs/set1/purple.gif","img/card_backs/set2/gray.gif","img/card_backs/set2/pink.gif","img/card_backs/set2/orange.gif","img/card_backs/set2/blue.gif","""event"",""trial"",""time""
""fullscreenenter"",""1"",""4597""
","
","
","""event"",""trial"",""time""
""fullscreenenter"",""1"",""4597""
","
","","null","","null","","fixation","2021-03-30 22:53:47.692","","","","","",""
"card-selection-trial","77","364480","0.0-25.0-1.3","216","true","img/card_backs/set1/green.gif","img/card_backs/set1/red.gif","img/card_backs/set1/yellow.gif","img/card_backs/set1/purple.gif","img/card_backs/set2/gray.gif","img/card_backs/set2/pink.gif","img/card_backs/set2/orange.gif","img/card_backs/set2/blue.gif","""event"",""trial"",""time""
""fullscreenenter"",""1"",""4597""
","
","
","""event"",""trial"",""time""
""fullscreenenter"",""1"",""4597""
","
","","2249.680000008084","","","","real_trial","2021-03-30 22:53:51.953","img/card_backs/set1/red.gif","0","-210","1","",""
"casino-fixation","78","364983","0.0-25.0-0.4","216","true","img/card_backs/set1/green.gif","img/card_backs/set1/red.gif","img/card_backs/set1/yellow.gif","img/card_backs/set1/purple.gif","img/card_backs/set2/gray.gif","img/card_backs/set2/pink.gif","img/card_backs/set2/orange.gif","img/card_backs/set2/blue.gif","""event"",""trial"",""time""
""fullscreenenter"",""1"",""4597""
","
","
","""event"",""trial"",""time""
""fullscreenenter"",""1"",""4597""
","
","","null","","null","","fixation","2021-03-30 22:53:52.456","","","","","",""
"card-selection-trial","79","367483","0.0-25.0-1.4","216","true","img/card_backs/set1/green.gif","img/card_backs/set1/red.gif","img/card_backs/set1/yellow.gif","img/card_backs/set1/purple.gif","img/card_backs/set2/gray.gif","img/card_backs/set2/pink.gif","img/card_backs/set2/orange.gif","img/card_backs/set2/blue.gif","""event"",""trial"",""time""
""fullscreenenter"",""1"",""4597""
","
","
","""event"",""trial"",""time""
""fullscreenenter"",""1"",""4597""
","
","","489.964999986114","","","","real_trial","2021-03-30 22:53:54.956","img/card_backs/set1/red.gif","0","260","1","",""
"casino-fixation","80","367985","0.0-25.0-0.5","216","true","img/card_backs/set1/green.gif","img/card_backs/set1/red.gif","img/card_backs/set1/yellow.gif","img/card_backs/set1/purple.gif","img/card_backs/set2/gray.gif","img/card_backs/set2/pink.gif","img/card_backs/set2/orange.gif","img/card_backs/set2/blue.gif","""event"",""trial"",""time""
""fullscreenenter"",""1"",""4597""
","
","
","""event"",""trial"",""time""
""fullscreenenter"",""1"",""4597""
","
","","null","","null","","fixation","2021-03-30 22:53:55.458","","","","","",""
"card-selection-trial","81","370308","0.0-25.0-1.5","216","true","img/card_backs/set1/green.gif","img/card_backs/set1/red.gif","img/card_backs/set1/yellow.gif","img/card_backs/set1/purple.gif","img/card_backs/set2/gray.gif","img/card_backs/set2/pink.gif","img/card_backs/set2/orange.gif","img/card_backs/set2/blue.gif","""event"",""trial"",""time""
""fullscreenenter"",""1"",""4597""
","
","
","""event"",""trial"",""time""
""fullscreenenter"",""1"",""4597""
","
","","309.63500001234934","","","","real_trial","2021-03-30 22:53:57.781","img/card_backs/set1/green.gif","0","260","1","",""
"casino-fixation","82","370811","0.0-25.0-0.6","216","true","img/card_backs/set1/green.gif","img/card_backs/set1/red.gif","img/card_backs/set1/yellow.gif","img/card_backs/set1/purple.gif","img/card_backs/set2/gray.gif","img/card_backs/set2/pink.gif","img/card_backs/set2/orange.gif","img/card_backs/set2/blue.gif","""event"",""trial"",""time""
""fullscreenenter"",""1"",""4597""
","
","
","""event"",""trial"",""time""
""fullscreenenter"",""1"",""4597""
","
","","null","","null","","fixation","2021-03-30 22:53:58.284","","","","","",""
"card-selection-trial","83","383815","0.0-25.0-1.6","216","true","img/card_backs/set1/green.gif","img/card_backs/set1/red.gif","img/card_backs/set1/yellow.gif","img/card_backs/set1/purple.gif","img/card_backs/set2/gray.gif","img/card_backs/set2/pink.gif","img/card_backs/set2/orange.gif","img/card_backs/set2/blue.gif","""event"",""trial"",""time""
""fullscreenenter"",""1"",""4597""
","
","
","""event"",""trial"",""time""
""fullscreenenter"",""1"",""4597""
","
","","null","","","","real_trial","2021-03-30 22:54:11.289","null","null","null","1","",""
"casino-fixation","84","384319","0.0-25.0-0.7","216","true","img/card_backs/set1/green.gif","img/card_backs/set1/red.gif","img/card_backs/set1/yellow.gif","img/card_backs/set1/purple.gif","img/card_backs/set2/gray.gif","img/card_backs/set2/pink.gif","img/card_backs/set2/orange.gif","img/card_backs/set2/blue.gif","""event"",""trial"",""time""
""fullscreenenter"",""1"",""4597""
","
","
","""event"",""trial"",""time""
""fullscreenenter"",""1"",""4597""
","
","","null","","null","","fixation","2021-03-30 22:54:11.792","","","","","",""
"card-selection-trial","85","386755","0.0-25.0-1.7","216","true","img/card_backs/set1/green.gif","img/card_backs/set1/red.gif","img/card_backs/set1/yellow.gif","img/card_backs/set1/purple.gif","img/card_backs/set2/gray.gif","img/card_backs/set2/pink.gif","img/card_backs/set2/orange.gif","img/card_backs/set2/blue.gif","""event"",""trial"",""time""
""fullscreenenter"",""1"",""4597""
","
","
","""event"",""trial"",""time""
""fullscreenenter"",""1"",""4597""
","
","","426.23499999172054","","","","real_trial","2021-03-30 22:54:14.228","img/card_backs/set1/green.gif","1","-210","1","",""
"casino-fixation","86","387257","0.0-25.0-0.8","216","true","img/card_backs/set1/green.gif","img/card_backs/set1/red.gif","img/card_backs/set1/yellow.gif","img/card_backs/set1/purple.gif","img/card_backs/set2/gray.gif","img/card_backs/set2/pink.gif","img/card_backs/set2/orange.gif","img/card_backs/set2/blue.gif","""event"",""trial"",""time""
""fullscreenenter"",""1"",""4597""
","
","
","""event"",""trial"",""time""
""fullscreenenter"",""1"",""4597""
","
","","null","","null","","fixation","2021-03-30 22:54:14.730","","","","","",""
"card-selection-trial","87","389569","0.0-25.0-1.8","216","true","img/card_backs/set1/green.gif","img/card_backs/set1/red.gif","img/card_backs/set1/yellow.gif","img/card_backs/set1/purple.gif","img/card_backs/set2/gray.gif","img/card_backs/set2/pink.gif","img/card_backs/set2/orange.gif","img/card_backs/set2/blue.gif","""event"",""trial"",""time""
""fullscreenenter"",""1"",""4597""
","
","
","""event"",""trial"",""time""
""fullscreenenter"",""1"",""4597""
","
","","301.9700000004377","","","","real_trial","2021-03-30 22:54:17.043","img/card_backs/set1/yellow.gif","1","50","1","",""
"casino-fixation","88","390072","0.0-25.0-0.9","216","true","img/card_backs/set1/green.gif","img/card_backs/set1/red.gif","img/card_backs/set1/yellow.gif","img/card_backs/set1/purple.gif","img/card_backs/set2/gray.gif","img/card_backs/set2/pink.gif","img/card_backs/set2/orange.gif","img/card_backs/set2/blue.gif","""event"",""trial"",""time""
""fullscreenenter"",""1"",""4597""
","
","
","""event"",""trial"",""time""
""fullscreenenter"",""1"",""4597""
","
","","null","","null","","fixation","2021-03-30 22:54:17.545","","","","","",""
"card-selection-trial","89","392703","0.0-25.0-1.9","216","true","img/card_backs/set1/green.gif","img/card_backs/set1/red.gif","img/card_backs/set1/yellow.gif","img/card_backs/set1/purple.gif","img/card_backs/set2/gray.gif","img/card_backs/set2/pink.gif","img/card_backs/set2/orange.gif","img/card_backs/set2/blue.gif","""event"",""trial"",""time""
""fullscreenenter"",""1"",""4597""
","
","
","""event"",""trial"",""time""
""fullscreenenter"",""1"",""4597""
","
","","619.7899999970105","","","","real_trial","2021-03-30 22:54:20.176","img/card_backs/set1/yellow.gif","0","-100","1","",""
"casino-fixation","90","393205","0.0-25.0-0.10","216","true","img/card_backs/set1/green.gif","img/card_backs/set1/red.gif","img/card_backs/set1/yellow.gif","img/card_backs/set1/purple.gif","img/card_backs/set2/gray.gif","img/card_backs/set2/pink.gif","img/card_backs/set2/orange.gif","img/card_backs/set2/blue.gif","""event"",""trial"",""time""
""fullscreenenter"",""1"",""4597""
","
","
","""event"",""trial"",""time""
""fullscreenenter"",""1"",""4597""
","
","","null","","null","","fixation","2021-03-30 22:54:20.678","","","","","",""
"card-selection-trial","91","396074","0.0-25.0-1.10","216","true","img/card_backs/set1/green.gif","img/card_backs/set1/red.gif","img/card_backs/set1/yellow.gif","img/card_backs/set1/purple.gif","img/card_backs/set2/gray.gif","img/card_backs/set2/pink.gif","img/card_backs/set2/orange.gif","img/card_backs/set2/blue.gif","""event"",""trial"",""time""
""fullscreenenter"",""1"",""4597""
","
","
","""event"",""trial"",""time""
""fullscreenenter"",""1"",""4597""
","
","","857.7349999977741","","","","real_trial","2021-03-30 22:54:23.547","img/card_backs/set1/yellow.gif","1","50","1","",""
"casino-fixation","92","396578","0.0-25.0-0.11","216","true","img/card_backs/set1/green.gif","img/card_backs/set1/red.gif","img/card_backs/set1/yellow.gif","img/card_backs/set1/purple.gif","img/card_backs/set2/gray.gif","img/card_backs/set2/pink.gif","img/card_backs/set2/orange.gif","img/card_backs/set2/blue.gif","""event"",""trial"",""time""
""fullscreenenter"",""1"",""4597""
","
","
","""event"",""trial"",""time""
""fullscreenenter"",""1"",""4597""
","
","","null","","null","","fixation","2021-03-30 22:54:24.051","","","","","",""
"card-selection-trial","93","399681","0.0-25.0-1.11","216","true","img/card_backs/set1/green.gif","img/card_backs/set1/red.gif","img/card_backs/set1/yellow.gif","img/card_backs/set1/purple.gif","img/card_backs/set2/gray.gif","img/card_backs/set2/pink.gif","img/card_backs/set2/orange.gif","img/card_backs/set2/blue.gif","""event"",""trial"",""time""
""fullscreenenter"",""1"",""4597""
","
","
","""event"",""trial"",""time""
""fullscreenenter"",""1"",""4597""
","
","","1093.559999979334","","","","real_trial","2021-03-30 22:54:27.154","img/card_backs/set1/red.gif","2","-190","1","",""
"casino-fixation","94","400183","0.0-25.0-0.12","216","true","img/card_backs/set1/green.gif","img/card_backs/set1/red.gif","img/card_backs/set1/yellow.gif","img/card_backs/set1/purple.gif","img/card_backs/set2/gray.gif","img/card_backs/set2/pink.gif","img/card_backs/set2/orange.gif","img/card_backs/set2/blue.gif","""event"",""trial"",""time""
""fullscreenenter"",""1"",""4597""
","
","
","""event"",""trial"",""time""
""fullscreenenter"",""1"",""4597""
","
","","null","","null","","fixation","2021-03-30 22:54:27.656","","","","","",""
"card-selection-trial","95","402787","0.0-25.0-1.12","216","true","img/card_backs/set1/green.gif","img/card_backs/set1/red.gif","img/card_backs/set1/yellow.gif","img/card_backs/set1/purple.gif","img/card_backs/set2/gray.gif","img/card_backs/set2/pink.gif","img/card_backs/set2/orange.gif","img/card_backs/set2/blue.gif","""event"",""trial"",""time""
""fullscreenenter"",""1"",""4597""
","
","
","""event"",""trial"",""time""
""fullscreenenter"",""1"",""4597""
","
","","593.3649999788031","","","","real_trial","2021-03-30 22:54:30.261","img/card_backs/set1/red.gif","3","-190","1","",""
"casino-fixation","96","403290","0.0-25.0-0.13","216","true","img/card_backs/set1/green.gif","img/card_backs/set1/red.gif","img/card_backs/set1/yellow.gif","img/card_backs/set1/purple.gif","img/card_backs/set2/gray.gif","img/card_backs/set2/pink.gif","img/card_backs/set2/orange.gif","img/card_backs/set2/blue.gif","""event"",""trial"",""time""
""fullscreenenter"",""1"",""4597""
","
","
","""event"",""trial"",""time""
""fullscreenenter"",""1"",""4597""
","
","","null","","null","","fixation","2021-03-30 22:54:30.763","","","","","",""
"card-selection-trial","97","405997","0.0-25.0-1.13","216","true","img/card_backs/set1/green.gif","img/card_backs/set1/red.gif","img/card_backs/set1/yellow.gif","img/card_backs/set1/purple.gif","img/card_backs/set2/gray.gif","img/card_backs/set2/pink.gif","img/card_backs/set2/orange.gif","img/card_backs/set2/blue.gif","""event"",""trial"",""time""
""fullscreenenter"",""1"",""4597""
","
","
","""event"",""trial"",""time""
""fullscreenenter"",""1"",""4597""
","
","","697.5549999915529","","","","real_trial","2021-03-30 22:54:33.470","img/card_backs/set1/red.gif","3","-210","1","",""
"casino-fixation","98","406500","0.0-25.0-0.14","216","true","img/card_backs/set1/green.gif","img/card_backs/set1/red.gif","img/card_backs/set1/yellow.gif","img/card_backs/set1/purple.gif","img/card_backs/set2/gray.gif","img/card_backs/set2/pink.gif","img/card_backs/set2/orange.gif","img/card_backs/set2/blue.gif","""event"",""trial"",""time""
""fullscreenenter"",""1"",""4597""
","
","
","""event"",""trial"",""time""
""fullscreenenter"",""1"",""4597""
","
","","null","","null","","fixation","2021-03-30 22:54:33.973","","","","","",""
"card-selection-trial","99","411283","0.0-25.0-1.14","216","true","img/card_backs/set1/green.gif","img/card_backs/set1/red.gif","img/card_backs/set1/yellow.gif","img/card_backs/set1/purple.gif","img/card_backs/set2/gray.gif","img/card_backs/set2/pink.gif","img/card_backs/set2/orange.gif","img/card_backs/set2/blue.gif","""event"",""trial"",""time""
""fullscreenenter"",""1"",""4597""
","
","
","""event"",""trial"",""time""
""fullscreenenter"",""1"",""4597""
","
","","2773.1499999936204","","","","real_trial","2021-03-30 22:54:38.756","img/card_backs/set1/yellow.gif","2","-110","1","",""
"casino-fixation","100","411786","0.0-25.0-0.15","216","true","img/card_backs/set1/green.gif","img/card_backs/set1/red.gif","img/card_backs/set1/yellow.gif","img/card_backs/set1/purple.gif","img/card_backs/set2/gray.gif","img/card_backs/set2/pink.gif","img/card_backs/set2/orange.gif","img/card_backs/set2/blue.gif","""event"",""trial"",""time""
""fullscreenenter"",""1"",""4597""
","
","
","""event"",""trial"",""time""
""fullscreenenter"",""1"",""4597""
","
","","null","","null","","fixation","2021-03-30 22:54:39.259","","","","","",""
"card-selection-trial","101","414064","0.0-25.0-1.15","216","true","img/card_backs/set1/green.gif","img/card_backs/set1/red.gif","img/card_backs/set1/yellow.gif","img/card_backs/set1/purple.gif","img/card_backs/set2/gray.gif","img/card_backs/set2/pink.gif","img/card_backs/set2/orange.gif","img/card_backs/set2/blue.gif","""event"",""trial"",""time""
""fullscreenenter"",""1"",""4597""
","
","
","""event"",""trial"",""time""
""fullscreenenter"",""1"",""4597""
","
","","265.61999999103136","","","","real_trial","2021-03-30 22:54:41.537","img/card_backs/set1/yellow.gif","2","40","1","",""
"casino-fixation","102","414567","0.0-25.0-0.16","216","true","img/card_backs/set1/green.gif","img/card_backs/set1/red.gif","img/card_backs/set1/yellow.gif","img/card_backs/set1/purple.gif","img/card_backs/set2/gray.gif","img/card_backs/set2/pink.gif","img/card_backs/set2/orange.gif","img/card_backs/set2/blue.gif","""event"",""trial"",""time""
""fullscreenenter"",""1"",""4597""
","
","
","""event"",""trial"",""time""
""fullscreenenter"",""1"",""4597""
","
","","null","","null","","fixation","2021-03-30 22:54:42.040","","","","","",""
"card-selection-trial","103","417454","0.0-25.0-1.16","216","true","img/card_backs/set1/green.gif","img/card_backs/set1/red.gif","img/card_backs/set1/yellow.gif","img/card_backs/set1/purple.gif","img/card_backs/set2/gray.gif","img/card_backs/set2/pink.gif","img/card_backs/set2/orange.gif","img/card_backs/set2/blue.gif","""event"",""trial"",""time""
""fullscreenenter"",""1"",""4597""
","
","
","""event"",""trial"",""time""
""fullscreenenter"",""1"",""4597""
","
","","875.625000015134","","","","real_trial","2021-03-30 22:54:44.927","img/card_backs/set1/purple.gif","3","-110","1","",""
"casino-fixation","104","417956","0.0-25.0-0.17","216","true","img/card_backs/set1/green.gif","img/card_backs/set1/red.gif","img/card_backs/set1/yellow.gif","img/card_backs/set1/purple.gif","img/card_backs/set2/gray.gif","img/card_backs/set2/pink.gif","img/card_backs/set2/orange.gif","img/card_backs/set2/blue.gif","""event"",""trial"",""time""
""fullscreenenter"",""1"",""4597""
","
","
","""event"",""trial"",""time""
""fullscreenenter"",""1"",""4597""
","
","","null","","null","","fixation","2021-03-30 22:54:45.429","","","","","",""
"card-selection-trial","105","420916","0.0-25.0-1.17","216","true","img/card_backs/set1/green.gif","img/card_backs/set1/red.gif","img/card_backs/set1/yellow.gif","img/card_backs/set1/purple.gif","img/card_backs/set2/gray.gif","img/card_backs/set2/pink.gif","img/card_backs/set2/orange.gif","img/card_backs/set2/blue.gif","""event"",""trial"",""time""
""fullscreenenter"",""1"",""4597""
","
","
","""event"",""trial"",""time""
""fullscreenenter"",""1"",""4597""
","
","","949.4399999966845","","","","real_trial","2021-03-30 22:54:48.389","img/card_backs/set1/purple.gif","1","40","1","",""
"casino-fixation","106","421418","0.0-25.0-0.18","216","true","img/card_backs/set1/green.gif","img/card_backs/set1/red.gif","img/card_backs/set1/yellow.gif","img/card_backs/set1/purple.gif","img/card_backs/set2/gray.gif","img/card_backs/set2/pink.gif","img/card_backs/set2/orange.gif","img/card_backs/set2/blue.gif","""event"",""trial"",""time""
""fullscreenenter"",""1"",""4597""
","
","
","""event"",""trial"",""time""
""fullscreenenter"",""1"",""4597""
","
","","null","","null","","fixation","2021-03-30 22:54:48.891","","","","","",""
"card-selection-trial","107","424091","0.0-25.0-1.18","216","true","img/card_backs/set1/green.gif","img/card_backs/set1/red.gif","img/card_backs/set1/yellow.gif","img/card_backs/set1/purple.gif","img/card_backs/set2/gray.gif","img/card_backs/set2/pink.gif","img/card_backs/set2/orange.gif","img/card_backs/set2/blue.gif","""event"",""trial"",""time""
""fullscreenenter"",""1"",""4597""
","
","
","""event"",""trial"",""time""
""fullscreenenter"",""1"",""4597""
","
","","660.9000000171363","","","","real_trial","2021-03-30 22:54:51.564","img/card_backs/set1/purple.gif","2","40","1","",""
"casino-fixation","108","424594","0.0-25.0-0.19","216","true","img/card_backs/set1/green.gif","img/card_backs/set1/red.gif","img/card_backs/set1/yellow.gif","img/card_backs/set1/purple.gif","img/card_backs/set2/gray.gif","img/card_backs/set2/pink.gif","img/card_backs/set2/orange.gif","img/card_backs/set2/blue.gif","""event"",""trial"",""time""
""fullscreenenter"",""1"",""4597""
","
","
","""event"",""trial"",""time""
""fullscreenenter"",""1"",""4597""
","
","","null","","null","","fixation","2021-03-30 22:54:52.067","","","","","",""
"card-selection-trial","109","430047","0.0-25.0-1.19","216","true","img/card_backs/set1/green.gif","img/card_backs/set1/red.gif","img/card_backs/set1/yellow.gif","img/card_backs/set1/purple.gif","img/card_backs/set2/gray.gif","img/card_backs/set2/pink.gif","img/card_backs/set2/orange.gif","img/card_backs/set2/blue.gif","""event"",""trial"",""time""
""fullscreenenter"",""1"",""4597""
","
","
","""event"",""trial"",""time""
""fullscreenenter"",""1"",""4597""
","
","","3443.1000000040513","","","","real_trial","2021-03-30 22:54:57.520","img/card_backs/set1/green.gif","1","-200","1","",""
"casino-fixation","110","430551","0.0-25.0-0.20","216","true","img/card_backs/set1/green.gif","img/card_backs/set1/red.gif","img/card_backs/set1/yellow.gif","img/card_backs/set1/purple.gif","img/card_backs/set2/gray.gif","img/card_backs/set2/pink.gif","img/card_backs/set2/orange.gif","img/card_backs/set2/blue.gif","""event"",""trial"",""time""
""fullscreenenter"",""1"",""4597""
","
","
","""event"",""trial"",""time""
""fullscreenenter"",""1"",""4597""
","
","","null","","null","","fixation","2021-03-30 22:54:58.024","","","","","",""
"card-selection-trial","111","432851","0.0-25.0-1.20","216","true","img/card_backs/set1/green.gif","img/card_backs/set1/red.gif","img/card_backs/set1/yellow.gif","img/card_backs/set1/purple.gif","img/card_backs/set2/gray.gif","img/card_backs/set2/pink.gif","img/card_backs/set2/orange.gif","img/card_backs/set2/blue.gif","""event"",""trial"",""time""
""fullscreenenter"",""1"",""4597""
","
","
","""event"",""trial"",""time""
""fullscreenenter"",""1"",""4597""
","
","","289.4150000065565","","","","real_trial","2021-03-30 22:55:00.324","img/card_backs/set1/green.gif","1","-190","1","",""
"casino-fixation","112","433353","0.0-25.0-0.21","216","true","img/card_backs/set1/green.gif","img/card_backs/set1/red.gif","img/card_backs/set1/yellow.gif","img/card_backs/set1/purple.gif","img/card_backs/set2/gray.gif","img/card_backs/set2/pink.gif","img/card_backs/set2/orange.gif","img/card_backs/set2/blue.gif","""event"",""trial"",""time""
""fullscreenenter"",""1"",""4597""
","
","
","""event"",""trial"",""time""
""fullscreenenter"",""1"",""4597""
","
","","null","","null","","fixation","2021-03-30 22:55:00.826","","","","","",""
"card-selection-trial","113","435793","0.0-25.0-1.21","216","true","img/card_backs/set1/green.gif","img/card_backs/set1/red.gif","img/card_backs/set1/yellow.gif","img/card_backs/set1/purple.gif","img/card_backs/set2/gray.gif","img/card_backs/set2/pink.gif","img/card_backs/set2/orange.gif","img/card_backs/set2/blue.gif","""event"",""trial"",""time""
""fullscreenenter"",""1"",""4597""
","
","
","""event"",""trial"",""time""
""fullscreenenter"",""1"",""4597""
","
","","434.55000000540167","","","","real_trial","2021-03-30 22:55:03.266","img/card_backs/set1/yellow.gif","1","40","1","",""
"casino-fixation","114","436295","0.0-25.0-0.22","216","true","img/card_backs/set1/green.gif","img/card_backs/set1/red.gif","img/card_backs/set1/yellow.gif","img/card_backs/set1/purple.gif","img/card_backs/set2/gray.gif","img/card_backs/set2/pink.gif","img/card_backs/set2/orange.gif","img/card_backs/set2/blue.gif","""event"",""trial"",""time""
""fullscreenenter"",""1"",""4597""
","
","
","""event"",""trial"",""time""
""fullscreenenter"",""1"",""4597""
","
","","null","","null","","fixation","2021-03-30 22:55:03.769","","","","","",""
"card-selection-trial","115","439109","0.0-25.0-1.22","216","true","img/card_backs/set1/green.gif","img/card_backs/set1/red.gif","img/card_backs/set1/yellow.gif","img/card_backs/set1/purple.gif","img/card_backs/set2/gray.gif","img/card_backs/set2/pink.gif","img/card_backs/set2/orange.gif","img/card_backs/set2/blue.gif","""event"",""trial"",""time""
""fullscreenenter"",""1"",""4597""
","
","
","""event"",""trial"",""time""
""fullscreenenter"",""1"",""4597""
","
","","804.6699999831617","","","","real_trial","2021-03-30 22:55:06.583","img/card_backs/set1/green.gif","2","-200","1","",""
"casino-fixation","116","439612","0.0-25.0-0.23","216","true","img/card_backs/set1/green.gif","img/card_backs/set1/red.gif","img/card_backs/set1/yellow.gif","img/card_backs/set1/purple.gif","img/card_backs/set2/gray.gif","img/card_backs/set2/pink.gif","img/card_backs/set2/orange.gif","img/card_backs/set2/blue.gif","""event"",""trial"",""time""
""fullscreenenter"",""1"",""4597""
","
","
","""event"",""trial"",""time""
""fullscreenenter"",""1"",""4597""
","
","","null","","null","","fixation","2021-03-30 22:55:07.085","","","","","",""
"card-selection-trial","117","443157","0.0-25.0-1.23","216","true","img/card_backs/set1/green.gif","img/card_backs/set1/red.gif","img/card_backs/set1/yellow.gif","img/card_backs/set1/purple.gif","img/card_backs/set2/gray.gif","img/card_backs/set2/pink.gif","img/card_backs/set2/orange.gif","img/card_backs/set2/blue.gif","""event"",""trial"",""time""
""fullscreenenter"",""1"",""4597""
","
","
","""event"",""trial"",""time""
""fullscreenenter"",""1"",""4597""
","
","","1534.814999991795","","","","real_trial","2021-03-30 22:55:10.630","img/card_backs/set1/purple.gif","0","40","1","",""
"casino-fixation","118","443660","0.0-25.0-0.24","216","true","img/card_backs/set1/green.gif","img/card_backs/set1/red.gif","img/card_backs/set1/yellow.gif","img/card_backs/set1/purple.gif","img/card_backs/set2/gray.gif","img/card_backs/set2/pink.gif","img/card_backs/set2/orange.gif","img/card_backs/set2/blue.gif","""event"",""trial"",""time""
""fullscreenenter"",""1"",""4597""
","
","
","""event"",""trial"",""time""
""fullscreenenter"",""1"",""4597""
","
","","null","","null","","fixation","2021-03-30 22:55:11.133","","","","","",""
"card-selection-trial","119","445935","0.0-25.0-1.24","216","true","img/card_backs/set1/green.gif","img/card_backs/set1/red.gif","img/card_backs/set1/yellow.gif","img/card_backs/set1/purple.gif","img/card_backs/set2/gray.gif","img/card_backs/set2/pink.gif","img/card_backs/set2/orange.gif","img/card_backs/set2/blue.gif","""event"",""trial"",""time""
""fullscreenenter"",""1"",""4597""
","
","
","""event"",""trial"",""time""
""fullscreenenter"",""1"",""4597""
","
","","263.5900000168476","","","","real_trial","2021-03-30 22:55:13.408","img/card_backs/set1/green.gif","0","240","1","",""
"casino-fixation","120","446439","0.0-25.0-0.25","216","true","img/card_backs/set1/green.gif","img/card_backs/set1/red.gif","img/card_backs/set1/yellow.gif","img/card_backs/set1/purple.gif","img/card_backs/set2/gray.gif","img/card_backs/set2/pink.gif","img/card_backs/set2/orange.gif","img/card_backs/set2/blue.gif","""event"",""trial"",""time""
""fullscreenenter"",""1"",""4597""
","
","
","""event"",""trial"",""time""
""fullscreenenter"",""1"",""4597""
","
","","null","","null","","fixation","2021-03-30 22:55:13.912","","","","","",""
"card-selection-trial","121","449737","0.0-25.0-1.25","216","true","img/card_backs/set1/green.gif","img/card_backs/set1/red.gif","img/card_backs/set1/yellow.gif","img/card_backs/set1/purple.gif","img/card_backs/set2/gray.gif","img/card_backs/set2/pink.gif","img/card_backs/set2/orange.gif","img/card_backs/set2/blue.gif","""event"",""trial"",""time""
""fullscreenenter"",""1"",""4597""
","
","
","""event"",""trial"",""time""
""fullscreenenter"",""1"",""4597""
","
","","1288.0949999962468","","","","real_trial","2021-03-30 22:55:17.211","img/card_backs/set1/purple.gif","3","40","1","",""
"casino-fixation","122","450240","0.0-25.0-0.26","216","true","img/card_backs/set1/green.gif","img/card_backs/set1/red.gif","img/card_backs/set1/yellow.gif","img/card_backs/set1/purple.gif","img/card_backs/set2/gray.gif","img/card_backs/set2/pink.gif","img/card_backs/set2/orange.gif","img/card_backs/set2/blue.gif","""event"",""trial"",""time""
""fullscreenenter"",""1"",""4597""
","
","
","""event"",""trial"",""time""
""fullscreenenter"",""1"",""4597""
","
","","null","","null","","fixation","2021-03-30 22:55:17.713","","","","","",""
"card-selection-trial","123","453692","0.0-25.0-1.26","216","true","img/card_backs/set1/green.gif","img/card_backs/set1/red.gif","img/card_backs/set1/yellow.gif","img/card_backs/set1/purple.gif","img/card_backs/set2/gray.gif","img/card_backs/set2/pink.gif","img/card_backs/set2/orange.gif","img/card_backs/set2/blue.gif","""event"",""trial"",""time""
""fullscreenenter"",""1"",""4597""
","
","
","""event"",""trial"",""time""
""fullscreenenter"",""1"",""4597""
","
","","1441.2799999990966","","","","real_trial","2021-03-30 22:55:21.165","img/card_backs/set1/yellow.gif","2","-90","1","",""
"casino-fixation","124","454195","0.0-25.0-0.27","216","true","img/card_backs/set1/green.gif","img/card_backs/set1/red.gif","img/card_backs/set1/yellow.gif","img/card_backs/set1/purple.gif","img/card_backs/set2/gray.gif","img/card_backs/set2/pink.gif","img/card_backs/set2/orange.gif","img/card_backs/set2/blue.gif","""event"",""trial"",""time""
""fullscreenenter"",""1"",""4597""
","
","
","""event"",""trial"",""time""
""fullscreenenter"",""1"",""4597""
","
","","null","","null","","fixation","2021-03-30 22:55:21.668","","","","","",""
"card-selection-trial","125","456864","0.0-25.0-1.27","216","true","img/card_backs/set1/green.gif","img/card_backs/set1/red.gif","img/card_backs/set1/yellow.gif","img/card_backs/set1/purple.gif","img/card_backs/set2/gray.gif","img/card_backs/set2/pink.gif","img/card_backs/set2/orange.gif","img/card_backs/set2/blue.gif","""event"",""trial"",""time""
""fullscreenenter"",""1"",""4597""
","
","
","""event"",""trial"",""time""
""fullscreenenter"",""1"",""4597""
","
","","659.1449999832548","","","","real_trial","2021-03-30 22:55:24.337","img/card_backs/set1/yellow.gif","0","-100","1","",""
"casino-fixation","126","457366","0.0-25.0-0.28","216","true","img/card_backs/set1/green.gif","img/card_backs/set1/red.gif","img/card_backs/set1/yellow.gif","img/card_backs/set1/purple.gif","img/card_backs/set2/gray.gif","img/card_backs/set2/pink.gif","img/card_backs/set2/orange.gif","img/card_backs/set2/blue.gif","""event"",""trial"",""time""
""fullscreenenter"",""1"",""4597""
","
","
","""event"",""trial"",""time""
""fullscreenenter"",""1"",""4597""
","
","","null","","null","","fixation","2021-03-30 22:55:24.840","","","","","",""
"card-selection-trial","127","460985","0.0-25.0-1.28","216","true","img/card_backs/set1/green.gif","img/card_backs/set1/red.gif","img/card_backs/set1/yellow.gif","img/card_backs/set1/purple.gif","img/card_backs/set2/gray.gif","img/card_backs/set2/pink.gif","img/card_backs/set2/orange.gif","img/card_backs/set2/blue.gif","""event"",""trial"",""time""
""fullscreenenter"",""1"",""4597""
","
","
","""event"",""trial"",""time""
""fullscreenenter"",""1"",""4597""
","
","","1607.0750000071712","","","","real_trial","2021-03-30 22:55:28.458","img/card_backs/set1/purple.gif","0","60","1","",""
"casino-fixation","128","461488","0.0-25.0-0.29","216","true","img/card_backs/set1/green.gif","img/card_backs/set1/red.gif","img/card_backs/set1/yellow.gif","img/card_backs/set1/purple.gif","img/card_backs/set2/gray.gif","img/card_backs/set2/pink.gif","img/card_backs/set2/orange.gif","img/card_backs/set2/blue.gif","""event"",""trial"",""time""
""fullscreenenter"",""1"",""4597""
","
","
","""event"",""trial"",""time""
""fullscreenenter"",""1"",""4597""
","
","","null","","null","","fixation","2021-03-30 22:55:28.962","","","","","",""
"card-selection-trial","129","464063","0.0-25.0-1.29","216","true","img/card_backs/set1/green.gif","img/card_backs/set1/red.gif","img/card_backs/set1/yellow.gif","img/card_backs/set1/purple.gif","img/card_backs/set2/gray.gif","img/card_backs/set2/pink.gif","img/card_backs/set2/orange.gif","img/card_backs/set2/blue.gif","""event"",""trial"",""time""
""fullscreenenter"",""1"",""4597""
","
","
","""event"",""trial"",""time""
""fullscreenenter"",""1"",""4597""
","
","","564.6100000012666","","","","real_trial","2021-03-30 22:55:31.536","img/card_backs/set1/green.gif","0","-200","1","",""
"casino-fixation","130","464566","0.0-25.0-0.30","216","true","img/card_backs/set1/green.gif","img/card_backs/set1/red.gif","img/card_backs/set1/yellow.gif","img/card_backs/set1/purple.gif","img/card_backs/set2/gray.gif","img/card_backs/set2/pink.gif","img/card_backs/set2/orange.gif","img/card_backs/set2/blue.gif","""event"",""trial"",""time""
""fullscreenenter"",""1"",""4597""
","
","
","""event"",""trial"",""time""
""fullscreenenter"",""1"",""4597""
","
","","null","","null","","fixation","2021-03-30 22:55:32.039","","","","","",""
"card-selection-trial","131","467388","0.0-25.0-1.30","216","true","img/card_backs/set1/green.gif","img/card_backs/set1/red.gif","img/card_backs/set1/yellow.gif","img/card_backs/set1/purple.gif","img/card_backs/set2/gray.gif","img/card_backs/set2/pink.gif","img/card_backs/set2/orange.gif","img/card_backs/set2/blue.gif","""event"",""trial"",""time""
""fullscreenenter"",""1"",""4597""
","
","
","""event"",""trial"",""time""
""fullscreenenter"",""1"",""4597""
","
","","811.9100000185426","","","","real_trial","2021-03-30 22:55:34.861","img/card_backs/set1/purple.gif","3","-110","1","",""
"casino-fixation","132","467891","0.0-25.0-0.31","216","true","img/card_backs/set1/green.gif","img/card_backs/set1/red.gif","img/card_backs/set1/yellow.gif","img/card_backs/set1/purple.gif","img/card_backs/set2/gray.gif","img/card_backs/set2/pink.gif","img/card_backs/set2/orange.gif","img/card_backs/set2/blue.gif","""event"",""trial"",""time""
""fullscreenenter"",""1"",""4597""
","
","
","""event"",""trial"",""time""
""fullscreenenter"",""1"",""4597""
","
","","null","","null","","fixation","2021-03-30 22:55:35.364","","","","","",""
"card-selection-trial","133","470916","0.0-25.0-1.31","216","true","img/card_backs/set1/green.gif","img/card_backs/set1/red.gif","img/card_backs/set1/yellow.gif","img/card_backs/set1/purple.gif","img/card_backs/set2/gray.gif","img/card_backs/set2/pink.gif","img/card_backs/set2/orange.gif","img/card_backs/set2/blue.gif","""event"",""trial"",""time""
""fullscreenenter"",""1"",""4597""
","
","
","""event"",""trial"",""time""
""fullscreenenter"",""1"",""4597""
","
","","1014.4750000035856","","","","real_trial","2021-03-30 22:55:38.389","img/card_backs/set1/red.gif","3","-210","1","",""
"casino-fixation","134","471418","0.0-25.0-0.32","216","true","img/card_backs/set1/green.gif","img/card_backs/set1/red.gif","img/card_backs/set1/yellow.gif","img/card_backs/set1/purple.gif","img/card_backs/set2/gray.gif","img/card_backs/set2/pink.gif","img/card_backs/set2/orange.gif","img/card_backs/set2/blue.gif","""event"",""trial"",""time""
""fullscreenenter"",""1"",""4597""
","
","
","""event"",""trial"",""time""
""fullscreenenter"",""1"",""4597""
","
","","null","","null","","fixation","2021-03-30 22:55:38.891","","","","","",""
"card-selection-trial","135","475335","0.0-25.0-1.32","216","true","img/card_backs/set1/green.gif","img/card_backs/set1/red.gif","img/card_backs/set1/yellow.gif","img/card_backs/set1/purple.gif","img/card_backs/set2/gray.gif","img/card_backs/set2/pink.gif","img/card_backs/set2/orange.gif","img/card_backs/set2/blue.gif","""event"",""trial"",""time""
""fullscreenenter"",""1"",""4597""
","
","
","""event"",""trial"",""time""
""fullscreenenter"",""1"",""4597""
","
","","1906.4849999849685","","","","real_trial","2021-03-30 22:55:42.808","img/card_backs/set1/yellow.gif","1","40","1","",""
"casino-fixation","136","475838","0.0-25.0-0.33","216","true","img/card_backs/set1/green.gif","img/card_backs/set1/red.gif","img/card_backs/set1/yellow.gif","img/card_backs/set1/purple.gif","img/card_backs/set2/gray.gif","img/card_backs/set2/pink.gif","img/card_backs/set2/orange.gif","img/card_backs/set2/blue.gif","""event"",""trial"",""time""
""fullscreenenter"",""1"",""4597""
","
","
","""event"",""trial"",""time""
""fullscreenenter"",""1"",""4597""
","
","","null","","null","","fixation","2021-03-30 22:55:43.311","","","","","",""
"card-selection-trial","137","478581","0.0-25.0-1.33","216","true","img/card_backs/set1/green.gif","img/card_backs/set1/red.gif","img/card_backs/set1/yellow.gif","img/card_backs/set1/purple.gif","img/card_backs/set2/gray.gif","img/card_backs/set2/pink.gif","img/card_backs/set2/orange.gif","img/card_backs/set2/blue.gif","""event"",""trial"",""time""
""fullscreenenter"",""1"",""4597""
","
","
","""event"",""trial"",""time""
""fullscreenenter"",""1"",""4597""
","
","","731.4250000054017","","","","real_trial","2021-03-30 22:55:46.054","img/card_backs/set1/yellow.gif","1","-90","1","",""
"casino-fixation","138","479083","0.0-25.0-0.34","216","true","img/card_backs/set1/green.gif","img/card_backs/set1/red.gif","img/card_backs/set1/yellow.gif","img/card_backs/set1/purple.gif","img/card_backs/set2/gray.gif","img/card_backs/set2/pink.gif","img/card_backs/set2/orange.gif","img/card_backs/set2/blue.gif","""event"",""trial"",""time""
""fullscreenenter"",""1"",""4597""
","
","
","""event"",""trial"",""time""
""fullscreenenter"",""1"",""4597""
","
","","null","","null","","fixation","2021-03-30 22:55:46.556","","","","","",""
"card-selection-trial","139","481800","0.0-25.0-1.34","216","true","img/card_backs/set1/green.gif","img/card_backs/set1/red.gif","img/card_backs/set1/yellow.gif","img/card_backs/set1/purple.gif","img/card_backs/set2/gray.gif","img/card_backs/set2/pink.gif","img/card_backs/set2/orange.gif","img/card_backs/set2/blue.gif","""event"",""trial"",""time""
""fullscreenenter"",""1"",""4597""
","
","
","""event"",""trial"",""time""
""fullscreenenter"",""1"",""4597""
","
","","708.295000018552","","","","real_trial","2021-03-30 22:55:49.273","img/card_backs/set1/yellow.gif","2","60","1","",""
"casino-fixation","140","482302","0.0-25.0-0.35","216","true","img/card_backs/set1/green.gif","img/card_backs/set1/red.gif","img/card_backs/set1/yellow.gif","img/card_backs/set1/purple.gif","img/card_backs/set2/gray.gif","img/card_backs/set2/pink.gif","img/card_backs/set2/orange.gif","img/card_backs/set2/blue.gif","""event"",""trial"",""time""
""fullscreenenter"",""1"",""4597""
","
","
","""event"",""trial"",""time""
""fullscreenenter"",""1"",""4597""
","
","","null","","null","","fixation","2021-03-30 22:55:49.775","","","","","",""
"card-selection-trial","141","484918","0.0-25.0-1.35","216","true","img/card_backs/set1/green.gif","img/card_backs/set1/red.gif","img/card_backs/set1/yellow.gif","img/card_backs/set1/purple.gif","img/card_backs/set2/gray.gif","img/card_backs/set2/pink.gif","img/card_backs/set2/orange.gif","img/card_backs/set2/blue.gif","""event"",""trial"",""time""
""fullscreenenter"",""1"",""4597""
","
","
","""event"",""trial"",""time""
""fullscreenenter"",""1"",""4597""
","
","","605.0699999905191","","","","real_trial","2021-03-30 22:55:52.391","img/card_backs/set1/yellow.gif","0","50","1","",""
"casino-fixation","142","485419","0.0-25.0-0.36","216","true","img/card_backs/set1/green.gif","img/card_backs/set1/red.gif","img/card_backs/set1/yellow.gif","img/card_backs/set1/purple.gif","img/card_backs/set2/gray.gif","img/card_backs/set2/pink.gif","img/card_backs/set2/orange.gif","img/card_backs/set2/blue.gif","""event"",""trial"",""time""
""fullscreenenter"",""1"",""4597""
","
","
","""event"",""trial"",""time""
""fullscreenenter"",""1"",""4597""
","
","","null","","null","","fixation","2021-03-30 22:55:52.892","","","","","",""
"card-selection-trial","143","487829","0.0-25.0-1.36","216","true","img/card_backs/set1/green.gif","img/card_backs/set1/red.gif","img/card_backs/set1/yellow.gif","img/card_backs/set1/purple.gif","img/card_backs/set2/gray.gif","img/card_backs/set2/pink.gif","img/card_backs/set2/orange.gif","img/card_backs/set2/blue.gif","""event"",""trial"",""time""
""fullscreenenter"",""1"",""4597""
","
","
","""event"",""trial"",""time""
""fullscreenenter"",""1"",""4597""
","
","","398.81499999319203","","","","real_trial","2021-03-30 22:55:55.302","img/card_backs/set1/yellow.gif","2","40","1","",""
"casino-fixation","144","488331","0.0-25.0-0.37","216","true","img/card_backs/set1/green.gif","img/card_backs/set1/red.gif","img/card_backs/set1/yellow.gif","img/card_backs/set1/purple.gif","img/card_backs/set2/gray.gif","img/card_backs/set2/pink.gif","img/card_backs/set2/orange.gif","img/card_backs/set2/blue.gif","""event"",""trial"",""time""
""fullscreenenter"",""1"",""4597""
","
","
","""event"",""trial"",""time""
""fullscreenenter"",""1"",""4597""
","
","","null","","null","","fixation","2021-03-30 22:55:55.804","","","","","",""
"card-selection-trial","145","490984","0.0-25.0-1.37","216","true","img/card_backs/set1/green.gif","img/card_backs/set1/red.gif","img/card_backs/set1/yellow.gif","img/card_backs/set1/purple.gif","img/card_backs/set2/gray.gif","img/card_backs/set2/pink.gif","img/card_backs/set2/orange.gif","img/card_backs/set2/blue.gif","""event"",""trial"",""time""
""fullscreenenter"",""1"",""4597""
","
","
","""event"",""trial"",""time""
""fullscreenenter"",""1"",""4597""
","
","","640.9900000144262","","","","real_trial","2021-03-30 22:55:58.457","img/card_backs/set1/yellow.gif","1","50","1","",""
"casino-fixation","146","491489","0.0-25.0-0.38","216","true","img/card_backs/set1/green.gif","img/card_backs/set1/red.gif","img/card_backs/set1/yellow.gif","img/card_backs/set1/purple.gif","img/card_backs/set2/gray.gif","img/card_backs/set2/pink.gif","img/card_backs/set2/orange.gif","img/card_backs/set2/blue.gif","""event"",""trial"",""time""
""fullscreenenter"",""1"",""4597""
","
","
","""event"",""trial"",""time""
""fullscreenenter"",""1"",""4597""
","
","","null","","null","","fixation","2021-03-30 22:55:58.962","","","","","",""
"card-selection-trial","147","494741","0.0-25.0-1.38","216","true","img/card_backs/set1/green.gif","img/card_backs/set1/red.gif","img/card_backs/set1/yellow.gif","img/card_backs/set1/purple.gif","img/card_backs/set2/gray.gif","img/card_backs/set2/pink.gif","img/card_backs/set2/orange.gif","img/card_backs/set2/blue.gif","""event"",""trial"",""time""
""fullscreenenter"",""1"",""4597""
","
","
","""event"",""trial"",""time""
""fullscreenenter"",""1"",""4597""
","
","","1208.7049999972805","","","","real_trial","2021-03-30 22:56:02.214","img/card_backs/set1/yellow.gif","1","-90","1","",""
"casino-fixation","148","495243","0.0-25.0-0.39","216","true","img/card_backs/set1/green.gif","img/card_backs/set1/red.gif","img/card_backs/set1/yellow.gif","img/card_backs/set1/purple.gif","img/card_backs/set2/gray.gif","img/card_backs/set2/pink.gif","img/card_backs/set2/orange.gif","img/card_backs/set2/blue.gif","""event"",""trial"",""time""
""fullscreenenter"",""1"",""4597""
","
","
","""event"",""trial"",""time""
""fullscreenenter"",""1"",""4597""
","
","","null","","null","","fixation","2021-03-30 22:56:02.717","","","","","",""
"card-selection-trial","149","497857","0.0-25.0-1.39","216","true","img/card_backs/set1/green.gif","img/card_backs/set1/red.gif","img/card_backs/set1/yellow.gif","img/card_backs/set1/purple.gif","img/card_backs/set2/gray.gif","img/card_backs/set2/pink.gif","img/card_backs/set2/orange.gif","img/card_backs/set2/blue.gif","""event"",""trial"",""time""
""fullscreenenter"",""1"",""4597""
","
","
","""event"",""trial"",""time""
""fullscreenenter"",""1"",""4597""
","
","","602.7849999954924","","","","real_trial","2021-03-30 22:56:05.331","img/card_backs/set1/yellow.gif","2","50","1","",""
"casino-fixation","150","498360","0.0-25.0-0.40","216","true","img/card_backs/set1/green.gif","img/card_backs/set1/red.gif","img/card_backs/set1/yellow.gif","img/card_backs/set1/purple.gif","img/card_backs/set2/gray.gif","img/card_backs/set2/pink.gif","img/card_backs/set2/orange.gif","img/card_backs/set2/blue.gif","""event"",""trial"",""time""
""fullscreenenter"",""1"",""4597""
","
","
","""event"",""trial"",""time""
""fullscreenenter"",""1"",""4597""
","
","","null","","null","","fixation","2021-03-30 22:56:05.833","","","","","",""
"card-selection-trial","151","500939","0.0-25.0-1.40","216","true","img/card_backs/set1/green.gif","img/card_backs/set1/red.gif","img/card_backs/set1/yellow.gif","img/card_backs/set1/purple.gif","img/card_backs/set2/gray.gif","img/card_backs/set2/pink.gif","img/card_backs/set2/orange.gif","img/card_backs/set2/blue.gif","""event"",""trial"",""time""
""fullscreenenter"",""1"",""4597""
","
","
","""event"",""trial"",""time""
""fullscreenenter"",""1"",""4597""
","
","","569.6300000126939","","","","real_trial","2021-03-30 22:56:08.412","img/card_backs/set1/yellow.gif","1","40","1","",""
"casino-fixation","152","501441","0.0-25.0-0.41","216","true","img/card_backs/set1/green.gif","img/card_backs/set1/red.gif","img/card_backs/set1/yellow.gif","img/card_backs/set1/purple.gif","img/card_backs/set2/gray.gif","img/card_backs/set2/pink.gif","img/card_backs/set2/orange.gif","img/card_backs/set2/blue.gif","""event"",""trial"",""time""
""fullscreenenter"",""1"",""4597""
","
","
","""event"",""trial"",""time""
""fullscreenenter"",""1"",""4597""
","
","","null","","null","","fixation","2021-03-30 22:56:08.914","","","","","",""
"card-selection-trial","153","503928","0.0-25.0-1.41","216","true","img/card_backs/set1/green.gif","img/card_backs/set1/red.gif","img/card_backs/set1/yellow.gif","img/card_backs/set1/purple.gif","img/card_backs/set2/gray.gif","img/card_backs/set2/pink.gif","img/card_backs/set2/orange.gif","img/card_backs/set2/blue.gif","""event"",""trial"",""time""
""fullscreenenter"",""1"",""4597""
","
","
","""event"",""trial"",""time""
""fullscreenenter"",""1"",""4597""
","
","","476.25999999581836","","","","real_trial","2021-03-30 22:56:11.401","img/card_backs/set1/yellow.gif","3","-100","1","",""
"casino-fixation","154","504431","0.0-25.0-0.42","216","true","img/card_backs/set1/green.gif","img/card_backs/set1/red.gif","img/card_backs/set1/yellow.gif","img/card_backs/set1/purple.gif","img/card_backs/set2/gray.gif","img/card_backs/set2/pink.gif","img/card_backs/set2/orange.gif","img/card_backs/set2/blue.gif","""event"",""trial"",""time""
""fullscreenenter"",""1"",""4597""
","
","
","""event"",""trial"",""time""
""fullscreenenter"",""1"",""4597""
","
","","null","","null","","fixation","2021-03-30 22:56:11.904","","","","","",""
"card-selection-trial","155","506796","0.0-25.0-1.42","216","true","img/card_backs/set1/green.gif","img/card_backs/set1/red.gif","img/card_backs/set1/yellow.gif","img/card_backs/set1/purple.gif","img/card_backs/set2/gray.gif","img/card_backs/set2/pink.gif","img/card_backs/set2/orange.gif","img/card_backs/set2/blue.gif","""event"",""trial"",""time""
""fullscreenenter"",""1"",""4597""
","
","
","""event"",""trial"",""time""
""fullscreenenter"",""1"",""4597""
","
","","355.71499998332","","","","real_trial","2021-03-30 22:56:14.269","img/card_backs/set1/yellow.gif","1","60","1","",""
"casino-fixation","156","507299","0.0-25.0-0.43","216","true","img/card_backs/set1/green.gif","img/card_backs/set1/red.gif","img/card_backs/set1/yellow.gif","img/card_backs/set1/purple.gif","img/card_backs/set2/gray.gif","img/card_backs/set2/pink.gif","img/card_backs/set2/orange.gif","img/card_backs/set2/blue.gif","""event"",""trial"",""time""
""fullscreenenter"",""1"",""4597""
","
","
","""event"",""trial"",""time""
""fullscreenenter"",""1"",""4597""
","
","","null","","null","","fixation","2021-03-30 22:56:14.773","","","","","",""
"card-selection-trial","157","509717","0.0-25.0-1.43","216","true","img/card_backs/set1/green.gif","img/card_backs/set1/red.gif","img/card_backs/set1/yellow.gif","img/card_backs/set1/purple.gif","img/card_backs/set2/gray.gif","img/card_backs/set2/pink.gif","img/card_backs/set2/orange.gif","img/card_backs/set2/blue.gif","""event"",""trial"",""time""
""fullscreenenter"",""1"",""4597""
","
","
","""event"",""trial"",""time""
""fullscreenenter"",""1"",""4597""
","
","","405.4699999978766","","","","real_trial","2021-03-30 22:56:17.190","img/card_backs/set1/yellow.gif","3","40","1","",""
"casino-fixation","158","510219","0.0-25.0-0.44","216","true","img/card_backs/set1/green.gif","img/card_backs/set1/red.gif","img/card_backs/set1/yellow.gif","img/card_backs/set1/purple.gif","img/card_backs/set2/gray.gif","img/card_backs/set2/pink.gif","img/card_backs/set2/orange.gif","img/card_backs/set2/blue.gif","""event"",""trial"",""time""
""fullscreenenter"",""1"",""4597""
","
","
","""event"",""trial"",""time""
""fullscreenenter"",""1"",""4597""
","
","","null","","null","","fixation","2021-03-30 22:56:17.693","","","","","",""
"card-selection-trial","159","512672","0.0-25.0-1.44","216","true","img/card_backs/set1/green.gif","img/card_backs/set1/red.gif","img/card_backs/set1/yellow.gif","img/card_backs/set1/purple.gif","img/card_backs/set2/gray.gif","img/card_backs/set2/pink.gif","img/card_backs/set2/orange.gif","img/card_backs/set2/blue.gif","""event"",""trial"",""time""
""fullscreenenter"",""1"",""4597""
","
","
","""event"",""trial"",""time""
""fullscreenenter"",""1"",""4597""
","
","","442.9050000035204","","","","real_trial","2021-03-30 22:56:20.145","img/card_backs/set1/yellow.gif","1","-110","1","",""
"casino-fixation","160","513174","0.0-25.0-0.45","216","true","img/card_backs/set1/green.gif","img/card_backs/set1/red.gif","img/card_backs/set1/yellow.gif","img/card_backs/set1/purple.gif","img/card_backs/set2/gray.gif","img/card_backs/set2/pink.gif","img/card_backs/set2/orange.gif","img/card_backs/set2/blue.gif","""event"",""trial"",""time""
""fullscreenenter"",""1"",""4597""
","
","
","""event"",""trial"",""time""
""fullscreenenter"",""1"",""4597""
","
","","null","","null","","fixation","2021-03-30 22:56:20.647","","","","","",""
"card-selection-trial","161","515843","0.0-25.0-1.45","216","true","img/card_backs/set1/green.gif","img/card_backs/set1/red.gif","img/card_backs/set1/yellow.gif","img/card_backs/set1/purple.gif","img/card_backs/set2/gray.gif","img/card_backs/set2/pink.gif","img/card_backs/set2/orange.gif","img/card_backs/set2/blue.gif","""event"",""trial"",""time""
""fullscreenenter"",""1"",""4597""
","
","
","""event"",""trial"",""time""
""fullscreenenter"",""1"",""4597""
","
","","657.0749999955297","","","","real_trial","2021-03-30 22:56:23.316","img/card_backs/set1/yellow.gif","2","-110","1","",""
"casino-fixation","162","516346","0.0-25.0-0.46","216","true","img/card_backs/set1/green.gif","img/card_backs/set1/red.gif","img/card_backs/set1/yellow.gif","img/card_backs/set1/purple.gif","img/card_backs/set2/gray.gif","img/card_backs/set2/pink.gif","img/card_backs/set2/orange.gif","img/card_backs/set2/blue.gif","""event"",""trial"",""time""
""fullscreenenter"",""1"",""4597""
","
","
","""event"",""trial"",""time""
""fullscreenenter"",""1"",""4597""
","
","","null","","null","","fixation","2021-03-30 22:56:23.819","","","","","",""
"card-selection-trial","163","519176","0.0-25.0-1.46","216","true","img/card_backs/set1/green.gif","img/card_backs/set1/red.gif","img/card_backs/set1/yellow.gif","img/card_backs/set1/purple.gif","img/card_backs/set2/gray.gif","img/card_backs/set2/pink.gif","img/card_backs/set2/orange.gif","img/card_backs/set2/blue.gif","""event"",""trial"",""time""
""fullscreenenter"",""1"",""4597""
","
","
","""event"",""trial"",""time""
""fullscreenenter"",""1"",""4597""
","
","","821.1549999832641","","","","real_trial","2021-03-30 22:56:26.649","img/card_backs/set1/red.gif","1","-200","1","",""
"casino-fixation","164","519679","0.0-25.0-0.47","216","true","img/card_backs/set1/green.gif","img/card_backs/set1/red.gif","img/card_backs/set1/yellow.gif","img/card_backs/set1/purple.gif","img/card_backs/set2/gray.gif","img/card_backs/set2/pink.gif","img/card_backs/set2/orange.gif","img/card_backs/set2/blue.gif","""event"",""trial"",""time""
""fullscreenenter"",""1"",""4597""
","
","
","""event"",""trial"",""time""
""fullscreenenter"",""1"",""4597""
","
","","null","","null","","fixation","2021-03-30 22:56:27.152","","","","","",""
"card-selection-trial","165","521949","0.0-25.0-1.47","216","true","img/card_backs/set1/green.gif","img/card_backs/set1/red.gif","img/card_backs/set1/yellow.gif","img/card_backs/set1/purple.gif","img/card_backs/set2/gray.gif","img/card_backs/set2/pink.gif","img/card_backs/set2/orange.gif","img/card_backs/set2/blue.gif","""event"",""trial"",""time""
""fullscreenenter"",""1"",""4597""
","
","
","""event"",""trial"",""time""
""fullscreenenter"",""1"",""4597""
","
","","260.1449999783654","","","","real_trial","2021-03-30 22:56:29.422","img/card_backs/set1/red.gif","1","250","1","",""
"casino-fixation","166","522453","0.0-25.0-0.48","216","true","img/card_backs/set1/green.gif","img/card_backs/set1/red.gif","img/card_backs/set1/yellow.gif","img/card_backs/set1/purple.gif","img/card_backs/set2/gray.gif","img/card_backs/set2/pink.gif","img/card_backs/set2/orange.gif","img/card_backs/set2/blue.gif","""event"",""trial"",""time""
""fullscreenenter"",""1"",""4597""
","
","
","""event"",""trial"",""time""
""fullscreenenter"",""1"",""4597""
","
","","null","","null","","fixation","2021-03-30 22:56:29.926","","","","","",""
"card-selection-trial","167","524749","0.0-25.0-1.48","216","true","img/card_backs/set1/green.gif","img/card_backs/set1/red.gif","img/card_backs/set1/yellow.gif","img/card_backs/set1/purple.gif","img/card_backs/set2/gray.gif","img/card_backs/set2/pink.gif","img/card_backs/set2/orange.gif","img/card_backs/set2/blue.gif","""event"",""trial"",""time""
""fullscreenenter"",""1"",""4597""
","
","
","""event"",""trial"",""time""
""fullscreenenter"",""1"",""4597""
","
