"trial_type","trial_index","time_elapsed","internal_node_id","sub_id","risk_good_first","block1_A","block1_B","block1_C","block1_D","block2_A","block2_B","block2_C","block2_D","interactions","blur_events","focus_events","fullscreenenter_events","fullscreenexit_events","success","rt","stimulus","key_press","button_pressed","task_part","timestamp","card_choice","choice_position","points_earned","block","correct","response"
"pavlovia","0","2","0.0-0.0","858","true","img/card_backs/set1/green.gif","img/card_backs/set1/purple.gif","img/card_backs/set1/yellow.gif","img/card_backs/set1/red.gif","img/card_backs/set2/gray.gif","img/card_backs/set2/blue.gif","img/card_backs/set2/orange.gif","img/card_backs/set2/pink.gif","""event"",""trial"",""time""
""fullscreenenter"",""1"",""3033""
","
","
","""event"",""trial"",""time""
""fullscreenenter"",""1"",""3033""
","
","","","","","","","","","","","","",""
"fullscreen","1","3992","0.0-1.0","858","true","img/card_backs/set1/green.gif","img/card_backs/set1/purple.gif","img/card_backs/set1/yellow.gif","img/card_backs/set1/red.gif","img/card_backs/set2/gray.gif","img/card_backs/set2/blue.gif","img/card_backs/set2/orange.gif","img/card_backs/set2/pink.gif","""event"",""trial"",""time""
""fullscreenenter"",""1"",""3033""
","
","
","""event"",""trial"",""time""
""fullscreenenter"",""1"",""3033""
","
","true","","","","","","","","","","","",""
"audio-keyboard-response","2","6236","0.0-2.0","858","true","img/card_backs/set1/green.gif","img/card_backs/set1/purple.gif","img/card_backs/set1/yellow.gif","img/card_backs/set1/red.gif","img/card_backs/set2/gray.gif","img/card_backs/set2/blue.gif","img/card_backs/set2/orange.gif","img/card_backs/set2/pink.gif","""event"",""trial"",""time""
""fullscreenenter"",""1"",""3033""
","
","
","""event"",""trial"",""time""
""fullscreenenter"",""1"",""3033""
","
","","2203","audio/beep_loop.wav","32","","","","","","","","",""
"audio-button-response","3","12336","0.0-3.0","858","true","img/card_backs/set1/green.gif","img/card_backs/set1/purple.gif","img/card_backs/set1/yellow.gif","img/card_backs/set1/red.gif","img/card_backs/set2/gray.gif","img/card_backs/set2/blue.gif","img/card_backs/set2/orange.gif","img/card_backs/set2/pink.gif","""event"",""trial"",""time""
""fullscreenenter"",""1"",""3033""
","
","
","""event"",""trial"",""time""
""fullscreenenter"",""1"",""3033""
","
","","NaN","audio/turtle.mp3","","3","","","","","","","",""
"audio-button-response","4","14794","0.0-4.0","858","true","img/card_backs/set1/green.gif","img/card_backs/set1/purple.gif","img/card_backs/set1/yellow.gif","img/card_backs/set1/red.gif","img/card_backs/set2/gray.gif","img/card_backs/set2/blue.gif","img/card_backs/set2/orange.gif","img/card_backs/set2/pink.gif","""event"",""trial"",""time""
""fullscreenenter"",""1"",""3033""
","
","
","""event"",""trial"",""time""
""fullscreenenter"",""1"",""3033""
","
","","NaN","audio/shark.mp3","","2","","","","","","","",""
"fullscreen","5","17970","0.0-5.0","858","true","img/card_backs/set1/green.gif","img/card_backs/set1/purple.gif","img/card_backs/set1/yellow.gif","img/card_backs/set1/red.gif","img/card_backs/set2/gray.gif","img/card_backs/set2/blue.gif","img/card_backs/set2/orange.gif","img/card_backs/set2/pink.gif","""event"",""trial"",""time""
""fullscreenenter"",""1"",""3033""
","
","
","""event"",""trial"",""time""
""fullscreenenter"",""1"",""3033""
","
","true","","","","","","","","","","","",""
"casino-keyboard-response","6","21035","0.0-6.0-0.0","858","true","img/card_backs/set1/green.gif","img/card_backs/set1/purple.gif","img/card_backs/set1/yellow.gif","img/card_backs/set1/red.gif","img/card_backs/set2/gray.gif","img/card_backs/set2/blue.gif","img/card_backs/set2/orange.gif","img/card_backs/set2/pink.gif","""event"",""trial"",""time""
""fullscreenenter"",""1"",""3033""
","
","
","""event"",""trial"",""time""
""fullscreenenter"",""1"",""3033""
","
","","3059.8300000056042","Welcome to the casino!","71","","instructions","2021-04-12 19:29:11.832","","","","","",""
"casino-keyboard-response","7","30310","0.0-6.0-0.1","858","true","img/card_backs/set1/green.gif","img/card_backs/set1/purple.gif","img/card_backs/set1/yellow.gif","img/card_backs/set1/red.gif","img/card_backs/set2/gray.gif","img/card_backs/set2/blue.gif","img/card_backs/set2/orange.gif","img/card_backs/set2/pink.gif","""event"",""trial"",""time""
""fullscreenenter"",""1"",""3033""
","
","
","""event"",""trial"",""time""
""fullscreenenter"",""1"",""3033""
","
","","9272.12000000145","Today you will be playing a game to earn tokens. </br> At the end of the experiment, you will be paid a bonus based on how many tokens you win. ","69","","instructions","2021-04-12 19:29:21.107","","","","","",""
"casino-keyboard-response","8","37509","0.0-6.0-0.2","858","true","img/card_backs/set1/green.gif","img/card_backs/set1/purple.gif","img/card_backs/set1/yellow.gif","img/card_backs/set1/red.gif","img/card_backs/set2/gray.gif","img/card_backs/set2/blue.gif","img/card_backs/set2/orange.gif","img/card_backs/set2/pink.gif","""event"",""trial"",""time""
""fullscreenenter"",""1"",""3033""
","
","
","""event"",""trial"",""time""
""fullscreenenter"",""1"",""3033""
","
","","7196.7900000017835","On every turn, you will be shown four different decks of cards. </br> You need to select a card from one of the four decks.  ","75","","instructions","2021-04-12 19:29:28.306","","","","","",""
"casino-keyboard-response","9","43447","0.0-6.0-0.3","858","true","img/card_backs/set1/green.gif","img/card_backs/set1/purple.gif","img/card_backs/set1/yellow.gif","img/card_backs/set1/red.gif","img/card_backs/set2/gray.gif","img/card_backs/set2/blue.gif","img/card_backs/set2/orange.gif","img/card_backs/set2/pink.gif","""event"",""trial"",""time""
""fullscreenenter"",""1"",""3033""
","
","
","""event"",""trial"",""time""
""fullscreenenter"",""1"",""3033""
","
","","5934.914999998","On the next screen, you will see what the decks will look like. ","66","","instructions","2021-04-12 19:29:34.244","","","","","",""
"card-selection-trial","10","47456","0.0-7.0-0.0","858","true","img/card_backs/set1/green.gif","img/card_backs/set1/purple.gif","img/card_backs/set1/yellow.gif","img/card_backs/set1/red.gif","img/card_backs/set2/gray.gif","img/card_backs/set2/blue.gif","img/card_backs/set2/orange.gif","img/card_backs/set2/pink.gif","""event"",""trial"",""time""
""fullscreenenter"",""1"",""3033""
","
","
","""event"",""trial"",""time""
""fullscreenenter"",""1"",""3033""
","
","","null","","","","practice","2021-04-12 19:29:38.253","null","null","null","0","",""
"casino-keyboard-response","11","56328","0.0-8.0-0.0","858","true","img/card_backs/set1/green.gif","img/card_backs/set1/purple.gif","img/card_backs/set1/yellow.gif","img/card_backs/set1/red.gif","img/card_backs/set2/gray.gif","img/card_backs/set2/blue.gif","img/card_backs/set2/orange.gif","img/card_backs/set2/pink.gif","""event"",""trial"",""time""
""fullscreenenter"",""1"",""3033""
","
","
","""event"",""trial"",""time""
""fullscreenenter"",""1"",""3033""
","
","","8869.2499999961","You should pick a card from a deck using the '2', '4', '6', and '8' keys at the top of the keyboard.","85","","instructions","2021-04-12 19:29:47.126","","","","","",""
"casino-keyboard-response","12","61507","0.0-8.0-0.1","858","true","img/card_backs/set1/green.gif","img/card_backs/set1/purple.gif","img/card_backs/set1/yellow.gif","img/card_backs/set1/red.gif","img/card_backs/set2/gray.gif","img/card_backs/set2/blue.gif","img/card_backs/set2/orange.gif","img/card_backs/set2/pink.gif","""event"",""trial"",""time""
""fullscreenenter"",""1"",""3033""
","
","
","""event"",""trial"",""time""
""fullscreenenter"",""1"",""3033""
","
","","5176.625000000058","Once you select a card, it will turn over and you will see how many tokens you earned.","83","","instructions","2021-04-12 19:29:52.304","","","","","",""
"casino-keyboard-response","13","75574","0.0-8.0-0.2","858","true","img/card_backs/set1/green.gif","img/card_backs/set1/purple.gif","img/card_backs/set1/yellow.gif","img/card_backs/set1/red.gif","img/card_backs/set2/gray.gif","img/card_backs/set2/blue.gif","img/card_backs/set2/orange.gif","img/card_backs/set2/pink.gif","""event"",""trial"",""time""
""fullscreenenter"",""1"",""3033""
","
","
","""event"",""trial"",""time""
""fullscreenenter"",""1"",""3033""
","
","","14063.750000001164","Let's try practicing that! </br> First, try to put your fingers over the '2', '4', '6', and '8' keys. </br>  You can use whatever fingers are most comfortable for you. Try to find a comfortable position now. ","50","","instructions","2021-04-12 19:30:06.371","","","","","",""
"casino-keyboard-response","14","81158","0.0-8.0-0.3","858","true","img/card_backs/set1/green.gif","img/card_backs/set1/purple.gif","img/card_backs/set1/yellow.gif","img/card_backs/set1/red.gif","img/card_backs/set2/gray.gif","img/card_backs/set2/blue.gif","img/card_backs/set2/orange.gif","img/card_backs/set2/pink.gif","""event"",""trial"",""time""
""fullscreenenter"",""1"",""3033""
","
","
","""event"",""trial"",""time""
""fullscreenenter"",""1"",""3033""
","
","","5579.8350000040955","Okay ready? </br> On the next screen, press '2' to select the left deck. ","50","","instructions","2021-04-12 19:30:11.955","","","","","",""
"card-selection-trial","15","83861","0.0-9.0-0.0","858","true","img/card_backs/set1/green.gif","img/card_backs/set1/purple.gif","img/card_backs/set1/yellow.gif","img/card_backs/set1/red.gif","img/card_backs/set2/gray.gif","img/card_backs/set2/blue.gif","img/card_backs/set2/orange.gif","img/card_backs/set2/pink.gif","""event"",""trial"",""time""
""fullscreenenter"",""1"",""3033""
","
","
","""event"",""trial"",""time""
""fullscreenenter"",""1"",""3033""
","
","","688.4599999975762","","","","practice_card_selection","2021-04-12 19:30:14.659","img/practice_cards/backs/dark_green.gif","0","200","","",""
"casino-keyboard-response","16","89594","0.0-10.0-0.0","858","true","img/card_backs/set1/green.gif","img/card_backs/set1/purple.gif","img/card_backs/set1/yellow.gif","img/card_backs/set1/red.gif","img/card_backs/set2/gray.gif","img/card_backs/set2/blue.gif","img/card_backs/set2/orange.gif","img/card_backs/set2/pink.gif","""event"",""trial"",""time""
""fullscreenenter"",""1"",""3033""
","
","
","""event"",""trial"",""time""
""fullscreenenter"",""1"",""3033""
","
","","5729.455000000598","Great! Now on the next screen, try pressing '6' to select the third deck.","54","","instructions","2021-04-12 19:30:20.391","","","","","",""
"card-selection-trial","17","92533","0.0-11.0-0.0","858","true","img/card_backs/set1/green.gif","img/card_backs/set1/purple.gif","img/card_backs/set1/yellow.gif","img/card_backs/set1/red.gif","img/card_backs/set2/gray.gif","img/card_backs/set2/blue.gif","img/card_backs/set2/orange.gif","img/card_backs/set2/pink.gif","""event"",""trial"",""time""
""fullscreenenter"",""1"",""3033""
","
","
","""event"",""trial"",""time""
""fullscreenenter"",""1"",""3033""
","
","","929.0000000037253","","","","practice_card_selection","2021-04-12 19:30:23.330","img/practice_cards/backs/dark_blue.gif","2","-200","","",""
"casino-keyboard-response","18","96957","0.0-12.0-0.0","858","true","img/card_backs/set1/green.gif","img/card_backs/set1/purple.gif","img/card_backs/set1/yellow.gif","img/card_backs/set1/red.gif","img/card_backs/set2/gray.gif","img/card_backs/set2/blue.gif","img/card_backs/set2/orange.gif","img/card_backs/set2/pink.gif","""event"",""trial"",""time""
""fullscreenenter"",""1"",""3033""
","
","
","""event"",""trial"",""time""
""fullscreenenter"",""1"",""3033""
","
","","4420.455000006768","Now on the next screen, try pressing '4' to select the second deck.","52","","instructions","2021-04-12 19:30:27.754","","","","","",""
"card-selection-trial","19","99632","0.0-13.0-0.0","858","true","img/card_backs/set1/green.gif","img/card_backs/set1/purple.gif","img/card_backs/set1/yellow.gif","img/card_backs/set1/red.gif","img/card_backs/set2/gray.gif","img/card_backs/set2/blue.gif","img/card_backs/set2/orange.gif","img/card_backs/set2/pink.gif","""event"",""trial"",""time""
""fullscreenenter"",""1"",""3033""
","
","
","""event"",""trial"",""time""
""fullscreenenter"",""1"",""3033""
","
","","665.3349999978673","","","","practice_card_selection","2021-04-12 19:30:30.430","img/practice_cards/backs/black.gif","1","100","","",""
"casino-keyboard-response","20","103997","0.0-14.0-0.0","858","true","img/card_backs/set1/green.gif","img/card_backs/set1/purple.gif","img/card_backs/set1/yellow.gif","img/card_backs/set1/red.gif","img/card_backs/set2/gray.gif","img/card_backs/set2/blue.gif","img/card_backs/set2/orange.gif","img/card_backs/set2/pink.gif","""event"",""trial"",""time""
""fullscreenenter"",""1"",""3033""
","
","
","""event"",""trial"",""time""
""fullscreenenter"",""1"",""3033""
","
","","4361.705000002985","Finally, try pressing '8' to select the deck all the way on the right.","56","","instructions","2021-04-12 19:30:34.795","","","","","",""
"card-selection-trial","21","106612","0.0-15.0-0.0","858","true","img/card_backs/set1/green.gif","img/card_backs/set1/purple.gif","img/card_backs/set1/yellow.gif","img/card_backs/set1/red.gif","img/card_backs/set2/gray.gif","img/card_backs/set2/blue.gif","img/card_backs/set2/orange.gif","img/card_backs/set2/pink.gif","""event"",""trial"",""time""
""fullscreenenter"",""1"",""3033""
","
","
","""event"",""trial"",""time""
""fullscreenenter"",""1"",""3033""
","
","","603.4549999967567","","","","practice_card_selection","2021-04-12 19:30:37.410","img/practice_cards/backs/brown.gif","3","-100","","",""
"casino-keyboard-response","22","110100","0.0-16.0-0.0","858","true","img/card_backs/set1/green.gif","img/card_backs/set1/purple.gif","img/card_backs/set1/yellow.gif","img/card_backs/set1/red.gif","img/card_backs/set2/gray.gif","img/card_backs/set2/blue.gif","img/card_backs/set2/orange.gif","img/card_backs/set2/pink.gif","""event"",""trial"",""time""
""fullscreenenter"",""1"",""3033""
","
","
","""event"",""trial"",""time""
""fullscreenenter"",""1"",""3033""
","
","","3485.0399999995716","Great! It seems like you are getting the hang of this.","80","","instructions","2021-04-12 19:30:40.897","","","","","",""
"casino-keyboard-response","23","117496","0.0-16.0-0.1","858","true","img/card_backs/set1/green.gif","img/card_backs/set1/purple.gif","img/card_backs/set1/yellow.gif","img/card_backs/set1/red.gif","img/card_backs/set2/gray.gif","img/card_backs/set2/blue.gif","img/card_backs/set2/orange.gif","img/card_backs/set2/pink.gif","""event"",""trial"",""time""
""fullscreenenter"",""1"",""3033""
","
","
","""event"",""trial"",""time""
""fullscreenenter"",""1"",""3033""
","
","","7393.1700000030105","You may have noticed that some cards will cause you to <b> win </b> tokens while other cards will cause you to <b> lose </b>  tokens.","70","","instructions","2021-04-12 19:30:48.293","","","","","",""
"casino-keyboard-response","24","126190","0.0-16.0-0.2","858","true","img/card_backs/set1/green.gif","img/card_backs/set1/purple.gif","img/card_backs/set1/yellow.gif","img/card_backs/set1/red.gif","img/card_backs/set2/gray.gif","img/card_backs/set2/blue.gif","img/card_backs/set2/orange.gif","img/card_backs/set2/pink.gif","""event"",""trial"",""time""
""fullscreenenter"",""1"",""3033""
","
","
","""event"",""trial"",""time""
""fullscreenenter"",""1"",""3033""
","
","","8691.709999999148","Each deck has a mix of cards that will cause you to win and lose tokens. </br> However, the cards in each colored deck are different.","73","","instructions","2021-04-12 19:30:56.988","","","","","",""
"casino-keyboard-response","25","134598","0.0-16.0-0.3","858","true","img/card_backs/set1/green.gif","img/card_backs/set1/purple.gif","img/card_backs/set1/yellow.gif","img/card_backs/set1/red.gif","img/card_backs/set2/gray.gif","img/card_backs/set2/blue.gif","img/card_backs/set2/orange.gif","img/card_backs/set2/pink.gif","""event"",""trial"",""time""
""fullscreenenter"",""1"",""3033""
","
","
","""event"",""trial"",""time""
""fullscreenenter"",""1"",""3033""
","
","","8404.210000000603","Some colored decks are luckier than others. </br> If you choose the lucky decks, you will earn more tokens than if you choose the unlucky decks.","69","","instructions","2021-04-12 19:31:05.395","","","","","",""
"casino-keyboard-response","26","141835","0.0-16.0-0.4","858","true","img/card_backs/set1/green.gif","img/card_backs/set1/purple.gif","img/card_backs/set1/yellow.gif","img/card_backs/set1/red.gif","img/card_backs/set2/gray.gif","img/card_backs/set2/blue.gif","img/card_backs/set2/orange.gif","img/card_backs/set2/pink.gif","""event"",""trial"",""time""
""fullscreenenter"",""1"",""3033""
","
","
","""event"",""trial"",""time""
""fullscreenenter"",""1"",""3033""
","
","","7234.960000001593","You should try to figure out which decks are lucky. </br> Then, try to choose the lucky decks so you can win the most tokens.","87","","instructions","2021-04-12 19:31:12.632","","","","","",""
"casino-keyboard-response","27","153044","0.0-16.0-0.5","858","true","img/card_backs/set1/green.gif","img/card_backs/set1/purple.gif","img/card_backs/set1/yellow.gif","img/card_backs/set1/red.gif","img/card_backs/set2/gray.gif","img/card_backs/set2/blue.gif","img/card_backs/set2/orange.gif","img/card_backs/set2/pink.gif","""event"",""trial"",""time""
""fullscreenenter"",""1"",""3033""
","
","
","""event"",""trial"",""time""
""fullscreenenter"",""1"",""3033""
","
","","11207.080000000133","To make it trickier, the casino dealer will switch the locations of the decks on every turn. </br> The color of the deck determines how lucky it is. The location does not matter.","88","","instructions","2021-04-12 19:31:23.841","","","","","",""
"casino-keyboard-response","28","162709","0.0-16.0-0.6","858","true","img/card_backs/set1/green.gif","img/card_backs/set1/purple.gif","img/card_backs/set1/yellow.gif","img/card_backs/set1/red.gif","img/card_backs/set2/gray.gif","img/card_backs/set2/blue.gif","img/card_backs/set2/orange.gif","img/card_backs/set2/pink.gif","""event"",""trial"",""time""
""fullscreenenter"",""1"",""3033""
","
","
","""event"",""trial"",""time""
""fullscreenenter"",""1"",""3033""
","
","","9661.545000002661","The mix of cards in each colored deck will stay the same throughout the game. </br> That means that a deck that is lucky early on will stay lucky.","79","","instructions","2021-04-12 19:31:33.506","","","","","",""
"casino-keyboard-response","29","170756","0.0-16.0-0.7","858","true","img/card_backs/set1/green.gif","img/card_backs/set1/purple.gif","img/card_backs/set1/yellow.gif","img/card_backs/set1/red.gif","img/card_backs/set2/gray.gif","img/card_backs/set2/blue.gif","img/card_backs/set2/orange.gif","img/card_backs/set2/pink.gif","""event"",""trial"",""time""
""fullscreenenter"",""1"",""3033""
","
","
","""event"",""trial"",""time""
""fullscreenenter"",""1"",""3033""
","
","","8044.9550000048475","Remember though, all the decks have a <b> mix </b> of both <b> good </b> and <b> bad </b> cards so it may take a couple of turns to figure out if a deck is lucky.","69","","instructions","2021-04-12 19:31:41.554","","","","","",""
"casino-keyboard-response","30","178829","0.0-16.0-0.8","858","true","img/card_backs/set1/green.gif","img/card_backs/set1/purple.gif","img/card_backs/set1/yellow.gif","img/card_backs/set1/red.gif","img/card_backs/set2/gray.gif","img/card_backs/set2/blue.gif","img/card_backs/set2/orange.gif","img/card_backs/set2/pink.gif","""event"",""trial"",""time""
""fullscreenenter"",""1"",""3033""
","
","
","""event"",""trial"",""time""
""fullscreenenter"",""1"",""3033""
","
","","8069.954999999027","At the end of the game, you will be paid bonus money based on how many tokens you win. </br> If you win more tokens, you will earn more money!","72","","instructions","2021-04-12 19:31:49.626","","","","","",""
"casino-keyboard-response","31","189083","0.0-16.0-0.9","858","true","img/card_backs/set1/green.gif","img/card_backs/set1/purple.gif","img/card_backs/set1/yellow.gif","img/card_backs/set1/red.gif","img/card_backs/set2/gray.gif","img/card_backs/set2/blue.gif","img/card_backs/set2/orange.gif","img/card_backs/set2/pink.gif","""event"",""trial"",""time""
""fullscreenenter"",""1"",""3033""
","
","
","""event"",""trial"",""time""
""fullscreenenter"",""1"",""3033""
","
","","10251.335000000836","You will never <b> lose </b> money. </br> If you end up with fewer than 0 tokens, you will earn $0 of bonus money, but you will still be paid for playing the game.","83","","instructions","2021-04-12 19:31:59.880","","","","","",""
"casino-keyboard-response","32","193112","0.0-16.0-0.10","858","true","img/card_backs/set1/green.gif","img/card_backs/set1/purple.gif","img/card_backs/set1/yellow.gif","img/card_backs/set1/red.gif","img/card_backs/set2/gray.gif","img/card_backs/set2/blue.gif","img/card_backs/set2/orange.gif","img/card_backs/set2/pink.gif","""event"",""trial"",""time""
""fullscreenenter"",""1"",""3033""
","
","
","""event"",""trial"",""time""
""fullscreenenter"",""1"",""3033""
","
","","4023.750000000291","You will have 10 seconds to make each choice.","82","","instructions","2021-04-12 19:32:03.909","","","","","",""
"casino-keyboard-response","33","201219","0.0-16.0-0.11","858","true","img/card_backs/set1/green.gif","img/card_backs/set1/purple.gif","img/card_backs/set1/yellow.gif","img/card_backs/set1/red.gif","img/card_backs/set2/gray.gif","img/card_backs/set2/blue.gif","img/card_backs/set2/orange.gif","img/card_backs/set2/pink.gif","""event"",""trial"",""time""
""fullscreenenter"",""1"",""3033""
","
","
","""event"",""trial"",""time""
""fullscreenenter"",""1"",""3033""
","
","","8104.584999993676","Before you play the game for real, you will play with practice decks. </br> The tokens you earn during practice won't count toward your total.","86","","instructions","2021-04-12 19:32:12.016","","","","","",""
"casino-keyboard-response","34","212354","0.0-16.0-0.12","858","true","img/card_backs/set1/green.gif","img/card_backs/set1/purple.gif","img/card_backs/set1/yellow.gif","img/card_backs/set1/red.gif","img/card_backs/set2/gray.gif","img/card_backs/set2/blue.gif","img/card_backs/set2/orange.gif","img/card_backs/set2/pink.gif","""event"",""trial"",""time""
""fullscreenenter"",""1"",""3033""
","
","
","""event"",""trial"",""time""
""fullscreenenter"",""1"",""3033""
","
","","11132.415000000037","Ready? Remember, use the '2', '4', '6', and '8' keys to select the decks. </br> Put your fingers on those keys now and then press '2' to begin.","50","","instructions","2021-04-12 19:32:23.152","","","","","",""
"casino-fixation","35","212858","0.0-17.0-0.0","858","true","img/card_backs/set1/green.gif","img/card_backs/set1/purple.gif","img/card_backs/set1/yellow.gif","img/card_backs/set1/red.gif","img/card_backs/set2/gray.gif","img/card_backs/set2/blue.gif","img/card_backs/set2/orange.gif","img/card_backs/set2/pink.gif","""event"",""trial"",""time""
""fullscreenenter"",""1"",""3033""
","
","
","""event"",""trial"",""time""
""fullscreenenter"",""1"",""3033""
","
","","null","","null","","fixation","2021-04-12 19:32:23.655","","","","","",""
"card-selection-trial","36","217178","0.0-17.0-1.0","858","true","img/card_backs/set1/green.gif","img/card_backs/set1/purple.gif","img/card_backs/set1/yellow.gif","img/card_backs/set1/red.gif","img/card_backs/set2/gray.gif","img/card_backs/set2/blue.gif","img/card_backs/set2/orange.gif","img/card_backs/set2/pink.gif","""event"",""trial"",""time""
""fullscreenenter"",""1"",""3033""
","
","
","""event"",""trial"",""time""
""fullscreenenter"",""1"",""3033""
","
","","2308.4149999995134","","","","practice","2021-04-12 19:32:27.976","img/practice_cards/backs/dark_green.gif","0","200","0","",""
"casino-fixation","37","217686","0.0-17.0-0.1","858","true","img/card_backs/set1/green.gif","img/card_backs/set1/purple.gif","img/card_backs/set1/yellow.gif","img/card_backs/set1/red.gif","img/card_backs/set2/gray.gif","img/card_backs/set2/blue.gif","img/card_backs/set2/orange.gif","img/card_backs/set2/pink.gif","""event"",""trial"",""time""
""fullscreenenter"",""1"",""3033""
","
","
","""event"",""trial"",""time""
""fullscreenenter"",""1"",""3033""
","
","","null","","null","","fixation","2021-04-12 19:32:28.483","","","","","",""
"card-selection-trial","38","220222","0.0-17.0-1.1","858","true","img/card_backs/set1/green.gif","img/card_backs/set1/purple.gif","img/card_backs/set1/yellow.gif","img/card_backs/set1/red.gif","img/card_backs/set2/gray.gif","img/card_backs/set2/blue.gif","img/card_backs/set2/orange.gif","img/card_backs/set2/pink.gif","""event"",""trial"",""time""
""fullscreenenter"",""1"",""3033""
","
","
","""event"",""trial"",""time""
""fullscreenenter"",""1"",""3033""
","
","","523.3299999963492","","","","practice","2021-04-12 19:32:31.019","img/practice_cards/backs/dark_blue.gif","1","-200","0","",""
"casino-fixation","39","220729","0.0-17.0-0.2","858","true","img/card_backs/set1/green.gif","img/card_backs/set1/purple.gif","img/card_backs/set1/yellow.gif","img/card_backs/set1/red.gif","img/card_backs/set2/gray.gif","img/card_backs/set2/blue.gif","img/card_backs/set2/orange.gif","img/card_backs/set2/pink.gif","""event"",""trial"",""time""
""fullscreenenter"",""1"",""3033""
","
","
","""event"",""trial"",""time""
""fullscreenenter"",""1"",""3033""
","
","","null","","null","","fixation","2021-04-12 19:32:31.526","","","","","",""
"card-selection-trial","40","223468","0.0-17.0-1.2","858","true","img/card_backs/set1/green.gif","img/card_backs/set1/purple.gif","img/card_backs/set1/yellow.gif","img/card_backs/set1/red.gif","img/card_backs/set2/gray.gif","img/card_backs/set2/blue.gif","img/card_backs/set2/orange.gif","img/card_backs/set2/pink.gif","""event"",""trial"",""time""
""fullscreenenter"",""1"",""3033""
","
","
","""event"",""trial"",""time""
""fullscreenenter"",""1"",""3033""
","
","","727.5000000008731","","","","practice","2021-04-12 19:32:34.265","img/practice_cards/backs/black.gif","0","-100","0","",""
"casino-fixation","41","223975","0.0-17.0-0.3","858","true","img/card_backs/set1/green.gif","img/card_backs/set1/purple.gif","img/card_backs/set1/yellow.gif","img/card_backs/set1/red.gif","img/card_backs/set2/gray.gif","img/card_backs/set2/blue.gif","img/card_backs/set2/orange.gif","img/card_backs/set2/pink.gif","""event"",""trial"",""time""
""fullscreenenter"",""1"",""3033""
","
","
","""event"",""trial"",""time""
""fullscreenenter"",""1"",""3033""
","
","","null","","null","","fixation","2021-04-12 19:32:34.772","","","","","",""
"card-selection-trial","42","230600","0.0-17.0-1.3","858","true","img/card_backs/set1/green.gif","img/card_backs/set1/purple.gif","img/card_backs/set1/yellow.gif","img/card_backs/set1/red.gif","img/card_backs/set2/gray.gif","img/card_backs/set2/blue.gif","img/card_backs/set2/orange.gif","img/card_backs/set2/pink.gif","""event"",""trial"",""time""
""fullscreenenter"",""1"",""3033""
","
","
","""event"",""trial"",""time""
""fullscreenenter"",""1"",""3033""
","
","","4616.210000000137","","","","practice","2021-04-12 19:32:41.397","img/practice_cards/backs/dark_blue.gif","3","200","0","",""
"casino-fixation","43","231108","0.0-17.0-0.4","858","true","img/card_backs/set1/green.gif","img/card_backs/set1/purple.gif","img/card_backs/set1/yellow.gif","img/card_backs/set1/red.gif","img/card_backs/set2/gray.gif","img/card_backs/set2/blue.gif","img/card_backs/set2/orange.gif","img/card_backs/set2/pink.gif","""event"",""trial"",""time""
""fullscreenenter"",""1"",""3033""
","
","
","""event"",""trial"",""time""
""fullscreenenter"",""1"",""3033""
","
","","null","","null","","fixation","2021-04-12 19:32:41.905","","","","","",""
"card-selection-trial","44","233813","0.0-17.0-1.4","858","true","img/card_backs/set1/green.gif","img/card_backs/set1/purple.gif","img/card_backs/set1/yellow.gif","img/card_backs/set1/red.gif","img/card_backs/set2/gray.gif","img/card_backs/set2/blue.gif","img/card_backs/set2/orange.gif","img/card_backs/set2/pink.gif","""event"",""trial"",""time""
""fullscreenenter"",""1"",""3033""
","
","
","""event"",""trial"",""time""
""fullscreenenter"",""1"",""3033""
","
","","692.5400000036461","","","","practice","2021-04-12 19:32:44.610","img/practice_cards/backs/dark_green.gif","0","-200","0","",""
"casino-fixation","45","234316","0.0-17.0-0.5","858","true","img/card_backs/set1/green.gif","img/card_backs/set1/purple.gif","img/card_backs/set1/yellow.gif","img/card_backs/set1/red.gif","img/card_backs/set2/gray.gif","img/card_backs/set2/blue.gif","img/card_backs/set2/orange.gif","img/card_backs/set2/pink.gif","""event"",""trial"",""time""
""fullscreenenter"",""1"",""3033""
","
","
","""event"",""trial"",""time""
""fullscreenenter"",""1"",""3033""
","
","","null","","null","","fixation","2021-04-12 19:32:45.113","","","","","",""
"card-selection-trial","46","239135","0.0-17.0-1.5","858","true","img/card_backs/set1/green.gif","img/card_backs/set1/purple.gif","img/card_backs/set1/yellow.gif","img/card_backs/set1/red.gif","img/card_backs/set2/gray.gif","img/card_backs/set2/blue.gif","img/card_backs/set2/orange.gif","img/card_backs/set2/pink.gif","""event"",""trial"",""time""
""fullscreenenter"",""1"",""3033""
","
","
","""event"",""trial"",""time""
""fullscreenenter"",""1"",""3033""
","
","","2805.9599999978673","","","","practice","2021-04-12 19:32:49.932","img/practice_cards/backs/dark_blue.gif","1","200","0","",""
"casino-fixation","47","239641","0.0-17.0-0.6","858","true","img/card_backs/set1/green.gif","img/card_backs/set1/purple.gif","img/card_backs/set1/yellow.gif","img/card_backs/set1/red.gif","img/card_backs/set2/gray.gif","img/card_backs/set2/blue.gif","img/card_backs/set2/orange.gif","img/card_backs/set2/pink.gif","""event"",""trial"",""time""
""fullscreenenter"",""1"",""3033""
","
","
","""event"",""trial"",""time""
""fullscreenenter"",""1"",""3033""
","
","","null","","null","","fixation","2021-04-12 19:32:50.438","","","","","",""
"card-selection-trial","48","245428","0.0-17.0-1.6","858","true","img/card_backs/set1/green.gif","img/card_backs/set1/purple.gif","img/card_backs/set1/yellow.gif","img/card_backs/set1/red.gif","img/card_backs/set2/gray.gif","img/card_backs/set2/blue.gif","img/card_backs/set2/orange.gif","img/card_backs/set2/pink.gif","""event"",""trial"",""time""
""fullscreenenter"",""1"",""3033""
","
","
","""event"",""trial"",""time""
""fullscreenenter"",""1"",""3033""
","
","","3776.1700000046403","","","","practice","2021-04-12 19:32:56.225","img/practice_cards/backs/brown.gif","0","-100","0","",""
"casino-fixation","49","245936","0.0-17.0-0.7","858","true","img/card_backs/set1/green.gif","img/card_backs/set1/purple.gif","img/card_backs/set1/yellow.gif","img/card_backs/set1/red.gif","img/card_backs/set2/gray.gif","img/card_backs/set2/blue.gif","img/card_backs/set2/orange.gif","img/card_backs/set2/pink.gif","""event"",""trial"",""time""
""fullscreenenter"",""1"",""3033""
","
","
","""event"",""trial"",""time""
""fullscreenenter"",""1"",""3033""
","
","","null","","null","","fixation","2021-04-12 19:32:56.733","","","","","",""
"card-selection-trial","50","253041","0.0-17.0-1.7","858","true","img/card_backs/set1/green.gif","img/card_backs/set1/purple.gif","img/card_backs/set1/yellow.gif","img/card_backs/set1/red.gif","img/card_backs/set2/gray.gif","img/card_backs/set2/blue.gif","img/card_backs/set2/orange.gif","img/card_backs/set2/pink.gif","""event"",""trial"",""time""
""fullscreenenter"",""1"",""3033""
","
","
","""event"",""trial"",""time""
""fullscreenenter"",""1"",""3033""
","
","","5092.625000004773","","","","practice","2021-04-12 19:33:03.838","img/practice_cards/backs/black.gif","1","100","0","",""
"casino-fixation","51","253546","0.0-17.0-0.8","858","true","img/card_backs/set1/green.gif","img/card_backs/set1/purple.gif","img/card_backs/set1/yellow.gif","img/card_backs/set1/red.gif","img/card_backs/set2/gray.gif","img/card_backs/set2/blue.gif","img/card_backs/set2/orange.gif","img/card_backs/set2/pink.gif","""event"",""trial"",""time""
""fullscreenenter"",""1"",""3033""
","
","
","""event"",""trial"",""time""
""fullscreenenter"",""1"",""3033""
","
","","null","","null","","fixation","2021-04-12 19:33:04.344","","","","","",""
"card-selection-trial","52","257371","0.0-17.0-1.8","858","true","img/card_backs/set1/green.gif","img/card_backs/set1/purple.gif","img/card_backs/set1/yellow.gif","img/card_backs/set1/red.gif","img/card_backs/set2/gray.gif","img/card_backs/set2/blue.gif","img/card_backs/set2/orange.gif","img/card_backs/set2/pink.gif","""event"",""trial"",""time""
""fullscreenenter"",""1"",""3033""
","
","
","""event"",""trial"",""time""
""fullscreenenter"",""1"",""3033""
","
","","1811.3300000040908","","","","practice","2021-04-12 19:33:08.168","img/practice_cards/backs/black.gif","3","100","0","",""
"casino-fixation","53","257877","0.0-17.0-0.9","858","true","img/card_backs/set1/green.gif","img/card_backs/set1/purple.gif","img/card_backs/set1/yellow.gif","img/card_backs/set1/red.gif","img/card_backs/set2/gray.gif","img/card_backs/set2/blue.gif","img/card_backs/set2/orange.gif","img/card_backs/set2/pink.gif","""event"",""trial"",""time""
""fullscreenenter"",""1"",""3033""
","
","
","""event"",""trial"",""time""
""fullscreenenter"",""1"",""3033""
","
","","null","","null","","fixation","2021-04-12 19:33:08.674","","","","","",""
"card-selection-trial","54","261584","0.0-17.0-1.9","858","true","img/card_backs/set1/green.gif","img/card_backs/set1/purple.gif","img/card_backs/set1/yellow.gif","img/card_backs/set1/red.gif","img/card_backs/set2/gray.gif","img/card_backs/set2/blue.gif","img/card_backs/set2/orange.gif","img/card_backs/set2/pink.gif","""event"",""trial"",""time""
""fullscreenenter"",""1"",""3033""
","
","
","""event"",""trial"",""time""
""fullscreenenter"",""1"",""3033""
","
","","1693.7099999995553","","","","practice","2021-04-12 19:33:12.381","img/practice_cards/backs/dark_blue.gif","1","-200","0","",""
"casino-keyboard-response","55","264430","0.0-18.0","858","true","img/card_backs/set1/green.gif","img/card_backs/set1/purple.gif","img/card_backs/set1/yellow.gif","img/card_backs/set1/red.gif","img/card_backs/set2/gray.gif","img/card_backs/set2/blue.gif","img/card_backs/set2/orange.gif","img/card_backs/set2/pink.gif","""event"",""trial"",""time""
""fullscreenenter"",""1"",""3033""
","
","
","""event"",""trial"",""time""
""fullscreenenter"",""1"",""3033""
","
","","2843.7100000010105","You earned 0 tokens during the practice round!","82","","","2021-04-12 19:33:15.228","","","","","",""
"casino-keyboard-response","56","268527","0.0-19.0-0.0","858","true","img/card_backs/set1/green.gif","img/card_backs/set1/purple.gif","img/card_backs/set1/yellow.gif","img/card_backs/set1/red.gif","img/card_backs/set2/gray.gif","img/card_backs/set2/blue.gif","img/card_backs/set2/orange.gif","img/card_backs/set2/pink.gif","""event"",""trial"",""time""
""fullscreenenter"",""1"",""3033""
","
","
","""event"",""trial"",""time""
""fullscreenenter"",""1"",""3033""
","
","","4094.250000001921","Nice job! You are almost ready to play the real game.","86","","instructions","2021-04-12 19:33:19.325","","","","","",""
"casino-keyboard-response","57","274871","0.0-19.0-0.1","858","true","img/card_backs/set1/green.gif","img/card_backs/set1/purple.gif","img/card_backs/set1/yellow.gif","img/card_backs/set1/red.gif","img/card_backs/set2/gray.gif","img/card_backs/set2/blue.gif","img/card_backs/set2/orange.gif","img/card_backs/set2/pink.gif","""event"",""trial"",""time""
""fullscreenenter"",""1"",""3033""
","
","
","""event"",""trial"",""time""
""fullscreenenter"",""1"",""3033""
","
","","6341.085000000021","You will play two rounds of the real game. In each round, you will pick 100 cards in total.","73","","instructions","2021-04-12 19:33:25.669","","","","","",""
"casino-keyboard-response","58","278845","0.0-19.0-0.2","858","true","img/card_backs/set1/green.gif","img/card_backs/set1/purple.gif","img/card_backs/set1/yellow.gif","img/card_backs/set1/red.gif","img/card_backs/set2/gray.gif","img/card_backs/set2/blue.gif","img/card_backs/set2/orange.gif","img/card_backs/set2/pink.gif","""event"",""trial"",""time""
""fullscreenenter"",""1"",""3033""
","
","
","""event"",""trial"",""time""
""fullscreenenter"",""1"",""3033""
","
","","3970.5400000020745","We are now going to ask you some questions about how the game works.","66","","instructions","2021-04-12 19:33:29.642","","","","","",""
"casino-keyboard-response","59","284778","0.0-19.0-0.3","858","true","img/card_backs/set1/green.gif","img/card_backs/set1/purple.gif","img/card_backs/set1/yellow.gif","img/card_backs/set1/red.gif","img/card_backs/set2/gray.gif","img/card_backs/set2/blue.gif","img/card_backs/set2/orange.gif","img/card_backs/set2/pink.gif","""event"",""trial"",""time""
""fullscreenenter"",""1"",""3033""
","
","
","""event"",""trial"",""time""
""fullscreenenter"",""1"",""3033""
","
","","5930.420000004233","Answer carefully. You will not be able to begin the game until you answer them correctly.","67","","instructions","2021-04-12 19:33:35.575","","","","","",""
"casino-comp_q","60","291698","0.0-20.0-0.0","858","true","img/card_backs/set1/green.gif","img/card_backs/set1/purple.gif","img/card_backs/set1/yellow.gif","img/card_backs/set1/red.gif","img/card_backs/set2/gray.gif","img/card_backs/set2/blue.gif","img/card_backs/set2/orange.gif","img/card_backs/set2/pink.gif","""event"",""trial"",""time""
""fullscreenenter"",""1"",""3033""
","
","
","""event"",""trial"",""time""
""fullscreenenter"",""1"",""3033""
","
","","6916.714999999385","True or False: All the decks have some cards that cause you to win tokens and some cards that cause you to lose tokens.","84","","","2021-04-12 19:33:42.496","","","","","",""
"casino-keyboard-response","61","296139","0.0-20.0-1.0","858","true","img/card_backs/set1/green.gif","img/card_backs/set1/purple.gif","img/card_backs/set1/yellow.gif","img/card_backs/set1/red.gif","img/card_backs/set2/gray.gif","img/card_backs/set2/blue.gif","img/card_backs/set2/orange.gif","img/card_backs/set2/pink.gif","""event"",""trial"",""time""
""fullscreenenter"",""1"",""3033""
","
","
","""event"",""trial"",""time""
""fullscreenenter"",""1"",""3033""
","
","","4437.915000002249","True is correct! All the decks have a mix of winning and losing cards.","77","","","2021-04-12 19:33:46.937","","","","","true",""
"casino-comp_q","62","300407","0.0-21.0-0.0","858","true","img/card_backs/set1/green.gif","img/card_backs/set1/purple.gif","img/card_backs/set1/yellow.gif","img/card_backs/set1/red.gif","img/card_backs/set2/gray.gif","img/card_backs/set2/blue.gif","img/card_backs/set2/orange.gif","img/card_backs/set2/pink.gif","""event"",""trial"",""time""
""fullscreenenter"",""1"",""3033""
","
","
","""event"",""trial"",""time""
""fullscreenenter"",""1"",""3033""
","
","","4262.920000001031","True or False: You will have as much time as you want to make your response.","70","","","2021-04-12 19:33:51.204","","","","","",""
"casino-keyboard-response","63","303256","0.0-21.0-1.0","858","true","img/card_backs/set1/green.gif","img/card_backs/set1/purple.gif","img/card_backs/set1/yellow.gif","img/card_backs/set1/red.gif","img/card_backs/set2/gray.gif","img/card_backs/set2/blue.gif","img/card_backs/set2/orange.gif","img/card_backs/set2/pink.gif","""event"",""trial"",""time""
""fullscreenenter"",""1"",""3033""
","
","
","""event"",""trial"",""time""
""fullscreenenter"",""1"",""3033""
","
","","2846.7899999959627","False is correct! You will only have 10 seconds to make each choice.","75","","","2021-04-12 19:33:54.054","","","","","true",""
"casino-comp_q","64","307430","0.0-22.0-0.0","858","true","img/card_backs/set1/green.gif","img/card_backs/set1/purple.gif","img/card_backs/set1/yellow.gif","img/card_backs/set1/red.gif","img/card_backs/set2/gray.gif","img/card_backs/set2/blue.gif","img/card_backs/set2/orange.gif","img/card_backs/set2/pink.gif","""event"",""trial"",""time""
""fullscreenenter"",""1"",""3033""
","
","
","""event"",""trial"",""time""
""fullscreenenter"",""1"",""3033""
","
","","4170.20500000217","True or False: The location of the deck determines how lucky it is.","70","","","2021-04-12 19:33:58.227","","","","","",""
"casino-keyboard-response","65","311891","0.0-22.0-1.0","858","true","img/card_backs/set1/green.gif","img/card_backs/set1/purple.gif","img/card_backs/set1/yellow.gif","img/card_backs/set1/red.gif","img/card_backs/set2/gray.gif","img/card_backs/set2/blue.gif","img/card_backs/set2/orange.gif","img/card_backs/set2/pink.gif","""event"",""trial"",""time""
""fullscreenenter"",""1"",""3033""
","
","
","""event"",""trial"",""time""
""fullscreenenter"",""1"",""3033""
","
","","4457.915000006324","False is correct! The <i>color</i>  of the deck determines how lucky or unlucky it is.","68","","","2021-04-12 19:34:02.688","","","","","true",""
"casino-keyboard-response","66","316028","0.0-23.0-0.0","858","true","img/card_backs/set1/green.gif","img/card_backs/set1/purple.gif","img/card_backs/set1/yellow.gif","img/card_backs/set1/red.gif","img/card_backs/set2/gray.gif","img/card_backs/set2/blue.gif","img/card_backs/set2/orange.gif","img/card_backs/set2/pink.gif","""event"",""trial"",""time""
""fullscreenenter"",""1"",""3033""
","
","
","""event"",""trial"",""time""
""fullscreenenter"",""1"",""3033""
","
","","4133.954999997513","Great job! Now it's time to start the real game.","82","","instructions","2021-04-12 19:34:06.825","","","","","",""
"casino-keyboard-response","67","320814","0.0-23.0-0.1","858","true","img/card_backs/set1/green.gif","img/card_backs/set1/purple.gif","img/card_backs/set1/yellow.gif","img/card_backs/set1/red.gif","img/card_backs/set2/gray.gif","img/card_backs/set2/blue.gif","img/card_backs/set2/orange.gif","img/card_backs/set2/pink.gif","""event"",""trial"",""time""
""fullscreenenter"",""1"",""3033""
","
","
","""event"",""trial"",""time""
""fullscreenenter"",""1"",""3033""
","
","","4783.210000001418","Before we start, we're going to head into a new room of the casino.","86","","instructions","2021-04-12 19:34:11.611","","","","","",""
"casino-keyboard-response","68","326897","0.0-24.0-0.0","858","true","img/card_backs/set1/green.gif","img/card_backs/set1/purple.gif","img/card_backs/set1/yellow.gif","img/card_backs/set1/red.gif","img/card_backs/set2/gray.gif","img/card_backs/set2/blue.gif","img/card_backs/set2/orange.gif","img/card_backs/set2/pink.gif","""event"",""trial"",""time""
""fullscreenenter"",""1"",""3033""
","
","
","""event"",""trial"",""time""
""fullscreenenter"",""1"",""3033""
","
","","6080.580000001646","Here we are! The real game will use different cards, but the rules will be the same.","71","","instructions","2021-04-12 19:34:17.694","","","","","",""
"casino-keyboard-response","69","334393","0.0-24.0-0.1","858","true","img/card_backs/set1/green.gif","img/card_backs/set1/purple.gif","img/card_backs/set1/yellow.gif","img/card_backs/set1/red.gif","img/card_backs/set2/gray.gif","img/card_backs/set2/blue.gif","img/card_backs/set2/orange.gif","img/card_backs/set2/pink.gif","""event"",""trial"",""time""
""fullscreenenter"",""1"",""3033""
","
","
","""event"",""trial"",""time""
""fullscreenenter"",""1"",""3033""
","
","","7493.579999994836","Ready? Put your fingers over the '2', '4', 6', and '8' keys so you are ready to play the game. </br> Then press 2 to start.","50","","instructions","2021-04-12 19:34:25.190","","","","","",""
"casino-fixation","70","334898","0.0-25.0-0.0","858","true","img/card_backs/set1/green.gif","img/card_backs/set1/purple.gif","img/card_backs/set1/yellow.gif","img/card_backs/set1/red.gif","img/card_backs/set2/gray.gif","img/card_backs/set2/blue.gif","img/card_backs/set2/orange.gif","img/card_backs/set2/pink.gif","""event"",""trial"",""time""
""fullscreenenter"",""1"",""3033""
","
","
","""event"",""trial"",""time""
""fullscreenenter"",""1"",""3033""
","
","","null","","null","","fixation","2021-04-12 19:34:25.695","","","","","",""
"card-selection-trial","71","338030","0.0-25.0-1.0","858","true","img/card_backs/set1/green.gif","img/card_backs/set1/purple.gif","img/card_backs/set1/yellow.gif","img/card_backs/set1/red.gif","img/card_backs/set2/gray.gif","img/card_backs/set2/blue.gif","img/card_backs/set2/orange.gif","img/card_backs/set2/pink.gif","""event"",""trial"",""time""
""fullscreenenter"",""1"",""3033""
","
","
","""event"",""trial"",""time""
""fullscreenenter"",""1"",""3033""
","
","","1119.2099999971106","","","","real_trial","2021-04-12 19:34:28.827","img/card_backs/set1/purple.gif","0","-210","1","",""
"casino-fixation","72","338537","0.0-25.0-0.1","858","true","img/card_backs/set1/green.gif","img/card_backs/set1/purple.gif","img/card_backs/set1/yellow.gif","img/card_backs/set1/red.gif","img/card_backs/set2/gray.gif","img/card_backs/set2/blue.gif","img/card_backs/set2/orange.gif","img/card_backs/set2/pink.gif","""event"",""trial"",""time""
""fullscreenenter"",""1"",""3033""
","
","
","""event"",""trial"",""time""
""fullscreenenter"",""1"",""3033""
","
","","null","","null","","fixation","2021-04-12 19:34:29.334","","","","","",""
"card-selection-trial","73","344652","0.0-25.0-1.1","858","true","img/card_backs/set1/green.gif","img/card_backs/set1/purple.gif","img/card_backs/set1/yellow.gif","img/card_backs/set1/red.gif","img/card_backs/set2/gray.gif","img/card_backs/set2/blue.gif","img/card_backs/set2/orange.gif","img/card_backs/set2/pink.gif","""event"",""trial"",""time""
""fullscreenenter"",""1"",""3033""
","
","
","""event"",""trial"",""time""
""fullscreenenter"",""1"",""3033""
","
","","4105.499999997846","","","","real_trial","2021-04-12 19:34:35.449","img/card_backs/set1/red.gif","0","-90","1","",""
"casino-fixation","74","345157","0.0-25.0-0.2","858","true","img/card_backs/set1/green.gif","img/card_backs/set1/purple.gif","img/card_backs/set1/yellow.gif","img/card_backs/set1/red.gif","img/card_backs/set2/gray.gif","img/card_backs/set2/blue.gif","img/card_backs/set2/orange.gif","img/card_backs/set2/pink.gif","""event"",""trial"",""time""
""fullscreenenter"",""1"",""3033""
","
","
","""event"",""trial"",""time""
""fullscreenenter"",""1"",""3033""
","
","","null","","null","","fixation","2021-04-12 19:34:35.954","","","","","",""
"card-selection-trial","75","348725","0.0-25.0-1.2","858","true","img/card_backs/set1/green.gif","img/card_backs/set1/purple.gif","img/card_backs/set1/yellow.gif","img/card_backs/set1/red.gif","img/card_backs/set2/gray.gif","img/card_backs/set2/blue.gif","img/card_backs/set2/orange.gif","img/card_backs/set2/pink.gif","""event"",""trial"",""time""
""fullscreenenter"",""1"",""3033""
","
","
","""event"",""trial"",""time""
""fullscreenenter"",""1"",""3033""
","
","","1553.2949999978882","","","","real_trial","2021-04-12 19:34:39.522","img/card_backs/set1/green.gif","0","-190","1","",""
"casino-fixation","76","349233","0.0-25.0-0.3","858","true","img/card_backs/set1/green.gif","img/card_backs/set1/purple.gif","img/card_backs/set1/yellow.gif","img/card_backs/set1/red.gif","img/card_backs/set2/gray.gif","img/card_backs/set2/blue.gif","img/card_backs/set2/orange.gif","img/card_backs/set2/pink.gif","""event"",""trial"",""time""
""fullscreenenter"",""1"",""3033""
","
","
","""event"",""trial"",""time""
""fullscreenenter"",""1"",""3033""
","
","","null","","null","","fixation","2021-04-12 19:34:40.030","","","","","",""
"card-selection-trial","77","354024","0.0-25.0-1.3","858","true","img/card_backs/set1/green.gif","img/card_backs/set1/purple.gif","img/card_backs/set1/yellow.gif","img/card_backs/set1/red.gif","img/card_backs/set2/gray.gif","img/card_backs/set2/blue.gif","img/card_backs/set2/orange.gif","img/card_backs/set2/pink.gif","""event"",""trial"",""time""
""fullscreenenter"",""1"",""3033""
","
","
","""event"",""trial"",""time""
""fullscreenenter"",""1"",""3033""
","
","","2778.250000003027","","","","real_trial","2021-04-12 19:34:44.821","img/card_backs/set1/yellow.gif","3","-90","1","",""
"casino-fixation","78","354530","0.0-25.0-0.4","858","true","img/card_backs/set1/green.gif","img/card_backs/set1/purple.gif","img/card_backs/set1/yellow.gif","img/card_backs/set1/red.gif","img/card_backs/set2/gray.gif","img/card_backs/set2/blue.gif","img/card_backs/set2/orange.gif","img/card_backs/set2/pink.gif","""event"",""trial"",""time""
""fullscreenenter"",""1"",""3033""
","
","
","""event"",""trial"",""time""
""fullscreenenter"",""1"",""3033""
","
","","null","","null","","fixation","2021-04-12 19:34:45.327","","","","","",""
"card-selection-trial","79","360250","0.0-25.0-1.4","858","true","img/card_backs/set1/green.gif","img/card_backs/set1/purple.gif","img/card_backs/set1/yellow.gif","img/card_backs/set1/red.gif","img/card_backs/set2/gray.gif","img/card_backs/set2/blue.gif","img/card_backs/set2/orange.gif","img/card_backs/set2/pink.gif","""event"",""trial"",""time""
""fullscreenenter"",""1"",""3033""
","
","
","""event"",""trial"",""time""
""fullscreenenter"",""1"",""3033""
","
","","3705.999999998312","","","","real_trial","2021-04-12 19:34:51.047","img/card_backs/set1/purple.gif","1","240","1","",""
"casino-fixation","80","360755","0.0-25.0-0.5","858","true","img/card_backs/set1/green.gif","img/card_backs/set1/purple.gif","img/card_backs/set1/yellow.gif","img/card_backs/set1/red.gif","img/card_backs/set2/gray.gif","img/card_backs/set2/blue.gif","img/card_backs/set2/orange.gif","img/card_backs/set2/pink.gif","""event"",""trial"",""time""
""fullscreenenter"",""1"",""3033""
","
","
","""event"",""trial"",""time""
""fullscreenenter"",""1"",""3033""
","
","","null","","null","","fixation","2021-04-12 19:34:51.552","","","","","",""
"card-selection-trial","81","363716","0.0-25.0-1.5","858","true","img/card_backs/set1/green.gif","img/card_backs/set1/purple.gif","img/card_backs/set1/yellow.gif","img/card_backs/set1/red.gif","img/card_backs/set2/gray.gif","img/card_backs/set2/blue.gif","img/card_backs/set2/orange.gif","img/card_backs/set2/pink.gif","""event"",""trial"",""time""
""fullscreenenter"",""1"",""3033""
","
","
","""event"",""trial"",""time""
""fullscreenenter"",""1"",""3033""
","
","","947.8349999990314","","","","real_trial","2021-04-12 19:34:54.513","img/card_backs/set1/yellow.gif","2","60","1","",""
"casino-fixation","82","364223","0.0-25.0-0.6","858","true","img/card_backs/set1/green.gif","img/card_backs/set1/purple.gif","img/card_backs/set1/yellow.gif","img/card_backs/set1/red.gif","img/card_backs/set2/gray.gif","img/card_backs/set2/blue.gif","img/card_backs/set2/orange.gif","img/card_backs/set2/pink.gif","""event"",""trial"",""time""
""fullscreenenter"",""1"",""3033""
","
","
","""event"",""trial"",""time""
""fullscreenenter"",""1"",""3033""
","
","","null","","null","","fixation","2021-04-12 19:34:55.020","","","","","",""
"card-selection-trial","83","367735","0.0-25.0-1.6","858","true","img/card_backs/set1/green.gif","img/card_backs/set1/purple.gif","img/card_backs/set1/yellow.gif","img/card_backs/set1/red.gif","img/card_backs/set2/gray.gif","img/card_backs/set2/blue.gif","img/card_backs/set2/orange.gif","img/card_backs/set2/pink.gif","""event"",""trial"",""time""
""fullscreenenter"",""1"",""3033""
","
","
","""event"",""trial"",""time""
""fullscreenenter"",""1"",""3033""
","
","","1499.0400000024238","","","","real_trial","2021-04-12 19:34:58.532","img/card_backs/set1/yellow.gif","1","-110","1","",""
"casino-fixation","84","368241","0.0-25.0-0.7","858","true","img/card_backs/set1/green.gif","img/card_backs/set1/purple.gif","img/card_backs/set1/yellow.gif","img/card_backs/set1/red.gif","img/card_backs/set2/gray.gif","img/card_backs/set2/blue.gif","img/card_backs/set2/orange.gif","img/card_backs/set2/pink.gif","""event"",""trial"",""time""
""fullscreenenter"",""1"",""3033""
","
","
","""event"",""trial"",""time""
""fullscreenenter"",""1"",""3033""
","
","","null","","null","","fixation","2021-04-12 19:34:59.038","","","","","",""
"card-selection-trial","85","373223","0.0-25.0-1.7","858","true","img/card_backs/set1/green.gif","img/card_backs/set1/purple.gif","img/card_backs/set1/yellow.gif","img/card_backs/set1/red.gif","img/card_backs/set2/gray.gif","img/card_backs/set2/blue.gif","img/card_backs/set2/orange.gif","img/card_backs/set2/pink.gif","""event"",""trial"",""time""
""fullscreenenter"",""1"",""3033""
","
","
","""event"",""trial"",""time""
""fullscreenenter"",""1"",""3033""
","
","","2968.540000001667","","","","real_trial","2021-04-12 19:35:04.020","img/card_backs/set1/yellow.gif","2","50","1","",""
"casino-fixation","86","373731","0.0-25.0-0.8","858","true","img/card_backs/set1/green.gif","img/card_backs/set1/purple.gif","img/card_backs/set1/yellow.gif","img/card_backs/set1/red.gif","img/card_backs/set2/gray.gif","img/card_backs/set2/blue.gif","img/card_backs/set2/orange.gif","img/card_backs/set2/pink.gif","""event"",""trial"",""time""
""fullscreenenter"",""1"",""3033""
","
","
","""event"",""trial"",""time""
""fullscreenenter"",""1"",""3033""
","
","","null","","null","","fixation","2021-04-12 19:35:04.528","","","","","",""
"card-selection-trial","87","378133","0.0-25.0-1.8","858","true","img/card_backs/set1/green.gif","img/card_backs/set1/purple.gif","img/card_backs/set1/yellow.gif","img/card_backs/set1/red.gif","img/card_backs/set2/gray.gif","img/card_backs/set2/blue.gif","img/card_backs/set2/orange.gif","img/card_backs/set2/pink.gif","""event"",""trial"",""time""
""fullscreenenter"",""1"",""3033""
","
","
","""event"",""trial"",""time""
""fullscreenenter"",""1"",""3033""
","
","","2394.959999997809","","","","real_trial","2021-04-12 19:35:08.930","img/card_backs/set1/purple.gif","1","-190","1","",""
"casino-fixation","88","378637","0.0-25.0-0.9","858","true","img/card_backs/set1/green.gif","img/card_backs/set1/purple.gif","img/card_backs/set1/yellow.gif","img/card_backs/set1/red.gif","img/card_backs/set2/gray.gif","img/card_backs/set2/blue.gif","img/card_backs/set2/orange.gif","img/card_backs/set2/pink.gif","""event"",""trial"",""time""
""fullscreenenter"",""1"",""3033""
","
","
","""event"",""trial"",""time""
""fullscreenenter"",""1"",""3033""
","
","","null","","null","","fixation","2021-04-12 19:35:09.434","","","","","",""
"card-selection-trial","89","381669","0.0-25.0-1.9","858","true","img/card_backs/set1/green.gif","img/card_backs/set1/purple.gif","img/card_backs/set1/yellow.gif","img/card_backs/set1/red.gif","img/card_backs/set2/gray.gif","img/card_backs/set2/blue.gif","img/card_backs/set2/orange.gif","img/card_backs/set2/pink.gif","""event"",""trial"",""time""
""fullscreenenter"",""1"",""3033""
","
","
","""event"",""trial"",""time""
""fullscreenenter"",""1"",""3033""
","
","","1019.415000002482","","","","real_trial","2021-04-12 19:35:12.466","img/card_backs/set1/green.gif","3","250","1","",""
"casino-fixation","90","382176","0.0-25.0-0.10","858","true","img/card_backs/set1/green.gif","img/card_backs/set1/purple.gif","img/card_backs/set1/yellow.gif","img/card_backs/set1/red.gif","img/card_backs/set2/gray.gif","img/card_backs/set2/blue.gif","img/card_backs/set2/orange.gif","img/card_backs/set2/pink.gif","""event"",""trial"",""time""
""fullscreenenter"",""1"",""3033""
","
","
","""event"",""trial"",""time""
""fullscreenenter"",""1"",""3033""
","
","","null","","null","","fixation","2021-04-12 19:35:12.974","","","","","",""
"card-selection-trial","91","388824","0.0-25.0-1.10","858","true","img/card_backs/set1/green.gif","img/card_backs/set1/purple.gif","img/card_backs/set1/yellow.gif","img/card_backs/set1/red.gif","img/card_backs/set2/gray.gif","img/card_backs/set2/blue.gif","img/card_backs/set2/orange.gif","img/card_backs/set2/pink.gif","""event"",""trial"",""time""
""fullscreenenter"",""1"",""3033""
","
","
","""event"",""trial"",""time""
""fullscreenenter"",""1"",""3033""
","
","","4632.964999997057","","","","real_trial","2021-04-12 19:35:19.621","img/card_backs/set1/yellow.gif","2","40","1","",""
"casino-fixation","92","389332","0.0-25.0-0.11","858","true","img/card_backs/set1/green.gif","img/card_backs/set1/purple.gif","img/card_backs/set1/yellow.gif","img/card_backs/set1/red.gif","img/card_backs/set2/gray.gif","img/card_backs/set2/blue.gif","img/card_backs/set2/orange.gif","img/card_backs/set2/pink.gif","""event"",""trial"",""time""
""fullscreenenter"",""1"",""3033""
","
","
","""event"",""trial"",""time""
""fullscreenenter"",""1"",""3033""
","
","","null","","null","","fixation","2021-04-12 19:35:20.129","","","","","",""
"card-selection-trial","93","392034","0.0-25.0-1.11","858","true","img/card_backs/set1/green.gif","img/card_backs/set1/purple.gif","img/card_backs/set1/yellow.gif","img/card_backs/set1/red.gif","img/card_backs/set2/gray.gif","img/card_backs/set2/blue.gif","img/card_backs/set2/orange.gif","img/card_backs/set2/pink.gif","""event"",""trial"",""time""
""fullscreenenter"",""1"",""3033""
","
","
","""event"",""trial"",""time""
""fullscreenenter"",""1"",""3033""
","
","","689.4150000007357","","","","real_trial","2021-04-12 19:35:22.831","img/card_backs/set1/purple.gif","0","240","1","",""
"casino-fixation","94","392541","0.0-25.0-0.12","858","true","img/card_backs/set1/green.gif","img/card_backs/set1/purple.gif","img/card_backs/set1/yellow.gif","img/card_backs/set1/red.gif","img/card_backs/set2/gray.gif","img/card_backs/set2/blue.gif","img/card_backs/set2/orange.gif","img/card_backs/set2/pink.gif","""event"",""trial"",""time""
""fullscreenenter"",""1"",""3033""
","
","
","""event"",""trial"",""time""
""fullscreenenter"",""1"",""3033""
","
","","null","","null","","fixation","2021-04-12 19:35:23.338","","","","","",""
"card-selection-trial","95","395612","0.0-25.0-1.12","858","true","img/card_backs/set1/green.gif","img/card_backs/set1/purple.gif","img/card_backs/set1/yellow.gif","img/card_backs/set1/red.gif","img/card_backs/set2/gray.gif","img/card_backs/set2/blue.gif","img/card_backs/set2/orange.gif","img/card_backs/set2/pink.gif","""event"",""trial"",""time""
""fullscreenenter"",""1"",""3033""
","
","
","""event"",""trial"",""time""
""fullscreenenter"",""1"",""3033""
","
","","1063.1249999933061","","","","real_trial","2021-04-12 19:35:26.410","img/card_backs/set1/yellow.gif","1","-110","1","",""
"casino-fixation","96","396118","0.0-25.0-0.13","858","true","img/card_backs/set1/green.gif","img/card_backs/set1/purple.gif","img/card_backs/set1/yellow.gif","img/card_backs/set1/red.gif","img/card_backs/set2/gray.gif","img/card_backs/set2/blue.gif","img/card_backs/set2/orange.gif","img/card_backs/set2/pink.gif","""event"",""trial"",""time""
""fullscreenenter"",""1"",""3033""
","
","
","""event"",""trial"",""time""
""fullscreenenter"",""1"",""3033""
","
","","null","","null","","fixation","2021-04-12 19:35:26.915","","","","","",""
"card-selection-trial","97","399284","0.0-25.0-1.13","858","true","img/card_backs/set1/green.gif","img/card_backs/set1/purple.gif","img/card_backs/set1/yellow.gif","img/card_backs/set1/red.gif","img/card_backs/set2/gray.gif","img/card_backs/set2/blue.gif","img/card_backs/set2/orange.gif","img/card_backs/set2/pink.gif","""event"",""trial"",""time""
""fullscreenenter"",""1"",""3033""
","
","
","""event"",""trial"",""time""
""fullscreenenter"",""1"",""3033""
","
","","1152.459999997518","","","","real_trial","2021-04-12 19:35:30.081","img/card_backs/set1/purple.gif","3","260","1","",""
"casino-fixation","98","399791","0.0-25.0-0.14","858","true","img/card_backs/set1/green.gif","img/card_backs/set1/purple.gif","img/card_backs/set1/yellow.gif","img/card_backs/set1/red.gif","img/card_backs/set2/gray.gif","img/card_backs/set2/blue.gif","img/card_backs/set2/orange.gif","img/card_backs/set2/pink.gif","""event"",""trial"",""time""
""fullscreenenter"",""1"",""3033""
","
","
","""event"",""trial"",""time""
""fullscreenenter"",""1"",""3033""
","
","","null","","null","","fixation","2021-04-12 19:35:30.588","","","","","",""
"card-selection-trial","99","402780","0.0-25.0-1.14","858","true","img/card_backs/set1/green.gif","img/card_backs/set1/purple.gif","img/card_backs/set1/yellow.gif","img/card_backs/set1/red.gif","img/card_backs/set2/gray.gif","img/card_backs/set2/blue.gif","img/card_backs/set2/orange.gif","img/card_backs/set2/pink.gif","""event"",""trial"",""time""
""fullscreenenter"",""1"",""3033""
","
","
","""event"",""trial"",""time""
""fullscreenenter"",""1"",""3033""
","
","","979.7099999996135","","","","real_trial","2021-04-12 19:35:33.577","img/card_backs/set1/purple.gif","1","250","1","",""
"casino-fixation","100","403286","0.0-25.0-0.15","858","true","img/card_backs/set1/green.gif","img/card_backs/set1/purple.gif","img/card_backs/set1/yellow.gif","img/card_backs/set1/red.gif","img/card_backs/set2/gray.gif","img/card_backs/set2/blue.gif","img/card_backs/set2/orange.gif","img/card_backs/set2/pink.gif","""event"",""trial"",""time""
""fullscreenenter"",""1"",""3033""
","
","
","""event"",""trial"",""time""
""fullscreenenter"",""1"",""3033""
","
","","null","","null","","fixation","2021-04-12 19:35:34.083","","","","","",""
"card-selection-trial","101","406488","0.0-25.0-1.15","858","true","img/card_backs/set1/green.gif","img/card_backs/set1/purple.gif","img/card_backs/set1/yellow.gif","img/card_backs/set1/red.gif","img/card_backs/set2/gray.gif","img/card_backs/set2/blue.gif","img/card_backs/set2/orange.gif","img/card_backs/set2/pink.gif","""event"",""trial"",""time""
""fullscreenenter"",""1"",""3033""
","
","
","""event"",""trial"",""time""
""fullscreenenter"",""1"",""3033""
","
","","1190.374999998312","","","","real_trial","2021-04-12 19:35:37.285","img/card_backs/set1/yellow.gif","3","40","1","",""
"casino-fixation","102","406990","0.0-25.0-0.16","858","true","img/card_backs/set1/green.gif","img/card_backs/set1/purple.gif","img/card_backs/set1/yellow.gif","img/card_backs/set1/red.gif","img/card_backs/set2/gray.gif","img/card_backs/set2/blue.gif","img/card_backs/set2/orange.gif","img/card_backs/set2/pink.gif","""event"",""trial"",""time""
""fullscreenenter"",""1"",""3033""
","
","
","""event"",""trial"",""time""
""fullscreenenter"",""1"",""3033""
","
","","null","","null","","fixation","2021-04-12 19:35:37.787","","","","","",""
"card-selection-trial","103","409863","0.0-25.0-1.16","858","true","img/card_backs/set1/green.gif","img/card_backs/set1/purple.gif","img/card_backs/set1/yellow.gif","img/card_backs/set1/red.gif","img/card_backs/set2/gray.gif","img/card_backs/set2/blue.gif","img/card_backs/set2/orange.gif","img/card_backs/set2/pink.gif","""event"",""trial"",""time""
""fullscreenenter"",""1"",""3033""
","
","
","""event"",""trial"",""time""
""fullscreenenter"",""1"",""3033""
","
","","866.6299999968032","","","","real_trial","2021-04-12 19:35:40.660","img/card_backs/set1/yellow.gif","3","60","1","",""
"casino-fixation","104","410365","0.0-25.0-0.17","858","true","img/card_backs/set1/green.gif","img/card_backs/set1/purple.gif","img/card_backs/set1/yellow.gif","img/card_backs/set1/red.gif","img/card_backs/set2/gray.gif","img/card_backs/set2/blue.gif","img/card_backs/set2/orange.gif","img/card_backs/set2/pink.gif","""event"",""trial"",""time""
""fullscreenenter"",""1"",""3033""
","
","
","""event"",""trial"",""time""
""fullscreenenter"",""1"",""3033""
","
","","null","","null","","fixation","2021-04-12 19:35:41.163","","","","","",""
"card-selection-trial","105","413320","0.0-25.0-1.17","858","true","img/card_backs/set1/green.gif","img/card_backs/set1/purple.gif","img/card_backs/set1/yellow.gif","img/card_backs/set1/red.gif","img/card_backs/set2/gray.gif","img/card_backs/set2/blue.gif","img/card_backs/set2/orange.gif","img/card_backs/set2/pink.gif","""event"",""trial"",""time""
""fullscreenenter"",""1"",""3033""
","
","
","""event"",""trial"",""time""
""fullscreenenter"",""1"",""3033""
","
","","941.6700000001583","","","","real_trial","2021-04-12 19:35:44.117","img/card_backs/set1/purple.gif","1","260","1","",""
"casino-fixation","106","413828","0.0-25.0-0.18","858","true","img/card_backs/set1/green.gif","img/card_backs/set1/purple.gif","img/card_backs/set1/yellow.gif","img/card_backs/set1/red.gif","img/card_backs/set2/gray.gif","img/card_backs/set2/blue.gif","img/card_backs/set2/orange.gif","img/card_backs/set2/pink.gif","""event"",""trial"",""time""
""fullscreenenter"",""1"",""3033""
","
","
","""event"",""trial"",""time""
""fullscreenenter"",""1"",""3033""
","
","","null","","null","","fixation","2021-04-12 19:35:44.625","","","","","",""
"card-selection-trial","107","418531","0.0-25.0-1.18","858","true","img/card_backs/set1/green.gif","img/card_backs/set1/purple.gif","img/card_backs/set1/yellow.gif","img/card_backs/set1/red.gif","img/card_backs/set2/gray.gif","img/card_backs/set2/blue.gif","img/card_backs/set2/orange.gif","img/card_backs/set2/pink.gif","""event"",""trial"",""time""
""fullscreenenter"",""1"",""3033""
","
","
","""event"",""trial"",""time""
""fullscreenenter"",""1"",""3033""
","
","","2690.7500000015716","","","","real_trial","2021-04-12 19:35:49.328","img/card_backs/set1/purple.gif","0","250","1","",""
"casino-fixation","108","419035","0.0-25.0-0.19","858","true","img/card_backs/set1/green.gif","img/card_backs/set1/purple.gif","img/card_backs/set1/yellow.gif","img/card_backs/set1/red.gif","img/card_backs/set2/gray.gif","img/card_backs/set2/blue.gif","img/card_backs/set2/orange.gif","img/card_backs/set2/pink.gif","""event"",""trial"",""time""
""fullscreenenter"",""1"",""3033""
","
","
","""event"",""trial"",""time""
""fullscreenenter"",""1"",""3033""
","
","","null","","null","","fixation","2021-04-12 19:35:49.832","","","","","",""
"card-selection-trial","109","422316","0.0-25.0-1.19","858","true","img/card_backs/set1/green.gif","img/card_backs/set1/purple.gif","img/card_backs/set1/yellow.gif","img/card_backs/set1/red.gif","img/card_backs/set2/gray.gif","img/card_backs/set2/blue.gif","img/card_backs/set2/orange.gif","img/card_backs/set2/pink.gif","""event"",""trial"",""time""
""fullscreenenter"",""1"",""3033""
","
","
","""event"",""trial"",""time""
""fullscreenenter"",""1"",""3033""
","
","","1268.4549999976298","","","","real_trial","2021-04-12 19:35:53.113","img/card_backs/set1/yellow.gif","2","60","1","",""
"casino-fixation","110","422823","0.0-25.0-0.20","858","true","img/card_backs/set1/green.gif","img/card_backs/set1/purple.gif","img/card_backs/set1/yellow.gif","img/card_backs/set1/red.gif","img/card_backs/set2/gray.gif","img/card_backs/set2/blue.gif","img/card_backs/set2/orange.gif","img/card_backs/set2/pink.gif","""event"",""trial"",""time""
""fullscreenenter"",""1"",""3033""
","
","
","""event"",""trial"",""time""
""fullscreenenter"",""1"",""3033""
","
","","null","","null","","fixation","2021-04-12 19:35:53.620","","","","","",""
"card-selection-trial","111","425720","0.0-25.0-1.20","858","true","img/card_backs/set1/green.gif","img/card_backs/set1/purple.gif","img/card_backs/set1/yellow.gif","img/card_backs/set1/red.gif","img/card_backs/set2/gray.gif","img/card_backs/set2/blue.gif","img/card_backs/set2/orange.gif","img/card_backs/set2/pink.gif","""event"",""trial"",""time""
""fullscreenenter"",""1"",""3033""
","
","
","""event"",""trial"",""time""
""fullscreenenter"",""1"",""3033""
","
","","883.2099999999627","","","","real_trial","2021-04-12 19:35:56.517","img/card_backs/set1/yellow.gif","1","40","1","",""
"casino-fixation","112","426227","0.0-25.0-0.21","858","true","img/card_backs/set1/green.gif","img/card_backs/set1/purple.gif","img/card_backs/set1/yellow.gif","img/card_backs/set1/red.gif","img/card_backs/set2/gray.gif","img/card_backs/set2/blue.gif","img/card_backs/set2/orange.gif","img/card_backs/set2/pink.gif","""event"",""trial"",""time""
""fullscreenenter"",""1"",""3033""
","
","
","""event"",""trial"",""time""
""fullscreenenter"",""1"",""3033""
","
","","null","","null","","fixation","2021-04-12 19:35:57.024","","","","","",""
"card-selection-trial","113","428908","0.0-25.0-1.21","858","true","img/card_backs/set1/green.gif","img/card_backs/set1/purple.gif","img/card_backs/set1/yellow.gif","img/card_backs/set1/red.gif","img/card_backs/set2/gray.gif","img/card_backs/set2/blue.gif","img/card_backs/set2/orange.gif","img/card_backs/set2/pink.gif","""event"",""trial"",""time""
""fullscreenenter"",""1"",""3033""
","
","
","""event"",""trial"",""time""
""fullscreenenter"",""1"",""3033""
","
","","669.1649999993388","","","","real_trial","2021-04-12 19:35:59.705","img/card_backs/set1/purple.gif","0","-210","1","",""
"casino-fixation","114","429413","0.0-25.0-0.22","858","true","img/card_backs/set1/green.gif","img/card_backs/set1/purple.gif","img/card_backs/set1/yellow.gif","img/card_backs/set1/red.gif","img/card_backs/set2/gray.gif","img/card_backs/set2/blue.gif","img/card_backs/set2/orange.gif","img/card_backs/set2/pink.gif","""event"",""trial"",""time""
""fullscreenenter"",""1"",""3033""
","
","
","""event"",""trial"",""time""
""fullscreenenter"",""1"",""3033""
","
","","null","","null","","fixation","2021-04-12 19:36:00.210","","","","","",""
"card-selection-trial","115","433702","0.0-25.0-1.22","858","true","img/card_backs/set1/green.gif","img/card_backs/set1/purple.gif","img/card_backs/set1/yellow.gif","img/card_backs/set1/red.gif","img/card_backs/set2/gray.gif","img/card_backs/set2/blue.gif","img/card_backs/set2/orange.gif","img/card_backs/set2/pink.gif","""event"",""trial"",""time""
""fullscreenenter"",""1"",""3033""
","
","
","""event"",""trial"",""time""
""fullscreenenter"",""1"",""3033""
","
","","2276.204999994661","","","","real_trial","2021-04-12 19:36:04.499","img/card_backs/set1/purple.gif","3","-190","1","",""
"casino-fixation","116","434206","0.0-25.0-0.23","858","true","img/card_backs/set1/green.gif","img/card_backs/set1/purple.gif","img/card_backs/set1/yellow.gif","img/card_backs/set1/red.gif","img/card_backs/set2/gray.gif","img/card_backs/set2/blue.gif","img/card_backs/set2/orange.gif","img/card_backs/set2/pink.gif","""event"",""trial"",""time""
""fullscreenenter"",""1"",""3033""
","
","
","""event"",""trial"",""time""
""fullscreenenter"",""1"",""3033""
","
","","null","","null","","fixation","2021-04-12 19:36:05.004","","","","","",""
"card-selection-trial","117","437035","0.0-25.0-1.23","858","true","img/card_backs/set1/green.gif","img/card_backs/set1/purple.gif","img/card_backs/set1/yellow.gif","img/card_backs/set1/red.gif","img/card_backs/set2/gray.gif","img/card_backs/set2/blue.gif","img/card_backs/set2/orange.gif","img/card_backs/set2/pink.gif","""event"",""trial"",""time""
""fullscreenenter"",""1"",""3033""
","
","
","""event"",""trial"",""time""
""fullscreenenter"",""1"",""3033""
","
","","815.5400000032387","","","","real_trial","2021-04-12 19:36:07.832","img/card_backs/set1/yellow.gif","0","40","1","",""
"casino-fixation","118","437540","0.0-25.0-0.24","858","true","img/card_backs/set1/green.gif","img/card_backs/set1/purple.gif","img/card_backs/set1/yellow.gif","img/card_backs/set1/red.gif","img/card_backs/set2/gray.gif","img/card_backs/set2/blue.gif","img/card_backs/set2/orange.gif","img/card_backs/set2/pink.gif","""event"",""trial"",""time""
""fullscreenenter"",""1"",""3033""
","
","
","""event"",""trial"",""time""
""fullscreenenter"",""1"",""3033""
","
","","null","","null","","fixation","2021-04-12 19:36:08.338","","","","","",""
"card-selection-trial","119","440385","0.0-25.0-1.24","858","true","img/card_backs/set1/green.gif","img/card_backs/set1/purple.gif","img/card_backs/set1/yellow.gif","img/card_backs/set1/red.gif","img/card_backs/set2/gray.gif","img/card_backs/set2/blue.gif","img/card_backs/set2/orange.gif","img/card_backs/set2/pink.gif","""event"",""trial"",""time""
""fullscreenenter"",""1"",""3033""
","
","
","""event"",""trial"",""time""
""fullscreenenter"",""1"",""3033""
","
","","833.5899999947287","","","","real_trial","2021-04-12 19:36:11.182","img/card_backs/set1/purple.gif","3","240","1","",""
"casino-fixation","120","440891","0.0-25.0-0.25","858","true","img/card_backs/set1/green.gif","img/card_backs/set1/purple.gif","img/card_backs/set1/yellow.gif","img/card_backs/set1/red.gif","img/card_backs/set2/gray.gif","img/card_backs/set2/blue.gif","img/card_backs/set2/orange.gif","img/card_backs/set2/pink.gif","""event"",""trial"",""time""
""fullscreenenter"",""1"",""3033""
","
","
","""event"",""trial"",""time""
""fullscreenenter"",""1"",""3033""
","
","","null","","null","","fixation","2021-04-12 19:36:11.688","","","","","",""
"card-selection-trial","121","443463","0.0-25.0-1.25","858","true","img/card_backs/set1/green.gif","img/card_backs/set1/purple.gif","img/card_backs/set1/yellow.gif","img/card_backs/set1/red.gif","img/card_backs/set2/gray.gif","img/card_backs/set2/blue.gif","img/card_backs/set2/orange.gif","img/card_backs/set2/pink.gif","""event"",""trial"",""time""
""fullscreenenter"",""1"",""3033""
","
","
","""event"",""trial"",""time""
""fullscreenenter"",""1"",""3033""
","
","","560.0449999983539","","","","real_trial","2021-04-12 19:36:14.261","img/card_backs/set1/yellow.gif","0","50","1","",""
"casino-fixation","122","443966","0.0-25.0-0.26","858","true","img/card_backs/set1/green.gif","img/card_backs/set1/purple.gif","img/card_backs/set1/yellow.gif","img/card_backs/set1/red.gif","img/card_backs/set2/gray.gif","img/card_backs/set2/blue.gif","img/card_backs/set2/orange.gif","img/card_backs/set2/pink.gif","""event"",""trial"",""time""
""fullscreenenter"",""1"",""3033""
","
","
","""event"",""trial"",""time""
""fullscreenenter"",""1"",""3033""
","
","","null","","null","","fixation","2021-04-12 19:36:14.763","","","","","",""
"card-selection-trial","123","446572","0.0-25.0-1.26","858","true","img/card_backs/set1/green.gif","img/card_backs/set1/purple.gif","img/card_backs/set1/yellow.gif","img/card_backs/set1/red.gif","img/card_backs/set2/gray.gif","img/card_backs/set2/blue.gif","img/card_backs/set2/orange.gif","img/card_backs/set2/pink.gif","""event"",""trial"",""time""
""fullscreenenter"",""1"",""3033""
","
","
","""event"",""trial"",""time""
""fullscreenenter"",""1"",""3033""
","
","","593.5849999950733","","","","real_trial","2021-04-12 19:36:17.369","img/card_backs/set1/purple.gif","0","-190","1","",""
"casino-fixation","124","447078","0.0-25.0-0.27","858","true","img/card_backs/set1/green.gif","img/card_backs/set1/purple.gif","img/card_backs/set1/yellow.gif","img/card_backs/set1/red.gif","img/card_backs/set2/gray.gif","img/card_backs/set2/blue.gif","img/card_backs/set2/orange.gif","img/card_backs/set2/pink.gif","""event"",""trial"",""time""
""fullscreenenter"",""1"",""3033""
","
","
","""event"",""trial"",""time""
""fullscreenenter"",""1"",""3033""
","
","","null","","null","","fixation","2021-04-12 19:36:17.875","","","","","",""
"card-selection-trial","125","450263","0.0-25.0-1.27","858","true","img/card_backs/set1/green.gif","img/card_backs/set1/purple.gif","img/card_backs/set1/yellow.gif","img/card_backs/set1/red.gif","img/card_backs/set2/gray.gif","img/card_backs/set2/blue.gif","img/card_backs/set2/orange.gif","img/card_backs/set2/pink.gif","""event"",""trial"",""time""
""fullscreenenter"",""1"",""3033""
","
","
","""event"",""trial"",""time""
""fullscreenenter"",""1"",""3033""
","
","","1171.3749999980791","","","","real_trial","2021-04-12 19:36:21.061","img/card_backs/set1/yellow.gif","2","-90","1","",""
"casino-fixation","126","450769","0.0-25.0-0.28","858","true","img/card_backs/set1/green.gif","img/card_backs/set1/purple.gif","img/card_backs/set1/yellow.gif","img/card_backs/set1/red.gif","img/card_backs/set2/gray.gif","img/card_backs/set2/blue.gif","img/card_backs/set2/orange.gif","img/card_backs/set2/pink.gif","""event"",""trial"",""time""
""fullscreenenter"",""1"",""3033""
","
","
","""event"",""trial"",""time""
""fullscreenenter"",""1"",""3033""
","
","","null","","null","","fixation","2021-04-12 19:36:21.566","","","","","",""
"card-selection-trial","127","454108","0.0-25.0-1.28","858","true","img/card_backs/set1/green.gif","img/card_backs/set1/purple.gif","img/card_backs/set1/yellow.gif","img/card_backs/set1/red.gif","img/card_backs/set2/gray.gif","img/card_backs/set2/blue.gif","img/card_backs/set2/orange.gif","img/card_backs/set2/pink.gif","""event"",""trial"",""time""
""fullscreenenter"",""1"",""3033""
","
","
","""event"",""trial"",""time""
""fullscreenenter"",""1"",""3033""
","
","","1328.624999994645","","","","real_trial","2021-04-12 19:36:24.905","img/card_backs/set1/green.gif","0","260","1","",""
"casino-fixation","128","454615","0.0-25.0-0.29","858","true","img/card_backs/set1/green.gif","img/card_backs/set1/purple.gif","img/card_backs/set1/yellow.gif","img/card_backs/set1/red.gif","img/card_backs/set2/gray.gif","img/card_backs/set2/blue.gif","img/card_backs/set2/orange.gif","img/card_backs/set2/pink.gif","""event"",""trial"",""time""
""fullscreenenter"",""1"",""3033""
","
","
","""event"",""trial"",""time""
""fullscreenenter"",""1"",""3033""
","
","","null","","null","","fixation","2021-04-12 19:36:25.412","","","","","",""
"card-selection-trial","129","458533","0.0-25.0-1.29","858","true","img/card_backs/set1/green.gif","img/card_backs/set1/purple.gif","img/card_backs/set1/yellow.gif","img/card_backs/set1/red.gif","img/card_backs/set2/gray.gif","img/card_backs/set2/blue.gif","img/card_backs/set2/orange.gif","img/card_backs/set2/pink.gif","""event"",""trial"",""time""
""fullscreenenter"",""1"",""3033""
","
","
","""event"",""trial"",""time""
""fullscreenenter"",""1"",""3033""
","
","","1907.5850000008359","","","","real_trial","2021-04-12 19:36:29.330","img/card_backs/set1/red.gif","3","-110","1","",""
"casino-fixation","130","459040","0.0-25.0-0.30","858","true","img/card_backs/set1/green.gif","img/card_backs/set1/purple.gif","img/card_backs/set1/yellow.gif","img/card_backs/set1/red.gif","img/card_backs/set2/gray.gif","img/card_backs/set2/blue.gif","img/card_backs/set2/orange.gif","img/card_backs/set2/pink.gif","""event"",""trial"",""time""
""fullscreenenter"",""1"",""3033""
","
","
","""event"",""trial"",""time""
""fullscreenenter"",""1"",""3033""
","
","","null","","null","","fixation","2021-04-12 19:36:29.838","","","","","",""
"card-selection-trial","131","462025","0.0-25.0-1.30","858","true","img/card_backs/set1/green.gif","img/card_backs/set1/purple.gif","img/card_backs/set1/yellow.gif","img/card_backs/set1/red.gif","img/card_backs/set2/gray.gif","img/card_backs/set2/blue.gif","img/card_backs/set2/orange.gif","img/card_backs/set2/pink.gif","""event"",""trial"",""time""
""fullscreenenter"",""1"",""3033""
","
","
","""event"",""trial"",""time""
""fullscreenenter"",""1"",""3033""
","
","","970.8750000063446","","","","real_trial","2021-04-12 19:36:32.822","img/card_backs/set1/green.gif","3","-200","1","",""
"casino-fixation","132","462532","0.0-25.0-0.31","858","true","img/card_backs/set1/green.gif","img/card_backs/set1/purple.gif","img/card_backs/set1/yellow.gif","img/card_backs/set1/red.gif","img/card_backs/set2/gray.gif","img/card_backs/set2/blue.gif","img/card_backs/set2/orange.gif","img/card_backs/set2/pink.gif","""event"",""trial"",""time""
""fullscreenenter"",""1"",""3033""
","
","
","""event"",""trial"",""time""
""fullscreenenter"",""1"",""3033""
","
","","null","","null","","fixation","2021-04-12 19:36:33.329","","","","","",""
"card-selection-trial","133","471873","0.0-25.0-1.31","858","true","img/card_backs/set1/green.gif","img/card_backs/set1/purple.gif","img/card_backs/set1/yellow.gif","img/card_backs/set1/red.gif","img/card_backs/set2/gray.gif","img/card_backs/set2/blue.gif","img/card_backs/set2/orange.gif","img/card_backs/set2/pink.gif","""event"",""trial"",""time""
""fullscreenenter"",""1"",""3033""
","
","
","""event"",""trial"",""time""
""fullscreenenter"",""1"",""3033""
","
","","7332.455000003392","","","","real_trial","2021-04-12 19:36:42.671","img/card_backs/set1/yellow.gif","2","-90","1","",""
"casino-fixation","134","472379","0.0-25.0-0.32","858","true","img/card_backs/set1/green.gif","img/card_backs/set1/purple.gif","img/card_backs/set1/yellow.gif","img/card_backs/set1/red.gif","img/card_backs/set2/gray.gif","img/card_backs/set2/blue.gif","img/card_backs/set2/orange.gif","img/card_backs/set2/pink.gif","""event"",""trial"",""time""
""fullscreenenter"",""1"",""3033""
","
","
","""event"",""trial"",""time""
""fullscreenenter"",""1"",""3033""
","
","","null","","null","","fixation","2021-04-12 19:36:43.176","","","","","",""
"card-selection-trial","135","475681","0.0-25.0-1.32","858","true","img/card_backs/set1/green.gif","img/card_backs/set1/purple.gif","img/card_backs/set1/yellow.gif","img/card_backs/set1/red.gif","img/card_backs/set2/gray.gif","img/card_backs/set2/blue.gif","img/card_backs/set2/orange.gif","img/card_backs/set2/pink.gif","""event"",""trial"",""time""
""fullscreenenter"",""1"",""3033""
","
","
","""event"",""trial"",""time""
""fullscreenenter"",""1"",""3033""
","
","","1289.4999999989523","","","","real_trial","2021-04-12 19:36:46.478","img/card_backs/set1/yellow.gif","1","40","1","",""
"casino-fixation","136","476187","0.0-25.0-0.33","858","true","img/card_backs/set1/green.gif","img/card_backs/set1/purple.gif","img/card_backs/set1/yellow.gif","img/card_backs/set1/red.gif","img/card_backs/set2/gray.gif","img/card_backs/set2/blue.gif","img/card_backs/set2/orange.gif","img/card_backs/set2/pink.gif","""event"",""trial"",""time""
""fullscreenenter"",""1"",""3033""
","
","
","""event"",""trial"",""time""
""fullscreenenter"",""1"",""3033""
","
","","null","","null","","fixation","2021-04-12 19:36:46.985","","","","","",""
"card-selection-trial","137","479329","0.0-25.0-1.33","858","true","img/card_backs/set1/green.gif","img/card_backs/set1/purple.gif","img/card_backs/set1/yellow.gif","img/card_backs/set1/red.gif","img/card_backs/set2/gray.gif","img/card_backs/set2/blue.gif","img/card_backs/set2/orange.gif","img/card_backs/set2/pink.gif","""event"",""trial"",""time""
""fullscreenenter"",""1"",""3033""
","
","
","""event"",""trial"",""time""
""fullscreenenter"",""1"",""3033""
","
","","1131.5450000038254","","","","real_trial","2021-04-12 19:36:50.127","img/card_backs/set1/green.gif","3","-200","1","",""
"casino-fixation","138","479834","0.0-25.0-0.34","858","true","img/card_backs/set1/green.gif","img/card_backs/set1/purple.gif","img/card_backs/set1/yellow.gif","img/card_backs/set1/red.gif","img/card_backs/set2/gray.gif","img/card_backs/set2/blue.gif","img/card_backs/set2/orange.gif","img/card_backs/set2/pink.gif","""event"",""trial"",""time""
""fullscreenenter"",""1"",""3033""
","
","
","""event"",""trial"",""time""
""fullscreenenter"",""1"",""3033""
","
","","null","","null","","fixation","2021-04-12 19:36:50.631","","","","","",""
"card-selection-trial","139","482716","0.0-25.0-1.34","858","true","img/card_backs/set1/green.gif","img/card_backs/set1/purple.gif","img/card_backs/set1/yellow.gif","img/card_backs/set1/red.gif","img/card_backs/set2/gray.gif","img/card_backs/set2/blue.gif","img/card_backs/set2/orange.gif","img/card_backs/set2/pink.gif","""event"",""trial"",""time""
""fullscreenenter"",""1"",""3033""
","
","
","""event"",""trial"",""time""
""fullscreenenter"",""1"",""3033""
","
","","872.7900000012596","","","","real_trial","2021-04-12 19:36:53.513","img/card_backs/set1/yellow.gif","3","40","1","",""
"casino-fixation","140","483222","0.0-25.0-0.35","858","true","img/card_backs/set1/green.gif","img/card_backs/set1/purple.gif","img/card_backs/set1/yellow.gif","img/card_backs/set1/red.gif","img/card_backs/set2/gray.gif","img/card_backs/set2/blue.gif","img/card_backs/set2/orange.gif","img/card_backs/set2/pink.gif","""event"",""trial"",""time""
""fullscreenenter"",""1"",""3033""
","
","
","""event"",""trial"",""time""
""fullscreenenter"",""1"",""3033""
","
","","null","","null","","fixation","2021-04-12 19:36:54.019","","","","","",""
"card-selection-trial","141","486704","0.0-25.0-1.35","858","true","img/card_backs/set1/green.gif","img/card_backs/set1/purple.gif","img/card_backs/set1/yellow.gif","img/card_backs/set1/red.gif","img/card_backs/set2/gray.gif","img/card_backs/set2/blue.gif","img/card_backs/set2/orange.gif","img/card_backs/set2/pink.gif","""event"",""trial"",""time""
""fullscreenenter"",""1"",""3033""
","
","
","""event"",""trial"",""time""
""fullscreenenter"",""1"",""3033""
","
","","1468.7950000006822","","","","real_trial","2021-04-12 19:36:57.501","img/card_backs/set1/purple.gif","1","240","1","",""
"casino-fixation","142","487210","0.0-25.0-0.36","858","true","img/card_backs/set1/green.gif","img/card_backs/set1/purple.gif","img/card_backs/set1/yellow.gif","img/card_backs/set1/red.gif","img/card_backs/set2/gray.gif","img/card_backs/set2/blue.gif","img/card_backs/set2/orange.gif","img/card_backs/set2/pink.gif","""event"",""trial"",""time""
""fullscreenenter"",""1"",""3033""
","
","
","""event"",""trial"",""time""
""fullscreenenter"",""1"",""3033""
","
","","null","","null","","fixation","2021-04-12 19:36:58.007","","","","","",""
"card-selection-trial","143","490418","0.0-25.0-1.36","858","true","img/card_backs/set1/green.gif","img/card_backs/set1/purple.gif","img/card_backs/set1/yellow.gif","img/card_backs/set1/red.gif","img/card_backs/set2/gray.gif","img/card_backs/set2/blue.gif","img/card_backs/set2/orange.gif","img/card_backs/set2/pink.gif","""event"",""trial"",""time""
""fullscreenenter"",""1"",""3033""
","
","
","""event"",""trial"",""time""
""fullscreenenter"",""1"",""3033""
","
","","1194.4599999987986","","","","real_trial","2021-04-12 19:37:01.215","img/card_backs/set1/yellow.gif","2","-100","1","",""
"casino-fixation","144","490921","0.0-25.0-0.37","858","true","img/card_backs/set1/green.gif","img/card_backs/set1/purple.gif","img/card_backs/set1/yellow.gif","img/card_backs/set1/red.gif","img/card_backs/set2/gray.gif","img/card_backs/set2/blue.gif","img/card_backs/set2/orange.gif","img/card_backs/set2/pink.gif","""event"",""trial"",""time""
""fullscreenenter"",""1"",""3033""
","
","
","""event"",""trial"",""time""
""fullscreenenter"",""1"",""3033""
","
","","null","","null","","fixation","2021-04-12 19:37:01.719","","","","","",""
"card-selection-trial","145","494109","0.0-25.0-1.37","858","true","img/card_backs/set1/green.gif","img/card_backs/set1/purple.gif","img/card_backs/set1/yellow.gif","img/card_backs/set1/red.gif","img/card_backs/set2/gray.gif","img/card_backs/set2/blue.gif","img/card_backs/set2/orange.gif","img/card_backs/set2/pink.gif","""event"",""trial"",""time""
""fullscreenenter"",""1"",""3033""
","
","
","""event"",""trial"",""time""
""fullscreenenter"",""1"",""3033""
","
","","1177.8750000012224","","","","real_trial","2021-04-12 19:37:04.906","img/card_backs/set1/yellow.gif","1","-110","1","",""
"casino-fixation","146","494615","0.0-25.0-0.38","858","true","img/card_backs/set1/green.gif","img/card_backs/set1/purple.gif","img/card_backs/set1/yellow.gif","img/card_backs/set1/red.gif","img/card_backs/set2/gray.gif","img/card_backs/set2/blue.gif","img/card_backs/set2/orange.gif","img/card_backs/set2/pink.gif","""event"",""trial"",""time""
""fullscreenenter"",""1"",""3033""
","
","
","""event"",""trial"",""time""
""fullscreenenter"",""1"",""3033""
","
","","null","","null","","fixation","2021-04-12 19:37:05.412","","","","","",""
"card-selection-trial","147","497134","0.0-25.0-1.38","858","true","img/card_backs/set1/green.gif","img/card_backs/set1/purple.gif","img/card_backs/set1/yellow.gif","img/card_backs/set1/red.gif","img/card_backs/set2/gray.gif","img/card_backs/set2/blue.gif","img/card_backs/set2/orange.gif","img/card_backs/set2/pink.gif","""event"",""trial"",""time""
""fullscreenenter"",""1"",""3033""
","
","
","""event"",""trial"",""time""
""fullscreenenter"",""1"",""3033""
","
","","505.25000000197906","","","","real_trial","2021-04-12 19:37:07.931","img/card_backs/set1/purple.gif","0","-200","1","",""
"casino-fixation","148","497640","0.0-25.0-0.39","858","true","img/card_backs/set1/green.gif","img/card_backs/set1/purple.gif","img/card_backs/set1/yellow.gif","img/card_backs/set1/red.gif","img/card_backs/set2/gray.gif","img/card_backs/set2/blue.gif","img/card_backs/set2/orange.gif","img/card_backs/set2/pink.gif","""event"",""trial"",""time""
""fullscreenenter"",""1"",""3033""
","
","
","""event"",""trial"",""time""
""fullscreenenter"",""1"",""3033""
","
","","null","","null","","fixation","2021-04-12 19:37:08.437","","","","","",""
"card-selection-trial","149","507322","0.0-25.0-1.39","858","true","img/card_backs/set1/green.gif","img/card_backs/set1/purple.gif","img/card_backs/set1/yellow.gif","img/card_backs/set1/red.gif","img/card_backs/set2/gray.gif","img/card_backs/set2/blue.gif","img/card_backs/set2/orange.gif","img/card_backs/set2/pink.gif","""event"",""trial"",""time""
""fullscreenenter"",""1"",""3033""
","
","
","""event"",""trial"",""time""
""fullscreenenter"",""1"",""3033""
","
","","7671.665000001667","","","","real_trial","2021-04-12 19:37:18.119","img/card_backs/set1/yellow.gif","2","40","1","",""
"casino-fixation","150","507830","0.0-25.0-0.40","858","true","img/card_backs/set1/green.gif","img/card_backs/set1/purple.gif","img/card_backs/set1/yellow.gif","img/card_backs/set1/red.gif","img/card_backs/set2/gray.gif","img/card_backs/set2/blue.gif","img/card_backs/set2/orange.gif","img/card_backs/set2/pink.gif","""event"",""trial"",""time""
""fullscreenenter"",""1"",""3033""
","
","
","""event"",""trial"",""time""
""fullscreenenter"",""1"",""3033""
","
","","null","","null","","fixation","2021-04-12 19:37:18.628","","","","","",""
"card-selection-trial","151","515487","0.0-25.0-1.40","858","true","img/card_backs/set1/green.gif","img/card_backs/set1/purple.gif","img/card_backs/set1/yellow.gif","img/card_backs/set1/red.gif","img/card_backs/set2/gray.gif","img/card_backs/set2/blue.gif","img/card_backs/set2/orange.gif","img/card_backs/set2/pink.gif","""event"",""trial"",""time""
""fullscreenenter"",""1"",""3033""
","
","
","""event"",""trial"",""time""
""fullscreenenter"",""1"",""3033""
","
","","5643.000000003667","","","","real_trial","2021-04-12 19:37:26.284","img/card_backs/set1/purple.gif","0","-210","1","",""
"casino-fixation","152","515991","0.0-25.0-0.41","858","true","img/card_backs/set1/green.gif","img/card_backs/set1/purple.gif","img/card_backs/set1/yellow.gif","img/card_backs/set1/red.gif","img/card_backs/set2/gray.gif","img/card_backs/set2/blue.gif","img/card_backs/set2/orange.gif","img/card_backs/set2/pink.gif","""event"",""trial"",""time""
""fullscreenenter"",""1"",""3033""
","
","
","""event"",""trial"",""time""
""fullscreenenter"",""1"",""3033""
","
","","null","","null","","fixation","2021-04-12 19:37:26.789","","","","","",""
"card-selection-trial","153","519709","0.0-25.0-1.41","858","true","img/card_backs/set1/green.gif","img/card_backs/set1/purple.gif","img/card_backs/set1/yellow.gif","img/card_backs/set1/red.gif","img/card_backs/set2/gray.gif","img/card_backs/set2/blue.gif","img/card_backs/set2/orange.gif","img/card_backs/set2/pink.gif","""event"",""trial"",""time""
""fullscreenenter"",""1"",""3033""
","
","
","""event"",""trial"",""time""
""fullscreenenter"",""1"",""3033""
","
","","1705.374999997788","","","","real_trial","2021-04-12 19:37:30.507","img/card_backs/set1/yellow.gif","1","60","1","",""
"casino-fixation","154","520217","0.0-25.0-0.42","858","true","img/card_backs/set1/green.gif","img/card_backs/set1/purple.gif","img/card_backs/set1/yellow.gif","img/card_backs/set1/red.gif","img/card_backs/set2/gray.gif","img/card_backs/set2/blue.gif","img/card_backs/set2/orange.gif","img/card_backs/set2/pink.gif","""event"",""trial"",""time""
""fullscreenenter"",""1"",""3033""
","
","
","""event"",""trial"",""time""
""fullscreenenter"",""1"",""3033""
","
","","null","","null","","fixation","2021-04-12 19:37:31.015","","","","","",""
"card-selection-trial","155","523552","0.0-25.0-1.42","858","true","img/card_backs/set1/green.gif","img/card_backs/set1/purple.gif","img/card_backs/set1/yellow.gif","img/card_backs/set1/red.gif","img/card_backs/set2/gray.gif","img/card_backs/set2/blue.gif","img/card_backs/set2/orange.gif","img/card_backs/set2/pink.gif","""event"",""trial"",""time""
""fullscreenenter"",""1"",""3033""
","
","
","""event"",""trial"",""time""
""fullscreenenter"",""1"",""3033""
","
","","1321.2100000018254","","","","real_trial","2021-04-12 19:37:34.349","img/card_backs/set1/green.gif","3","260","1","",""
"casino-fixation","156","524060","0.0-25.0-0.43","858","true","img/card_backs/set1/green.gif","img/card_backs/set1/purple.gif","img/card_backs/set1/yellow.gif","img/card_backs/set1/red.gif","img/card_backs/set2/gray.gif","img/card_backs/set2/blue.gif","img/card_backs/set2/orange.gif","img/card_backs/set2/pink.gif","""event"",""trial"",""time""
""fullscreenenter"",""1"",""3033""
","
","
","""event"",""trial"",""time""
""fullscreenenter"",""1"",""3033""
","
","","null","","null","","fixation","2021-04-12 19:37:34.857","","","","","",""
"card-selection-trial","157","527840","0.0-25.0-1.43","858","true","img/card_backs/set1/green.gif","img/card_backs/set1/purple.gif","img/card_backs/set1/yellow.gif","img/card_backs/set1/red.gif","img/card_backs/set2/gray.gif","img/card_backs/set2/blue.gif","img/card_backs/set2/orange.gif","img/card_backs/set2/pink.gif","""event"",""trial"",""time""
""fullscreenenter"",""1"",""3033""
","
","
","""event"",""trial"",""time""
""fullscreenenter"",""1"",""3033""
","
","","1766.624999996624","","","","real_trial","2021-04-12 19:37:38.637","img/card_backs/set1/yellow.gif","2","50","1","",""
"casino-fixation","158","528348","0.0-25.0-0.44","858","true","img/card_backs/set1/green.gif","img/card_backs/set1/purple.gif","img/card_backs/set1/yellow.gif","img/card_backs/set1/red.gif","img/card_backs/set2/gray.gif","img/card_backs/set2/blue.gif","img/card_backs/set2/orange.gif","img/card_backs/set2/pink.gif","""event"",""trial"",""time""
""fullscreenenter"",""1"",""3033""
","
","
","""event"",""trial"",""time""
""fullscreenenter"",""1"",""3033""
","
","","null","","null","","fixation","2021-04-12 19:37:39.145","","","","","",""
"card-selection-trial","159","531258","0.0-25.0-1.44","858","true","img/card_backs/set1/green.gif","img/card_backs/set1/purple.gif","img/card_backs/set1/yellow.gif","img/card_backs/set1/red.gif","img/card_backs/set2/gray.gif","img/card_backs/set2/blue.gif","img/card_backs/set2/orange.gif","img/card_backs/set2/pink.gif","""event"",""trial"",""time""
""fullscreenenter"",""1"",""3033""
","
","
","""event"",""trial"",""time""
""fullscreenenter"",""1"",""3033""
","
","","896.5049999968614","","","","real_trial","2021-04-12 19:37:42.055","img/card_backs/set1/green.gif","1","250","1","",""
"casino-fixation","160","531765","0.0-25.0-0.45","858","true","img/card_backs/set1/green.gif","img/card_backs/set1/purple.gif","img/card_backs/set1/yellow.gif","img/card_backs/set1/red.gif","img/card_backs/set2/gray.gif","img/card_backs/set2/blue.gif","img/card_backs/set2/orange.gif","img/card_backs/set2/pink.gif","""event"",""trial"",""time""
""fullscreenenter"",""1"",""3033""
","
","
","""event"",""trial"",""time""
""fullscreenenter"",""1"",""3033""
","
","","null","","null","","fixation","2021-04-12 19:37:42.562","","","","","",""
"card-selection-trial","161","536108","0.0-25.0-1.45","858","true","img/card_backs/set1/green.gif","img/card_backs/set1/purple.gif","img/card_backs/set1/yellow.gif","img/card_backs/set1/red.gif","img/card_backs/set2/gray.gif","img/card_backs/set2/blue.gif","img/card_backs/set2/orange.gif","img/card_backs/set2/pink.gif","""event"",""trial"",""time""
""fullscreenenter"",""1"",""3033""
","
","
","""event"",""trial"",""time""
""fullscreenenter"",""1"",""3033""
","
","","2329.584999999497","","","","real_trial","2021-04-12 19:37:46.905","img/card_backs/set1/yellow.gif","3","60","1","",""
"casino-fixation","162","536614","0.0-25.0-0.46","858","true","img/card_backs/set1/green.gif","img/card_backs/set1/purple.gif","img/card_backs/set1/yellow.gif","img/card_backs/set1/red.gif","img/card_backs/set2/gray.gif","img/card_backs/set2/blue.gif","img/card_backs/set2/orange.gif","img/card_backs/set2/pink.gif","""event"",""trial"",""time""
""fullscreenenter"",""1"",""3033""
","
","
","""event"",""trial"",""time""
""fullscreenenter"",""1"",""3033""
","
","","null","","null","","fixation","2021-04-12 19:37:47.411","","","","","",""
"card-selection-trial","163","539717","0.0-25.0-1.46","858","true","img/card_backs/set1/green.gif","img/card_backs/set1/purple.gif","img/card_backs/set1/yellow.gif","img/card_backs/set1/red.gif","img/card_backs/set2/gray.gif","img/card_backs/set2/blue.gif","img/card_backs/set2/orange.gif","img/card_backs/set2/pink.gif","""event"",""trial"",""time""
""fullscreenenter"",""1"",""3033""
","
","
","""event"",""trial"",""time""
""fullscreenenter"",""1"",""3033""
","
","","1089.3799999976764","","","","real_trial","2021-04-12 19:37:50.515","img/card_backs/set1/green.gif","3","-210","1","",""
"casino-fixation","164","540223","0.0-25.0-0.47","858","true","img/card_backs/set1/green.gif","img/card_backs/set1/purple.gif","img/card_backs/set1/yellow.gif","img/card_backs/set1/red.gif","img/card_backs/set2/gray.gif","img/card_backs/set2/blue.gif","img/card_backs/set2/orange.gif","img/card_backs/set2/pink.gif","""event"",""trial"",""time""
""fullscreenenter"",""1"",""3033""
","
","
","""event"",""trial"",""time""
""fullscreenenter"",""1"",""3033""
","
","","null","","null","","fixation","2021-04-12 19:37:51.020","","","","","",""
"card-selection-trial","165","544270","0.0-25.0-1.47","858","true","img/card_backs/set1/green.gif","img/card_backs/set1/purple.gif","img/card_backs/set1/yellow.gif","img/card_backs/set1/red.gif","img/card_backs/set2/gray.gif","img/card_backs/set2/blue.gif","img/card_backs/set2/orange.gif","img/card_backs/set2/pink.gif","""event"",""trial"",""time""
""fullscreenenter"",""1"",""3033""
","
","
","""event"",""trial"",""time""
""fullscreenenter"",""1"",""3033""
","
","","2034.3749999956926","","","","real_trial","2021-04-12 19:37:55.067","img/card_backs/set1/yellow.gif","1","50","1","",""
"casino-fixation","166","544778","0.0-25.0-0.48","858","true","img/card_backs/set1/green.gif","img/card_backs/set1/purple.gif","img/card_backs/set1/yellow.gif","img/card_backs/set1/red.gif","img/card_backs/set2/gray.gif","img/card_backs/set2/blue.gif","img/card_backs/set2/orange.gif","img/card_backs/set2/pink.gif","""event"",""trial"",""time""
""fullscreenenter"",""1"",""3033""
","
","
","""event"",""trial"",""time""
""fullscreenenter"",""1"",""3033""
","
","","null","","null","","fixation","2021-04-12 19:37:55.575","","","","","",""
"card-selection-trial","167","548135","0.0-25.0-1.48","858","true","img/card_backs/set1/green.gif","img/card_backs/set1/purple.gif","img/card_backs/set1/yellow.gif","img/card_backs/set1/red.gif","img/card_backs/set2/gray.gif","img/card_backs/set2/blue.gif","img/card_backs/set2/orange.gif","img/card_backs/set2/pink.gif","""event"",""trial"",""time""
""fullscreenenter"",""1"",""3033""
","
","
","""event"",""trial"",""time""
