"trial_type","trial_index","time_elapsed","internal_node_id","sub_id","risk_good_first","block1_A","block1_B","block1_C","block1_D","block2_A","block2_B","block2_C","block2_D","interactions","blur_events","focus_events","fullscreenenter_events","fullscreenexit_events","success","rt","stimulus","key_press","button_pressed","task_part","timestamp","card_choice","choice_position","points_earned","block","correct","response"
"pavlovia","0","4","0.0-0.0","A137","false","img/card_backs/set1/yellow.gif","img/card_backs/set1/green.gif","img/card_backs/set1/purple.gif","img/card_backs/set1/red.gif","img/card_backs/set2/gray.gif","img/card_backs/set2/pink.gif","img/card_backs/set2/orange.gif","img/card_backs/set2/blue.gif","""event"",""trial"",""time""
""fullscreenenter"",""1"",""3405""
","
","
","""event"",""trial"",""time""
""fullscreenenter"",""1"",""3405""
","
","","","","","","","","","","","","",""
"fullscreen","1","4342","0.0-1.0","A137","false","img/card_backs/set1/yellow.gif","img/card_backs/set1/green.gif","img/card_backs/set1/purple.gif","img/card_backs/set1/red.gif","img/card_backs/set2/gray.gif","img/card_backs/set2/pink.gif","img/card_backs/set2/orange.gif","img/card_backs/set2/blue.gif","""event"",""trial"",""time""
""fullscreenenter"",""1"",""3405""
","
","
","""event"",""trial"",""time""
""fullscreenenter"",""1"",""3405""
","
","true","","","","","","","","","","","",""
"audio-keyboard-response","2","6834","0.0-2.0","A137","false","img/card_backs/set1/yellow.gif","img/card_backs/set1/green.gif","img/card_backs/set1/purple.gif","img/card_backs/set1/red.gif","img/card_backs/set2/gray.gif","img/card_backs/set2/pink.gif","img/card_backs/set2/orange.gif","img/card_backs/set2/blue.gif","""event"",""trial"",""time""
""fullscreenenter"",""1"",""3405""
","
","
","""event"",""trial"",""time""
""fullscreenenter"",""1"",""3405""
","
","","2488","audio/beep_loop.wav","174","","","","","","","","",""
"audio-button-response","3","10342","0.0-3.0","A137","false","img/card_backs/set1/yellow.gif","img/card_backs/set1/green.gif","img/card_backs/set1/purple.gif","img/card_backs/set1/red.gif","img/card_backs/set2/gray.gif","img/card_backs/set2/pink.gif","img/card_backs/set2/orange.gif","img/card_backs/set2/blue.gif","""event"",""trial"",""time""
""fullscreenenter"",""1"",""3405""
","
","
","""event"",""trial"",""time""
""fullscreenenter"",""1"",""3405""
","
","","NaN","audio/turtle.mp3","","3","","","","","","","",""
"audio-button-response","4","12825","0.0-4.0","A137","false","img/card_backs/set1/yellow.gif","img/card_backs/set1/green.gif","img/card_backs/set1/purple.gif","img/card_backs/set1/red.gif","img/card_backs/set2/gray.gif","img/card_backs/set2/pink.gif","img/card_backs/set2/orange.gif","img/card_backs/set2/blue.gif","""event"",""trial"",""time""
""fullscreenenter"",""1"",""3405""
","
","
","""event"",""trial"",""time""
""fullscreenenter"",""1"",""3405""
","
","","NaN","audio/shark.mp3","","2","","","","","","","",""
"fullscreen","5","16436","0.0-5.0","A137","false","img/card_backs/set1/yellow.gif","img/card_backs/set1/green.gif","img/card_backs/set1/purple.gif","img/card_backs/set1/red.gif","img/card_backs/set2/gray.gif","img/card_backs/set2/pink.gif","img/card_backs/set2/orange.gif","img/card_backs/set2/blue.gif","""event"",""trial"",""time""
""fullscreenenter"",""1"",""3405""
","
","
","""event"",""trial"",""time""
""fullscreenenter"",""1"",""3405""
","
","true","","","","","","","","","","","",""
"casino-keyboard-response","6","20039","0.0-6.0-0.0","A137","false","img/card_backs/set1/yellow.gif","img/card_backs/set1/green.gif","img/card_backs/set1/purple.gif","img/card_backs/set1/red.gif","img/card_backs/set2/gray.gif","img/card_backs/set2/pink.gif","img/card_backs/set2/orange.gif","img/card_backs/set2/blue.gif","""event"",""trial"",""time""
""fullscreenenter"",""1"",""3405""
","
","
","""event"",""trial"",""time""
""fullscreenenter"",""1"",""3405""
","
","","3600.300000000745","Welcome to the casino!","71","","instructions","2021-08-04 20:27:16.410","","","","","",""
"casino-keyboard-response","7","29603","0.0-6.0-0.1","A137","false","img/card_backs/set1/yellow.gif","img/card_backs/set1/green.gif","img/card_backs/set1/purple.gif","img/card_backs/set1/red.gif","img/card_backs/set2/gray.gif","img/card_backs/set2/pink.gif","img/card_backs/set2/orange.gif","img/card_backs/set2/blue.gif","""event"",""trial"",""time""
""fullscreenenter"",""1"",""3405""
","
","
","""event"",""trial"",""time""
""fullscreenenter"",""1"",""3405""
","
","","9562.300000000745","Today you will be playing a game to earn tokens. </br> At the end of the experiment, you will be paid a bonus based on how many tokens you win. ","69","","instructions","2021-08-04 20:27:25.974","","","","","",""
"casino-keyboard-response","8","36874","0.0-6.0-0.2","A137","false","img/card_backs/set1/yellow.gif","img/card_backs/set1/green.gif","img/card_backs/set1/purple.gif","img/card_backs/set1/red.gif","img/card_backs/set2/gray.gif","img/card_backs/set2/pink.gif","img/card_backs/set2/orange.gif","img/card_backs/set2/blue.gif","""event"",""trial"",""time""
""fullscreenenter"",""1"",""3405""
","
","
","""event"",""trial"",""time""
""fullscreenenter"",""1"",""3405""
","
","","7268.800000000745","On every turn, you will be shown four different decks of cards. </br> You need to select a card from one of the four decks.  ","75","","instructions","2021-08-04 20:27:33.245","","","","","",""
"casino-keyboard-response","9","41639","0.0-6.0-0.3","A137","false","img/card_backs/set1/yellow.gif","img/card_backs/set1/green.gif","img/card_backs/set1/purple.gif","img/card_backs/set1/red.gif","img/card_backs/set2/gray.gif","img/card_backs/set2/pink.gif","img/card_backs/set2/orange.gif","img/card_backs/set2/blue.gif","""event"",""trial"",""time""
""fullscreenenter"",""1"",""3405""
","
","
","""event"",""trial"",""time""
""fullscreenenter"",""1"",""3405""
","
","","4763.199999999255","On the next screen, you will see what the decks will look like. ","66","","instructions","2021-08-04 20:27:38.010","","","","","",""
"card-selection-trial","10","45664","0.0-7.0-0.0","A137","false","img/card_backs/set1/yellow.gif","img/card_backs/set1/green.gif","img/card_backs/set1/purple.gif","img/card_backs/set1/red.gif","img/card_backs/set2/gray.gif","img/card_backs/set2/pink.gif","img/card_backs/set2/orange.gif","img/card_backs/set2/blue.gif","""event"",""trial"",""time""
""fullscreenenter"",""1"",""3405""
","
","
","""event"",""trial"",""time""
""fullscreenenter"",""1"",""3405""
","
","","null","","","","practice","2021-08-04 20:27:42.035","null","null","null","0","",""
"casino-keyboard-response","11","53374","0.0-8.0-0.0","A137","false","img/card_backs/set1/yellow.gif","img/card_backs/set1/green.gif","img/card_backs/set1/purple.gif","img/card_backs/set1/red.gif","img/card_backs/set2/gray.gif","img/card_backs/set2/pink.gif","img/card_backs/set2/orange.gif","img/card_backs/set2/blue.gif","""event"",""trial"",""time""
""fullscreenenter"",""1"",""3405""
","
","
","""event"",""trial"",""time""
""fullscreenenter"",""1"",""3405""
","
","","7708.699999999255","You should pick a card from a deck using the '2', '4', '6', and '8' keys at the top of the keyboard.","85","","instructions","2021-08-04 20:27:49.745","","","","","",""
"casino-keyboard-response","12","59111","0.0-8.0-0.1","A137","false","img/card_backs/set1/yellow.gif","img/card_backs/set1/green.gif","img/card_backs/set1/purple.gif","img/card_backs/set1/red.gif","img/card_backs/set2/gray.gif","img/card_backs/set2/pink.gif","img/card_backs/set2/orange.gif","img/card_backs/set2/blue.gif","""event"",""trial"",""time""
""fullscreenenter"",""1"",""3405""
","
","
","""event"",""trial"",""time""
""fullscreenenter"",""1"",""3405""
","
","","5735","Once you select a card, it will turn over and you will see how many tokens you earned.","83","","instructions","2021-08-04 20:27:55.482","","","","","",""
"casino-keyboard-response","13","77265","0.0-8.0-0.2","A137","false","img/card_backs/set1/yellow.gif","img/card_backs/set1/green.gif","img/card_backs/set1/purple.gif","img/card_backs/set1/red.gif","img/card_backs/set2/gray.gif","img/card_backs/set2/pink.gif","img/card_backs/set2/orange.gif","img/card_backs/set2/blue.gif","""event"",""trial"",""time""
""fullscreenenter"",""1"",""3405""
","
","
","""event"",""trial"",""time""
""fullscreenenter"",""1"",""3405""
","
","","18153.400000002235","Let's try practicing that! </br> First, try to put your fingers over the '2', '4', '6', and '8' keys. </br>  You can use whatever fingers are most comfortable for you. Try to find a comfortable position now. ","50","","instructions","2021-08-04 20:28:13.636","","","","","",""
"casino-keyboard-response","14","83024","0.0-8.0-0.3","A137","false","img/card_backs/set1/yellow.gif","img/card_backs/set1/green.gif","img/card_backs/set1/purple.gif","img/card_backs/set1/red.gif","img/card_backs/set2/gray.gif","img/card_backs/set2/pink.gif","img/card_backs/set2/orange.gif","img/card_backs/set2/blue.gif","""event"",""trial"",""time""
""fullscreenenter"",""1"",""3405""
","
","
","""event"",""trial"",""time""
""fullscreenenter"",""1"",""3405""
","
","","5756.5","Okay ready? </br> On the next screen, press '2' to select the left deck. ","50","","instructions","2021-08-04 20:28:19.395","","","","","",""
"card-selection-trial","15","86085","0.0-9.0-0.0","A137","false","img/card_backs/set1/yellow.gif","img/card_backs/set1/green.gif","img/card_backs/set1/purple.gif","img/card_backs/set1/red.gif","img/card_backs/set2/gray.gif","img/card_backs/set2/pink.gif","img/card_backs/set2/orange.gif","img/card_backs/set2/blue.gif","""event"",""trial"",""time""
""fullscreenenter"",""1"",""3405""
","
","
","""event"",""trial"",""time""
""fullscreenenter"",""1"",""3405""
","
","","1013.8000000007451","","","","practice_card_selection","2021-08-04 20:28:22.456","img/practice_cards/backs/black.gif","0","100","","",""
"casino-keyboard-response","16","91767","0.0-10.0-0.0","A137","false","img/card_backs/set1/yellow.gif","img/card_backs/set1/green.gif","img/card_backs/set1/purple.gif","img/card_backs/set1/red.gif","img/card_backs/set2/gray.gif","img/card_backs/set2/pink.gif","img/card_backs/set2/orange.gif","img/card_backs/set2/blue.gif","""event"",""trial"",""time""
""fullscreenenter"",""1"",""3405""
","
","
","""event"",""trial"",""time""
""fullscreenenter"",""1"",""3405""
","
","","5681.10000000149","Great! Now on the next screen, try pressing '6' to select the third deck.","54","","instructions","2021-08-04 20:28:28.138","","","","","",""
"card-selection-trial","17","95297","0.0-11.0-0.0","A137","false","img/card_backs/set1/yellow.gif","img/card_backs/set1/green.gif","img/card_backs/set1/purple.gif","img/card_backs/set1/red.gif","img/card_backs/set2/gray.gif","img/card_backs/set2/pink.gif","img/card_backs/set2/orange.gif","img/card_backs/set2/blue.gif","""event"",""trial"",""time""
""fullscreenenter"",""1"",""3405""
","
","
","""event"",""trial"",""time""
""fullscreenenter"",""1"",""3405""
","
","","1521.4000000022352","","","","practice_card_selection","2021-08-04 20:28:31.668","img/practice_cards/backs/black.gif","2","100","","",""
"casino-keyboard-response","18","99945","0.0-12.0-0.0","A137","false","img/card_backs/set1/yellow.gif","img/card_backs/set1/green.gif","img/card_backs/set1/purple.gif","img/card_backs/set1/red.gif","img/card_backs/set2/gray.gif","img/card_backs/set2/pink.gif","img/card_backs/set2/orange.gif","img/card_backs/set2/blue.gif","""event"",""trial"",""time""
""fullscreenenter"",""1"",""3405""
","
","
","""event"",""trial"",""time""
""fullscreenenter"",""1"",""3405""
","
","","4647","Now on the next screen, try pressing '4' to select the second deck.","52","","instructions","2021-08-04 20:28:36.316","","","","","",""
"card-selection-trial","19","104411","0.0-13.0-0.0","A137","false","img/card_backs/set1/yellow.gif","img/card_backs/set1/green.gif","img/card_backs/set1/purple.gif","img/card_backs/set1/red.gif","img/card_backs/set2/gray.gif","img/card_backs/set2/pink.gif","img/card_backs/set2/orange.gif","img/card_backs/set2/blue.gif","""event"",""trial"",""time""
""fullscreenenter"",""1"",""3405""
","
","
","""event"",""trial"",""time""
""fullscreenenter"",""1"",""3405""
","
","","2451.900000002235","","","","practice_card_selection","2021-08-04 20:28:40.782","img/practice_cards/backs/dark_blue.gif","1","-200","","",""
"casino-keyboard-response","20","108950","0.0-14.0-0.0","A137","false","img/card_backs/set1/yellow.gif","img/card_backs/set1/green.gif","img/card_backs/set1/purple.gif","img/card_backs/set1/red.gif","img/card_backs/set2/gray.gif","img/card_backs/set2/pink.gif","img/card_backs/set2/orange.gif","img/card_backs/set2/blue.gif","""event"",""trial"",""time""
""fullscreenenter"",""1"",""3405""
","
","
","""event"",""trial"",""time""
""fullscreenenter"",""1"",""3405""
","
","","4537.099999997765","Finally, try pressing '8' to select the deck all the way on the right.","56","","instructions","2021-08-04 20:28:45.321","","","","","",""
"card-selection-trial","21","112676","0.0-15.0-0.0","A137","false","img/card_backs/set1/yellow.gif","img/card_backs/set1/green.gif","img/card_backs/set1/purple.gif","img/card_backs/set1/red.gif","img/card_backs/set2/gray.gif","img/card_backs/set2/pink.gif","img/card_backs/set2/orange.gif","img/card_backs/set2/blue.gif","""event"",""trial"",""time""
""fullscreenenter"",""1"",""3405""
","
","
","""event"",""trial"",""time""
""fullscreenenter"",""1"",""3405""
","
","","1717.2999999970198","","","","practice_card_selection","2021-08-04 20:28:49.047","img/practice_cards/backs/brown.gif","3","-100","","",""
"casino-keyboard-response","22","117669","0.0-16.0-0.0","A137","false","img/card_backs/set1/yellow.gif","img/card_backs/set1/green.gif","img/card_backs/set1/purple.gif","img/card_backs/set1/red.gif","img/card_backs/set2/gray.gif","img/card_backs/set2/pink.gif","img/card_backs/set2/orange.gif","img/card_backs/set2/blue.gif","""event"",""trial"",""time""
""fullscreenenter"",""1"",""3405""
","
","
","""event"",""trial"",""time""
""fullscreenenter"",""1"",""3405""
","
","","4990.89999999851","Great! It seems like you are getting the hang of this.","80","","instructions","2021-08-04 20:28:54.040","","","","","",""
"casino-keyboard-response","23","126162","0.0-16.0-0.1","A137","false","img/card_backs/set1/yellow.gif","img/card_backs/set1/green.gif","img/card_backs/set1/purple.gif","img/card_backs/set1/red.gif","img/card_backs/set2/gray.gif","img/card_backs/set2/pink.gif","img/card_backs/set2/orange.gif","img/card_backs/set2/blue.gif","""event"",""trial"",""time""
""fullscreenenter"",""1"",""3405""
","
","
","""event"",""trial"",""time""
""fullscreenenter"",""1"",""3405""
","
","","8492.10000000149","You may have noticed that some cards will cause you to <b> win </b> tokens while other cards will cause you to <b> lose </b>  tokens.","70","","instructions","2021-08-04 20:29:02.533","","","","","",""
"casino-keyboard-response","24","134886","0.0-16.0-0.2","A137","false","img/card_backs/set1/yellow.gif","img/card_backs/set1/green.gif","img/card_backs/set1/purple.gif","img/card_backs/set1/red.gif","img/card_backs/set2/gray.gif","img/card_backs/set2/pink.gif","img/card_backs/set2/orange.gif","img/card_backs/set2/blue.gif","""event"",""trial"",""time""
""fullscreenenter"",""1"",""3405""
","
","
","""event"",""trial"",""time""
""fullscreenenter"",""1"",""3405""
","
","","8722.800000000745","Each deck has a mix of cards that will cause you to win and lose tokens. </br> However, the cards in each colored deck are different.","73","","instructions","2021-08-04 20:29:11.257","","","","","",""
"casino-keyboard-response","25","142955","0.0-16.0-0.3","A137","false","img/card_backs/set1/yellow.gif","img/card_backs/set1/green.gif","img/card_backs/set1/purple.gif","img/card_backs/set1/red.gif","img/card_backs/set2/gray.gif","img/card_backs/set2/pink.gif","img/card_backs/set2/orange.gif","img/card_backs/set2/blue.gif","""event"",""trial"",""time""
""fullscreenenter"",""1"",""3405""
","
","
","""event"",""trial"",""time""
""fullscreenenter"",""1"",""3405""
","
","","8067.800000000745","Some colored decks are luckier than others. </br> If you choose the lucky decks, you will earn more tokens than if you choose the unlucky decks.","69","","instructions","2021-08-04 20:29:19.326","","","","","",""
"casino-keyboard-response","26","150036","0.0-16.0-0.4","A137","false","img/card_backs/set1/yellow.gif","img/card_backs/set1/green.gif","img/card_backs/set1/purple.gif","img/card_backs/set1/red.gif","img/card_backs/set2/gray.gif","img/card_backs/set2/pink.gif","img/card_backs/set2/orange.gif","img/card_backs/set2/blue.gif","""event"",""trial"",""time""
""fullscreenenter"",""1"",""3405""
","
","
","""event"",""trial"",""time""
""fullscreenenter"",""1"",""3405""
","
","","7079.400000002235","You should try to figure out which decks are lucky. </br> Then, try to choose the lucky decks so you can win the most tokens.","87","","instructions","2021-08-04 20:29:26.407","","","","","",""
"casino-keyboard-response","27","161083","0.0-16.0-0.5","A137","false","img/card_backs/set1/yellow.gif","img/card_backs/set1/green.gif","img/card_backs/set1/purple.gif","img/card_backs/set1/red.gif","img/card_backs/set2/gray.gif","img/card_backs/set2/pink.gif","img/card_backs/set2/orange.gif","img/card_backs/set2/blue.gif","""event"",""trial"",""time""
""fullscreenenter"",""1"",""3405""
","
","
","""event"",""trial"",""time""
""fullscreenenter"",""1"",""3405""
","
","","11045.199999999255","To make it trickier, the casino dealer will switch the locations of the decks on every turn. </br> The color of the deck determines how lucky it is. The location does not matter.","88","","instructions","2021-08-04 20:29:37.454","","","","","",""
"casino-keyboard-response","28","170582","0.0-16.0-0.6","A137","false","img/card_backs/set1/yellow.gif","img/card_backs/set1/green.gif","img/card_backs/set1/purple.gif","img/card_backs/set1/red.gif","img/card_backs/set2/gray.gif","img/card_backs/set2/pink.gif","img/card_backs/set2/orange.gif","img/card_backs/set2/blue.gif","""event"",""trial"",""time""
""fullscreenenter"",""1"",""3405""
","
","
","""event"",""trial"",""time""
""fullscreenenter"",""1"",""3405""
","
","","9496.699999999255","The mix of cards in each colored deck will stay the same throughout the game. </br> That means that a deck that is lucky early on will stay lucky.","79","","instructions","2021-08-04 20:29:46.953","","","","","",""
"casino-keyboard-response","29","178911","0.0-16.0-0.7","A137","false","img/card_backs/set1/yellow.gif","img/card_backs/set1/green.gif","img/card_backs/set1/purple.gif","img/card_backs/set1/red.gif","img/card_backs/set2/gray.gif","img/card_backs/set2/pink.gif","img/card_backs/set2/orange.gif","img/card_backs/set2/blue.gif","""event"",""trial"",""time""
""fullscreenenter"",""1"",""3405""
","
","
","""event"",""trial"",""time""
""fullscreenenter"",""1"",""3405""
","
","","8327.39999999851","Remember though, all the decks have a <b> mix </b> of both <b> good </b> and <b> bad </b> cards so it may take a couple of turns to figure out if a deck is lucky.","69","","instructions","2021-08-04 20:29:55.282","","","","","",""
"casino-keyboard-response","30","187239","0.0-16.0-0.8","A137","false","img/card_backs/set1/yellow.gif","img/card_backs/set1/green.gif","img/card_backs/set1/purple.gif","img/card_backs/set1/red.gif","img/card_backs/set2/gray.gif","img/card_backs/set2/pink.gif","img/card_backs/set2/orange.gif","img/card_backs/set2/blue.gif","""event"",""trial"",""time""
""fullscreenenter"",""1"",""3405""
","
","
","""event"",""trial"",""time""
""fullscreenenter"",""1"",""3405""
","
","","8327.300000000745","At the end of the game, you will be paid bonus money based on how many tokens you win. </br> If you win more tokens, you will earn more money!","72","","instructions","2021-08-04 20:30:03.610","","","","","",""
"casino-keyboard-response","31","197497","0.0-16.0-0.9","A137","false","img/card_backs/set1/yellow.gif","img/card_backs/set1/green.gif","img/card_backs/set1/purple.gif","img/card_backs/set1/red.gif","img/card_backs/set2/gray.gif","img/card_backs/set2/pink.gif","img/card_backs/set2/orange.gif","img/card_backs/set2/blue.gif","""event"",""trial"",""time""
""fullscreenenter"",""1"",""3405""
","
","
","""event"",""trial"",""time""
""fullscreenenter"",""1"",""3405""
","
","","10256.79999999702","You will never <b> lose </b> money. </br> If you end up with fewer than 0 tokens, you will earn $0 of bonus money, but you will still be paid for playing the game.","83","","instructions","2021-08-04 20:30:13.868","","","","","",""
"casino-keyboard-response","32","201533","0.0-16.0-0.10","A137","false","img/card_backs/set1/yellow.gif","img/card_backs/set1/green.gif","img/card_backs/set1/purple.gif","img/card_backs/set1/red.gif","img/card_backs/set2/gray.gif","img/card_backs/set2/pink.gif","img/card_backs/set2/orange.gif","img/card_backs/set2/blue.gif","""event"",""trial"",""time""
""fullscreenenter"",""1"",""3405""
","
","
","""event"",""trial"",""time""
""fullscreenenter"",""1"",""3405""
","
","","4034.800000000745","You will have 10 seconds to make each choice.","82","","instructions","2021-08-04 20:30:17.905","","","","","",""
"casino-keyboard-response","33","210086","0.0-16.0-0.11","A137","false","img/card_backs/set1/yellow.gif","img/card_backs/set1/green.gif","img/card_backs/set1/purple.gif","img/card_backs/set1/red.gif","img/card_backs/set2/gray.gif","img/card_backs/set2/pink.gif","img/card_backs/set2/orange.gif","img/card_backs/set2/blue.gif","""event"",""trial"",""time""
""fullscreenenter"",""1"",""3405""
","
","
","""event"",""trial"",""time""
""fullscreenenter"",""1"",""3405""
","
","","8550.099999997765","Before you play the game for real, you will play with practice decks. </br> The tokens you earn during practice won't count toward your total.","86","","instructions","2021-08-04 20:30:26.457","","","","","",""
"casino-keyboard-response","34","232482","0.0-16.0-0.12","A137","false","img/card_backs/set1/yellow.gif","img/card_backs/set1/green.gif","img/card_backs/set1/purple.gif","img/card_backs/set1/red.gif","img/card_backs/set2/gray.gif","img/card_backs/set2/pink.gif","img/card_backs/set2/orange.gif","img/card_backs/set2/blue.gif","""event"",""trial"",""time""
""fullscreenenter"",""1"",""3405""
","
","
","""event"",""trial"",""time""
""fullscreenenter"",""1"",""3405""
","
","","22395.5","Ready? Remember, use the '2', '4', '6', and '8' keys to select the decks. </br> Put your fingers on those keys now and then press '2' to begin.","50","","instructions","2021-08-04 20:30:48.853","","","","","",""
"casino-fixation","35","232998","0.0-17.0-0.0","A137","false","img/card_backs/set1/yellow.gif","img/card_backs/set1/green.gif","img/card_backs/set1/purple.gif","img/card_backs/set1/red.gif","img/card_backs/set2/gray.gif","img/card_backs/set2/pink.gif","img/card_backs/set2/orange.gif","img/card_backs/set2/blue.gif","""event"",""trial"",""time""
""fullscreenenter"",""1"",""3405""
","
","
","""event"",""trial"",""time""
""fullscreenenter"",""1"",""3405""
","
","","null","","null","","fixation","2021-08-04 20:30:49.369","","","","","",""
"card-selection-trial","36","236802","0.0-17.0-1.0","A137","false","img/card_backs/set1/yellow.gif","img/card_backs/set1/green.gif","img/card_backs/set1/purple.gif","img/card_backs/set1/red.gif","img/card_backs/set2/gray.gif","img/card_backs/set2/pink.gif","img/card_backs/set2/orange.gif","img/card_backs/set2/blue.gif","""event"",""trial"",""time""
""fullscreenenter"",""1"",""3405""
","
","
","""event"",""trial"",""time""
""fullscreenenter"",""1"",""3405""
","
","","1793.8999999985099","","","","practice","2021-08-04 20:30:53.173","img/practice_cards/backs/brown.gif","0","-100","0","",""
"casino-fixation","37","237306","0.0-17.0-0.1","A137","false","img/card_backs/set1/yellow.gif","img/card_backs/set1/green.gif","img/card_backs/set1/purple.gif","img/card_backs/set1/red.gif","img/card_backs/set2/gray.gif","img/card_backs/set2/pink.gif","img/card_backs/set2/orange.gif","img/card_backs/set2/blue.gif","""event"",""trial"",""time""
""fullscreenenter"",""1"",""3405""
","
","
","""event"",""trial"",""time""
""fullscreenenter"",""1"",""3405""
","
","","null","","null","","fixation","2021-08-04 20:30:53.677","","","","","",""
"card-selection-trial","38","241163","0.0-17.0-1.1","A137","false","img/card_backs/set1/yellow.gif","img/card_backs/set1/green.gif","img/card_backs/set1/purple.gif","img/card_backs/set1/red.gif","img/card_backs/set2/gray.gif","img/card_backs/set2/pink.gif","img/card_backs/set2/orange.gif","img/card_backs/set2/blue.gif","""event"",""trial"",""time""
""fullscreenenter"",""1"",""3405""
","
","
","""event"",""trial"",""time""
""fullscreenenter"",""1"",""3405""
","
","","1837.300000000745","","","","practice","2021-08-04 20:30:57.534","img/practice_cards/backs/dark_blue.gif","2","200","0","",""
"casino-fixation","39","241677","0.0-17.0-0.2","A137","false","img/card_backs/set1/yellow.gif","img/card_backs/set1/green.gif","img/card_backs/set1/purple.gif","img/card_backs/set1/red.gif","img/card_backs/set2/gray.gif","img/card_backs/set2/pink.gif","img/card_backs/set2/orange.gif","img/card_backs/set2/blue.gif","""event"",""trial"",""time""
""fullscreenenter"",""1"",""3405""
","
","
","""event"",""trial"",""time""
""fullscreenenter"",""1"",""3405""
","
","","null","","null","","fixation","2021-08-04 20:30:58.048","","","","","",""
"card-selection-trial","40","244550","0.0-17.0-1.2","A137","false","img/card_backs/set1/yellow.gif","img/card_backs/set1/green.gif","img/card_backs/set1/purple.gif","img/card_backs/set1/red.gif","img/card_backs/set2/gray.gif","img/card_backs/set2/pink.gif","img/card_backs/set2/orange.gif","img/card_backs/set2/blue.gif","""event"",""trial"",""time""
""fullscreenenter"",""1"",""3405""
","
","
","""event"",""trial"",""time""
""fullscreenenter"",""1"",""3405""
","
","","860.9000000022352","","","","practice","2021-08-04 20:31:00.921","img/practice_cards/backs/dark_blue.gif","3","200","0","",""
"casino-fixation","41","245052","0.0-17.0-0.3","A137","false","img/card_backs/set1/yellow.gif","img/card_backs/set1/green.gif","img/card_backs/set1/purple.gif","img/card_backs/set1/red.gif","img/card_backs/set2/gray.gif","img/card_backs/set2/pink.gif","img/card_backs/set2/orange.gif","img/card_backs/set2/blue.gif","""event"",""trial"",""time""
""fullscreenenter"",""1"",""3405""
","
","
","""event"",""trial"",""time""
""fullscreenenter"",""1"",""3405""
","
","","null","","null","","fixation","2021-08-04 20:31:01.423","","","","","",""
"card-selection-trial","42","247889","0.0-17.0-1.3","A137","false","img/card_backs/set1/yellow.gif","img/card_backs/set1/green.gif","img/card_backs/set1/purple.gif","img/card_backs/set1/red.gif","img/card_backs/set2/gray.gif","img/card_backs/set2/pink.gif","img/card_backs/set2/orange.gif","img/card_backs/set2/blue.gif","""event"",""trial"",""time""
""fullscreenenter"",""1"",""3405""
","
","
","""event"",""trial"",""time""
""fullscreenenter"",""1"",""3405""
","
","","822.0999999977648","","","","practice","2021-08-04 20:31:04.260","img/practice_cards/backs/black.gif","0","100","0","",""
"casino-fixation","43","248404","0.0-17.0-0.4","A137","false","img/card_backs/set1/yellow.gif","img/card_backs/set1/green.gif","img/card_backs/set1/purple.gif","img/card_backs/set1/red.gif","img/card_backs/set2/gray.gif","img/card_backs/set2/pink.gif","img/card_backs/set2/orange.gif","img/card_backs/set2/blue.gif","""event"",""trial"",""time""
""fullscreenenter"",""1"",""3405""
","
","
","""event"",""trial"",""time""
""fullscreenenter"",""1"",""3405""
","
","","null","","null","","fixation","2021-08-04 20:31:04.775","","","","","",""
"card-selection-trial","44","251273","0.0-17.0-1.4","A137","false","img/card_backs/set1/yellow.gif","img/card_backs/set1/green.gif","img/card_backs/set1/purple.gif","img/card_backs/set1/red.gif","img/card_backs/set2/gray.gif","img/card_backs/set2/pink.gif","img/card_backs/set2/orange.gif","img/card_backs/set2/blue.gif","""event"",""trial"",""time""
""fullscreenenter"",""1"",""3405""
","
","
","""event"",""trial"",""time""
""fullscreenenter"",""1"",""3405""
","
","","861.1999999992549","","","","practice","2021-08-04 20:31:07.644","img/practice_cards/backs/dark_green.gif","1","-200","0","",""
"casino-fixation","45","251775","0.0-17.0-0.5","A137","false","img/card_backs/set1/yellow.gif","img/card_backs/set1/green.gif","img/card_backs/set1/purple.gif","img/card_backs/set1/red.gif","img/card_backs/set2/gray.gif","img/card_backs/set2/pink.gif","img/card_backs/set2/orange.gif","img/card_backs/set2/blue.gif","""event"",""trial"",""time""
""fullscreenenter"",""1"",""3405""
","
","
","""event"",""trial"",""time""
""fullscreenenter"",""1"",""3405""
","
","","null","","null","","fixation","2021-08-04 20:31:08.146","","","","","",""
"card-selection-trial","46","254829","0.0-17.0-1.5","A137","false","img/card_backs/set1/yellow.gif","img/card_backs/set1/green.gif","img/card_backs/set1/purple.gif","img/card_backs/set1/red.gif","img/card_backs/set2/gray.gif","img/card_backs/set2/pink.gif","img/card_backs/set2/orange.gif","img/card_backs/set2/blue.gif","""event"",""trial"",""time""
""fullscreenenter"",""1"",""3405""
","
","
","""event"",""trial"",""time""
""fullscreenenter"",""1"",""3405""
","
","","1049.5","","","","practice","2021-08-04 20:31:11.200","img/practice_cards/backs/brown.gif","2","100","0","",""
"casino-fixation","47","255330","0.0-17.0-0.6","A137","false","img/card_backs/set1/yellow.gif","img/card_backs/set1/green.gif","img/card_backs/set1/purple.gif","img/card_backs/set1/red.gif","img/card_backs/set2/gray.gif","img/card_backs/set2/pink.gif","img/card_backs/set2/orange.gif","img/card_backs/set2/blue.gif","""event"",""trial"",""time""
""fullscreenenter"",""1"",""3405""
","
","
","""event"",""trial"",""time""
""fullscreenenter"",""1"",""3405""
","
","","null","","null","","fixation","2021-08-04 20:31:11.701","","","","","",""
"card-selection-trial","48","257919","0.0-17.0-1.6","A137","false","img/card_backs/set1/yellow.gif","img/card_backs/set1/green.gif","img/card_backs/set1/purple.gif","img/card_backs/set1/red.gif","img/card_backs/set2/gray.gif","img/card_backs/set2/pink.gif","img/card_backs/set2/orange.gif","img/card_backs/set2/blue.gif","""event"",""trial"",""time""
""fullscreenenter"",""1"",""3405""
","
","
","""event"",""trial"",""time""
""fullscreenenter"",""1"",""3405""
","
","","579.5","","","","practice","2021-08-04 20:31:14.290","img/practice_cards/backs/dark_blue.gif","2","-200","0","",""
"casino-fixation","49","258421","0.0-17.0-0.7","A137","false","img/card_backs/set1/yellow.gif","img/card_backs/set1/green.gif","img/card_backs/set1/purple.gif","img/card_backs/set1/red.gif","img/card_backs/set2/gray.gif","img/card_backs/set2/pink.gif","img/card_backs/set2/orange.gif","img/card_backs/set2/blue.gif","""event"",""trial"",""time""
""fullscreenenter"",""1"",""3405""
","
","
","""event"",""trial"",""time""
""fullscreenenter"",""1"",""3405""
","
","","null","","null","","fixation","2021-08-04 20:31:14.792","","","","","",""
"card-selection-trial","50","260752","0.0-17.0-1.7","A137","false","img/card_backs/set1/yellow.gif","img/card_backs/set1/green.gif","img/card_backs/set1/purple.gif","img/card_backs/set1/red.gif","img/card_backs/set2/gray.gif","img/card_backs/set2/pink.gif","img/card_backs/set2/orange.gif","img/card_backs/set2/blue.gif","""event"",""trial"",""time""
""fullscreenenter"",""1"",""3405""
","
","
","""event"",""trial"",""time""
""fullscreenenter"",""1"",""3405""
","
","","327.0999999977648","","","","practice","2021-08-04 20:31:17.124","img/practice_cards/backs/black.gif","3","-100","0","",""
"casino-fixation","51","261255","0.0-17.0-0.8","A137","false","img/card_backs/set1/yellow.gif","img/card_backs/set1/green.gif","img/card_backs/set1/purple.gif","img/card_backs/set1/red.gif","img/card_backs/set2/gray.gif","img/card_backs/set2/pink.gif","img/card_backs/set2/orange.gif","img/card_backs/set2/blue.gif","""event"",""trial"",""time""
""fullscreenenter"",""1"",""3405""
","
","
","""event"",""trial"",""time""
""fullscreenenter"",""1"",""3405""
","
","","null","","null","","fixation","2021-08-04 20:31:17.626","","","","","",""
"card-selection-trial","52","263991","0.0-17.0-1.8","A137","false","img/card_backs/set1/yellow.gif","img/card_backs/set1/green.gif","img/card_backs/set1/purple.gif","img/card_backs/set1/red.gif","img/card_backs/set2/gray.gif","img/card_backs/set2/pink.gif","img/card_backs/set2/orange.gif","img/card_backs/set2/blue.gif","""event"",""trial"",""time""
""fullscreenenter"",""1"",""3405""
","
","
","""event"",""trial"",""time""
""fullscreenenter"",""1"",""3405""
","
","","732.1999999992549","","","","practice","2021-08-04 20:31:20.362","img/practice_cards/backs/black.gif","0","-100","0","",""
"casino-fixation","53","264492","0.0-17.0-0.9","A137","false","img/card_backs/set1/yellow.gif","img/card_backs/set1/green.gif","img/card_backs/set1/purple.gif","img/card_backs/set1/red.gif","img/card_backs/set2/gray.gif","img/card_backs/set2/pink.gif","img/card_backs/set2/orange.gif","img/card_backs/set2/blue.gif","""event"",""trial"",""time""
""fullscreenenter"",""1"",""3405""
","
","
","""event"",""trial"",""time""
""fullscreenenter"",""1"",""3405""
","
","","null","","null","","fixation","2021-08-04 20:31:20.863","","","","","",""
"card-selection-trial","54","266788","0.0-17.0-1.9","A137","false","img/card_backs/set1/yellow.gif","img/card_backs/set1/green.gif","img/card_backs/set1/purple.gif","img/card_backs/set1/red.gif","img/card_backs/set2/gray.gif","img/card_backs/set2/pink.gif","img/card_backs/set2/orange.gif","img/card_backs/set2/blue.gif","""event"",""trial"",""time""
""fullscreenenter"",""1"",""3405""
","
","
","""event"",""trial"",""time""
""fullscreenenter"",""1"",""3405""
","
","","291.69999999925494","","","","practice","2021-08-04 20:31:23.159","img/practice_cards/backs/dark_blue.gif","1","-200","0","",""
"casino-keyboard-response","55","276351","0.0-18.0","A137","false","img/card_backs/set1/yellow.gif","img/card_backs/set1/green.gif","img/card_backs/set1/purple.gif","img/card_backs/set1/red.gif","img/card_backs/set2/gray.gif","img/card_backs/set2/pink.gif","img/card_backs/set2/orange.gif","img/card_backs/set2/blue.gif","""event"",""trial"",""time""
""fullscreenenter"",""1"",""3405""
","
","
","""event"",""trial"",""time""
""fullscreenenter"",""1"",""3405""
","
","","9561.89999999851","You earned -300 tokens during the practice round!","82","","","2021-08-04 20:31:32.722","","","","","",""
"casino-keyboard-response","56","280933","0.0-19.0-0.0","A137","false","img/card_backs/set1/yellow.gif","img/card_backs/set1/green.gif","img/card_backs/set1/purple.gif","img/card_backs/set1/red.gif","img/card_backs/set2/gray.gif","img/card_backs/set2/pink.gif","img/card_backs/set2/orange.gif","img/card_backs/set2/blue.gif","""event"",""trial"",""time""
""fullscreenenter"",""1"",""3405""
","
","
","""event"",""trial"",""time""
""fullscreenenter"",""1"",""3405""
","
","","4579.60000000149","Nice job! You are almost ready to play the real game.","86","","instructions","2021-08-04 20:31:37.304","","","","","",""
"casino-keyboard-response","57","287605","0.0-19.0-0.1","A137","false","img/card_backs/set1/yellow.gif","img/card_backs/set1/green.gif","img/card_backs/set1/purple.gif","img/card_backs/set1/red.gif","img/card_backs/set2/gray.gif","img/card_backs/set2/pink.gif","img/card_backs/set2/orange.gif","img/card_backs/set2/blue.gif","""event"",""trial"",""time""
""fullscreenenter"",""1"",""3405""
","
","
","""event"",""trial"",""time""
""fullscreenenter"",""1"",""3405""
","
","","6670","You will play two rounds of the real game. In each round, you will pick 100 cards in total.","73","","instructions","2021-08-04 20:31:43.976","","","","","",""
"casino-keyboard-response","58","291852","0.0-19.0-0.2","A137","false","img/card_backs/set1/yellow.gif","img/card_backs/set1/green.gif","img/card_backs/set1/purple.gif","img/card_backs/set1/red.gif","img/card_backs/set2/gray.gif","img/card_backs/set2/pink.gif","img/card_backs/set2/orange.gif","img/card_backs/set2/blue.gif","""event"",""trial"",""time""
""fullscreenenter"",""1"",""3405""
","
","
","""event"",""trial"",""time""
""fullscreenenter"",""1"",""3405""
","
","","4245.29999999702","We are now going to ask you some questions about how the game works.","66","","instructions","2021-08-04 20:31:48.223","","","","","",""
"casino-keyboard-response","59","298029","0.0-19.0-0.3","A137","false","img/card_backs/set1/yellow.gif","img/card_backs/set1/green.gif","img/card_backs/set1/purple.gif","img/card_backs/set1/red.gif","img/card_backs/set2/gray.gif","img/card_backs/set2/pink.gif","img/card_backs/set2/orange.gif","img/card_backs/set2/blue.gif","""event"",""trial"",""time""
""fullscreenenter"",""1"",""3405""
","
","
","""event"",""trial"",""time""
""fullscreenenter"",""1"",""3405""
","
","","6176.5","Answer carefully. You will not be able to begin the game until you answer them correctly.","67","","instructions","2021-08-04 20:31:54.400","","","","","",""
"casino-comp_q","60","309708","0.0-20.0-0.0","A137","false","img/card_backs/set1/yellow.gif","img/card_backs/set1/green.gif","img/card_backs/set1/purple.gif","img/card_backs/set1/red.gif","img/card_backs/set2/gray.gif","img/card_backs/set2/pink.gif","img/card_backs/set2/orange.gif","img/card_backs/set2/blue.gif","""event"",""trial"",""time""
""fullscreenenter"",""1"",""3405""
","
","
","""event"",""trial"",""time""
""fullscreenenter"",""1"",""3405""
","
","","11676.5","True or False: All the decks have some cards that cause you to win tokens and some cards that cause you to lose tokens.","84","","","2021-08-04 20:32:06.079","","","","","",""
"casino-keyboard-response","61","313562","0.0-20.0-1.0","A137","false","img/card_backs/set1/yellow.gif","img/card_backs/set1/green.gif","img/card_backs/set1/purple.gif","img/card_backs/set1/red.gif","img/card_backs/set2/gray.gif","img/card_backs/set2/pink.gif","img/card_backs/set2/orange.gif","img/card_backs/set2/blue.gif","""event"",""trial"",""time""
""fullscreenenter"",""1"",""3405""
","
","
","""event"",""trial"",""time""
""fullscreenenter"",""1"",""3405""
","
","","3851.699999999255","True is correct! All the decks have a mix of winning and losing cards.","77","","","2021-08-04 20:32:09.933","","","","","true",""
"casino-comp_q","62","317631","0.0-21.0-0.0","A137","false","img/card_backs/set1/yellow.gif","img/card_backs/set1/green.gif","img/card_backs/set1/purple.gif","img/card_backs/set1/red.gif","img/card_backs/set2/gray.gif","img/card_backs/set2/pink.gif","img/card_backs/set2/orange.gif","img/card_backs/set2/blue.gif","""event"",""trial"",""time""
""fullscreenenter"",""1"",""3405""
","
","
","""event"",""trial"",""time""
""fullscreenenter"",""1"",""3405""
","
","","4067.099999997765","True or False: You will have as much time as you want to make your response.","70","","","2021-08-04 20:32:14.002","","","","","",""
"casino-keyboard-response","63","320273","0.0-21.0-1.0","A137","false","img/card_backs/set1/yellow.gif","img/card_backs/set1/green.gif","img/card_backs/set1/purple.gif","img/card_backs/set1/red.gif","img/card_backs/set2/gray.gif","img/card_backs/set2/pink.gif","img/card_backs/set2/orange.gif","img/card_backs/set2/blue.gif","""event"",""trial"",""time""
""fullscreenenter"",""1"",""3405""
","
","
","""event"",""trial"",""time""
""fullscreenenter"",""1"",""3405""
","
","","2638.89999999851","False is correct! You will only have 10 seconds to make each choice.","75","","","2021-08-04 20:32:16.644","","","","","true",""
"casino-comp_q","64","323561","0.0-22.0-0.0","A137","false","img/card_backs/set1/yellow.gif","img/card_backs/set1/green.gif","img/card_backs/set1/purple.gif","img/card_backs/set1/red.gif","img/card_backs/set2/gray.gif","img/card_backs/set2/pink.gif","img/card_backs/set2/orange.gif","img/card_backs/set2/blue.gif","""event"",""trial"",""time""
""fullscreenenter"",""1"",""3405""
","
","
","""event"",""trial"",""time""
""fullscreenenter"",""1"",""3405""
","
","","3286.5","True or False: The location of the deck determines how lucky it is.","70","","","2021-08-04 20:32:19.932","","","","","",""
"casino-keyboard-response","65","326580","0.0-22.0-1.0","A137","false","img/card_backs/set1/yellow.gif","img/card_backs/set1/green.gif","img/card_backs/set1/purple.gif","img/card_backs/set1/red.gif","img/card_backs/set2/gray.gif","img/card_backs/set2/pink.gif","img/card_backs/set2/orange.gif","img/card_backs/set2/blue.gif","""event"",""trial"",""time""
""fullscreenenter"",""1"",""3405""
","
","
","""event"",""trial"",""time""
""fullscreenenter"",""1"",""3405""
","
","","3018","False is correct! The <i>color</i>  of the deck determines how lucky or unlucky it is.","68","","","2021-08-04 20:32:22.951","","","","","true",""
"casino-keyboard-response","66","330835","0.0-23.0-0.0","A137","false","img/card_backs/set1/yellow.gif","img/card_backs/set1/green.gif","img/card_backs/set1/purple.gif","img/card_backs/set1/red.gif","img/card_backs/set2/gray.gif","img/card_backs/set2/pink.gif","img/card_backs/set2/orange.gif","img/card_backs/set2/blue.gif","""event"",""trial"",""time""
""fullscreenenter"",""1"",""3405""
","
","
","""event"",""trial"",""time""
""fullscreenenter"",""1"",""3405""
","
","","4253.699999999255","Great job! Now it's time to start the real game.","82","","instructions","2021-08-04 20:32:27.207","","","","","",""
"casino-keyboard-response","67","336191","0.0-23.0-0.1","A137","false","img/card_backs/set1/yellow.gif","img/card_backs/set1/green.gif","img/card_backs/set1/purple.gif","img/card_backs/set1/red.gif","img/card_backs/set2/gray.gif","img/card_backs/set2/pink.gif","img/card_backs/set2/orange.gif","img/card_backs/set2/blue.gif","""event"",""trial"",""time""
""fullscreenenter"",""1"",""3405""
","
","
","""event"",""trial"",""time""
""fullscreenenter"",""1"",""3405""
","
","","5354","Before we start, we're going to head into a new room of the casino.","86","","instructions","2021-08-04 20:32:32.562","","","","","",""
"casino-keyboard-response","68","342884","0.0-24.0-0.0","A137","false","img/card_backs/set1/yellow.gif","img/card_backs/set1/green.gif","img/card_backs/set1/purple.gif","img/card_backs/set1/red.gif","img/card_backs/set2/gray.gif","img/card_backs/set2/pink.gif","img/card_backs/set2/orange.gif","img/card_backs/set2/blue.gif","""event"",""trial"",""time""
""fullscreenenter"",""1"",""3405""
","
","
","""event"",""trial"",""time""
""fullscreenenter"",""1"",""3405""
","
","","6691.199999999255","Here we are! The real game will use different cards, but the rules will be the same.","71","","instructions","2021-08-04 20:32:39.255","","","","","",""
"casino-keyboard-response","69","350706","0.0-24.0-0.1","A137","false","img/card_backs/set1/yellow.gif","img/card_backs/set1/green.gif","img/card_backs/set1/purple.gif","img/card_backs/set1/red.gif","img/card_backs/set2/gray.gif","img/card_backs/set2/pink.gif","img/card_backs/set2/orange.gif","img/card_backs/set2/blue.gif","""event"",""trial"",""time""
""fullscreenenter"",""1"",""3405""
","
","
","""event"",""trial"",""time""
""fullscreenenter"",""1"",""3405""
","
","","7820.39999999851","Ready? Put your fingers over the '2', '4', 6', and '8' keys so you are ready to play the game. </br> Then press 2 to start.","50","","instructions","2021-08-04 20:32:47.078","","","","","",""
"casino-fixation","70","351216","0.0-25.0-0.0","A137","false","img/card_backs/set1/yellow.gif","img/card_backs/set1/green.gif","img/card_backs/set1/purple.gif","img/card_backs/set1/red.gif","img/card_backs/set2/gray.gif","img/card_backs/set2/pink.gif","img/card_backs/set2/orange.gif","img/card_backs/set2/blue.gif","""event"",""trial"",""time""
""fullscreenenter"",""1"",""3405""
","
","
","""event"",""trial"",""time""
""fullscreenenter"",""1"",""3405""
","
","","null","","null","","fixation","2021-08-04 20:32:47.587","","","","","",""
"card-selection-trial","71","355039","0.0-25.0-1.0","A137","false","img/card_backs/set1/yellow.gif","img/card_backs/set1/green.gif","img/card_backs/set1/purple.gif","img/card_backs/set1/red.gif","img/card_backs/set2/gray.gif","img/card_backs/set2/pink.gif","img/card_backs/set2/orange.gif","img/card_backs/set2/blue.gif","""event"",""trial"",""time""
""fullscreenenter"",""1"",""3405""
","
","
","""event"",""trial"",""time""
""fullscreenenter"",""1"",""3405""
","
","","1807.199999999255","","","","real_trial","2021-08-04 20:32:51.410","img/card_backs/set1/red.gif","1","110","1","",""
"casino-fixation","72","355551","0.0-25.0-0.1","A137","false","img/card_backs/set1/yellow.gif","img/card_backs/set1/green.gif","img/card_backs/set1/purple.gif","img/card_backs/set1/red.gif","img/card_backs/set2/gray.gif","img/card_backs/set2/pink.gif","img/card_backs/set2/orange.gif","img/card_backs/set2/blue.gif","""event"",""trial"",""time""
""fullscreenenter"",""1"",""3405""
","
","
","""event"",""trial"",""time""
""fullscreenenter"",""1"",""3405""
","
","","null","","null","","fixation","2021-08-04 20:32:51.922","","","","","",""
"card-selection-trial","73","359923","0.0-25.0-1.1","A137","false","img/card_backs/set1/yellow.gif","img/card_backs/set1/green.gif","img/card_backs/set1/purple.gif","img/card_backs/set1/red.gif","img/card_backs/set2/gray.gif","img/card_backs/set2/pink.gif","img/card_backs/set2/orange.gif","img/card_backs/set2/blue.gif","""event"",""trial"",""time""
""fullscreenenter"",""1"",""3405""
","
","
","""event"",""trial"",""time""
""fullscreenenter"",""1"",""3405""
","
","","2362.199999999255","","","","real_trial","2021-08-04 20:32:56.294","img/card_backs/set1/green.gif","2","-240","1","",""
"casino-fixation","74","360425","0.0-25.0-0.2","A137","false","img/card_backs/set1/yellow.gif","img/card_backs/set1/green.gif","img/card_backs/set1/purple.gif","img/card_backs/set1/red.gif","img/card_backs/set2/gray.gif","img/card_backs/set2/pink.gif","img/card_backs/set2/orange.gif","img/card_backs/set2/blue.gif","""event"",""trial"",""time""
""fullscreenenter"",""1"",""3405""
","
","
","""event"",""trial"",""time""
""fullscreenenter"",""1"",""3405""
","
","","null","","null","","fixation","2021-08-04 20:32:56.796","","","","","",""
"card-selection-trial","75","362807","0.0-25.0-1.2","A137","false","img/card_backs/set1/yellow.gif","img/card_backs/set1/green.gif","img/card_backs/set1/purple.gif","img/card_backs/set1/red.gif","img/card_backs/set2/gray.gif","img/card_backs/set2/pink.gif","img/card_backs/set2/orange.gif","img/card_backs/set2/blue.gif","""event"",""trial"",""time""
""fullscreenenter"",""1"",""3405""
","
","
","""event"",""trial"",""time""
""fullscreenenter"",""1"",""3405""
","
","","367","","","","real_trial","2021-08-04 20:32:59.178","img/card_backs/set1/red.gif","3","-60","1","",""
"casino-fixation","76","363322","0.0-25.0-0.3","A137","false","img/card_backs/set1/yellow.gif","img/card_backs/set1/green.gif","img/card_backs/set1/purple.gif","img/card_backs/set1/red.gif","img/card_backs/set2/gray.gif","img/card_backs/set2/pink.gif","img/card_backs/set2/orange.gif","img/card_backs/set2/blue.gif","""event"",""trial"",""time""
""fullscreenenter"",""1"",""3405""
","
","
","""event"",""trial"",""time""
""fullscreenenter"",""1"",""3405""
","
","","null","","null","","fixation","2021-08-04 20:32:59.693","","","","","",""
"card-selection-trial","77","365835","0.0-25.0-1.3","A137","false","img/card_backs/set1/yellow.gif","img/card_backs/set1/green.gif","img/card_backs/set1/purple.gif","img/card_backs/set1/red.gif","img/card_backs/set2/gray.gif","img/card_backs/set2/pink.gif","img/card_backs/set2/orange.gif","img/card_backs/set2/blue.gif","""event"",""trial"",""time""
""fullscreenenter"",""1"",""3405""
","
","
","""event"",""trial"",""time""
""fullscreenenter"",""1"",""3405""
","
","","498.19999999925494","","","","real_trial","2021-08-04 20:33:02.206","img/card_backs/set1/green.gif","0","180","1","",""
"casino-fixation","78","366345","0.0-25.0-0.4","A137","false","img/card_backs/set1/yellow.gif","img/card_backs/set1/green.gif","img/card_backs/set1/purple.gif","img/card_backs/set1/red.gif","img/card_backs/set2/gray.gif","img/card_backs/set2/pink.gif","img/card_backs/set2/orange.gif","img/card_backs/set2/blue.gif","""event"",""trial"",""time""
""fullscreenenter"",""1"",""3405""
","
","
","""event"",""trial"",""time""
""fullscreenenter"",""1"",""3405""
","
","","null","","null","","fixation","2021-08-04 20:33:02.716","","","","","",""
"card-selection-trial","79","369058","0.0-25.0-1.4","A137","false","img/card_backs/set1/yellow.gif","img/card_backs/set1/green.gif","img/card_backs/set1/purple.gif","img/card_backs/set1/red.gif","img/card_backs/set2/gray.gif","img/card_backs/set2/pink.gif","img/card_backs/set2/orange.gif","img/card_backs/set2/blue.gif","""event"",""trial"",""time""
""fullscreenenter"",""1"",""3405""
","
","
","""event"",""trial"",""time""
""fullscreenenter"",""1"",""3405""
","
","","703.6999999992549","","","","real_trial","2021-08-04 20:33:05.429","img/card_backs/set1/purple.gif","0","100","1","",""
"casino-fixation","80","369560","0.0-25.0-0.5","A137","false","img/card_backs/set1/yellow.gif","img/card_backs/set1/green.gif","img/card_backs/set1/purple.gif","img/card_backs/set1/red.gif","img/card_backs/set2/gray.gif","img/card_backs/set2/pink.gif","img/card_backs/set2/orange.gif","img/card_backs/set2/blue.gif","""event"",""trial"",""time""
""fullscreenenter"",""1"",""3405""
","
","
","""event"",""trial"",""time""
""fullscreenenter"",""1"",""3405""
","
","","null","","null","","fixation","2021-08-04 20:33:05.931","","","","","",""
"card-selection-trial","81","372742","0.0-25.0-1.5","A137","false","img/card_backs/set1/yellow.gif","img/card_backs/set1/green.gif","img/card_backs/set1/purple.gif","img/card_backs/set1/red.gif","img/card_backs/set2/gray.gif","img/card_backs/set2/pink.gif","img/card_backs/set2/orange.gif","img/card_backs/set2/blue.gif","""event"",""trial"",""time""
""fullscreenenter"",""1"",""3405""
","
","
","""event"",""trial"",""time""
""fullscreenenter"",""1"",""3405""
","
","","1170.3999999985099","","","","real_trial","2021-08-04 20:33:09.114","img/card_backs/set1/red.gif","3","120","1","",""
"casino-fixation","82","373256","0.0-25.0-0.6","A137","false","img/card_backs/set1/yellow.gif","img/card_backs/set1/green.gif","img/card_backs/set1/purple.gif","img/card_backs/set1/red.gif","img/card_backs/set2/gray.gif","img/card_backs/set2/pink.gif","img/card_backs/set2/orange.gif","img/card_backs/set2/blue.gif","""event"",""trial"",""time""
""fullscreenenter"",""1"",""3405""
","
","
","""event"",""trial"",""time""
""fullscreenenter"",""1"",""3405""
","
","","null","","null","","fixation","2021-08-04 20:33:09.627","","","","","",""
"card-selection-trial","83","376239","0.0-25.0-1.6","A137","false","img/card_backs/set1/yellow.gif","img/card_backs/set1/green.gif","img/card_backs/set1/purple.gif","img/card_backs/set1/red.gif","img/card_backs/set2/gray.gif","img/card_backs/set2/pink.gif","img/card_backs/set2/orange.gif","img/card_backs/set2/blue.gif","""event"",""trial"",""time""
""fullscreenenter"",""1"",""3405""
","
","
","""event"",""trial"",""time""
""fullscreenenter"",""1"",""3405""
","
","","972.6000000014901","","","","real_trial","2021-08-04 20:33:12.610","img/card_backs/set1/purple.gif","1","-60","1","",""
"casino-fixation","84","376740","0.0-25.0-0.7","A137","false","img/card_backs/set1/yellow.gif","img/card_backs/set1/green.gif","img/card_backs/set1/purple.gif","img/card_backs/set1/red.gif","img/card_backs/set2/gray.gif","img/card_backs/set2/pink.gif","img/card_backs/set2/orange.gif","img/card_backs/set2/blue.gif","""event"",""trial"",""time""
""fullscreenenter"",""1"",""3405""
","
","
","""event"",""trial"",""time""
""fullscreenenter"",""1"",""3405""
","
","","null","","null","","fixation","2021-08-04 20:33:13.111","","","","","",""
"card-selection-trial","85","380180","0.0-25.0-1.7","A137","false","img/card_backs/set1/yellow.gif","img/card_backs/set1/green.gif","img/card_backs/set1/purple.gif","img/card_backs/set1/red.gif","img/card_backs/set2/gray.gif","img/card_backs/set2/pink.gif","img/card_backs/set2/orange.gif","img/card_backs/set2/blue.gif","""event"",""trial"",""time""
""fullscreenenter"",""1"",""3405""
","
","
","""event"",""trial"",""time""
""fullscreenenter"",""1"",""3405""
","
","","1434.5","","","","real_trial","2021-08-04 20:33:16.551","img/card_backs/set1/red.gif","2","100","1","",""
"casino-fixation","86","380682","0.0-25.0-0.8","A137","false","img/card_backs/set1/yellow.gif","img/card_backs/set1/green.gif","img/card_backs/set1/purple.gif","img/card_backs/set1/red.gif","img/card_backs/set2/gray.gif","img/card_backs/set2/pink.gif","img/card_backs/set2/orange.gif","img/card_backs/set2/blue.gif","""event"",""trial"",""time""
""fullscreenenter"",""1"",""3405""
","
","
","""event"",""trial"",""time""
""fullscreenenter"",""1"",""3405""
","
","","null","","null","","fixation","2021-08-04 20:33:17.053","","","","","",""
"card-selection-trial","87","383135","0.0-25.0-1.8","A137","false","img/card_backs/set1/yellow.gif","img/card_backs/set1/green.gif","img/card_backs/set1/purple.gif","img/card_backs/set1/red.gif","img/card_backs/set2/gray.gif","img/card_backs/set2/pink.gif","img/card_backs/set2/orange.gif","img/card_backs/set2/blue.gif","""event"",""trial"",""time""
""fullscreenenter"",""1"",""3405""
","
","
","""event"",""trial"",""time""
""fullscreenenter"",""1"",""3405""
","
","","448.1000000014901","","","","real_trial","2021-08-04 20:33:19.506","img/card_backs/set1/red.gif","2","110","1","",""
"casino-fixation","88","383637","0.0-25.0-0.9","A137","false","img/card_backs/set1/yellow.gif","img/card_backs/set1/green.gif","img/card_backs/set1/purple.gif","img/card_backs/set1/red.gif","img/card_backs/set2/gray.gif","img/card_backs/set2/pink.gif","img/card_backs/set2/orange.gif","img/card_backs/set2/blue.gif","""event"",""trial"",""time""
""fullscreenenter"",""1"",""3405""
","
","
","""event"",""trial"",""time""
""fullscreenenter"",""1"",""3405""
","
","","null","","null","","fixation","2021-08-04 20:33:20.008","","","","","",""
"card-selection-trial","89","387043","0.0-25.0-1.9","A137","false","img/card_backs/set1/yellow.gif","img/card_backs/set1/green.gif","img/card_backs/set1/purple.gif","img/card_backs/set1/red.gif","img/card_backs/set2/gray.gif","img/card_backs/set2/pink.gif","img/card_backs/set2/orange.gif","img/card_backs/set2/blue.gif","""event"",""trial"",""time""
""fullscreenenter"",""1"",""3405""
","
","
","""event"",""trial"",""time""
""fullscreenenter"",""1"",""3405""
","
","","1401","","","","real_trial","2021-08-04 20:33:23.414","img/card_backs/set1/purple.gif","1","-60","1","",""
"casino-fixation","90","387544","0.0-25.0-0.10","A137","false","img/card_backs/set1/yellow.gif","img/card_backs/set1/green.gif","img/card_backs/set1/purple.gif","img/card_backs/set1/red.gif","img/card_backs/set2/gray.gif","img/card_backs/set2/pink.gif","img/card_backs/set2/orange.gif","img/card_backs/set2/blue.gif","""event"",""trial"",""time""
""fullscreenenter"",""1"",""3405""
","
","
","""event"",""trial"",""time""
""fullscreenenter"",""1"",""3405""
","
","","null","","null","","fixation","2021-08-04 20:33:23.915","","","","","",""
"card-selection-trial","91","390850","0.0-25.0-1.10","A137","false","img/card_backs/set1/yellow.gif","img/card_backs/set1/green.gif","img/card_backs/set1/purple.gif","img/card_backs/set1/red.gif","img/card_backs/set2/gray.gif","img/card_backs/set2/pink.gif","img/card_backs/set2/orange.gif","img/card_backs/set2/blue.gif","""event"",""trial"",""time""
""fullscreenenter"",""1"",""3405""
","
","
","""event"",""trial"",""time""
""fullscreenenter"",""1"",""3405""
","
","","1301.300000000745","","","","real_trial","2021-08-04 20:33:27.221","img/card_backs/set1/green.gif","1","-230","1","",""
"casino-fixation","92","391353","0.0-25.0-0.11","A137","false","img/card_backs/set1/yellow.gif","img/card_backs/set1/green.gif","img/card_backs/set1/purple.gif","img/card_backs/set1/red.gif","img/card_backs/set2/gray.gif","img/card_backs/set2/pink.gif","img/card_backs/set2/orange.gif","img/card_backs/set2/blue.gif","""event"",""trial"",""time""
""fullscreenenter"",""1"",""3405""
","
","
","""event"",""trial"",""time""
""fullscreenenter"",""1"",""3405""
","
","","null","","null","","fixation","2021-08-04 20:33:27.724","","","","","",""
"card-selection-trial","93","394414","0.0-25.0-1.11","A137","false","img/card_backs/set1/yellow.gif","img/card_backs/set1/green.gif","img/card_backs/set1/purple.gif","img/card_backs/set1/red.gif","img/card_backs/set2/gray.gif","img/card_backs/set2/pink.gif","img/card_backs/set2/orange.gif","img/card_backs/set2/blue.gif","""event"",""trial"",""time""
""fullscreenenter"",""1"",""3405""
","
","
","""event"",""trial"",""time""
""fullscreenenter"",""1"",""3405""
","
","","1056.5999999977648","","","","real_trial","2021-08-04 20:33:30.785","img/card_backs/set1/yellow.gif","2","-250","1","",""
"casino-fixation","94","394916","0.0-25.0-0.12","A137","false","img/card_backs/set1/yellow.gif","img/card_backs/set1/green.gif","img/card_backs/set1/purple.gif","img/card_backs/set1/red.gif","img/card_backs/set2/gray.gif","img/card_backs/set2/pink.gif","img/card_backs/set2/orange.gif","img/card_backs/set2/blue.gif","""event"",""trial"",""time""
""fullscreenenter"",""1"",""3405""
","
","
","""event"",""trial"",""time""
""fullscreenenter"",""1"",""3405""
","
","","null","","null","","fixation","2021-08-04 20:33:31.287","","","","","",""
"card-selection-trial","95","397538","0.0-25.0-1.12","A137","false","img/card_backs/set1/yellow.gif","img/card_backs/set1/green.gif","img/card_backs/set1/purple.gif","img/card_backs/set1/red.gif","img/card_backs/set2/gray.gif","img/card_backs/set2/pink.gif","img/card_backs/set2/orange.gif","img/card_backs/set2/blue.gif","""event"",""trial"",""time""
""fullscreenenter"",""1"",""3405""
","
","
","""event"",""trial"",""time""
""fullscreenenter"",""1"",""3405""
","
","","617.8000000007451","","","","real_trial","2021-08-04 20:33:33.910","img/card_backs/set1/red.gif","0","-70","1","",""
"casino-fixation","96","398041","0.0-25.0-0.13","A137","false","img/card_backs/set1/yellow.gif","img/card_backs/set1/green.gif","img/card_backs/set1/purple.gif","img/card_backs/set1/red.gif","img/card_backs/set2/gray.gif","img/card_backs/set2/pink.gif","img/card_backs/set2/orange.gif","img/card_backs/set2/blue.gif","""event"",""trial"",""time""
""fullscreenenter"",""1"",""3405""
","
","
","""event"",""trial"",""time""
""fullscreenenter"",""1"",""3405""
","
","","null","","null","","fixation","2021-08-04 20:33:34.412","","","","","",""
"card-selection-trial","97","400508","0.0-25.0-1.13","A137","false","img/card_backs/set1/yellow.gif","img/card_backs/set1/green.gif","img/card_backs/set1/purple.gif","img/card_backs/set1/red.gif","img/card_backs/set2/gray.gif","img/card_backs/set2/pink.gif","img/card_backs/set2/orange.gif","img/card_backs/set2/blue.gif","""event"",""trial"",""time""
""fullscreenenter"",""1"",""3405""
","
","
","""event"",""trial"",""time""
""fullscreenenter"",""1"",""3405""
","
","","462.4000000022352","","","","real_trial","2021-08-04 20:33:36.880","img/card_backs/set1/red.gif","0","120","1","",""
"casino-fixation","98","401010","0.0-25.0-0.14","A137","false","img/card_backs/set1/yellow.gif","img/card_backs/set1/green.gif","img/card_backs/set1/purple.gif","img/card_backs/set1/red.gif","img/card_backs/set2/gray.gif","img/card_backs/set2/pink.gif","img/card_backs/set2/orange.gif","img/card_backs/set2/blue.gif","""event"",""trial"",""time""
""fullscreenenter"",""1"",""3405""
","
","
","""event"",""trial"",""time""
""fullscreenenter"",""1"",""3405""
","
","","null","","null","","fixation","2021-08-04 20:33:37.381","","","","","",""
"card-selection-trial","99","404003","0.0-25.0-1.14","A137","false","img/card_backs/set1/yellow.gif","img/card_backs/set1/green.gif","img/card_backs/set1/purple.gif","img/card_backs/set1/red.gif","img/card_backs/set2/gray.gif","img/card_backs/set2/pink.gif","img/card_backs/set2/orange.gif","img/card_backs/set2/blue.gif","""event"",""trial"",""time""
""fullscreenenter"",""1"",""3405""
","
","
","""event"",""trial"",""time""
""fullscreenenter"",""1"",""3405""
","
","","985.5","","","","real_trial","2021-08-04 20:33:40.374","img/card_backs/set1/purple.gif","2","-70","1","",""
"casino-fixation","100","404504","0.0-25.0-0.15","A137","false","img/card_backs/set1/yellow.gif","img/card_backs/set1/green.gif","img/card_backs/set1/purple.gif","img/card_backs/set1/red.gif","img/card_backs/set2/gray.gif","img/card_backs/set2/pink.gif","img/card_backs/set2/orange.gif","img/card_backs/set2/blue.gif","""event"",""trial"",""time""
""fullscreenenter"",""1"",""3405""
","
","
","""event"",""trial"",""time""
""fullscreenenter"",""1"",""3405""
","
","","null","","null","","fixation","2021-08-04 20:33:40.875","","","","","",""
"card-selection-trial","101","407064","0.0-25.0-1.15","A137","false","img/card_backs/set1/yellow.gif","img/card_backs/set1/green.gif","img/card_backs/set1/purple.gif","img/card_backs/set1/red.gif","img/card_backs/set2/gray.gif","img/card_backs/set2/pink.gif","img/card_backs/set2/orange.gif","img/card_backs/set2/blue.gif","""event"",""trial"",""time""
""fullscreenenter"",""1"",""3405""
","
","
","""event"",""trial"",""time""
""fullscreenenter"",""1"",""3405""
","
","","556.8000000007451","","","","real_trial","2021-08-04 20:33:43.435","img/card_backs/set1/red.gif","0","-70","1","",""
"casino-fixation","102","407566","0.0-25.0-0.16","A137","false","img/card_backs/set1/yellow.gif","img/card_backs/set1/green.gif","img/card_backs/set1/purple.gif","img/card_backs/set1/red.gif","img/card_backs/set2/gray.gif","img/card_backs/set2/pink.gif","img/card_backs/set2/orange.gif","img/card_backs/set2/blue.gif","""event"",""trial"",""time""
""fullscreenenter"",""1"",""3405""
","
","
","""event"",""trial"",""time""
""fullscreenenter"",""1"",""3405""
","
","","null","","null","","fixation","2021-08-04 20:33:43.937","","","","","",""
"card-selection-trial","103","410566","0.0-25.0-1.16","A137","false","img/card_backs/set1/yellow.gif","img/card_backs/set1/green.gif","img/card_backs/set1/purple.gif","img/card_backs/set1/red.gif","img/card_backs/set2/gray.gif","img/card_backs/set2/pink.gif","img/card_backs/set2/orange.gif","img/card_backs/set2/blue.gif","""event"",""trial"",""time""
""fullscreenenter"",""1"",""3405""
","
","
","""event"",""trial"",""time""
""fullscreenenter"",""1"",""3405""
","
","","993.8999999985099","","","","real_trial","2021-08-04 20:33:46.937","img/card_backs/set1/green.gif","1","180","1","",""
"casino-fixation","104","411067","0.0-25.0-0.17","A137","false","img/card_backs/set1/yellow.gif","img/card_backs/set1/green.gif","img/card_backs/set1/purple.gif","img/card_backs/set1/red.gif","img/card_backs/set2/gray.gif","img/card_backs/set2/pink.gif","img/card_backs/set2/orange.gif","img/card_backs/set2/blue.gif","""event"",""trial"",""time""
""fullscreenenter"",""1"",""3405""
","
","
","""event"",""trial"",""time""
""fullscreenenter"",""1"",""3405""
","
","","null","","null","","fixation","2021-08-04 20:33:47.438","","","","","",""
"card-selection-trial","105","413856","0.0-25.0-1.17","A137","false","img/card_backs/set1/yellow.gif","img/card_backs/set1/green.gif","img/card_backs/set1/purple.gif","img/card_backs/set1/red.gif","img/card_backs/set2/gray.gif","img/card_backs/set2/pink.gif","img/card_backs/set2/orange.gif","img/card_backs/set2/blue.gif","""event"",""trial"",""time""
""fullscreenenter"",""1"",""3405""
","
","
","""event"",""trial"",""time""
""fullscreenenter"",""1"",""3405""
","
","","778.5999999977648","","","","real_trial","2021-08-04 20:33:50.227","img/card_backs/set1/red.gif","0","-70","1","",""
"casino-fixation","106","414357","0.0-25.0-0.18","A137","false","img/card_backs/set1/yellow.gif","img/card_backs/set1/green.gif","img/card_backs/set1/purple.gif","img/card_backs/set1/red.gif","img/card_backs/set2/gray.gif","img/card_backs/set2/pink.gif","img/card_backs/set2/orange.gif","img/card_backs/set2/blue.gif","""event"",""trial"",""time""
""fullscreenenter"",""1"",""3405""
","
","
","""event"",""trial"",""time""
""fullscreenenter"",""1"",""3405""
","
","","null","","null","","fixation","2021-08-04 20:33:50.728","","","","","",""
"card-selection-trial","107","417032","0.0-25.0-1.18","A137","false","img/card_backs/set1/yellow.gif","img/card_backs/set1/green.gif","img/card_backs/set1/purple.gif","img/card_backs/set1/red.gif","img/card_backs/set2/gray.gif","img/card_backs/set2/pink.gif","img/card_backs/set2/orange.gif","img/card_backs/set2/blue.gif","""event"",""trial"",""time""
""fullscreenenter"",""1"",""3405""
","
","
","""event"",""trial"",""time""
""fullscreenenter"",""1"",""3405""
","
","","670.3000000007451","","","","real_trial","2021-08-04 20:33:53.403","img/card_backs/set1/purple.gif","0","-50","1","",""
"casino-fixation","108","417533","0.0-25.0-0.19","A137","false","img/card_backs/set1/yellow.gif","img/card_backs/set1/green.gif","img/card_backs/set1/purple.gif","img/card_backs/set1/red.gif","img/card_backs/set2/gray.gif","img/card_backs/set2/pink.gif","img/card_backs/set2/orange.gif","img/card_backs/set2/blue.gif","""event"",""trial"",""time""
""fullscreenenter"",""1"",""3405""
","
","
","""event"",""trial"",""time""
""fullscreenenter"",""1"",""3405""
","
","","null","","null","","fixation","2021-08-04 20:33:53.904","","","","","",""
"card-selection-trial","109","421964","0.0-25.0-1.19","A137","false","img/card_backs/set1/yellow.gif","img/card_backs/set1/green.gif","img/card_backs/set1/purple.gif","img/card_backs/set1/red.gif","img/card_backs/set2/gray.gif","img/card_backs/set2/pink.gif","img/card_backs/set2/orange.gif","img/card_backs/set2/blue.gif","""event"",""trial"",""time""
""fullscreenenter"",""1"",""3405""
","
","
","""event"",""trial"",""time""
""fullscreenenter"",""1"",""3405""
","
","","2426.699999999255","","","","real_trial","2021-08-04 20:33:58.335","img/card_backs/set1/yellow.gif","3","-240","1","",""
"casino-fixation","110","422466","0.0-25.0-0.20","A137","false","img/card_backs/set1/yellow.gif","img/card_backs/set1/green.gif","img/card_backs/set1/purple.gif","img/card_backs/set1/red.gif","img/card_backs/set2/gray.gif","img/card_backs/set2/pink.gif","img/card_backs/set2/orange.gif","img/card_backs/set2/blue.gif","""event"",""trial"",""time""
""fullscreenenter"",""1"",""3405""
","
","
","""event"",""trial"",""time""
""fullscreenenter"",""1"",""3405""
","
","","null","","null","","fixation","2021-08-04 20:33:58.837","","","","","",""
"card-selection-trial","111","425336","0.0-25.0-1.20","A137","false","img/card_backs/set1/yellow.gif","img/card_backs/set1/green.gif","img/card_backs/set1/purple.gif","img/card_backs/set1/red.gif","img/card_backs/set2/gray.gif","img/card_backs/set2/pink.gif","img/card_backs/set2/orange.gif","img/card_backs/set2/blue.gif","""event"",""trial"",""time""
""fullscreenenter"",""1"",""3405""
","
","
","""event"",""trial"",""time""
""fullscreenenter"",""1"",""3405""
","
","","866.5999999977648","","","","real_trial","2021-08-04 20:34:01.707","img/card_backs/set1/red.gif","3","110","1","",""
"casino-fixation","112","425838","0.0-25.0-0.21","A137","false","img/card_backs/set1/yellow.gif","img/card_backs/set1/green.gif","img/card_backs/set1/purple.gif","img/card_backs/set1/red.gif","img/card_backs/set2/gray.gif","img/card_backs/set2/pink.gif","img/card_backs/set2/orange.gif","img/card_backs/set2/blue.gif","""event"",""trial"",""time""
""fullscreenenter"",""1"",""3405""
","
","
","""event"",""trial"",""time""
""fullscreenenter"",""1"",""3405""
","
","","null","","null","","fixation","2021-08-04 20:34:02.209","","","","","",""
"card-selection-trial","113","428539","0.0-25.0-1.21","A137","false","img/card_backs/set1/yellow.gif","img/card_backs/set1/green.gif","img/card_backs/set1/purple.gif","img/card_backs/set1/red.gif","img/card_backs/set2/gray.gif","img/card_backs/set2/pink.gif","img/card_backs/set2/orange.gif","img/card_backs/set2/blue.gif","""event"",""trial"",""time""
""fullscreenenter"",""1"",""3405""
","
","
","""event"",""trial"",""time""
""fullscreenenter"",""1"",""3405""
","
","","696.8000000007451","","","","real_trial","2021-08-04 20:34:04.910","img/card_backs/set1/purple.gif","0","-50","1","",""
"casino-fixation","114","429041","0.0-25.0-0.22","A137","false","img/card_backs/set1/yellow.gif","img/card_backs/set1/green.gif","img/card_backs/set1/purple.gif","img/card_backs/set1/red.gif","img/card_backs/set2/gray.gif","img/card_backs/set2/pink.gif","img/card_backs/set2/orange.gif","img/card_backs/set2/blue.gif","""event"",""trial"",""time""
""fullscreenenter"",""1"",""3405""
","
","
","""event"",""trial"",""time""
""fullscreenenter"",""1"",""3405""
","
","","null","","null","","fixation","2021-08-04 20:34:05.412","","","","","",""
"card-selection-trial","115","432949","0.0-25.0-1.22","A137","false","img/card_backs/set1/yellow.gif","img/card_backs/set1/green.gif","img/card_backs/set1/purple.gif","img/card_backs/set1/red.gif","img/card_backs/set2/gray.gif","img/card_backs/set2/pink.gif","img/card_backs/set2/orange.gif","img/card_backs/set2/blue.gif","""event"",""trial"",""time""
""fullscreenenter"",""1"",""3405""
","
","
","""event"",""trial"",""time""
""fullscreenenter"",""1"",""3405""
","
","","1902.5","","","","real_trial","2021-08-04 20:34:09.320","img/card_backs/set1/green.gif","1","-240","1","",""
"casino-fixation","116","433451","0.0-25.0-0.23","A137","false","img/card_backs/set1/yellow.gif","img/card_backs/set1/green.gif","img/card_backs/set1/purple.gif","img/card_backs/set1/red.gif","img/card_backs/set2/gray.gif","img/card_backs/set2/pink.gif","img/card_backs/set2/orange.gif","img/card_backs/set2/blue.gif","""event"",""trial"",""time""
""fullscreenenter"",""1"",""3405""
","
","
","""event"",""trial"",""time""
""fullscreenenter"",""1"",""3405""
","
","","null","","null","","fixation","2021-08-04 20:34:09.822","","","","","",""
"card-selection-trial","117","437197","0.0-25.0-1.23","A137","false","img/card_backs/set1/yellow.gif","img/card_backs/set1/green.gif","img/card_backs/set1/purple.gif","img/card_backs/set1/red.gif","img/card_backs/set2/gray.gif","img/card_backs/set2/pink.gif","img/card_backs/set2/orange.gif","img/card_backs/set2/blue.gif","""event"",""trial"",""time""
""fullscreenenter"",""1"",""3405""
","
","
","""event"",""trial"",""time""
""fullscreenenter"",""1"",""3405""
","
","","1739.300000000745","","","","real_trial","2021-08-04 20:34:13.568","img/card_backs/set1/yellow.gif","2","200","1","",""
"casino-fixation","118","437699","0.0-25.0-0.24","A137","false","img/card_backs/set1/yellow.gif","img/card_backs/set1/green.gif","img/card_backs/set1/purple.gif","img/card_backs/set1/red.gif","img/card_backs/set2/gray.gif","img/card_backs/set2/pink.gif","img/card_backs/set2/orange.gif","img/card_backs/set2/blue.gif","""event"",""trial"",""time""
""fullscreenenter"",""1"",""3405""
","
","
","""event"",""trial"",""time""
""fullscreenenter"",""1"",""3405""
","
","","null","","null","","fixation","2021-08-04 20:34:14.070","","","","","",""
"card-selection-trial","119","440372","0.0-25.0-1.24","A137","false","img/card_backs/set1/yellow.gif","img/card_backs/set1/green.gif","img/card_backs/set1/purple.gif","img/card_backs/set1/red.gif","img/card_backs/set2/gray.gif","img/card_backs/set2/pink.gif","img/card_backs/set2/orange.gif","img/card_backs/set2/blue.gif","""event"",""trial"",""time""
""fullscreenenter"",""1"",""3405""
","
","
","""event"",""trial"",""time""
""fullscreenenter"",""1"",""3405""
","
","","668.3000000007451","","","","real_trial","2021-08-04 20:34:16.743","img/card_backs/set1/red.gif","0","-70","1","",""
"casino-fixation","120","440873","0.0-25.0-0.25","A137","false","img/card_backs/set1/yellow.gif","img/card_backs/set1/green.gif","img/card_backs/set1/purple.gif","img/card_backs/set1/red.gif","img/card_backs/set2/gray.gif","img/card_backs/set2/pink.gif","img/card_backs/set2/orange.gif","img/card_backs/set2/blue.gif","""event"",""trial"",""time""
""fullscreenenter"",""1"",""3405""
","
","
","""event"",""trial"",""time""
""fullscreenenter"",""1"",""3405""
","
","","null","","null","","fixation","2021-08-04 20:34:17.244","","","","","",""
"card-selection-trial","121","443528","0.0-25.0-1.25","A137","false","img/card_backs/set1/yellow.gif","img/card_backs/set1/green.gif","img/card_backs/set1/purple.gif","img/card_backs/set1/red.gif","img/card_backs/set2/gray.gif","img/card_backs/set2/pink.gif","img/card_backs/set2/orange.gif","img/card_backs/set2/blue.gif","""event"",""trial"",""time""
""fullscreenenter"",""1"",""3405""
","
","
","""event"",""trial"",""time""
""fullscreenenter"",""1"",""3405""
","
","","650.1999999992549","","","","real_trial","2021-08-04 20:34:19.899","img/card_backs/set1/yellow.gif","0","-240","1","",""
"casino-fixation","122","444030","0.0-25.0-0.26","A137","false","img/card_backs/set1/yellow.gif","img/card_backs/set1/green.gif","img/card_backs/set1/purple.gif","img/card_backs/set1/red.gif","img/card_backs/set2/gray.gif","img/card_backs/set2/pink.gif","img/card_backs/set2/orange.gif","img/card_backs/set2/blue.gif","""event"",""trial"",""time""
""fullscreenenter"",""1"",""3405""
","
","
","""event"",""trial"",""time""
""fullscreenenter"",""1"",""3405""
","
","","null","","null","","fixation","2021-08-04 20:34:20.401","","","","","",""
"card-selection-trial","123","447026","0.0-25.0-1.26","A137","false","img/card_backs/set1/yellow.gif","img/card_backs/set1/green.gif","img/card_backs/set1/purple.gif","img/card_backs/set1/red.gif","img/card_backs/set2/gray.gif","img/card_backs/set2/pink.gif","img/card_backs/set2/orange.gif","img/card_backs/set2/blue.gif","""event"",""trial"",""time""
""fullscreenenter"",""1"",""3405""
","
","
","""event"",""trial"",""time""
""fullscreenenter"",""1"",""3405""
","
","","991.7000000029802","","","","real_trial","2021-08-04 20:34:23.397","img/card_backs/set1/red.gif","1","-70","1","",""
"casino-fixation","124","447528","0.0-25.0-0.27","A137","false","img/card_backs/set1/yellow.gif","img/card_backs/set1/green.gif","img/card_backs/set1/purple.gif","img/card_backs/set1/red.gif","img/card_backs/set2/gray.gif","img/card_backs/set2/pink.gif","img/card_backs/set2/orange.gif","img/card_backs/set2/blue.gif","""event"",""trial"",""time""
""fullscreenenter"",""1"",""3405""
","
","
","""event"",""trial"",""time""
""fullscreenenter"",""1"",""3405""
","
","","null","","null","","fixation","2021-08-04 20:34:23.899","","","","","",""
"card-selection-trial","125","449976","0.0-25.0-1.27","A137","false","img/card_backs/set1/yellow.gif","img/card_backs/set1/green.gif","img/card_backs/set1/purple.gif","img/card_backs/set1/red.gif","img/card_backs/set2/gray.gif","img/card_backs/set2/pink.gif","img/card_backs/set2/orange.gif","img/card_backs/set2/blue.gif","""event"",""trial"",""time""
""fullscreenenter"",""1"",""3405""
","
","
","""event"",""trial"",""time""
""fullscreenenter"",""1"",""3405""
","
","","444.29999999701977","","","","real_trial","2021-08-04 20:34:26.347","img/card_backs/set1/yellow.gif","3","-250","1","",""
"casino-fixation","126","450478","0.0-25.0-0.28","A137","false","img/card_backs/set1/yellow.gif","img/card_backs/set1/green.gif","img/card_backs/set1/purple.gif","img/card_backs/set1/red.gif","img/card_backs/set2/gray.gif","img/card_backs/set2/pink.gif","img/card_backs/set2/orange.gif","img/card_backs/set2/blue.gif","""event"",""trial"",""time""
""fullscreenenter"",""1"",""3405""
","
","
","""event"",""trial"",""time""
""fullscreenenter"",""1"",""3405""
","
","","null","","null","","fixation","2021-08-04 20:34:26.849","","","","","",""
"card-selection-trial","127","453556","0.0-25.0-1.28","A137","false","img/card_backs/set1/yellow.gif","img/card_backs/set1/green.gif","img/card_backs/set1/purple.gif","img/card_backs/set1/red.gif","img/card_backs/set2/gray.gif","img/card_backs/set2/pink.gif","img/card_backs/set2/orange.gif","img/card_backs/set2/blue.gif","""event"",""trial"",""time""
""fullscreenenter"",""1"",""3405""
","
","
","""event"",""trial"",""time""
""fullscreenenter"",""1"",""3405""
","
","","1074.1000000014901","","","","real_trial","2021-08-04 20:34:29.927","img/card_backs/set1/red.gif","2","-70","1","",""
"casino-fixation","128","454058","0.0-25.0-0.29","A137","false","img/card_backs/set1/yellow.gif","img/card_backs/set1/green.gif","img/card_backs/set1/purple.gif","img/card_backs/set1/red.gif","img/card_backs/set2/gray.gif","img/card_backs/set2/pink.gif","img/card_backs/set2/orange.gif","img/card_backs/set2/blue.gif","""event"",""trial"",""time""
""fullscreenenter"",""1"",""3405""
","
","
","""event"",""trial"",""time""
""fullscreenenter"",""1"",""3405""
","
","","null","","null","","fixation","2021-08-04 20:34:30.429","","","","","",""
"card-selection-trial","129","456699","0.0-25.0-1.29","A137","false","img/card_backs/set1/yellow.gif","img/card_backs/set1/green.gif","img/card_backs/set1/purple.gif","img/card_backs/set1/red.gif","img/card_backs/set2/gray.gif","img/card_backs/set2/pink.gif","img/card_backs/set2/orange.gif","img/card_backs/set2/blue.gif","""event"",""trial"",""time""
""fullscreenenter"",""1"",""3405""
","
","
","""event"",""trial"",""time""
""fullscreenenter"",""1"",""3405""
","
","","637","","","","real_trial","2021-08-04 20:34:33.070","img/card_backs/set1/yellow.gif","3","180","1","",""
"casino-fixation","130","457201","0.0-25.0-0.30","A137","false","img/card_backs/set1/yellow.gif","img/card_backs/set1/green.gif","img/card_backs/set1/purple.gif","img/card_backs/set1/red.gif","img/card_backs/set2/gray.gif","img/card_backs/set2/pink.gif","img/card_backs/set2/orange.gif","img/card_backs/set2/blue.gif","""event"",""trial"",""time""
""fullscreenenter"",""1"",""3405""
","
","
","""event"",""trial"",""time""
""fullscreenenter"",""1"",""3405""
","
","","null","","null","","fixation","2021-08-04 20:34:33.572","","","","","",""
"card-selection-trial","131","460349","0.0-25.0-1.30","A137","false","img/card_backs/set1/yellow.gif","img/card_backs/set1/green.gif","img/card_backs/set1/purple.gif","img/card_backs/set1/red.gif","img/card_backs/set2/gray.gif","img/card_backs/set2/pink.gif","img/card_backs/set2/orange.gif","img/card_backs/set2/blue.gif","""event"",""trial"",""time""
""fullscreenenter"",""1"",""3405""
","
","
","""event"",""trial"",""time""
""fullscreenenter"",""1"",""3405""
","
","","1143.699999999255","","","","real_trial","2021-08-04 20:34:36.720","img/card_backs/set1/yellow.gif","2","190","1","",""
"casino-fixation","132","460851","0.0-25.0-0.31","A137","false","img/card_backs/set1/yellow.gif","img/card_backs/set1/green.gif","img/card_backs/set1/purple.gif","img/card_backs/set1/red.gif","img/card_backs/set2/gray.gif","img/card_backs/set2/pink.gif","img/card_backs/set2/orange.gif","img/card_backs/set2/blue.gif","""event"",""trial"",""time""
""fullscreenenter"",""1"",""3405""
","
","
","""event"",""trial"",""time""
""fullscreenenter"",""1"",""3405""
","
","","null","","null","","fixation","2021-08-04 20:34:37.222","","","","","",""
"card-selection-trial","133","463431","0.0-25.0-1.31","A137","false","img/card_backs/set1/yellow.gif","img/card_backs/set1/green.gif","img/card_backs/set1/purple.gif","img/card_backs/set1/red.gif","img/card_backs/set2/gray.gif","img/card_backs/set2/pink.gif","img/card_backs/set2/orange.gif","img/card_backs/set2/blue.gif","""event"",""trial"",""time""
""fullscreenenter"",""1"",""3405""
","
","
","""event"",""trial"",""time""
""fullscreenenter"",""1"",""3405""
","
","","573.8999999985099","","","","real_trial","2021-08-04 20:34:39.802","img/card_backs/set1/red.gif","3","-50","1","",""
"casino-fixation","134","463932","0.0-25.0-0.32","A137","false","img/card_backs/set1/yellow.gif","img/card_backs/set1/green.gif","img/card_backs/set1/purple.gif","img/card_backs/set1/red.gif","img/card_backs/set2/gray.gif","img/card_backs/set2/pink.gif","img/card_backs/set2/orange.gif","img/card_backs/set2/blue.gif","""event"",""trial"",""time""
""fullscreenenter"",""1"",""3405""
","
","
","""event"",""trial"",""time""
""fullscreenenter"",""1"",""3405""
","
","","null","","null","","fixation","2021-08-04 20:34:40.303","","","","","",""
"card-selection-trial","135","466496","0.0-25.0-1.32","A137","false","img/card_backs/set1/yellow.gif","img/card_backs/set1/green.gif","img/card_backs/set1/purple.gif","img/card_backs/set1/red.gif","img/card_backs/set2/gray.gif","img/card_backs/set2/pink.gif","img/card_backs/set2/orange.gif","img/card_backs/set2/blue.gif","""event"",""trial"",""time""
""fullscreenenter"",""1"",""3405""
","
","
","""event"",""trial"",""time""
""fullscreenenter"",""1"",""3405""
","
","","558.7999999970198","","","","real_trial","2021-08-04 20:34:42.867","img/card_backs/set1/yellow.gif","3","-250","1","",""
"casino-fixation","136","466998","0.0-25.0-0.33","A137","false","img/card_backs/set1/yellow.gif","img/card_backs/set1/green.gif","img/card_backs/set1/purple.gif","img/card_backs/set1/red.gif","img/card_backs/set2/gray.gif","img/card_backs/set2/pink.gif","img/card_backs/set2/orange.gif","img/card_backs/set2/blue.gif","""event"",""trial"",""time""
""fullscreenenter"",""1"",""3405""
","
","
","""event"",""trial"",""time""
""fullscreenenter"",""1"",""3405""
","
","","null","","null","","fixation","2021-08-04 20:34:43.369","","","","","",""
"card-selection-trial","137","469719","0.0-25.0-1.33","A137","false","img/card_backs/set1/yellow.gif","img/card_backs/set1/green.gif","img/card_backs/set1/purple.gif","img/card_backs/set1/red.gif","img/card_backs/set2/gray.gif","img/card_backs/set2/pink.gif","img/card_backs/set2/orange.gif","img/card_backs/set2/blue.gif","""event"",""trial"",""time""
""fullscreenenter"",""1"",""3405""
","
","
","""event"",""trial"",""time""
""fullscreenenter"",""1"",""3405""
","
","","716.2000000029802","","","","real_trial","2021-08-04 20:34:46.090","img/card_backs/set1/red.gif","2","100","1","",""
"casino-fixation","138","470221","0.0-25.0-0.34","A137","false","img/card_backs/set1/yellow.gif","img/card_backs/set1/green.gif","img/card_backs/set1/purple.gif","img/card_backs/set1/red.gif","img/card_backs/set2/gray.gif","img/card_backs/set2/pink.gif","img/card_backs/set2/orange.gif","img/card_backs/set2/blue.gif","""event"",""trial"",""time""
""fullscreenenter"",""1"",""3405""
","
","
","""event"",""trial"",""time""
""fullscreenenter"",""1"",""3405""
","
","","null","","null","","fixation","2021-08-04 20:34:46.592","","","","","",""
"card-selection-trial","139","472656","0.0-25.0-1.34","A137","false","img/card_backs/set1/yellow.gif","img/card_backs/set1/green.gif","img/card_backs/set1/purple.gif","img/card_backs/set1/red.gif","img/card_backs/set2/gray.gif","img/card_backs/set2/pink.gif","img/card_backs/set2/orange.gif","img/card_backs/set2/blue.gif","""event"",""trial"",""time""
""fullscreenenter"",""1"",""3405""
","
","
","""event"",""trial"",""time""
""fullscreenenter"",""1"",""3405""
","
","","430.6000000014901","","","","real_trial","2021-08-04 20:34:49.027","img/card_backs/set1/red.gif","0","-70","1","",""
"casino-fixation","140","473158","0.0-25.0-0.35","A137","false","img/card_backs/set1/yellow.gif","img/card_backs/set1/green.gif","img/card_backs/set1/purple.gif","img/card_backs/set1/red.gif","img/card_backs/set2/gray.gif","img/card_backs/set2/pink.gif","img/card_backs/set2/orange.gif","img/card_backs/set2/blue.gif","""event"",""trial"",""time""
""fullscreenenter"",""1"",""3405""
","
","
","""event"",""trial"",""time""
""fullscreenenter"",""1"",""3405""
","
","","null","","null","","fixation","2021-08-04 20:34:49.529","","","","","",""
"card-selection-trial","141","476006","0.0-25.0-1.35","A137","false","img/card_backs/set1/yellow.gif","img/card_backs/set1/green.gif","img/card_backs/set1/purple.gif","img/card_backs/set1/red.gif","img/card_backs/set2/gray.gif","img/card_backs/set2/pink.gif","img/card_backs/set2/orange.gif","img/card_backs/set2/blue.gif","""event"",""trial"",""time""
""fullscreenenter"",""1"",""3405""
","
","
","""event"",""trial"",""time""
""fullscreenenter"",""1"",""3405""
","
","","845.3000000007451","","","","real_trial","2021-08-04 20:34:52.377","img/card_backs/set1/green.gif","3","200","1","",""
"casino-fixation","142","476508","0.0-25.0-0.36","A137","false","img/card_backs/set1/yellow.gif","img/card_backs/set1/green.gif","img/card_backs/set1/purple.gif","img/card_backs/set1/red.gif","img/card_backs/set2/gray.gif","img/card_backs/set2/pink.gif","img/card_backs/set2/orange.gif","img/card_backs/set2/blue.gif","""event"",""trial"",""time""
""fullscreenenter"",""1"",""3405""
","
","
","""event"",""trial"",""time""
""fullscreenenter"",""1"",""3405""
","
","","null","","null","","fixation","2021-08-04 20:34:52.879","","","","","",""
"card-selection-trial","143","479057","0.0-25.0-1.36","A137","false","img/card_backs/set1/yellow.gif","img/card_backs/set1/green.gif","img/card_backs/set1/purple.gif","img/card_backs/set1/red.gif","img/card_backs/set2/gray.gif","img/card_backs/set2/pink.gif","img/card_backs/set2/orange.gif","img/card_backs/set2/blue.gif","""event"",""trial"",""time""
""fullscreenenter"",""1"",""3405""
","
","
","""event"",""trial"",""time""
""fullscreenenter"",""1"",""3405""
","
","","544.6999999992549","","","","real_trial","2021-08-04 20:34:55.428","img/card_backs/set1/red.gif","0","-70","1","",""
"casino-fixation","144","479559","0.0-25.0-0.37","A137","false","img/card_backs/set1/yellow.gif","img/card_backs/set1/green.gif","img/card_backs/set1/purple.gif","img/card_backs/set1/red.gif","img/card_backs/set2/gray.gif","img/card_backs/set2/pink.gif","img/card_backs/set2/orange.gif","img/card_backs/set2/blue.gif","""event"",""trial"",""time""
""fullscreenenter"",""1"",""3405""
","
","
","""event"",""trial"",""time""
""fullscreenenter"",""1"",""3405""
","
","","null","","null","","fixation","2021-08-04 20:34:55.930","","","","","",""
"card-selection-trial","145","482148","0.0-25.0-1.37","A137","false","img/card_backs/set1/yellow.gif","img/card_backs/set1/green.gif","img/card_backs/set1/purple.gif","img/card_backs/set1/red.gif","img/card_backs/set2/gray.gif","img/card_backs/set2/pink.gif","img/card_backs/set2/orange.gif","img/card_backs/set2/blue.gif","""event"",""trial"",""time""
""fullscreenenter"",""1"",""3405""
","
","
","""event"",""trial"",""time""
""fullscreenenter"",""1"",""3405""
","
","","584","","","","real_trial","2021-08-04 20:34:58.519","img/card_backs/set1/red.gif","3","110","1","",""
"casino-fixation","146","482650","0.0-25.0-0.38","A137","false","img/card_backs/set1/yellow.gif","img/card_backs/set1/green.gif","img/card_backs/set1/purple.gif","img/card_backs/set1/red.gif","img/card_backs/set2/gray.gif","img/card_backs/set2/pink.gif","img/card_backs/set2/orange.gif","img/card_backs/set2/blue.gif","""event"",""trial"",""time""
""fullscreenenter"",""1"",""3405""
","
","
","""event"",""trial"",""time""
""fullscreenenter"",""1"",""3405""
","
","","null","","null","","fixation","2021-08-04 20:34:59.021","","","","","",""
"card-selection-trial","147","485065","0.0-25.0-1.38","A137","false","img/card_backs/set1/yellow.gif","img/card_backs/set1/green.gif","img/card_backs/set1/purple.gif","img/card_backs/set1/red.gif","img/card_backs/set2/gray.gif","img/card_backs/set2/pink.gif","img/card_backs/set2/orange.gif","img/card_backs/set2/blue.gif","""event"",""trial"",""time""
""fullscreenenter"",""1"",""3405""
","
","
","""event"",""trial"",""time""
""fullscreenenter"",""1"",""3405""
","
","","409.8999999985099","","","","real_trial","2021-08-04 20:35:01.437","img/card_backs/set1/yellow.gif","3","-250","1","",""
"casino-fixation","148","485567","0.0-25.0-0.39","A137","false","img/card_backs/set1/yellow.gif","img/card_backs/set1/green.gif","img/card_backs/set1/purple.gif","img/card_backs/set1/red.gif","img/card_backs/set2/gray.gif","img/card_backs/set2/pink.gif","img/card_backs/set2/orange.gif","img/card_backs/set2/blue.gif","""event"",""trial"",""time""
""fullscreenenter"",""1"",""3405""
","
","
","""event"",""trial"",""time""
""fullscreenenter"",""1"",""3405""
","
","","null","","null","","fixation","2021-08-04 20:35:01.938","","","","","",""
"card-selection-trial","149","488812","0.0-25.0-1.39","A137","false","img/card_backs/set1/yellow.gif","img/card_backs/set1/green.gif","img/card_backs/set1/purple.gif","img/card_backs/set1/red.gif","img/card_backs/set2/gray.gif","img/card_backs/set2/pink.gif","img/card_backs/set2/orange.gif","img/card_backs/set2/blue.gif","""event"",""trial"",""time""
""fullscreenenter"",""1"",""3405""
","
","
","""event"",""trial"",""time""
""fullscreenenter"",""1"",""3405""
","
","","1239.5999999977648","","","","real_trial","2021-08-04 20:35:05.183","img/card_backs/set1/red.gif","0","120","1","",""
"casino-fixation","150","489315","0.0-25.0-0.40","A137","false","img/card_backs/set1/yellow.gif","img/card_backs/set1/green.gif","img/card_backs/set1/purple.gif","img/card_backs/set1/red.gif","img/card_backs/set2/gray.gif","img/card_backs/set2/pink.gif","img/card_backs/set2/orange.gif","img/card_backs/set2/blue.gif","""event"",""trial"",""time""
""fullscreenenter"",""1"",""3405""
","
","
","""event"",""trial"",""time""
""fullscreenenter"",""1"",""3405""
","
","","null","","null","","fixation","2021-08-04 20:35:05.686","","","","","",""
"card-selection-trial","151","491891","0.0-25.0-1.40","A137","false","img/card_backs/set1/yellow.gif","img/card_backs/set1/green.gif","img/card_backs/set1/purple.gif","img/card_backs/set1/red.gif","img/card_backs/set2/gray.gif","img/card_backs/set2/pink.gif","img/card_backs/set2/orange.gif","img/card_backs/set2/blue.gif","""event"",""trial"",""time""
""fullscreenenter"",""1"",""3405""
","
","
","""event"",""trial"",""time""
""fullscreenenter"",""1"",""3405""
","
","","567.8000000007451","","","","real_trial","2021-08-04 20:35:08.262","img/card_backs/set1/purple.gif","3","-60","1","",""
"casino-fixation","152","492394","0.0-25.0-0.41","A137","false","img/card_backs/set1/yellow.gif","img/card_backs/set1/green.gif","img/card_backs/set1/purple.gif","img/card_backs/set1/red.gif","img/card_backs/set2/gray.gif","img/card_backs/set2/pink.gif","img/card_backs/set2/orange.gif","img/card_backs/set2/blue.gif","""event"",""trial"",""time""
""fullscreenenter"",""1"",""3405""
","
","
","""event"",""trial"",""time""
""fullscreenenter"",""1"",""3405""
","
","","null","","null","","fixation","2021-08-04 20:35:08.765","","","","","",""
"card-selection-trial","153","495014","0.0-25.0-1.41","A137","false","img/card_backs/set1/yellow.gif","img/card_backs/set1/green.gif","img/card_backs/set1/purple.gif","img/card_backs/set1/red.gif","img/card_backs/set2/gray.gif","img/card_backs/set2/pink.gif","img/card_backs/set2/orange.gif","img/card_backs/set2/blue.gif","""event"",""trial"",""time""
""fullscreenenter"",""1"",""3405""
","
","
","""event"",""trial"",""time""
""fullscreenenter"",""1"",""3405""
","
","","613.5","","","","real_trial","2021-08-04 20:35:11.385","img/card_backs/set1/purple.gif","0","-50","1","",""
"casino-fixation","154","495518","0.0-25.0-0.42","A137","false","img/card_backs/set1/yellow.gif","img/card_backs/set1/green.gif","img/card_backs/set1/purple.gif","img/card_backs/set1/red.gif","img/card_backs/set2/gray.gif","img/card_backs/set2/pink.gif","img/card_backs/set2/orange.gif","img/card_backs/set2/blue.gif","""event"",""trial"",""time""
""fullscreenenter"",""1"",""3405""
","
","
","""event"",""trial"",""time""
""fullscreenenter"",""1"",""3405""
","
","","null","","null","","fixation","2021-08-04 20:35:11.889","","","","","",""
"card-selection-trial","155","498949","0.0-25.0-1.42","A137","false","img/card_backs/set1/yellow.gif","img/card_backs/set1/green.gif","img/card_backs/set1/purple.gif","img/card_backs/set1/red.gif","img/card_backs/set2/gray.gif","img/card_backs/set2/pink.gif","img/card_backs/set2/orange.gif","img/card_backs/set2/blue.gif","""event"",""trial"",""time""
""fullscreenenter"",""1"",""3405""
","
","
","""event"",""trial"",""time""
""fullscreenenter"",""1"",""3405""
","
","","1426","","","","real_trial","2021-08-04 20:35:15.320","img/card_backs/set1/red.gif","1","110","1","",""
"casino-fixation","156","499451","0.0-25.0-0.43","A137","false","img/card_backs/set1/yellow.gif","img/card_backs/set1/green.gif","img/card_backs/set1/purple.gif","img/card_backs/set1/red.gif","img/card_backs/set2/gray.gif","img/card_backs/set2/pink.gif","img/card_backs/set2/orange.gif","img/card_backs/set2/blue.gif","""event"",""trial"",""time""
""fullscreenenter"",""1"",""3405""
","
","
","""event"",""trial"",""time""
""fullscreenenter"",""1"",""3405""
","
","","null","","null","","fixation","2021-08-04 20:35:15.822","","","","","",""
"card-selection-trial","157","502490","0.0-25.0-1.43","A137","false","img/card_backs/set1/yellow.gif","img/card_backs/set1/green.gif","img/card_backs/set1/purple.gif","img/card_backs/set1/red.gif","img/card_backs/set2/gray.gif","img/card_backs/set2/pink.gif","img/card_backs/set2/orange.gif","img/card_backs/set2/blue.gif","""event"",""trial"",""time""
""fullscreenenter"",""1"",""3405""
","
","
","""event"",""trial"",""time""
""fullscreenenter"",""1"",""3405""
","
","","1035","","","","real_trial","2021-08-04 20:35:18.861","img/card_backs/set1/red.gif","2","-60","1","",""
"casino-fixation","158","502992","0.0-25.0-0.44","A137","false","img/card_backs/set1/yellow.gif","img/card_backs/set1/green.gif","img/card_backs/set1/purple.gif","img/card_backs/set1/red.gif","img/card_backs/set2/gray.gif","img/card_backs/set2/pink.gif","img/card_backs/set2/orange.gif","img/card_backs/set2/blue.gif","""event"",""trial"",""time""
""fullscreenenter"",""1"",""3405""
","
","
","""event"",""trial"",""time""
""fullscreenenter"",""1"",""3405""
","
","","null","","null","","fixation","2021-08-04 20:35:19.363","","","","","",""
"card-selection-trial","159","505560","0.0-25.0-1.44","A137","false","img/card_backs/set1/yellow.gif","img/card_backs/set1/green.gif","img/card_backs/set1/purple.gif","img/card_backs/set1/red.gif","img/card_backs/set2/gray.gif","img/card_backs/set2/pink.gif","img/card_backs/set2/orange.gif","img/card_backs/set2/blue.gif","""event"",""trial"",""time""
""fullscreenenter"",""1"",""3405""
","
","
","""event"",""trial"",""time""
""fullscreenenter"",""1"",""3405""
","
","","563.6000000014901","","","","real_trial","2021-08-04 20:35:21.931","img/card_backs/set1/yellow.gif","0","-230","1","",""
"casino-fixation","160","506062","0.0-25.0-0.45","A137","false","img/card_backs/set1/yellow.gif","img/card_backs/set1/green.gif","img/card_backs/set1/purple.gif","img/card_backs/set1/red.gif","img/card_backs/set2/gray.gif","img/card_backs/set2/pink.gif","img/card_backs/set2/orange.gif","img/card_backs/set2/blue.gif","""event"",""trial"",""time""
""fullscreenenter"",""1"",""3405""
","
","
","""event"",""trial"",""time""
""fullscreenenter"",""1"",""3405""
","
","","null","","null","","fixation","2021-08-04 20:35:22.433","","","","","",""
"card-selection-trial","161","509663","0.0-25.0-1.45","A137","false","img/card_backs/set1/yellow.gif","img/card_backs/set1/green.gif","img/card_backs/set1/purple.gif","img/card_backs/set1/red.gif","img/card_backs/set2/gray.gif","img/card_backs/set2/pink.gif","img/card_backs/set2/orange.gif","img/card_backs/set2/blue.gif","""event"",""trial"",""time""
""fullscreenenter"",""1"",""3405""
","
","
","""event"",""trial"",""time""
""fullscreenenter"",""1"",""3405""
","
","","1597","","","","real_trial","2021-08-04 20:35:26.035","img/card_backs/set1/green.gif","2","-240","1","",""
"casino-fixation","162","510165","0.0-25.0-0.46","A137","false","img/card_backs/set1/yellow.gif","img/card_backs/set1/green.gif","img/card_backs/set1/purple.gif","img/card_backs/set1/red.gif","img/card_backs/set2/gray.gif","img/card_backs/set2/pink.gif","img/card_backs/set2/orange.gif","img/card_backs/set2/blue.gif","""event"",""trial"",""time""
""fullscreenenter"",""1"",""3405""
","
","
","""event"",""trial"",""time""
""fullscreenenter"",""1"",""3405""
","
","","null","","null","","fixation","2021-08-04 20:35:26.536","","","","","",""
"card-selection-trial","163","513765","0.0-25.0-1.46","A137","false","img/card_backs/set1/yellow.gif","img/card_backs/set1/green.gif","img/card_backs/set1/purple.gif","img/card_backs/set1/red.gif","img/card_backs/set2/gray.gif","img/card_backs/set2/pink.gif","img/card_backs/set2/orange.gif","img/card_backs/set2/blue.gif","""event"",""trial"",""time""
""fullscreenenter"",""1"",""3405""
","
","
","""event"",""trial"",""time""
""fullscreenenter"",""1"",""3405""
","
","","1589.0999999977648","","","","real_trial","2021-08-04 20:35:30.136","img/card_backs/set1/purple.gif","1","-60","1","",""
"casino-fixation","164","514268","0.0-25.0-0.47","A137","false","img/card_backs/set1/yellow.gif","img/card_backs/set1/green.gif","img/card_backs/set1/purple.gif","img/card_backs/set1/red.gif","img/card_backs/set2/gray.gif","img/card_backs/set2/pink.gif","img/card_backs/set2/orange.gif","img/card_backs/set2/blue.gif","""event"",""trial"",""time""
""fullscreenenter"",""1"",""3405""
","
","
","""event"",""trial"",""time""
""fullscreenenter"",""1"",""3405""
","
","","null","","null","","fixation","2021-08-04 20:35:30.639","","","","","",""
"card-selection-trial","165","516971","0.0-25.0-1.47","A137","false","img/card_backs/set1/yellow.gif","img/card_backs/set1/green.gif","img/card_backs/set1/purple.gif","img/card_backs/set1/red.gif","img/card_backs/set2/gray.gif","img/card_backs/set2/pink.gif","img/card_backs/set2/orange.gif","img/card_backs/set2/blue.gif","""event"",""trial"",""time""
""fullscreenenter"",""1"",""3405""
","
","
","""event"",""trial"",""time""
""fullscreenenter"",""1"",""3405""
","
","","699.4000000022352","","","","real_trial","2021-08-04 20:35:33.342","img/card_backs/set1/red.gif","0","-60","1","",""
"casino-fixation","166","517474","0.0-25.0-0.48","A137","false","img/card_backs/set1/yellow.gif","img/card_backs/set1/green.gif","img/card_backs/set1/purple.gif","img/card_backs/set1/red.gif","img/card_backs/set2/gray.gif","img/card_backs/set2/pink.gif","img/card_backs/set2/orange.gif","img/card_backs/set2/blue.gif","""event"",""trial"",""time""
""fullscreenenter"",""1"",""3405""
","
","
","""event"",""trial"",""time""
""fullscreenenter"",""1"",""3405""
","
","","null","","null","","fixation","2021-08-04 20:35:33.845","","","","","",""
"card-selection-trial","167","520573","0.0-25.0-1.48","A137","false","img/card_backs/set1/yellow.gif","img/card_backs/set1/green.gif","img/card_backs/set1/purple.gif","img/card_backs/set1/red.gif","img/card_backs/set2/gray.gif","img/card_backs/set2/pink.gif","img/card_backs/set2/orange.gif","img/card_backs/set2/blue.gif","""event"",""trial"",""time""
""fullscreenenter"",""1"",""3405""
","
","
","""event"",""trial"",""time""
