"trial_type","trial_index","time_elapsed","internal_node_id","sub_id","risk_good_first","block1_A","block1_B","block1_C","block1_D","block2_A","block2_B","block2_C","block2_D","interactions","blur_events","focus_events","fullscreenenter_events","fullscreenexit_events","success","rt","stimulus","key_press","button_pressed","task_part","timestamp","card_choice","choice_position","points_earned","block","correct","response"
"pavlovia","0","4","0.0-0.0","A1354","true","img/card_backs/set1/purple.gif","img/card_backs/set1/yellow.gif","img/card_backs/set1/green.gif","img/card_backs/set1/red.gif","img/card_backs/set2/pink.gif","img/card_backs/set2/orange.gif","img/card_backs/set2/gray.gif","img/card_backs/set2/blue.gif","""event"",""trial"",""time""
""fullscreenenter"",""1"",""2211""
","
","
","""event"",""trial"",""time""
""fullscreenenter"",""1"",""2211""
","
","","","","","","","","","","","","",""
"fullscreen","1","3200","0.0-1.0","A1354","true","img/card_backs/set1/purple.gif","img/card_backs/set1/yellow.gif","img/card_backs/set1/green.gif","img/card_backs/set1/red.gif","img/card_backs/set2/pink.gif","img/card_backs/set2/orange.gif","img/card_backs/set2/gray.gif","img/card_backs/set2/blue.gif","""event"",""trial"",""time""
""fullscreenenter"",""1"",""2211""
","
","
","""event"",""trial"",""time""
""fullscreenenter"",""1"",""2211""
","
","true","","","","","","","","","","","",""
"audio-keyboard-response","2","6351","0.0-2.0","A1354","true","img/card_backs/set1/purple.gif","img/card_backs/set1/yellow.gif","img/card_backs/set1/green.gif","img/card_backs/set1/red.gif","img/card_backs/set2/pink.gif","img/card_backs/set2/orange.gif","img/card_backs/set2/gray.gif","img/card_backs/set2/blue.gif","""event"",""trial"",""time""
""fullscreenenter"",""1"",""2211""
","
","
","""event"",""trial"",""time""
""fullscreenenter"",""1"",""2211""
","
","","3149","audio/beep_loop.wav","32","","","","","","","","",""
"audio-button-response","3","7944","0.0-3.0","A1354","true","img/card_backs/set1/purple.gif","img/card_backs/set1/yellow.gif","img/card_backs/set1/green.gif","img/card_backs/set1/red.gif","img/card_backs/set2/pink.gif","img/card_backs/set2/orange.gif","img/card_backs/set2/gray.gif","img/card_backs/set2/blue.gif","""event"",""trial"",""time""
""fullscreenenter"",""1"",""2211""
","
","
","""event"",""trial"",""time""
""fullscreenenter"",""1"",""2211""
","
","","NaN","audio/turtle.mp3","","3","","","","","","","",""
"audio-button-response","4","9919","0.0-4.0","A1354","true","img/card_backs/set1/purple.gif","img/card_backs/set1/yellow.gif","img/card_backs/set1/green.gif","img/card_backs/set1/red.gif","img/card_backs/set2/pink.gif","img/card_backs/set2/orange.gif","img/card_backs/set2/gray.gif","img/card_backs/set2/blue.gif","""event"",""trial"",""time""
""fullscreenenter"",""1"",""2211""
","
","
","""event"",""trial"",""time""
""fullscreenenter"",""1"",""2211""
","
","","NaN","audio/shark.mp3","","2","","","","","","","",""
"fullscreen","5","13427","0.0-5.0","A1354","true","img/card_backs/set1/purple.gif","img/card_backs/set1/yellow.gif","img/card_backs/set1/green.gif","img/card_backs/set1/red.gif","img/card_backs/set2/pink.gif","img/card_backs/set2/orange.gif","img/card_backs/set2/gray.gif","img/card_backs/set2/blue.gif","""event"",""trial"",""time""
""fullscreenenter"",""1"",""2211""
","
","
","""event"",""trial"",""time""
""fullscreenenter"",""1"",""2211""
","
","true","","","","","","","","","","","",""
"casino-keyboard-response","6","16270","0.0-6.0-0.0","A1354","true","img/card_backs/set1/purple.gif","img/card_backs/set1/yellow.gif","img/card_backs/set1/green.gif","img/card_backs/set1/red.gif","img/card_backs/set2/pink.gif","img/card_backs/set2/orange.gif","img/card_backs/set2/gray.gif","img/card_backs/set2/blue.gif","""event"",""trial"",""time""
""fullscreenenter"",""1"",""2211""
","
","
","""event"",""trial"",""time""
""fullscreenenter"",""1"",""2211""
","
","","2841.2999999970198","Welcome to the casino!","71","","instructions","2021-07-31 20:53:11.482","","","","","",""
"casino-keyboard-response","7","27823","0.0-6.0-0.1","A1354","true","img/card_backs/set1/purple.gif","img/card_backs/set1/yellow.gif","img/card_backs/set1/green.gif","img/card_backs/set1/red.gif","img/card_backs/set2/pink.gif","img/card_backs/set2/orange.gif","img/card_backs/set2/gray.gif","img/card_backs/set2/blue.gif","""event"",""trial"",""time""
""fullscreenenter"",""1"",""2211""
","
","
","""event"",""trial"",""time""
""fullscreenenter"",""1"",""2211""
","
","","11550.79999999702","Today you will be playing a game to earn tokens. </br> At the end of the experiment, you will be paid a bonus based on how many tokens you win. ","69","","instructions","2021-07-31 20:53:23.034","","","","","",""
"casino-keyboard-response","8","38759","0.0-6.0-0.2","A1354","true","img/card_backs/set1/purple.gif","img/card_backs/set1/yellow.gif","img/card_backs/set1/green.gif","img/card_backs/set1/red.gif","img/card_backs/set2/pink.gif","img/card_backs/set2/orange.gif","img/card_backs/set2/gray.gif","img/card_backs/set2/blue.gif","""event"",""trial"",""time""
""fullscreenenter"",""1"",""2211""
","
","
","""event"",""trial"",""time""
""fullscreenenter"",""1"",""2211""
","
","","10934.800000011921","On every turn, you will be shown four different decks of cards. </br> You need to select a card from one of the four decks.  ","75","","instructions","2021-07-31 20:53:33.970","","","","","",""
"casino-keyboard-response","9","43439","0.0-6.0-0.3","A1354","true","img/card_backs/set1/purple.gif","img/card_backs/set1/yellow.gif","img/card_backs/set1/green.gif","img/card_backs/set1/red.gif","img/card_backs/set2/pink.gif","img/card_backs/set2/orange.gif","img/card_backs/set2/gray.gif","img/card_backs/set2/blue.gif","""event"",""trial"",""time""
""fullscreenenter"",""1"",""2211""
","
","
","""event"",""trial"",""time""
""fullscreenenter"",""1"",""2211""
","
","","4678.399999991059","On the next screen, you will see what the decks will look like. ","66","","instructions","2021-07-31 20:53:38.650","","","","","",""
"card-selection-trial","10","47457","0.0-7.0-0.0","A1354","true","img/card_backs/set1/purple.gif","img/card_backs/set1/yellow.gif","img/card_backs/set1/green.gif","img/card_backs/set1/red.gif","img/card_backs/set2/pink.gif","img/card_backs/set2/orange.gif","img/card_backs/set2/gray.gif","img/card_backs/set2/blue.gif","""event"",""trial"",""time""
""fullscreenenter"",""1"",""2211""
","
","
","""event"",""trial"",""time""
""fullscreenenter"",""1"",""2211""
","
","","null","","","","practice","2021-07-31 20:53:42.668","null","null","null","0","",""
"casino-keyboard-response","11","54928","0.0-8.0-0.0","A1354","true","img/card_backs/set1/purple.gif","img/card_backs/set1/yellow.gif","img/card_backs/set1/green.gif","img/card_backs/set1/red.gif","img/card_backs/set2/pink.gif","img/card_backs/set2/orange.gif","img/card_backs/set2/gray.gif","img/card_backs/set2/blue.gif","""event"",""trial"",""time""
""fullscreenenter"",""1"",""2211""
","
","
","""event"",""trial"",""time""
""fullscreenenter"",""1"",""2211""
","
","","7469","You should pick a card from a deck using the '2', '4', '6', and '8' keys at the top of the keyboard.","85","","instructions","2021-07-31 20:53:50.139","","","","","",""
"casino-keyboard-response","12","59927","0.0-8.0-0.1","A1354","true","img/card_backs/set1/purple.gif","img/card_backs/set1/yellow.gif","img/card_backs/set1/green.gif","img/card_backs/set1/red.gif","img/card_backs/set2/pink.gif","img/card_backs/set2/orange.gif","img/card_backs/set2/gray.gif","img/card_backs/set2/blue.gif","""event"",""trial"",""time""
""fullscreenenter"",""1"",""2211""
","
","
","""event"",""trial"",""time""
""fullscreenenter"",""1"",""2211""
","
","","4998.5999999940395","Once you select a card, it will turn over and you will see how many tokens you earned.","83","","instructions","2021-07-31 20:53:55.138","","","","","",""
"casino-keyboard-response","13","73783","0.0-8.0-0.2","A1354","true","img/card_backs/set1/purple.gif","img/card_backs/set1/yellow.gif","img/card_backs/set1/green.gif","img/card_backs/set1/red.gif","img/card_backs/set2/pink.gif","img/card_backs/set2/orange.gif","img/card_backs/set2/gray.gif","img/card_backs/set2/blue.gif","""event"",""trial"",""time""
""fullscreenenter"",""1"",""2211""
","
","
","""event"",""trial"",""time""
""fullscreenenter"",""1"",""2211""
","
","","13855.40000000596","Let's try practicing that! </br> First, try to put your fingers over the '2', '4', '6', and '8' keys. </br>  You can use whatever fingers are most comfortable for you. Try to find a comfortable position now. ","50","","instructions","2021-07-31 20:54:08.995","","","","","",""
"casino-keyboard-response","14","79431","0.0-8.0-0.3","A1354","true","img/card_backs/set1/purple.gif","img/card_backs/set1/yellow.gif","img/card_backs/set1/green.gif","img/card_backs/set1/red.gif","img/card_backs/set2/pink.gif","img/card_backs/set2/orange.gif","img/card_backs/set2/gray.gif","img/card_backs/set2/blue.gif","""event"",""trial"",""time""
""fullscreenenter"",""1"",""2211""
","
","
","""event"",""trial"",""time""
""fullscreenenter"",""1"",""2211""
","
","","5646.20000000298","Okay ready? </br> On the next screen, press '2' to select the left deck. ","50","","instructions","2021-07-31 20:54:14.642","","","","","",""
"card-selection-trial","15","83679","0.0-9.0-0.0","A1354","true","img/card_backs/set1/purple.gif","img/card_backs/set1/yellow.gif","img/card_backs/set1/green.gif","img/card_backs/set1/red.gif","img/card_backs/set2/pink.gif","img/card_backs/set2/orange.gif","img/card_backs/set2/gray.gif","img/card_backs/set2/blue.gif","""event"",""trial"",""time""
""fullscreenenter"",""1"",""2211""
","
","
","""event"",""trial"",""time""
""fullscreenenter"",""1"",""2211""
","
","","2223.5","","","","practice_card_selection","2021-07-31 20:54:18.890","img/practice_cards/backs/brown.gif","0","-100","","",""
"casino-keyboard-response","16","89256","0.0-10.0-0.0","A1354","true","img/card_backs/set1/purple.gif","img/card_backs/set1/yellow.gif","img/card_backs/set1/green.gif","img/card_backs/set1/red.gif","img/card_backs/set2/pink.gif","img/card_backs/set2/orange.gif","img/card_backs/set2/gray.gif","img/card_backs/set2/blue.gif","""event"",""trial"",""time""
""fullscreenenter"",""1"",""2211""
","
","
","""event"",""trial"",""time""
""fullscreenenter"",""1"",""2211""
","
","","5575.5","Great! Now on the next screen, try pressing '6' to select the third deck.","54","","instructions","2021-07-31 20:54:24.467","","","","","",""
"card-selection-trial","17","91995","0.0-11.0-0.0","A1354","true","img/card_backs/set1/purple.gif","img/card_backs/set1/yellow.gif","img/card_backs/set1/green.gif","img/card_backs/set1/red.gif","img/card_backs/set2/pink.gif","img/card_backs/set2/orange.gif","img/card_backs/set2/gray.gif","img/card_backs/set2/blue.gif","""event"",""trial"",""time""
""fullscreenenter"",""1"",""2211""
","
","
","""event"",""trial"",""time""
""fullscreenenter"",""1"",""2211""
","
","","731.6999999880791","","","","practice_card_selection","2021-07-31 20:54:27.206","img/practice_cards/backs/dark_blue.gif","2","-200","","",""
"casino-keyboard-response","18","94071","0.0-12.0-0.0","A1354","true","img/card_backs/set1/purple.gif","img/card_backs/set1/yellow.gif","img/card_backs/set1/green.gif","img/card_backs/set1/red.gif","img/card_backs/set2/pink.gif","img/card_backs/set2/orange.gif","img/card_backs/set2/gray.gif","img/card_backs/set2/blue.gif","""event"",""trial"",""time""
""fullscreenenter"",""1"",""2211""
","
","
","""event"",""trial"",""time""
""fullscreenenter"",""1"",""2211""
","
","","2075","Now on the next screen, try pressing '4' to select the second deck.","52","","instructions","2021-07-31 20:54:29.282","","","","","",""
"card-selection-trial","19","97026","0.0-13.0-0.0","A1354","true","img/card_backs/set1/purple.gif","img/card_backs/set1/yellow.gif","img/card_backs/set1/green.gif","img/card_backs/set1/red.gif","img/card_backs/set2/pink.gif","img/card_backs/set2/orange.gif","img/card_backs/set2/gray.gif","img/card_backs/set2/blue.gif","""event"",""trial"",""time""
""fullscreenenter"",""1"",""2211""
","
","
","""event"",""trial"",""time""
""fullscreenenter"",""1"",""2211""
","
","","940.5","","","","practice_card_selection","2021-07-31 20:54:32.237","img/practice_cards/backs/dark_blue.gif","1","-200","","",""
"casino-keyboard-response","20","98199","0.0-14.0-0.0","A1354","true","img/card_backs/set1/purple.gif","img/card_backs/set1/yellow.gif","img/card_backs/set1/green.gif","img/card_backs/set1/red.gif","img/card_backs/set2/pink.gif","img/card_backs/set2/orange.gif","img/card_backs/set2/gray.gif","img/card_backs/set2/blue.gif","""event"",""trial"",""time""
""fullscreenenter"",""1"",""2211""
","
","
","""event"",""trial"",""time""
""fullscreenenter"",""1"",""2211""
","
","","1172.7000000029802","Finally, try pressing '8' to select the deck all the way on the right.","56","","instructions","2021-07-31 20:54:33.410","","","","","",""
"card-selection-trial","21","100570","0.0-15.0-0.0","A1354","true","img/card_backs/set1/purple.gif","img/card_backs/set1/yellow.gif","img/card_backs/set1/green.gif","img/card_backs/set1/red.gif","img/card_backs/set2/pink.gif","img/card_backs/set2/orange.gif","img/card_backs/set2/gray.gif","img/card_backs/set2/blue.gif","""event"",""trial"",""time""
""fullscreenenter"",""1"",""2211""
","
","
","""event"",""trial"",""time""
""fullscreenenter"",""1"",""2211""
","
","","364.5","","","","practice_card_selection","2021-07-31 20:54:35.781","img/practice_cards/backs/brown.gif","3","-100","","",""
"casino-keyboard-response","22","104719","0.0-16.0-0.0","A1354","true","img/card_backs/set1/purple.gif","img/card_backs/set1/yellow.gif","img/card_backs/set1/green.gif","img/card_backs/set1/red.gif","img/card_backs/set2/pink.gif","img/card_backs/set2/orange.gif","img/card_backs/set2/gray.gif","img/card_backs/set2/blue.gif","""event"",""trial"",""time""
""fullscreenenter"",""1"",""2211""
","
","
","""event"",""trial"",""time""
""fullscreenenter"",""1"",""2211""
","
","","4149","Great! It seems like you are getting the hang of this.","80","","instructions","2021-07-31 20:54:39.930","","","","","",""
"casino-keyboard-response","23","112783","0.0-16.0-0.1","A1354","true","img/card_backs/set1/purple.gif","img/card_backs/set1/yellow.gif","img/card_backs/set1/green.gif","img/card_backs/set1/red.gif","img/card_backs/set2/pink.gif","img/card_backs/set2/orange.gif","img/card_backs/set2/gray.gif","img/card_backs/set2/blue.gif","""event"",""trial"",""time""
""fullscreenenter"",""1"",""2211""
","
","
","""event"",""trial"",""time""
""fullscreenenter"",""1"",""2211""
","
","","8062.800000011921","You may have noticed that some cards will cause you to <b> win </b> tokens while other cards will cause you to <b> lose </b>  tokens.","70","","instructions","2021-07-31 20:54:47.994","","","","","",""
"casino-keyboard-response","24","126671","0.0-16.0-0.2","A1354","true","img/card_backs/set1/purple.gif","img/card_backs/set1/yellow.gif","img/card_backs/set1/green.gif","img/card_backs/set1/red.gif","img/card_backs/set2/pink.gif","img/card_backs/set2/orange.gif","img/card_backs/set2/gray.gif","img/card_backs/set2/blue.gif","""event"",""trial"",""time""
""fullscreenenter"",""1"",""2211""
","
","
","""event"",""trial"",""time""
""fullscreenenter"",""1"",""2211""
","
","","13886.800000011921","Each deck has a mix of cards that will cause you to win and lose tokens. </br> However, the cards in each colored deck are different.","73","","instructions","2021-07-31 20:55:01.882","","","","","",""
"casino-keyboard-response","25","134879","0.0-16.0-0.3","A1354","true","img/card_backs/set1/purple.gif","img/card_backs/set1/yellow.gif","img/card_backs/set1/green.gif","img/card_backs/set1/red.gif","img/card_backs/set2/pink.gif","img/card_backs/set2/orange.gif","img/card_backs/set2/gray.gif","img/card_backs/set2/blue.gif","""event"",""trial"",""time""
""fullscreenenter"",""1"",""2211""
","
","
","""event"",""trial"",""time""
""fullscreenenter"",""1"",""2211""
","
","","8206.79999999702","Some colored decks are luckier than others. </br> If you choose the lucky decks, you will earn more tokens than if you choose the unlucky decks.","69","","instructions","2021-07-31 20:55:10.090","","","","","",""
"casino-keyboard-response","26","152559","0.0-16.0-0.4","A1354","true","img/card_backs/set1/purple.gif","img/card_backs/set1/yellow.gif","img/card_backs/set1/green.gif","img/card_backs/set1/red.gif","img/card_backs/set2/pink.gif","img/card_backs/set2/orange.gif","img/card_backs/set2/gray.gif","img/card_backs/set2/blue.gif","""event"",""trial"",""time""
""fullscreenenter"",""1"",""2211""
","
","
","""event"",""trial"",""time""
""fullscreenenter"",""1"",""2211""
","
","","17679.09999999404","You should try to figure out which decks are lucky. </br> Then, try to choose the lucky decks so you can win the most tokens.","87","","instructions","2021-07-31 20:55:27.771","","","","","",""
"casino-keyboard-response","27","164135","0.0-16.0-0.5","A1354","true","img/card_backs/set1/purple.gif","img/card_backs/set1/yellow.gif","img/card_backs/set1/green.gif","img/card_backs/set1/red.gif","img/card_backs/set2/pink.gif","img/card_backs/set2/orange.gif","img/card_backs/set2/gray.gif","img/card_backs/set2/blue.gif","""event"",""trial"",""time""
""fullscreenenter"",""1"",""2211""
","
","
","""event"",""trial"",""time""
""fullscreenenter"",""1"",""2211""
","
","","11574.70000000298","To make it trickier, the casino dealer will switch the locations of the decks on every turn. </br> The color of the deck determines how lucky it is. The location does not matter.","88","","instructions","2021-07-31 20:55:39.346","","","","","",""
"casino-keyboard-response","28","173615","0.0-16.0-0.6","A1354","true","img/card_backs/set1/purple.gif","img/card_backs/set1/yellow.gif","img/card_backs/set1/green.gif","img/card_backs/set1/red.gif","img/card_backs/set2/pink.gif","img/card_backs/set2/orange.gif","img/card_backs/set2/gray.gif","img/card_backs/set2/blue.gif","""event"",""trial"",""time""
""fullscreenenter"",""1"",""2211""
","
","
","""event"",""trial"",""time""
""fullscreenenter"",""1"",""2211""
","
","","9478.800000011921","The mix of cards in each colored deck will stay the same throughout the game. </br> That means that a deck that is lucky early on will stay lucky.","79","","instructions","2021-07-31 20:55:48.826","","","","","",""
"casino-keyboard-response","29","181640","0.0-16.0-0.7","A1354","true","img/card_backs/set1/purple.gif","img/card_backs/set1/yellow.gif","img/card_backs/set1/green.gif","img/card_backs/set1/red.gif","img/card_backs/set2/pink.gif","img/card_backs/set2/orange.gif","img/card_backs/set2/gray.gif","img/card_backs/set2/blue.gif","""event"",""trial"",""time""
""fullscreenenter"",""1"",""2211""
","
","
","""event"",""trial"",""time""
""fullscreenenter"",""1"",""2211""
","
","","8023.20000000298","Remember though, all the decks have a <b> mix </b> of both <b> good </b> and <b> bad </b> cards so it may take a couple of turns to figure out if a deck is lucky.","69","","instructions","2021-07-31 20:55:56.851","","","","","",""
"casino-keyboard-response","30","189895","0.0-16.0-0.8","A1354","true","img/card_backs/set1/purple.gif","img/card_backs/set1/yellow.gif","img/card_backs/set1/green.gif","img/card_backs/set1/red.gif","img/card_backs/set2/pink.gif","img/card_backs/set2/orange.gif","img/card_backs/set2/gray.gif","img/card_backs/set2/blue.gif","""event"",""trial"",""time""
""fullscreenenter"",""1"",""2211""
","
","
","""event"",""trial"",""time""
""fullscreenenter"",""1"",""2211""
","
","","8254.60000000894","At the end of the game, you will be paid bonus money based on how many tokens you win. </br> If you win more tokens, you will earn more money!","72","","instructions","2021-07-31 20:56:05.106","","","","","",""
"casino-keyboard-response","31","199744","0.0-16.0-0.9","A1354","true","img/card_backs/set1/purple.gif","img/card_backs/set1/yellow.gif","img/card_backs/set1/green.gif","img/card_backs/set1/red.gif","img/card_backs/set2/pink.gif","img/card_backs/set2/orange.gif","img/card_backs/set2/gray.gif","img/card_backs/set2/blue.gif","""event"",""trial"",""time""
""fullscreenenter"",""1"",""2211""
","
","
","""event"",""trial"",""time""
""fullscreenenter"",""1"",""2211""
","
","","9847.40000000596","You will never <b> lose </b> money. </br> If you end up with fewer than 0 tokens, you will earn $0 of bonus money, but you will still be paid for playing the game.","83","","instructions","2021-07-31 20:56:14.955","","","","","",""
"casino-keyboard-response","32","203783","0.0-16.0-0.10","A1354","true","img/card_backs/set1/purple.gif","img/card_backs/set1/yellow.gif","img/card_backs/set1/green.gif","img/card_backs/set1/red.gif","img/card_backs/set2/pink.gif","img/card_backs/set2/orange.gif","img/card_backs/set2/gray.gif","img/card_backs/set2/blue.gif","""event"",""trial"",""time""
""fullscreenenter"",""1"",""2211""
","
","
","""event"",""trial"",""time""
""fullscreenenter"",""1"",""2211""
","
","","4038.0999999940395","You will have 10 seconds to make each choice.","82","","instructions","2021-07-31 20:56:18.994","","","","","",""
"casino-keyboard-response","33","212112","0.0-16.0-0.11","A1354","true","img/card_backs/set1/purple.gif","img/card_backs/set1/yellow.gif","img/card_backs/set1/green.gif","img/card_backs/set1/red.gif","img/card_backs/set2/pink.gif","img/card_backs/set2/orange.gif","img/card_backs/set2/gray.gif","img/card_backs/set2/blue.gif","""event"",""trial"",""time""
""fullscreenenter"",""1"",""2211""
","
","
","""event"",""trial"",""time""
""fullscreenenter"",""1"",""2211""
","
","","8326.40000000596","Before you play the game for real, you will play with practice decks. </br> The tokens you earn during practice won't count toward your total.","86","","instructions","2021-07-31 20:56:27.323","","","","","",""
"casino-keyboard-response","34","213743","0.0-16.0-0.12","A1354","true","img/card_backs/set1/purple.gif","img/card_backs/set1/yellow.gif","img/card_backs/set1/green.gif","img/card_backs/set1/red.gif","img/card_backs/set2/pink.gif","img/card_backs/set2/orange.gif","img/card_backs/set2/gray.gif","img/card_backs/set2/blue.gif","""event"",""trial"",""time""
""fullscreenenter"",""1"",""2211""
","
","
","""event"",""trial"",""time""
""fullscreenenter"",""1"",""2211""
","
","","1630.5","Ready? Remember, use the '2', '4', '6', and '8' keys to select the decks. </br> Put your fingers on those keys now and then press '2' to begin.","50","","instructions","2021-07-31 20:56:28.954","","","","","",""
"casino-fixation","35","214257","0.0-17.0-0.0","A1354","true","img/card_backs/set1/purple.gif","img/card_backs/set1/yellow.gif","img/card_backs/set1/green.gif","img/card_backs/set1/red.gif","img/card_backs/set2/pink.gif","img/card_backs/set2/orange.gif","img/card_backs/set2/gray.gif","img/card_backs/set2/blue.gif","""event"",""trial"",""time""
""fullscreenenter"",""1"",""2211""
","
","
","""event"",""trial"",""time""
""fullscreenenter"",""1"",""2211""
","
","","null","","null","","fixation","2021-07-31 20:56:29.468","","","","","",""
"card-selection-trial","36","219336","0.0-17.0-1.0","A1354","true","img/card_backs/set1/purple.gif","img/card_backs/set1/yellow.gif","img/card_backs/set1/green.gif","img/card_backs/set1/red.gif","img/card_backs/set2/pink.gif","img/card_backs/set2/orange.gif","img/card_backs/set2/gray.gif","img/card_backs/set2/blue.gif","""event"",""trial"",""time""
""fullscreenenter"",""1"",""2211""
","
","
","""event"",""trial"",""time""
""fullscreenenter"",""1"",""2211""
","
","","3074.5999999940395","","","","practice","2021-07-31 20:56:34.547","img/practice_cards/backs/dark_green.gif","1","200","0","",""
"casino-fixation","37","219841","0.0-17.0-0.1","A1354","true","img/card_backs/set1/purple.gif","img/card_backs/set1/yellow.gif","img/card_backs/set1/green.gif","img/card_backs/set1/red.gif","img/card_backs/set2/pink.gif","img/card_backs/set2/orange.gif","img/card_backs/set2/gray.gif","img/card_backs/set2/blue.gif","""event"",""trial"",""time""
""fullscreenenter"",""1"",""2211""
","
","
","""event"",""trial"",""time""
""fullscreenenter"",""1"",""2211""
","
","","null","","null","","fixation","2021-07-31 20:56:35.052","","","","","",""
"card-selection-trial","38","223441","0.0-17.0-1.1","A1354","true","img/card_backs/set1/purple.gif","img/card_backs/set1/yellow.gif","img/card_backs/set1/green.gif","img/card_backs/set1/red.gif","img/card_backs/set2/pink.gif","img/card_backs/set2/orange.gif","img/card_backs/set2/gray.gif","img/card_backs/set2/blue.gif","""event"",""trial"",""time""
""fullscreenenter"",""1"",""2211""
","
","
","""event"",""trial"",""time""
""fullscreenenter"",""1"",""2211""
","
","","1595","","","","practice","2021-07-31 20:56:38.652","img/practice_cards/backs/dark_green.gif","1","-200","0","",""
"casino-fixation","39","223942","0.0-17.0-0.2","A1354","true","img/card_backs/set1/purple.gif","img/card_backs/set1/yellow.gif","img/card_backs/set1/green.gif","img/card_backs/set1/red.gif","img/card_backs/set2/pink.gif","img/card_backs/set2/orange.gif","img/card_backs/set2/gray.gif","img/card_backs/set2/blue.gif","""event"",""trial"",""time""
""fullscreenenter"",""1"",""2211""
","
","
","""event"",""trial"",""time""
""fullscreenenter"",""1"",""2211""
","
","","null","","null","","fixation","2021-07-31 20:56:39.153","","","","","",""
"card-selection-trial","40","227481","0.0-17.0-1.2","A1354","true","img/card_backs/set1/purple.gif","img/card_backs/set1/yellow.gif","img/card_backs/set1/green.gif","img/card_backs/set1/red.gif","img/card_backs/set2/pink.gif","img/card_backs/set2/orange.gif","img/card_backs/set2/gray.gif","img/card_backs/set2/blue.gif","""event"",""trial"",""time""
""fullscreenenter"",""1"",""2211""
","
","
","""event"",""trial"",""time""
""fullscreenenter"",""1"",""2211""
","
","","1533.8999999910593","","","","practice","2021-07-31 20:56:42.692","img/practice_cards/backs/dark_green.gif","3","-200","0","",""
"casino-fixation","41","227986","0.0-17.0-0.3","A1354","true","img/card_backs/set1/purple.gif","img/card_backs/set1/yellow.gif","img/card_backs/set1/green.gif","img/card_backs/set1/red.gif","img/card_backs/set2/pink.gif","img/card_backs/set2/orange.gif","img/card_backs/set2/gray.gif","img/card_backs/set2/blue.gif","""event"",""trial"",""time""
""fullscreenenter"",""1"",""2211""
","
","
","""event"",""trial"",""time""
""fullscreenenter"",""1"",""2211""
","
","","null","","null","","fixation","2021-07-31 20:56:43.197","","","","","",""
"card-selection-trial","42","230777","0.0-17.0-1.3","A1354","true","img/card_backs/set1/purple.gif","img/card_backs/set1/yellow.gif","img/card_backs/set1/green.gif","img/card_backs/set1/red.gif","img/card_backs/set2/pink.gif","img/card_backs/set2/orange.gif","img/card_backs/set2/gray.gif","img/card_backs/set2/blue.gif","""event"",""trial"",""time""
""fullscreenenter"",""1"",""2211""
","
","
","""event"",""trial"",""time""
""fullscreenenter"",""1"",""2211""
","
","","778.2999999970198","","","","practice","2021-07-31 20:56:45.988","img/practice_cards/backs/brown.gif","0","-100","0","",""
"casino-fixation","43","231288","0.0-17.0-0.4","A1354","true","img/card_backs/set1/purple.gif","img/card_backs/set1/yellow.gif","img/card_backs/set1/green.gif","img/card_backs/set1/red.gif","img/card_backs/set2/pink.gif","img/card_backs/set2/orange.gif","img/card_backs/set2/gray.gif","img/card_backs/set2/blue.gif","""event"",""trial"",""time""
""fullscreenenter"",""1"",""2211""
","
","
","""event"",""trial"",""time""
""fullscreenenter"",""1"",""2211""
","
","","null","","null","","fixation","2021-07-31 20:56:46.499","","","","","",""
"card-selection-trial","44","234889","0.0-17.0-1.4","A1354","true","img/card_backs/set1/purple.gif","img/card_backs/set1/yellow.gif","img/card_backs/set1/green.gif","img/card_backs/set1/red.gif","img/card_backs/set2/pink.gif","img/card_backs/set2/orange.gif","img/card_backs/set2/gray.gif","img/card_backs/set2/blue.gif","""event"",""trial"",""time""
""fullscreenenter"",""1"",""2211""
","
","
","""event"",""trial"",""time""
""fullscreenenter"",""1"",""2211""
","
","","1587.9000000059605","","","","practice","2021-07-31 20:56:50.101","img/practice_cards/backs/dark_green.gif","0","-200","0","",""
"casino-fixation","45","235401","0.0-17.0-0.5","A1354","true","img/card_backs/set1/purple.gif","img/card_backs/set1/yellow.gif","img/card_backs/set1/green.gif","img/card_backs/set1/red.gif","img/card_backs/set2/pink.gif","img/card_backs/set2/orange.gif","img/card_backs/set2/gray.gif","img/card_backs/set2/blue.gif","""event"",""trial"",""time""
""fullscreenenter"",""1"",""2211""
","
","
","""event"",""trial"",""time""
""fullscreenenter"",""1"",""2211""
","
","","null","","null","","fixation","2021-07-31 20:56:50.612","","","","","",""
"card-selection-trial","46","239147","0.0-17.0-1.5","A1354","true","img/card_backs/set1/purple.gif","img/card_backs/set1/yellow.gif","img/card_backs/set1/green.gif","img/card_backs/set1/red.gif","img/card_backs/set2/pink.gif","img/card_backs/set2/orange.gif","img/card_backs/set2/gray.gif","img/card_backs/set2/blue.gif","""event"",""trial"",""time""
""fullscreenenter"",""1"",""2211""
","
","
","""event"",""trial"",""time""
""fullscreenenter"",""1"",""2211""
","
","","1731.8999999910593","","","","practice","2021-07-31 20:56:54.358","img/practice_cards/backs/dark_blue.gif","2","200","0","",""
"casino-fixation","47","239658","0.0-17.0-0.6","A1354","true","img/card_backs/set1/purple.gif","img/card_backs/set1/yellow.gif","img/card_backs/set1/green.gif","img/card_backs/set1/red.gif","img/card_backs/set2/pink.gif","img/card_backs/set2/orange.gif","img/card_backs/set2/gray.gif","img/card_backs/set2/blue.gif","""event"",""trial"",""time""
""fullscreenenter"",""1"",""2211""
","
","
","""event"",""trial"",""time""
""fullscreenenter"",""1"",""2211""
","
","","null","","null","","fixation","2021-07-31 20:56:54.869","","","","","",""
"card-selection-trial","48","243433","0.0-17.0-1.6","A1354","true","img/card_backs/set1/purple.gif","img/card_backs/set1/yellow.gif","img/card_backs/set1/green.gif","img/card_backs/set1/red.gif","img/card_backs/set2/pink.gif","img/card_backs/set2/orange.gif","img/card_backs/set2/gray.gif","img/card_backs/set2/blue.gif","""event"",""trial"",""time""
""fullscreenenter"",""1"",""2211""
","
","
","""event"",""trial"",""time""
""fullscreenenter"",""1"",""2211""
","
","","1770.2000000029802","","","","practice","2021-07-31 20:56:58.644","img/practice_cards/backs/black.gif","1","-100","0","",""
"casino-fixation","49","243934","0.0-17.0-0.7","A1354","true","img/card_backs/set1/purple.gif","img/card_backs/set1/yellow.gif","img/card_backs/set1/green.gif","img/card_backs/set1/red.gif","img/card_backs/set2/pink.gif","img/card_backs/set2/orange.gif","img/card_backs/set2/gray.gif","img/card_backs/set2/blue.gif","""event"",""trial"",""time""
""fullscreenenter"",""1"",""2211""
","
","
","""event"",""trial"",""time""
""fullscreenenter"",""1"",""2211""
","
","","null","","null","","fixation","2021-07-31 20:56:59.145","","","","","",""
"card-selection-trial","50","246936","0.0-17.0-1.7","A1354","true","img/card_backs/set1/purple.gif","img/card_backs/set1/yellow.gif","img/card_backs/set1/green.gif","img/card_backs/set1/red.gif","img/card_backs/set2/pink.gif","img/card_backs/set2/orange.gif","img/card_backs/set2/gray.gif","img/card_backs/set2/blue.gif","""event"",""trial"",""time""
""fullscreenenter"",""1"",""2211""
","
","
","""event"",""trial"",""time""
""fullscreenenter"",""1"",""2211""
","
","","998.2000000029802","","","","practice","2021-07-31 20:57:02.147","img/practice_cards/backs/dark_blue.gif","3","200","0","",""
"casino-fixation","51","247437","0.0-17.0-0.8","A1354","true","img/card_backs/set1/purple.gif","img/card_backs/set1/yellow.gif","img/card_backs/set1/green.gif","img/card_backs/set1/red.gif","img/card_backs/set2/pink.gif","img/card_backs/set2/orange.gif","img/card_backs/set2/gray.gif","img/card_backs/set2/blue.gif","""event"",""trial"",""time""
""fullscreenenter"",""1"",""2211""
","
","
","""event"",""trial"",""time""
""fullscreenenter"",""1"",""2211""
","
","","null","","null","","fixation","2021-07-31 20:57:02.648","","","","","",""
"card-selection-trial","52","250985","0.0-17.0-1.8","A1354","true","img/card_backs/set1/purple.gif","img/card_backs/set1/yellow.gif","img/card_backs/set1/green.gif","img/card_backs/set1/red.gif","img/card_backs/set2/pink.gif","img/card_backs/set2/orange.gif","img/card_backs/set2/gray.gif","img/card_backs/set2/blue.gif","""event"",""trial"",""time""
""fullscreenenter"",""1"",""2211""
","
","
","""event"",""trial"",""time""
""fullscreenenter"",""1"",""2211""
","
","","1542.7000000029802","","","","practice","2021-07-31 20:57:06.196","img/practice_cards/backs/dark_blue.gif","1","-200","0","",""
"casino-fixation","53","251486","0.0-17.0-0.9","A1354","true","img/card_backs/set1/purple.gif","img/card_backs/set1/yellow.gif","img/card_backs/set1/green.gif","img/card_backs/set1/red.gif","img/card_backs/set2/pink.gif","img/card_backs/set2/orange.gif","img/card_backs/set2/gray.gif","img/card_backs/set2/blue.gif","""event"",""trial"",""time""
""fullscreenenter"",""1"",""2211""
","
","
","""event"",""trial"",""time""
""fullscreenenter"",""1"",""2211""
","
","","null","","null","","fixation","2021-07-31 20:57:06.697","","","","","",""
"card-selection-trial","54","255408","0.0-17.0-1.9","A1354","true","img/card_backs/set1/purple.gif","img/card_backs/set1/yellow.gif","img/card_backs/set1/green.gif","img/card_backs/set1/red.gif","img/card_backs/set2/pink.gif","img/card_backs/set2/orange.gif","img/card_backs/set2/gray.gif","img/card_backs/set2/blue.gif","""event"",""trial"",""time""
""fullscreenenter"",""1"",""2211""
","
","
","""event"",""trial"",""time""
""fullscreenenter"",""1"",""2211""
","
","","1917.7000000029802","","","","practice","2021-07-31 20:57:10.619","img/practice_cards/backs/brown.gif","0","100","0","",""
"casino-keyboard-response","55","257967","0.0-18.0","A1354","true","img/card_backs/set1/purple.gif","img/card_backs/set1/yellow.gif","img/card_backs/set1/green.gif","img/card_backs/set1/red.gif","img/card_backs/set2/pink.gif","img/card_backs/set2/orange.gif","img/card_backs/set2/gray.gif","img/card_backs/set2/blue.gif","""event"",""trial"",""time""
""fullscreenenter"",""1"",""2211""
","
","
","""event"",""trial"",""time""
""fullscreenenter"",""1"",""2211""
","
","","2558.1000000089407","You earned -300 tokens during the practice round!","82","","","2021-07-31 20:57:13.179","","","","","",""
"casino-keyboard-response","56","261928","0.0-19.0-0.0","A1354","true","img/card_backs/set1/purple.gif","img/card_backs/set1/yellow.gif","img/card_backs/set1/green.gif","img/card_backs/set1/red.gif","img/card_backs/set2/pink.gif","img/card_backs/set2/orange.gif","img/card_backs/set2/gray.gif","img/card_backs/set2/blue.gif","""event"",""trial"",""time""
""fullscreenenter"",""1"",""2211""
","
","
","""event"",""trial"",""time""
""fullscreenenter"",""1"",""2211""
","
","","3959.0999999940395","Nice job! You are almost ready to play the real game.","86","","instructions","2021-07-31 20:57:17.139","","","","","",""
"casino-keyboard-response","57","268663","0.0-19.0-0.1","A1354","true","img/card_backs/set1/purple.gif","img/card_backs/set1/yellow.gif","img/card_backs/set1/green.gif","img/card_backs/set1/red.gif","img/card_backs/set2/pink.gif","img/card_backs/set2/orange.gif","img/card_backs/set2/gray.gif","img/card_backs/set2/blue.gif","""event"",""trial"",""time""
""fullscreenenter"",""1"",""2211""
","
","
","""event"",""trial"",""time""
""fullscreenenter"",""1"",""2211""
","
","","6734.600000008941","You will play two rounds of the real game. In each round, you will pick 100 cards in total.","73","","instructions","2021-07-31 20:57:23.874","","","","","",""
"casino-keyboard-response","58","272576","0.0-19.0-0.2","A1354","true","img/card_backs/set1/purple.gif","img/card_backs/set1/yellow.gif","img/card_backs/set1/green.gif","img/card_backs/set1/red.gif","img/card_backs/set2/pink.gif","img/card_backs/set2/orange.gif","img/card_backs/set2/gray.gif","img/card_backs/set2/blue.gif","""event"",""trial"",""time""
""fullscreenenter"",""1"",""2211""
","
","
","""event"",""trial"",""time""
""fullscreenenter"",""1"",""2211""
","
","","3911.6000000089407","We are now going to ask you some questions about how the game works.","66","","instructions","2021-07-31 20:57:27.787","","","","","",""
"casino-keyboard-response","59","278399","0.0-19.0-0.3","A1354","true","img/card_backs/set1/purple.gif","img/card_backs/set1/yellow.gif","img/card_backs/set1/green.gif","img/card_backs/set1/red.gif","img/card_backs/set2/pink.gif","img/card_backs/set2/orange.gif","img/card_backs/set2/gray.gif","img/card_backs/set2/blue.gif","""event"",""trial"",""time""
""fullscreenenter"",""1"",""2211""
","
","
","""event"",""trial"",""time""
""fullscreenenter"",""1"",""2211""
","
","","5822.100000008941","Answer carefully. You will not be able to begin the game until you answer them correctly.","67","","instructions","2021-07-31 20:57:33.610","","","","","",""
"casino-comp_q","60","284864","0.0-20.0-0.0","A1354","true","img/card_backs/set1/purple.gif","img/card_backs/set1/yellow.gif","img/card_backs/set1/green.gif","img/card_backs/set1/red.gif","img/card_backs/set2/pink.gif","img/card_backs/set2/orange.gif","img/card_backs/set2/gray.gif","img/card_backs/set2/blue.gif","""event"",""trial"",""time""
""fullscreenenter"",""1"",""2211""
","
","
","""event"",""trial"",""time""
""fullscreenenter"",""1"",""2211""
","
","","6463.0999999940395","True or False: All the decks have some cards that cause you to win tokens and some cards that cause you to lose tokens.","84","","","2021-07-31 20:57:40.075","","","","","",""
"casino-keyboard-response","61","289639","0.0-20.0-1.0","A1354","true","img/card_backs/set1/purple.gif","img/card_backs/set1/yellow.gif","img/card_backs/set1/green.gif","img/card_backs/set1/red.gif","img/card_backs/set2/pink.gif","img/card_backs/set2/orange.gif","img/card_backs/set2/gray.gif","img/card_backs/set2/blue.gif","""event"",""trial"",""time""
""fullscreenenter"",""1"",""2211""
","
","
","""event"",""trial"",""time""
""fullscreenenter"",""1"",""2211""
","
","","4773.9000000059605","True is correct! All the decks have a mix of winning and losing cards.","77","","","2021-07-31 20:57:44.850","","","","","true",""
"casino-comp_q","62","292455","0.0-21.0-0.0","A1354","true","img/card_backs/set1/purple.gif","img/card_backs/set1/yellow.gif","img/card_backs/set1/green.gif","img/card_backs/set1/red.gif","img/card_backs/set2/pink.gif","img/card_backs/set2/orange.gif","img/card_backs/set2/gray.gif","img/card_backs/set2/blue.gif","""event"",""trial"",""time""
""fullscreenenter"",""1"",""2211""
","
","
","""event"",""trial"",""time""
""fullscreenenter"",""1"",""2211""
","
","","2814.5","True or False: You will have as much time as you want to make your response.","70","","","2021-07-31 20:57:47.666","","","","","",""
"casino-keyboard-response","63","295047","0.0-21.0-1.0","A1354","true","img/card_backs/set1/purple.gif","img/card_backs/set1/yellow.gif","img/card_backs/set1/green.gif","img/card_backs/set1/red.gif","img/card_backs/set2/pink.gif","img/card_backs/set2/orange.gif","img/card_backs/set2/gray.gif","img/card_backs/set2/blue.gif","""event"",""trial"",""time""
""fullscreenenter"",""1"",""2211""
","
","
","""event"",""trial"",""time""
""fullscreenenter"",""1"",""2211""
","
","","2589.6000000089407","False is correct! You will only have 10 seconds to make each choice.","75","","","2021-07-31 20:57:50.258","","","","","true",""
"casino-comp_q","64","297815","0.0-22.0-0.0","A1354","true","img/card_backs/set1/purple.gif","img/card_backs/set1/yellow.gif","img/card_backs/set1/green.gif","img/card_backs/set1/red.gif","img/card_backs/set2/pink.gif","img/card_backs/set2/orange.gif","img/card_backs/set2/gray.gif","img/card_backs/set2/blue.gif","""event"",""trial"",""time""
""fullscreenenter"",""1"",""2211""
","
","
","""event"",""trial"",""time""
""fullscreenenter"",""1"",""2211""
","
","","2767.1000000089407","True or False: The location of the deck determines how lucky it is.","70","","","2021-07-31 20:57:53.026","","","","","",""
"casino-keyboard-response","65","300623","0.0-22.0-1.0","A1354","true","img/card_backs/set1/purple.gif","img/card_backs/set1/yellow.gif","img/card_backs/set1/green.gif","img/card_backs/set1/red.gif","img/card_backs/set2/pink.gif","img/card_backs/set2/orange.gif","img/card_backs/set2/gray.gif","img/card_backs/set2/blue.gif","""event"",""trial"",""time""
""fullscreenenter"",""1"",""2211""
","
","
","""event"",""trial"",""time""
""fullscreenenter"",""1"",""2211""
","
","","2807.3999999910593","False is correct! The <i>color</i>  of the deck determines how lucky or unlucky it is.","68","","","2021-07-31 20:57:55.834","","","","","true",""
"casino-keyboard-response","66","304631","0.0-23.0-0.0","A1354","true","img/card_backs/set1/purple.gif","img/card_backs/set1/yellow.gif","img/card_backs/set1/green.gif","img/card_backs/set1/red.gif","img/card_backs/set2/pink.gif","img/card_backs/set2/orange.gif","img/card_backs/set2/gray.gif","img/card_backs/set2/blue.gif","""event"",""trial"",""time""
""fullscreenenter"",""1"",""2211""
","
","
","""event"",""trial"",""time""
""fullscreenenter"",""1"",""2211""
","
","","4006.5999999940395","Great job! Now it's time to start the real game.","82","","instructions","2021-07-31 20:57:59.842","","","","","",""
"casino-keyboard-response","67","309632","0.0-23.0-0.1","A1354","true","img/card_backs/set1/purple.gif","img/card_backs/set1/yellow.gif","img/card_backs/set1/green.gif","img/card_backs/set1/red.gif","img/card_backs/set2/pink.gif","img/card_backs/set2/orange.gif","img/card_backs/set2/gray.gif","img/card_backs/set2/blue.gif","""event"",""trial"",""time""
""fullscreenenter"",""1"",""2211""
","
","
","""event"",""trial"",""time""
""fullscreenenter"",""1"",""2211""
","
","","4999.70000000298","Before we start, we're going to head into a new room of the casino.","86","","instructions","2021-07-31 20:58:04.843","","","","","",""
"casino-keyboard-response","68","315447","0.0-24.0-0.0","A1354","true","img/card_backs/set1/purple.gif","img/card_backs/set1/yellow.gif","img/card_backs/set1/green.gif","img/card_backs/set1/red.gif","img/card_backs/set2/pink.gif","img/card_backs/set2/orange.gif","img/card_backs/set2/gray.gif","img/card_backs/set2/blue.gif","""event"",""trial"",""time""
""fullscreenenter"",""1"",""2211""
","
","
","""event"",""trial"",""time""
""fullscreenenter"",""1"",""2211""
","
","","5814.399999991059","Here we are! The real game will use different cards, but the rules will be the same.","71","","instructions","2021-07-31 20:58:10.658","","","","","",""
"casino-keyboard-response","69","317215","0.0-24.0-0.1","A1354","true","img/card_backs/set1/purple.gif","img/card_backs/set1/yellow.gif","img/card_backs/set1/green.gif","img/card_backs/set1/red.gif","img/card_backs/set2/pink.gif","img/card_backs/set2/orange.gif","img/card_backs/set2/gray.gif","img/card_backs/set2/blue.gif","""event"",""trial"",""time""
""fullscreenenter"",""1"",""2211""
","
","
","""event"",""trial"",""time""
""fullscreenenter"",""1"",""2211""
","
","","1766.7999999970198","Ready? Put your fingers over the '2', '4', 6', and '8' keys so you are ready to play the game. </br> Then press 2 to start.","50","","instructions","2021-07-31 20:58:12.426","","","","","",""
"casino-fixation","70","317722","0.0-25.0-0.0","A1354","true","img/card_backs/set1/purple.gif","img/card_backs/set1/yellow.gif","img/card_backs/set1/green.gif","img/card_backs/set1/red.gif","img/card_backs/set2/pink.gif","img/card_backs/set2/orange.gif","img/card_backs/set2/gray.gif","img/card_backs/set2/blue.gif","""event"",""trial"",""time""
""fullscreenenter"",""1"",""2211""
","
","
","""event"",""trial"",""time""
""fullscreenenter"",""1"",""2211""
","
","","null","","null","","fixation","2021-07-31 20:58:12.933","","","","","",""
"card-selection-trial","71","323254","0.0-25.0-1.0","A1354","true","img/card_backs/set1/purple.gif","img/card_backs/set1/yellow.gif","img/card_backs/set1/green.gif","img/card_backs/set1/red.gif","img/card_backs/set2/pink.gif","img/card_backs/set2/orange.gif","img/card_backs/set2/gray.gif","img/card_backs/set2/blue.gif","""event"",""trial"",""time""
""fullscreenenter"",""1"",""2211""
","
","
","""event"",""trial"",""time""
""fullscreenenter"",""1"",""2211""
","
","","3520.5","","","","real_trial","2021-07-31 20:58:18.465","img/card_backs/set1/red.gif","1","60","1","",""
"casino-fixation","72","323755","0.0-25.0-0.1","A1354","true","img/card_backs/set1/purple.gif","img/card_backs/set1/yellow.gif","img/card_backs/set1/green.gif","img/card_backs/set1/red.gif","img/card_backs/set2/pink.gif","img/card_backs/set2/orange.gif","img/card_backs/set2/gray.gif","img/card_backs/set2/blue.gif","""event"",""trial"",""time""
""fullscreenenter"",""1"",""2211""
","
","
","""event"",""trial"",""time""
""fullscreenenter"",""1"",""2211""
","
","","null","","null","","fixation","2021-07-31 20:58:18.966","","","","","",""
"card-selection-trial","73","326891","0.0-25.0-1.1","A1354","true","img/card_backs/set1/purple.gif","img/card_backs/set1/yellow.gif","img/card_backs/set1/green.gif","img/card_backs/set1/red.gif","img/card_backs/set2/pink.gif","img/card_backs/set2/orange.gif","img/card_backs/set2/gray.gif","img/card_backs/set2/blue.gif","""event"",""trial"",""time""
""fullscreenenter"",""1"",""2211""
","
","
","""event"",""trial"",""time""
""fullscreenenter"",""1"",""2211""
","
","","1129","","","","real_trial","2021-07-31 20:58:22.102","img/card_backs/set1/green.gif","0","40","1","",""
"casino-fixation","74","327408","0.0-25.0-0.2","A1354","true","img/card_backs/set1/purple.gif","img/card_backs/set1/yellow.gif","img/card_backs/set1/green.gif","img/card_backs/set1/red.gif","img/card_backs/set2/pink.gif","img/card_backs/set2/orange.gif","img/card_backs/set2/gray.gif","img/card_backs/set2/blue.gif","""event"",""trial"",""time""
""fullscreenenter"",""1"",""2211""
","
","
","""event"",""trial"",""time""
""fullscreenenter"",""1"",""2211""
","
","","null","","null","","fixation","2021-07-31 20:58:22.619","","","","","",""
"card-selection-trial","75","331688","0.0-25.0-1.2","A1354","true","img/card_backs/set1/purple.gif","img/card_backs/set1/yellow.gif","img/card_backs/set1/green.gif","img/card_backs/set1/red.gif","img/card_backs/set2/pink.gif","img/card_backs/set2/orange.gif","img/card_backs/set2/gray.gif","img/card_backs/set2/blue.gif","""event"",""trial"",""time""
""fullscreenenter"",""1"",""2211""
","
","
","""event"",""trial"",""time""
""fullscreenenter"",""1"",""2211""
","
","","2276.2000000029802","","","","real_trial","2021-07-31 20:58:26.899","img/card_backs/set1/yellow.gif","2","-210","1","",""
"casino-fixation","76","332198","0.0-25.0-0.3","A1354","true","img/card_backs/set1/purple.gif","img/card_backs/set1/yellow.gif","img/card_backs/set1/green.gif","img/card_backs/set1/red.gif","img/card_backs/set2/pink.gif","img/card_backs/set2/orange.gif","img/card_backs/set2/gray.gif","img/card_backs/set2/blue.gif","""event"",""trial"",""time""
""fullscreenenter"",""1"",""2211""
","
","
","""event"",""trial"",""time""
""fullscreenenter"",""1"",""2211""
","
","","null","","null","","fixation","2021-07-31 20:58:27.409","","","","","",""
"card-selection-trial","77","335505","0.0-25.0-1.3","A1354","true","img/card_backs/set1/purple.gif","img/card_backs/set1/yellow.gif","img/card_backs/set1/green.gif","img/card_backs/set1/red.gif","img/card_backs/set2/pink.gif","img/card_backs/set2/orange.gif","img/card_backs/set2/gray.gif","img/card_backs/set2/blue.gif","""event"",""trial"",""time""
""fullscreenenter"",""1"",""2211""
","
","
","""event"",""trial"",""time""
""fullscreenenter"",""1"",""2211""
","
","","1293.7999999970198","","","","real_trial","2021-07-31 20:58:30.716","img/card_backs/set1/purple.gif","2","240","1","",""
"casino-fixation","78","336018","0.0-25.0-0.4","A1354","true","img/card_backs/set1/purple.gif","img/card_backs/set1/yellow.gif","img/card_backs/set1/green.gif","img/card_backs/set1/red.gif","img/card_backs/set2/pink.gif","img/card_backs/set2/orange.gif","img/card_backs/set2/gray.gif","img/card_backs/set2/blue.gif","""event"",""trial"",""time""
""fullscreenenter"",""1"",""2211""
","
","
","""event"",""trial"",""time""
""fullscreenenter"",""1"",""2211""
","
","","null","","null","","fixation","2021-07-31 20:58:31.229","","","","","",""
"card-selection-trial","79","341121","0.0-25.0-1.4","A1354","true","img/card_backs/set1/purple.gif","img/card_backs/set1/yellow.gif","img/card_backs/set1/green.gif","img/card_backs/set1/red.gif","img/card_backs/set2/pink.gif","img/card_backs/set2/orange.gif","img/card_backs/set2/gray.gif","img/card_backs/set2/blue.gif","""event"",""trial"",""time""
""fullscreenenter"",""1"",""2211""
","
","
","""event"",""trial"",""time""
""fullscreenenter"",""1"",""2211""
","
","","3098.7000000029802","","","","real_trial","2021-07-31 20:58:36.332","img/card_backs/set1/red.gif","2","50","1","",""
"casino-fixation","80","341635","0.0-25.0-0.5","A1354","true","img/card_backs/set1/purple.gif","img/card_backs/set1/yellow.gif","img/card_backs/set1/green.gif","img/card_backs/set1/red.gif","img/card_backs/set2/pink.gif","img/card_backs/set2/orange.gif","img/card_backs/set2/gray.gif","img/card_backs/set2/blue.gif","""event"",""trial"",""time""
""fullscreenenter"",""1"",""2211""
","
","
","""event"",""trial"",""time""
""fullscreenenter"",""1"",""2211""
","
","","null","","null","","fixation","2021-07-31 20:58:36.846","","","","","",""
"card-selection-trial","81","344742","0.0-25.0-1.5","A1354","true","img/card_backs/set1/purple.gif","img/card_backs/set1/yellow.gif","img/card_backs/set1/green.gif","img/card_backs/set1/red.gif","img/card_backs/set2/pink.gif","img/card_backs/set2/orange.gif","img/card_backs/set2/gray.gif","img/card_backs/set2/blue.gif","""event"",""trial"",""time""
""fullscreenenter"",""1"",""2211""
","
","
","""event"",""trial"",""time""
""fullscreenenter"",""1"",""2211""
","
","","1088.7000000029802","","","","real_trial","2021-07-31 20:58:39.953","img/card_backs/set1/green.gif","1","50","1","",""
"casino-fixation","82","345255","0.0-25.0-0.6","A1354","true","img/card_backs/set1/purple.gif","img/card_backs/set1/yellow.gif","img/card_backs/set1/green.gif","img/card_backs/set1/red.gif","img/card_backs/set2/pink.gif","img/card_backs/set2/orange.gif","img/card_backs/set2/gray.gif","img/card_backs/set2/blue.gif","""event"",""trial"",""time""
""fullscreenenter"",""1"",""2211""
","
","
","""event"",""trial"",""time""
""fullscreenenter"",""1"",""2211""
","
","","null","","null","","fixation","2021-07-31 20:58:40.466","","","","","",""
"card-selection-trial","83","348257","0.0-25.0-1.6","A1354","true","img/card_backs/set1/purple.gif","img/card_backs/set1/yellow.gif","img/card_backs/set1/green.gif","img/card_backs/set1/red.gif","img/card_backs/set2/pink.gif","img/card_backs/set2/orange.gif","img/card_backs/set2/gray.gif","img/card_backs/set2/blue.gif","""event"",""trial"",""time""
""fullscreenenter"",""1"",""2211""
","
","
","""event"",""trial"",""time""
""fullscreenenter"",""1"",""2211""
","
","","997.2999999970198","","","","real_trial","2021-07-31 20:58:43.468","img/card_backs/set1/purple.gif","3","240","1","",""
"casino-fixation","84","348759","0.0-25.0-0.7","A1354","true","img/card_backs/set1/purple.gif","img/card_backs/set1/yellow.gif","img/card_backs/set1/green.gif","img/card_backs/set1/red.gif","img/card_backs/set2/pink.gif","img/card_backs/set2/orange.gif","img/card_backs/set2/gray.gif","img/card_backs/set2/blue.gif","""event"",""trial"",""time""
""fullscreenenter"",""1"",""2211""
","
","
","""event"",""trial"",""time""
""fullscreenenter"",""1"",""2211""
","
","","null","","null","","fixation","2021-07-31 20:58:43.970","","","","","",""
"card-selection-trial","85","352696","0.0-25.0-1.7","A1354","true","img/card_backs/set1/purple.gif","img/card_backs/set1/yellow.gif","img/card_backs/set1/green.gif","img/card_backs/set1/red.gif","img/card_backs/set2/pink.gif","img/card_backs/set2/orange.gif","img/card_backs/set2/gray.gif","img/card_backs/set2/blue.gif","""event"",""trial"",""time""
""fullscreenenter"",""1"",""2211""
","
","
","""event"",""trial"",""time""
""fullscreenenter"",""1"",""2211""
","
","","1933.2000000029802","","","","real_trial","2021-07-31 20:58:47.907","img/card_backs/set1/red.gif","3","-110","1","",""
"casino-fixation","86","353198","0.0-25.0-0.8","A1354","true","img/card_backs/set1/purple.gif","img/card_backs/set1/yellow.gif","img/card_backs/set1/green.gif","img/card_backs/set1/red.gif","img/card_backs/set2/pink.gif","img/card_backs/set2/orange.gif","img/card_backs/set2/gray.gif","img/card_backs/set2/blue.gif","""event"",""trial"",""time""
""fullscreenenter"",""1"",""2211""
","
","
","""event"",""trial"",""time""
""fullscreenenter"",""1"",""2211""
","
","","null","","null","","fixation","2021-07-31 20:58:48.409","","","","","",""
"card-selection-trial","87","355880","0.0-25.0-1.8","A1354","true","img/card_backs/set1/purple.gif","img/card_backs/set1/yellow.gif","img/card_backs/set1/green.gif","img/card_backs/set1/red.gif","img/card_backs/set2/pink.gif","img/card_backs/set2/orange.gif","img/card_backs/set2/gray.gif","img/card_backs/set2/blue.gif","""event"",""trial"",""time""
""fullscreenenter"",""1"",""2211""
","
","
","""event"",""trial"",""time""
""fullscreenenter"",""1"",""2211""
","
","","678.2000000029802","","","","real_trial","2021-07-31 20:58:51.091","img/card_backs/set1/purple.gif","0","260","1","",""
"casino-fixation","88","356382","0.0-25.0-0.9","A1354","true","img/card_backs/set1/purple.gif","img/card_backs/set1/yellow.gif","img/card_backs/set1/green.gif","img/card_backs/set1/red.gif","img/card_backs/set2/pink.gif","img/card_backs/set2/orange.gif","img/card_backs/set2/gray.gif","img/card_backs/set2/blue.gif","""event"",""trial"",""time""
""fullscreenenter"",""1"",""2211""
","
","
","""event"",""trial"",""time""
""fullscreenenter"",""1"",""2211""
","
","","null","","null","","fixation","2021-07-31 20:58:51.593","","","","","",""
"card-selection-trial","89","360073","0.0-25.0-1.9","A1354","true","img/card_backs/set1/purple.gif","img/card_backs/set1/yellow.gif","img/card_backs/set1/green.gif","img/card_backs/set1/red.gif","img/card_backs/set2/pink.gif","img/card_backs/set2/orange.gif","img/card_backs/set2/gray.gif","img/card_backs/set2/blue.gif","""event"",""trial"",""time""
""fullscreenenter"",""1"",""2211""
","
","
","""event"",""trial"",""time""
""fullscreenenter"",""1"",""2211""
","
","","1686.7000000029802","","","","real_trial","2021-07-31 20:58:55.284","img/card_backs/set1/green.gif","1","40","1","",""
"casino-fixation","90","360575","0.0-25.0-0.10","A1354","true","img/card_backs/set1/purple.gif","img/card_backs/set1/yellow.gif","img/card_backs/set1/green.gif","img/card_backs/set1/red.gif","img/card_backs/set2/pink.gif","img/card_backs/set2/orange.gif","img/card_backs/set2/gray.gif","img/card_backs/set2/blue.gif","""event"",""trial"",""time""
""fullscreenenter"",""1"",""2211""
","
","
","""event"",""trial"",""time""
""fullscreenenter"",""1"",""2211""
","
","","null","","null","","fixation","2021-07-31 20:58:55.786","","","","","",""
"card-selection-trial","91","363440","0.0-25.0-1.10","A1354","true","img/card_backs/set1/purple.gif","img/card_backs/set1/yellow.gif","img/card_backs/set1/green.gif","img/card_backs/set1/red.gif","img/card_backs/set2/pink.gif","img/card_backs/set2/orange.gif","img/card_backs/set2/gray.gif","img/card_backs/set2/blue.gif","""event"",""trial"",""time""
""fullscreenenter"",""1"",""2211""
","
","
","""event"",""trial"",""time""
""fullscreenenter"",""1"",""2211""
","
","","853.6999999880791","","","","real_trial","2021-07-31 20:58:58.651","img/card_backs/set1/purple.gif","1","-190","1","",""
"casino-fixation","92","363942","0.0-25.0-0.11","A1354","true","img/card_backs/set1/purple.gif","img/card_backs/set1/yellow.gif","img/card_backs/set1/green.gif","img/card_backs/set1/red.gif","img/card_backs/set2/pink.gif","img/card_backs/set2/orange.gif","img/card_backs/set2/gray.gif","img/card_backs/set2/blue.gif","""event"",""trial"",""time""
""fullscreenenter"",""1"",""2211""
","
","
","""event"",""trial"",""time""
""fullscreenenter"",""1"",""2211""
","
","","null","","null","","fixation","2021-07-31 20:58:59.153","","","","","",""
"card-selection-trial","93","368744","0.0-25.0-1.11","A1354","true","img/card_backs/set1/purple.gif","img/card_backs/set1/yellow.gif","img/card_backs/set1/green.gif","img/card_backs/set1/red.gif","img/card_backs/set2/pink.gif","img/card_backs/set2/orange.gif","img/card_backs/set2/gray.gif","img/card_backs/set2/blue.gif","""event"",""trial"",""time""
""fullscreenenter"",""1"",""2211""
","
","
","""event"",""trial"",""time""
""fullscreenenter"",""1"",""2211""
","
","","2798","","","","real_trial","2021-07-31 20:59:03.955","img/card_backs/set1/red.gif","3","40","1","",""
"casino-fixation","94","369246","0.0-25.0-0.12","A1354","true","img/card_backs/set1/purple.gif","img/card_backs/set1/yellow.gif","img/card_backs/set1/green.gif","img/card_backs/set1/red.gif","img/card_backs/set2/pink.gif","img/card_backs/set2/orange.gif","img/card_backs/set2/gray.gif","img/card_backs/set2/blue.gif","""event"",""trial"",""time""
""fullscreenenter"",""1"",""2211""
","
","
","""event"",""trial"",""time""
""fullscreenenter"",""1"",""2211""
","
","","null","","null","","fixation","2021-07-31 20:59:04.457","","","","","",""
"card-selection-trial","95","372321","0.0-25.0-1.12","A1354","true","img/card_backs/set1/purple.gif","img/card_backs/set1/yellow.gif","img/card_backs/set1/green.gif","img/card_backs/set1/red.gif","img/card_backs/set2/pink.gif","img/card_backs/set2/orange.gif","img/card_backs/set2/gray.gif","img/card_backs/set2/blue.gif","""event"",""trial"",""time""
""fullscreenenter"",""1"",""2211""
","
","
","""event"",""trial"",""time""
""fullscreenenter"",""1"",""2211""
","
","","1070.3999999910593","","","","real_trial","2021-07-31 20:59:07.532","img/card_backs/set1/purple.gif","2","-190","1","",""
"casino-fixation","96","372823","0.0-25.0-0.13","A1354","true","img/card_backs/set1/purple.gif","img/card_backs/set1/yellow.gif","img/card_backs/set1/green.gif","img/card_backs/set1/red.gif","img/card_backs/set2/pink.gif","img/card_backs/set2/orange.gif","img/card_backs/set2/gray.gif","img/card_backs/set2/blue.gif","""event"",""trial"",""time""
""fullscreenenter"",""1"",""2211""
","
","
","""event"",""trial"",""time""
""fullscreenenter"",""1"",""2211""
","
","","null","","null","","fixation","2021-07-31 20:59:08.034","","","","","",""
"card-selection-trial","97","375768","0.0-25.0-1.13","A1354","true","img/card_backs/set1/purple.gif","img/card_backs/set1/yellow.gif","img/card_backs/set1/green.gif","img/card_backs/set1/red.gif","img/card_backs/set2/pink.gif","img/card_backs/set2/orange.gif","img/card_backs/set2/gray.gif","img/card_backs/set2/blue.gif","""event"",""trial"",""time""
""fullscreenenter"",""1"",""2211""
","
","
","""event"",""trial"",""time""
""fullscreenenter"",""1"",""2211""
","
","","941","","","","real_trial","2021-07-31 20:59:10.979","img/card_backs/set1/green.gif","2","60","1","",""
"casino-fixation","98","376269","0.0-25.0-0.14","A1354","true","img/card_backs/set1/purple.gif","img/card_backs/set1/yellow.gif","img/card_backs/set1/green.gif","img/card_backs/set1/red.gif","img/card_backs/set2/pink.gif","img/card_backs/set2/orange.gif","img/card_backs/set2/gray.gif","img/card_backs/set2/blue.gif","""event"",""trial"",""time""
""fullscreenenter"",""1"",""2211""
","
","
","""event"",""trial"",""time""
""fullscreenenter"",""1"",""2211""
","
","","null","","null","","fixation","2021-07-31 20:59:11.480","","","","","",""
"card-selection-trial","99","380576","0.0-25.0-1.14","A1354","true","img/card_backs/set1/purple.gif","img/card_backs/set1/yellow.gif","img/card_backs/set1/green.gif","img/card_backs/set1/red.gif","img/card_backs/set2/pink.gif","img/card_backs/set2/orange.gif","img/card_backs/set2/gray.gif","img/card_backs/set2/blue.gif","""event"",""trial"",""time""
""fullscreenenter"",""1"",""2211""
","
","
","""event"",""trial"",""time""
""fullscreenenter"",""1"",""2211""
","
","","2302.5999999940395","","","","real_trial","2021-07-31 20:59:15.787","img/card_backs/set1/purple.gif","1","240","1","",""
"casino-fixation","100","381078","0.0-25.0-0.15","A1354","true","img/card_backs/set1/purple.gif","img/card_backs/set1/yellow.gif","img/card_backs/set1/green.gif","img/card_backs/set1/red.gif","img/card_backs/set2/pink.gif","img/card_backs/set2/orange.gif","img/card_backs/set2/gray.gif","img/card_backs/set2/blue.gif","""event"",""trial"",""time""
""fullscreenenter"",""1"",""2211""
","
","
","""event"",""trial"",""time""
""fullscreenenter"",""1"",""2211""
","
","","null","","null","","fixation","2021-07-31 20:59:16.289","","","","","",""
"card-selection-trial","101","384681","0.0-25.0-1.15","A1354","true","img/card_backs/set1/purple.gif","img/card_backs/set1/yellow.gif","img/card_backs/set1/green.gif","img/card_backs/set1/red.gif","img/card_backs/set2/pink.gif","img/card_backs/set2/orange.gif","img/card_backs/set2/gray.gif","img/card_backs/set2/blue.gif","""event"",""trial"",""time""
""fullscreenenter"",""1"",""2211""
","
","
","""event"",""trial"",""time""
""fullscreenenter"",""1"",""2211""
","
","","1598.4000000059605","","","","real_trial","2021-07-31 20:59:19.892","img/card_backs/set1/red.gif","2","-100","1","",""
"casino-fixation","102","385183","0.0-25.0-0.16","A1354","true","img/card_backs/set1/purple.gif","img/card_backs/set1/yellow.gif","img/card_backs/set1/green.gif","img/card_backs/set1/red.gif","img/card_backs/set2/pink.gif","img/card_backs/set2/orange.gif","img/card_backs/set2/gray.gif","img/card_backs/set2/blue.gif","""event"",""trial"",""time""
""fullscreenenter"",""1"",""2211""
","
","
","""event"",""trial"",""time""
""fullscreenenter"",""1"",""2211""
","
","","null","","null","","fixation","2021-07-31 20:59:20.394","","","","","",""
"card-selection-trial","103","388368","0.0-25.0-1.16","A1354","true","img/card_backs/set1/purple.gif","img/card_backs/set1/yellow.gif","img/card_backs/set1/green.gif","img/card_backs/set1/red.gif","img/card_backs/set2/pink.gif","img/card_backs/set2/orange.gif","img/card_backs/set2/gray.gif","img/card_backs/set2/blue.gif","""event"",""trial"",""time""
""fullscreenenter"",""1"",""2211""
","
","
","""event"",""trial"",""time""
""fullscreenenter"",""1"",""2211""
","
","","1181.5","","","","real_trial","2021-07-31 20:59:23.579","img/card_backs/set1/purple.gif","1","-200","1","",""
"casino-fixation","104","388875","0.0-25.0-0.17","A1354","true","img/card_backs/set1/purple.gif","img/card_backs/set1/yellow.gif","img/card_backs/set1/green.gif","img/card_backs/set1/red.gif","img/card_backs/set2/pink.gif","img/card_backs/set2/orange.gif","img/card_backs/set2/gray.gif","img/card_backs/set2/blue.gif","""event"",""trial"",""time""
""fullscreenenter"",""1"",""2211""
","
","
","""event"",""trial"",""time""
""fullscreenenter"",""1"",""2211""
","
","","null","","null","","fixation","2021-07-31 20:59:24.086","","","","","",""
"card-selection-trial","105","391928","0.0-25.0-1.17","A1354","true","img/card_backs/set1/purple.gif","img/card_backs/set1/yellow.gif","img/card_backs/set1/green.gif","img/card_backs/set1/red.gif","img/card_backs/set2/pink.gif","img/card_backs/set2/orange.gif","img/card_backs/set2/gray.gif","img/card_backs/set2/blue.gif","""event"",""trial"",""time""
""fullscreenenter"",""1"",""2211""
","
","
","""event"",""trial"",""time""
""fullscreenenter"",""1"",""2211""
","
","","1048.8999999910593","","","","real_trial","2021-07-31 20:59:27.139","img/card_backs/set1/green.gif","1","50","1","",""
"casino-fixation","106","392442","0.0-25.0-0.18","A1354","true","img/card_backs/set1/purple.gif","img/card_backs/set1/yellow.gif","img/card_backs/set1/green.gif","img/card_backs/set1/red.gif","img/card_backs/set2/pink.gif","img/card_backs/set2/orange.gif","img/card_backs/set2/gray.gif","img/card_backs/set2/blue.gif","""event"",""trial"",""time""
""fullscreenenter"",""1"",""2211""
","
","
","""event"",""trial"",""time""
""fullscreenenter"",""1"",""2211""
","
","","null","","null","","fixation","2021-07-31 20:59:27.653","","","","","",""
"card-selection-trial","107","396378","0.0-25.0-1.18","A1354","true","img/card_backs/set1/purple.gif","img/card_backs/set1/yellow.gif","img/card_backs/set1/green.gif","img/card_backs/set1/red.gif","img/card_backs/set2/pink.gif","img/card_backs/set2/orange.gif","img/card_backs/set2/gray.gif","img/card_backs/set2/blue.gif","""event"",""trial"",""time""
""fullscreenenter"",""1"",""2211""
","
","
","""event"",""trial"",""time""
""fullscreenenter"",""1"",""2211""
","
","","1929.8999999910593","","","","real_trial","2021-07-31 20:59:31.589","img/card_backs/set1/yellow.gif","2","260","1","",""
"casino-fixation","108","396880","0.0-25.0-0.19","A1354","true","img/card_backs/set1/purple.gif","img/card_backs/set1/yellow.gif","img/card_backs/set1/green.gif","img/card_backs/set1/red.gif","img/card_backs/set2/pink.gif","img/card_backs/set2/orange.gif","img/card_backs/set2/gray.gif","img/card_backs/set2/blue.gif","""event"",""trial"",""time""
""fullscreenenter"",""1"",""2211""
","
","
","""event"",""trial"",""time""
""fullscreenenter"",""1"",""2211""
","
","","null","","null","","fixation","2021-07-31 20:59:32.091","","","","","",""
"card-selection-trial","109","400408","0.0-25.0-1.19","A1354","true","img/card_backs/set1/purple.gif","img/card_backs/set1/yellow.gif","img/card_backs/set1/green.gif","img/card_backs/set1/red.gif","img/card_backs/set2/pink.gif","img/card_backs/set2/orange.gif","img/card_backs/set2/gray.gif","img/card_backs/set2/blue.gif","""event"",""trial"",""time""
""fullscreenenter"",""1"",""2211""
","
","
","""event"",""trial"",""time""
""fullscreenenter"",""1"",""2211""
","
","","1523.9000000059605","","","","real_trial","2021-07-31 20:59:35.619","img/card_backs/set1/red.gif","0","50","1","",""
"casino-fixation","110","400910","0.0-25.0-0.20","A1354","true","img/card_backs/set1/purple.gif","img/card_backs/set1/yellow.gif","img/card_backs/set1/green.gif","img/card_backs/set1/red.gif","img/card_backs/set2/pink.gif","img/card_backs/set2/orange.gif","img/card_backs/set2/gray.gif","img/card_backs/set2/blue.gif","""event"",""trial"",""time""
""fullscreenenter"",""1"",""2211""
","
","
","""event"",""trial"",""time""
""fullscreenenter"",""1"",""2211""
","
","","null","","null","","fixation","2021-07-31 20:59:36.121","","","","","",""
"card-selection-trial","111","405544","0.0-25.0-1.20","A1354","true","img/card_backs/set1/purple.gif","img/card_backs/set1/yellow.gif","img/card_backs/set1/green.gif","img/card_backs/set1/red.gif","img/card_backs/set2/pink.gif","img/card_backs/set2/orange.gif","img/card_backs/set2/gray.gif","img/card_backs/set2/blue.gif","""event"",""trial"",""time""
""fullscreenenter"",""1"",""2211""
","
","
","""event"",""trial"",""time""
""fullscreenenter"",""1"",""2211""
","
","","2628.5","","","","real_trial","2021-07-31 20:59:40.755","img/card_backs/set1/green.gif","1","-110","1","",""
"casino-fixation","112","406045","0.0-25.0-0.21","A1354","true","img/card_backs/set1/purple.gif","img/card_backs/set1/yellow.gif","img/card_backs/set1/green.gif","img/card_backs/set1/red.gif","img/card_backs/set2/pink.gif","img/card_backs/set2/orange.gif","img/card_backs/set2/gray.gif","img/card_backs/set2/blue.gif","""event"",""trial"",""time""
""fullscreenenter"",""1"",""2211""
","
","
","""event"",""trial"",""time""
""fullscreenenter"",""1"",""2211""
","
","","null","","null","","fixation","2021-07-31 20:59:41.256","","","","","",""
"card-selection-trial","113","408825","0.0-25.0-1.21","A1354","true","img/card_backs/set1/purple.gif","img/card_backs/set1/yellow.gif","img/card_backs/set1/green.gif","img/card_backs/set1/red.gif","img/card_backs/set2/pink.gif","img/card_backs/set2/orange.gif","img/card_backs/set2/gray.gif","img/card_backs/set2/blue.gif","""event"",""trial"",""time""
""fullscreenenter"",""1"",""2211""
","
","
","""event"",""trial"",""time""
""fullscreenenter"",""1"",""2211""
","
","","774.8999999910593","","","","real_trial","2021-07-31 20:59:44.036","img/card_backs/set1/yellow.gif","0","-200","1","",""
"casino-fixation","114","409326","0.0-25.0-0.22","A1354","true","img/card_backs/set1/purple.gif","img/card_backs/set1/yellow.gif","img/card_backs/set1/green.gif","img/card_backs/set1/red.gif","img/card_backs/set2/pink.gif","img/card_backs/set2/orange.gif","img/card_backs/set2/gray.gif","img/card_backs/set2/blue.gif","""event"",""trial"",""time""
""fullscreenenter"",""1"",""2211""
","
","
","""event"",""trial"",""time""
""fullscreenenter"",""1"",""2211""
","
","","null","","null","","fixation","2021-07-31 20:59:44.537","","","","","",""
"card-selection-trial","115","412233","0.0-25.0-1.22","A1354","true","img/card_backs/set1/purple.gif","img/card_backs/set1/yellow.gif","img/card_backs/set1/green.gif","img/card_backs/set1/red.gif","img/card_backs/set2/pink.gif","img/card_backs/set2/orange.gif","img/card_backs/set2/gray.gif","img/card_backs/set2/blue.gif","""event"",""trial"",""time""
""fullscreenenter"",""1"",""2211""
","
","
","""event"",""trial"",""time""
""fullscreenenter"",""1"",""2211""
","
","","901.9000000059605","","","","real_trial","2021-07-31 20:59:47.444","img/card_backs/set1/red.gif","2","40","1","",""
"casino-fixation","116","412734","0.0-25.0-0.23","A1354","true","img/card_backs/set1/purple.gif","img/card_backs/set1/yellow.gif","img/card_backs/set1/green.gif","img/card_backs/set1/red.gif","img/card_backs/set2/pink.gif","img/card_backs/set2/orange.gif","img/card_backs/set2/gray.gif","img/card_backs/set2/blue.gif","""event"",""trial"",""time""
""fullscreenenter"",""1"",""2211""
","
","
","""event"",""trial"",""time""
""fullscreenenter"",""1"",""2211""
","
","","null","","null","","fixation","2021-07-31 20:59:47.945","","","","","",""
"card-selection-trial","117","415648","0.0-25.0-1.23","A1354","true","img/card_backs/set1/purple.gif","img/card_backs/set1/yellow.gif","img/card_backs/set1/green.gif","img/card_backs/set1/red.gif","img/card_backs/set2/pink.gif","img/card_backs/set2/orange.gif","img/card_backs/set2/gray.gif","img/card_backs/set2/blue.gif","""event"",""trial"",""time""
""fullscreenenter"",""1"",""2211""
","
","
","""event"",""trial"",""time""
""fullscreenenter"",""1"",""2211""
","
","","909.1999999880791","","","","real_trial","2021-07-31 20:59:50.860","img/card_backs/set1/green.gif","3","50","1","",""
"casino-fixation","118","416151","0.0-25.0-0.24","A1354","true","img/card_backs/set1/purple.gif","img/card_backs/set1/yellow.gif","img/card_backs/set1/green.gif","img/card_backs/set1/red.gif","img/card_backs/set2/pink.gif","img/card_backs/set2/orange.gif","img/card_backs/set2/gray.gif","img/card_backs/set2/blue.gif","""event"",""trial"",""time""
""fullscreenenter"",""1"",""2211""
","
","
","""event"",""trial"",""time""
""fullscreenenter"",""1"",""2211""
","
","","null","","null","","fixation","2021-07-31 20:59:51.362","","","","","",""
"card-selection-trial","119","419081","0.0-25.0-1.24","A1354","true","img/card_backs/set1/purple.gif","img/card_backs/set1/yellow.gif","img/card_backs/set1/green.gif","img/card_backs/set1/red.gif","img/card_backs/set2/pink.gif","img/card_backs/set2/orange.gif","img/card_backs/set2/gray.gif","img/card_backs/set2/blue.gif","""event"",""trial"",""time""
""fullscreenenter"",""1"",""2211""
","
","
","""event"",""trial"",""time""
""fullscreenenter"",""1"",""2211""
","
","","925.5","","","","real_trial","2021-07-31 20:59:54.293","img/card_backs/set1/purple.gif","0","260","1","",""
"casino-fixation","120","419584","0.0-25.0-0.25","A1354","true","img/card_backs/set1/purple.gif","img/card_backs/set1/yellow.gif","img/card_backs/set1/green.gif","img/card_backs/set1/red.gif","img/card_backs/set2/pink.gif","img/card_backs/set2/orange.gif","img/card_backs/set2/gray.gif","img/card_backs/set2/blue.gif","""event"",""trial"",""time""
""fullscreenenter"",""1"",""2211""
","
","
","""event"",""trial"",""time""
""fullscreenenter"",""1"",""2211""
","
","","null","","null","","fixation","2021-07-31 20:59:54.795","","","","","",""
"card-selection-trial","121","423408","0.0-25.0-1.25","A1354","true","img/card_backs/set1/purple.gif","img/card_backs/set1/yellow.gif","img/card_backs/set1/green.gif","img/card_backs/set1/red.gif","img/card_backs/set2/pink.gif","img/card_backs/set2/orange.gif","img/card_backs/set2/gray.gif","img/card_backs/set2/blue.gif","""event"",""trial"",""time""
""fullscreenenter"",""1"",""2211""
","
","
","""event"",""trial"",""time""
""fullscreenenter"",""1"",""2211""
","
","","1820.2000000029802","","","","real_trial","2021-07-31 20:59:58.619","img/card_backs/set1/yellow.gif","3","-200","1","",""
"casino-fixation","122","423910","0.0-25.0-0.26","A1354","true","img/card_backs/set1/purple.gif","img/card_backs/set1/yellow.gif","img/card_backs/set1/green.gif","img/card_backs/set1/red.gif","img/card_backs/set2/pink.gif","img/card_backs/set2/orange.gif","img/card_backs/set2/gray.gif","img/card_backs/set2/blue.gif","""event"",""trial"",""time""
""fullscreenenter"",""1"",""2211""
","
","
","""event"",""trial"",""time""
""fullscreenenter"",""1"",""2211""
","
","","null","","null","","fixation","2021-07-31 20:59:59.121","","","","","",""
"card-selection-trial","123","428385","0.0-25.0-1.26","A1354","true","img/card_backs/set1/purple.gif","img/card_backs/set1/yellow.gif","img/card_backs/set1/green.gif","img/card_backs/set1/red.gif","img/card_backs/set2/pink.gif","img/card_backs/set2/orange.gif","img/card_backs/set2/gray.gif","img/card_backs/set2/blue.gif","""event"",""trial"",""time""
""fullscreenenter"",""1"",""2211""
","
","
","""event"",""trial"",""time""
""fullscreenenter"",""1"",""2211""
","
","","2469.7000000029802","","","","real_trial","2021-07-31 21:00:03.596","img/card_backs/set1/red.gif","2","-110","1","",""
"casino-fixation","124","428887","0.0-25.0-0.27","A1354","true","img/card_backs/set1/purple.gif","img/card_backs/set1/yellow.gif","img/card_backs/set1/green.gif","img/card_backs/set1/red.gif","img/card_backs/set2/pink.gif","img/card_backs/set2/orange.gif","img/card_backs/set2/gray.gif","img/card_backs/set2/blue.gif","""event"",""trial"",""time""
""fullscreenenter"",""1"",""2211""
","
","
","""event"",""trial"",""time""
""fullscreenenter"",""1"",""2211""
","
","","null","","null","","fixation","2021-07-31 21:00:04.098","","","","","",""
"card-selection-trial","125","431865","0.0-25.0-1.27","A1354","true","img/card_backs/set1/purple.gif","img/card_backs/set1/yellow.gif","img/card_backs/set1/green.gif","img/card_backs/set1/red.gif","img/card_backs/set2/pink.gif","img/card_backs/set2/orange.gif","img/card_backs/set2/gray.gif","img/card_backs/set2/blue.gif","""event"",""trial"",""time""
""fullscreenenter"",""1"",""2211""
","
","
","""event"",""trial"",""time""
""fullscreenenter"",""1"",""2211""
","
","","973.2000000029802","","","","real_trial","2021-07-31 21:00:07.076","img/card_backs/set1/green.gif","1","60","1","",""
"casino-fixation","126","432366","0.0-25.0-0.28","A1354","true","img/card_backs/set1/purple.gif","img/card_backs/set1/yellow.gif","img/card_backs/set1/green.gif","img/card_backs/set1/red.gif","img/card_backs/set2/pink.gif","img/card_backs/set2/orange.gif","img/card_backs/set2/gray.gif","img/card_backs/set2/blue.gif","""event"",""trial"",""time""
""fullscreenenter"",""1"",""2211""
","
","
","""event"",""trial"",""time""
""fullscreenenter"",""1"",""2211""
","
","","null","","null","","fixation","2021-07-31 21:00:07.577","","","","","",""
"card-selection-trial","127","436897","0.0-25.0-1.28","A1354","true","img/card_backs/set1/purple.gif","img/card_backs/set1/yellow.gif","img/card_backs/set1/green.gif","img/card_backs/set1/red.gif","img/card_backs/set2/pink.gif","img/card_backs/set2/orange.gif","img/card_backs/set2/gray.gif","img/card_backs/set2/blue.gif","""event"",""trial"",""time""
""fullscreenenter"",""1"",""2211""
","
","
","""event"",""trial"",""time""
""fullscreenenter"",""1"",""2211""
","
","","2525.7000000029802","","","","real_trial","2021-07-31 21:00:12.108","img/card_backs/set1/yellow.gif","1","250","1","",""
"casino-fixation","128","437398","0.0-25.0-0.29","A1354","true","img/card_backs/set1/purple.gif","img/card_backs/set1/yellow.gif","img/card_backs/set1/green.gif","img/card_backs/set1/red.gif","img/card_backs/set2/pink.gif","img/card_backs/set2/orange.gif","img/card_backs/set2/gray.gif","img/card_backs/set2/blue.gif","""event"",""trial"",""time""
""fullscreenenter"",""1"",""2211""
","
","
","""event"",""trial"",""time""
""fullscreenenter"",""1"",""2211""
","
","","null","","null","","fixation","2021-07-31 21:00:12.609","","","","","",""
"card-selection-trial","129","441704","0.0-25.0-1.29","A1354","true","img/card_backs/set1/purple.gif","img/card_backs/set1/yellow.gif","img/card_backs/set1/green.gif","img/card_backs/set1/red.gif","img/card_backs/set2/pink.gif","img/card_backs/set2/orange.gif","img/card_backs/set2/gray.gif","img/card_backs/set2/blue.gif","""event"",""trial"",""time""
""fullscreenenter"",""1"",""2211""
","
","
","""event"",""trial"",""time""
""fullscreenenter"",""1"",""2211""
","
","","2301.7000000029802","","","","real_trial","2021-07-31 21:00:16.915","img/card_backs/set1/green.gif","3","-90","1","",""
"casino-fixation","130","442207","0.0-25.0-0.30","A1354","true","img/card_backs/set1/purple.gif","img/card_backs/set1/yellow.gif","img/card_backs/set1/green.gif","img/card_backs/set1/red.gif","img/card_backs/set2/pink.gif","img/card_backs/set2/orange.gif","img/card_backs/set2/gray.gif","img/card_backs/set2/blue.gif","""event"",""trial"",""time""
""fullscreenenter"",""1"",""2211""
","
","
","""event"",""trial"",""time""
""fullscreenenter"",""1"",""2211""
","
","","null","","null","","fixation","2021-07-31 21:00:17.418","","","","","",""
"card-selection-trial","131","446264","0.0-25.0-1.30","A1354","true","img/card_backs/set1/purple.gif","img/card_backs/set1/yellow.gif","img/card_backs/set1/green.gif","img/card_backs/set1/red.gif","img/card_backs/set2/pink.gif","img/card_backs/set2/orange.gif","img/card_backs/set2/gray.gif","img/card_backs/set2/blue.gif","""event"",""trial"",""time""
""fullscreenenter"",""1"",""2211""
","
","
","""event"",""trial"",""time""
""fullscreenenter"",""1"",""2211""
","
","","2053.7000000029802","","","","real_trial","2021-07-31 21:00:21.475","img/card_backs/set1/yellow.gif","2","-190","1","",""
"casino-fixation","132","446767","0.0-25.0-0.31","A1354","true","img/card_backs/set1/purple.gif","img/card_backs/set1/yellow.gif","img/card_backs/set1/green.gif","img/card_backs/set1/red.gif","img/card_backs/set2/pink.gif","img/card_backs/set2/orange.gif","img/card_backs/set2/gray.gif","img/card_backs/set2/blue.gif","""event"",""trial"",""time""
""fullscreenenter"",""1"",""2211""
","
","
","""event"",""trial"",""time""
""fullscreenenter"",""1"",""2211""
","
","","null","","null","","fixation","2021-07-31 21:00:21.978","","","","","",""
"card-selection-trial","133","451088","0.0-25.0-1.31","A1354","true","img/card_backs/set1/purple.gif","img/card_backs/set1/yellow.gif","img/card_backs/set1/green.gif","img/card_backs/set1/red.gif","img/card_backs/set2/pink.gif","img/card_backs/set2/orange.gif","img/card_backs/set2/gray.gif","img/card_backs/set2/blue.gif","""event"",""trial"",""time""
""fullscreenenter"",""1"",""2211""
","
","
","""event"",""trial"",""time""
""fullscreenenter"",""1"",""2211""
","
","","2316.5","","","","real_trial","2021-07-31 21:00:26.299","img/card_backs/set1/green.gif","3","-110","1","",""
"casino-fixation","134","451590","0.0-25.0-0.32","A1354","true","img/card_backs/set1/purple.gif","img/card_backs/set1/yellow.gif","img/card_backs/set1/green.gif","img/card_backs/set1/red.gif","img/card_backs/set2/pink.gif","img/card_backs/set2/orange.gif","img/card_backs/set2/gray.gif","img/card_backs/set2/blue.gif","""event"",""trial"",""time""
""fullscreenenter"",""1"",""2211""
","
","
","""event"",""trial"",""time""
""fullscreenenter"",""1"",""2211""
","
","","null","","null","","fixation","2021-07-31 21:00:26.801","","","","","",""
"card-selection-trial","135","454776","0.0-25.0-1.32","A1354","true","img/card_backs/set1/purple.gif","img/card_backs/set1/yellow.gif","img/card_backs/set1/green.gif","img/card_backs/set1/red.gif","img/card_backs/set2/pink.gif","img/card_backs/set2/orange.gif","img/card_backs/set2/gray.gif","img/card_backs/set2/blue.gif","""event"",""trial"",""time""
""fullscreenenter"",""1"",""2211""
","
","
","""event"",""trial"",""time""
""fullscreenenter"",""1"",""2211""
","
","","1182.300000011921","","","","real_trial","2021-07-31 21:00:29.988","img/card_backs/set1/red.gif","3","60","1","",""
"casino-fixation","136","455279","0.0-25.0-0.33","A1354","true","img/card_backs/set1/purple.gif","img/card_backs/set1/yellow.gif","img/card_backs/set1/green.gif","img/card_backs/set1/red.gif","img/card_backs/set2/pink.gif","img/card_backs/set2/orange.gif","img/card_backs/set2/gray.gif","img/card_backs/set2/blue.gif","""event"",""trial"",""time""
""fullscreenenter"",""1"",""2211""
","
","
","""event"",""trial"",""time""
""fullscreenenter"",""1"",""2211""
","
","","null","","null","","fixation","2021-07-31 21:00:30.490","","","","","",""
"card-selection-trial","137","461472","0.0-25.0-1.33","A1354","true","img/card_backs/set1/purple.gif","img/card_backs/set1/yellow.gif","img/card_backs/set1/green.gif","img/card_backs/set1/red.gif","img/card_backs/set2/pink.gif","img/card_backs/set2/orange.gif","img/card_backs/set2/gray.gif","img/card_backs/set2/blue.gif","""event"",""trial"",""time""
""fullscreenenter"",""1"",""2211""
","
","
","""event"",""trial"",""time""
""fullscreenenter"",""1"",""2211""
","
","","4189.100000008941","","","","real_trial","2021-07-31 21:00:36.683","img/card_backs/set1/purple.gif","2","260","1","",""
"casino-fixation","138","461975","0.0-25.0-0.34","A1354","true","img/card_backs/set1/purple.gif","img/card_backs/set1/yellow.gif","img/card_backs/set1/green.gif","img/card_backs/set1/red.gif","img/card_backs/set2/pink.gif","img/card_backs/set2/orange.gif","img/card_backs/set2/gray.gif","img/card_backs/set2/blue.gif","""event"",""trial"",""time""
""fullscreenenter"",""1"",""2211""
","
","
","""event"",""trial"",""time""
""fullscreenenter"",""1"",""2211""
","
","","null","","null","","fixation","2021-07-31 21:00:37.186","","","","","",""
"card-selection-trial","139","467648","0.0-25.0-1.34","A1354","true","img/card_backs/set1/purple.gif","img/card_backs/set1/yellow.gif","img/card_backs/set1/green.gif","img/card_backs/set1/red.gif","img/card_backs/set2/pink.gif","img/card_backs/set2/orange.gif","img/card_backs/set2/gray.gif","img/card_backs/set2/blue.gif","""event"",""trial"",""time""
""fullscreenenter"",""1"",""2211""
","
","
","""event"",""trial"",""time""
""fullscreenenter"",""1"",""2211""
","
","","3669.2999999970198","","","","real_trial","2021-07-31 21:00:42.859","img/card_backs/set1/red.gif","3","-110","1","",""
"casino-fixation","140","468150","0.0-25.0-0.35","A1354","true","img/card_backs/set1/purple.gif","img/card_backs/set1/yellow.gif","img/card_backs/set1/green.gif","img/card_backs/set1/red.gif","img/card_backs/set2/pink.gif","img/card_backs/set2/orange.gif","img/card_backs/set2/gray.gif","img/card_backs/set2/blue.gif","""event"",""trial"",""time""
""fullscreenenter"",""1"",""2211""
","
","
","""event"",""trial"",""time""
""fullscreenenter"",""1"",""2211""
","
","","null","","null","","fixation","2021-07-31 21:00:43.361","","","","","",""
"card-selection-trial","141","471881","0.0-25.0-1.35","A1354","true","img/card_backs/set1/purple.gif","img/card_backs/set1/yellow.gif","img/card_backs/set1/green.gif","img/card_backs/set1/red.gif","img/card_backs/set2/pink.gif","img/card_backs/set2/orange.gif","img/card_backs/set2/gray.gif","img/card_backs/set2/blue.gif","""event"",""trial"",""time""
""fullscreenenter"",""1"",""2211""
","
","
","""event"",""trial"",""time""
""fullscreenenter"",""1"",""2211""
","
","","1726.0999999940395","","","","real_trial","2021-07-31 21:00:47.092","img/card_backs/set1/red.gif","1","50","1","",""
"casino-fixation","142","472382","0.0-25.0-0.36","A1354","true","img/card_backs/set1/purple.gif","img/card_backs/set1/yellow.gif","img/card_backs/set1/green.gif","img/card_backs/set1/red.gif","img/card_backs/set2/pink.gif","img/card_backs/set2/orange.gif","img/card_backs/set2/gray.gif","img/card_backs/set2/blue.gif","""event"",""trial"",""time""
""fullscreenenter"",""1"",""2211""
","
","
","""event"",""trial"",""time""
""fullscreenenter"",""1"",""2211""
","
","","null","","null","","fixation","2021-07-31 21:00:47.593","","","","","",""
"card-selection-trial","143","475320","0.0-25.0-1.36","A1354","true","img/card_backs/set1/purple.gif","img/card_backs/set1/yellow.gif","img/card_backs/set1/green.gif","img/card_backs/set1/red.gif","img/card_backs/set2/pink.gif","img/card_backs/set2/orange.gif","img/card_backs/set2/gray.gif","img/card_backs/set2/blue.gif","""event"",""trial"",""time""
""fullscreenenter"",""1"",""2211""
","
","
","""event"",""trial"",""time""
""fullscreenenter"",""1"",""2211""
","
","","933.5999999940395","","","","real_trial","2021-07-31 21:00:50.532","img/card_backs/set1/purple.gif","3","-200","1","",""
"casino-fixation","144","475822","0.0-25.0-0.37","A1354","true","img/card_backs/set1/purple.gif","img/card_backs/set1/yellow.gif","img/card_backs/set1/green.gif","img/card_backs/set1/red.gif","img/card_backs/set2/pink.gif","img/card_backs/set2/orange.gif","img/card_backs/set2/gray.gif","img/card_backs/set2/blue.gif","""event"",""trial"",""time""
""fullscreenenter"",""1"",""2211""
","
","
","""event"",""trial"",""time""
""fullscreenenter"",""1"",""2211""
","
","","null","","null","","fixation","2021-07-31 21:00:51.033","","","","","",""
"card-selection-trial","145","479576","0.0-25.0-1.37","A1354","true","img/card_backs/set1/purple.gif","img/card_backs/set1/yellow.gif","img/card_backs/set1/green.gif","img/card_backs/set1/red.gif","img/card_backs/set2/pink.gif","img/card_backs/set2/orange.gif","img/card_backs/set2/gray.gif","img/card_backs/set2/blue.gif","""event"",""trial"",""time""
""fullscreenenter"",""1"",""2211""
","
","
","""event"",""trial"",""time""
""fullscreenenter"",""1"",""2211""
","
","","1750.2000000029802","","","","real_trial","2021-07-31 21:00:54.787","img/card_backs/set1/yellow.gif","3","260","1","",""
"casino-fixation","146","480078","0.0-25.0-0.38","A1354","true","img/card_backs/set1/purple.gif","img/card_backs/set1/yellow.gif","img/card_backs/set1/green.gif","img/card_backs/set1/red.gif","img/card_backs/set2/pink.gif","img/card_backs/set2/orange.gif","img/card_backs/set2/gray.gif","img/card_backs/set2/blue.gif","""event"",""trial"",""time""
""fullscreenenter"",""1"",""2211""
","
","
","""event"",""trial"",""time""
""fullscreenenter"",""1"",""2211""
","
","","null","","null","","fixation","2021-07-31 21:00:55.289","","","","","",""
"card-selection-trial","147","484464","0.0-25.0-1.38","A1354","true","img/card_backs/set1/purple.gif","img/card_backs/set1/yellow.gif","img/card_backs/set1/green.gif","img/card_backs/set1/red.gif","img/card_backs/set2/pink.gif","img/card_backs/set2/orange.gif","img/card_backs/set2/gray.gif","img/card_backs/set2/blue.gif","""event"",""trial"",""time""
""fullscreenenter"",""1"",""2211""
","
","
","""event"",""trial"",""time""
""fullscreenenter"",""1"",""2211""
","
","","2382.2999999970198","","","","real_trial","2021-07-31 21:00:59.675","img/card_backs/set1/green.gif","2","-90","1","",""
"casino-fixation","148","484966","0.0-25.0-0.39","A1354","true","img/card_backs/set1/purple.gif","img/card_backs/set1/yellow.gif","img/card_backs/set1/green.gif","img/card_backs/set1/red.gif","img/card_backs/set2/pink.gif","img/card_backs/set2/orange.gif","img/card_backs/set2/gray.gif","img/card_backs/set2/blue.gif","""event"",""trial"",""time""
""fullscreenenter"",""1"",""2211""
","
","
","""event"",""trial"",""time""
""fullscreenenter"",""1"",""2211""
","
","","null","","null","","fixation","2021-07-31 21:01:00.177","","","","","",""
"card-selection-trial","149","488235","0.0-25.0-1.39","A1354","true","img/card_backs/set1/purple.gif","img/card_backs/set1/yellow.gif","img/card_backs/set1/green.gif","img/card_backs/set1/red.gif","img/card_backs/set2/pink.gif","img/card_backs/set2/orange.gif","img/card_backs/set2/gray.gif","img/card_backs/set2/blue.gif","""event"",""trial"",""time""
""fullscreenenter"",""1"",""2211""
","
","
","""event"",""trial"",""time""
""fullscreenenter"",""1"",""2211""
","
","","1261.3999999910593","","","","real_trial","2021-07-31 21:01:03.446","img/card_backs/set1/red.gif","3","-90","1","",""
"casino-fixation","150","488736","0.0-25.0-0.40","A1354","true","img/card_backs/set1/purple.gif","img/card_backs/set1/yellow.gif","img/card_backs/set1/green.gif","img/card_backs/set1/red.gif","img/card_backs/set2/pink.gif","img/card_backs/set2/orange.gif","img/card_backs/set2/gray.gif","img/card_backs/set2/blue.gif","""event"",""trial"",""time""
""fullscreenenter"",""1"",""2211""
","
","
","""event"",""trial"",""time""
""fullscreenenter"",""1"",""2211""
","
","","null","","null","","fixation","2021-07-31 21:01:03.948","","","","","",""
"card-selection-trial","151","492969","0.0-25.0-1.40","A1354","true","img/card_backs/set1/purple.gif","img/card_backs/set1/yellow.gif","img/card_backs/set1/green.gif","img/card_backs/set1/red.gif","img/card_backs/set2/pink.gif","img/card_backs/set2/orange.gif","img/card_backs/set2/gray.gif","img/card_backs/set2/blue.gif","""event"",""trial"",""time""
""fullscreenenter"",""1"",""2211""
","
","
","""event"",""trial"",""time""
""fullscreenenter"",""1"",""2211""
","
","","2227.5","","","","real_trial","2021-07-31 21:01:08.180","img/card_backs/set1/purple.gif","2","-210","1","",""
"casino-fixation","152","493470","0.0-25.0-0.41","A1354","true","img/card_backs/set1/purple.gif","img/card_backs/set1/yellow.gif","img/card_backs/set1/green.gif","img/card_backs/set1/red.gif","img/card_backs/set2/pink.gif","img/card_backs/set2/orange.gif","img/card_backs/set2/gray.gif","img/card_backs/set2/blue.gif","""event"",""trial"",""time""
""fullscreenenter"",""1"",""2211""
","
","
","""event"",""trial"",""time""
""fullscreenenter"",""1"",""2211""
","
","","null","","null","","fixation","2021-07-31 21:01:08.681","","","","","",""
"card-selection-trial","153","496554","0.0-25.0-1.41","A1354","true","img/card_backs/set1/purple.gif","img/card_backs/set1/yellow.gif","img/card_backs/set1/green.gif","img/card_backs/set1/red.gif","img/card_backs/set2/pink.gif","img/card_backs/set2/orange.gif","img/card_backs/set2/gray.gif","img/card_backs/set2/blue.gif","""event"",""trial"",""time""
""fullscreenenter"",""1"",""2211""
","
","
","""event"",""trial"",""time""
""fullscreenenter"",""1"",""2211""
","
","","1078.7000000029802","","","","real_trial","2021-07-31 21:01:11.765","img/card_backs/set1/green.gif","2","50","1","",""
"casino-fixation","154","497056","0.0-25.0-0.42","A1354","true","img/card_backs/set1/purple.gif","img/card_backs/set1/yellow.gif","img/card_backs/set1/green.gif","img/card_backs/set1/red.gif","img/card_backs/set2/pink.gif","img/card_backs/set2/orange.gif","img/card_backs/set2/gray.gif","img/card_backs/set2/blue.gif","""event"",""trial"",""time""
""fullscreenenter"",""1"",""2211""
","
","
","""event"",""trial"",""time""
""fullscreenenter"",""1"",""2211""
","
","","null","","null","","fixation","2021-07-31 21:01:12.267","","","","","",""
"card-selection-trial","155","500265","0.0-25.0-1.42","A1354","true","img/card_backs/set1/purple.gif","img/card_backs/set1/yellow.gif","img/card_backs/set1/green.gif","img/card_backs/set1/red.gif","img/card_backs/set2/pink.gif","img/card_backs/set2/orange.gif","img/card_backs/set2/gray.gif","img/card_backs/set2/blue.gif","""event"",""trial"",""time""
""fullscreenenter"",""1"",""2211""
","
","
","""event"",""trial"",""time""
""fullscreenenter"",""1"",""2211""
","
","","1203.5999999940395","","","","real_trial","2021-07-31 21:01:15.476","img/card_backs/set1/purple.gif","1","260","1","",""
"casino-fixation","156","500767","0.0-25.0-0.43","A1354","true","img/card_backs/set1/purple.gif","img/card_backs/set1/yellow.gif","img/card_backs/set1/green.gif","img/card_backs/set1/red.gif","img/card_backs/set2/pink.gif","img/card_backs/set2/orange.gif","img/card_backs/set2/gray.gif","img/card_backs/set2/blue.gif","""event"",""trial"",""time""
""fullscreenenter"",""1"",""2211""
","
","
","""event"",""trial"",""time""
""fullscreenenter"",""1"",""2211""
","
","","null","","null","","fixation","2021-07-31 21:01:15.978","","","","","",""
"card-selection-trial","157","503832","0.0-25.0-1.43","A1354","true","img/card_backs/set1/purple.gif","img/card_backs/set1/yellow.gif","img/card_backs/set1/green.gif","img/card_backs/set1/red.gif","img/card_backs/set2/pink.gif","img/card_backs/set2/orange.gif","img/card_backs/set2/gray.gif","img/card_backs/set2/blue.gif","""event"",""trial"",""time""
""fullscreenenter"",""1"",""2211""
","
","
","""event"",""trial"",""time""
""fullscreenenter"",""1"",""2211""
","
","","1060.7000000029802","","","","real_trial","2021-07-31 21:01:19.043","img/card_backs/set1/yellow.gif","0","-210","1","",""
"casino-fixation","158","504334","0.0-25.0-0.44","A1354","true","img/card_backs/set1/purple.gif","img/card_backs/set1/yellow.gif","img/card_backs/set1/green.gif","img/card_backs/set1/red.gif","img/card_backs/set2/pink.gif","img/card_backs/set2/orange.gif","img/card_backs/set2/gray.gif","img/card_backs/set2/blue.gif","""event"",""trial"",""time""
""fullscreenenter"",""1"",""2211""
","
","
","""event"",""trial"",""time""
""fullscreenenter"",""1"",""2211""
","
","","null","","null","","fixation","2021-07-31 21:01:19.545","","","","","",""
"card-selection-trial","159","509657","0.0-25.0-1.44","A1354","true","img/card_backs/set1/purple.gif","img/card_backs/set1/yellow.gif","img/card_backs/set1/green.gif","img/card_backs/set1/red.gif","img/card_backs/set2/pink.gif","img/card_backs/set2/orange.gif","img/card_backs/set2/gray.gif","img/card_backs/set2/blue.gif","""event"",""trial"",""time""
""fullscreenenter"",""1"",""2211""
","
","
","""event"",""trial"",""time""
""fullscreenenter"",""1"",""2211""
","
","","3318.7999999970198","","","","real_trial","2021-07-31 21:01:24.868","img/card_backs/set1/green.gif","2","60","1","",""
"casino-fixation","160","510158","0.0-25.0-0.45","A1354","true","img/card_backs/set1/purple.gif","img/card_backs/set1/yellow.gif","img/card_backs/set1/green.gif","img/card_backs/set1/red.gif","img/card_backs/set2/pink.gif","img/card_backs/set2/orange.gif","img/card_backs/set2/gray.gif","img/card_backs/set2/blue.gif","""event"",""trial"",""time""
""fullscreenenter"",""1"",""2211""
","
","
","""event"",""trial"",""time""
""fullscreenenter"",""1"",""2211""
","
","","null","","null","","fixation","2021-07-31 21:01:25.369","","","","","",""
"card-selection-trial","161","513056","0.0-25.0-1.45","A1354","true","img/card_backs/set1/purple.gif","img/card_backs/set1/yellow.gif","img/card_backs/set1/green.gif","img/card_backs/set1/red.gif","img/card_backs/set2/pink.gif","img/card_backs/set2/orange.gif","img/card_backs/set2/gray.gif","img/card_backs/set2/blue.gif","""event"",""trial"",""time""
""fullscreenenter"",""1"",""2211""
","
","
","""event"",""trial"",""time""
""fullscreenenter"",""1"",""2211""
","
","","894","","","","real_trial","2021-07-31 21:01:28.267","img/card_backs/set1/green.gif","0","-110","1","",""
"casino-fixation","162","513558","0.0-25.0-0.46","A1354","true","img/card_backs/set1/purple.gif","img/card_backs/set1/yellow.gif","img/card_backs/set1/green.gif","img/card_backs/set1/red.gif","img/card_backs/set2/pink.gif","img/card_backs/set2/orange.gif","img/card_backs/set2/gray.gif","img/card_backs/set2/blue.gif","""event"",""trial"",""time""
""fullscreenenter"",""1"",""2211""
","
","
","""event"",""trial"",""time""
""fullscreenenter"",""1"",""2211""
","
","","null","","null","","fixation","2021-07-31 21:01:28.769","","","","","",""
"card-selection-trial","163","516649","0.0-25.0-1.46","A1354","true","img/card_backs/set1/purple.gif","img/card_backs/set1/yellow.gif","img/card_backs/set1/green.gif","img/card_backs/set1/red.gif","img/card_backs/set2/pink.gif","img/card_backs/set2/orange.gif","img/card_backs/set2/gray.gif","img/card_backs/set2/blue.gif","""event"",""trial"",""time""
""fullscreenenter"",""1"",""2211""
","
","
","""event"",""trial"",""time""
""fullscreenenter"",""1"",""2211""
","
","","1086","","","","real_trial","2021-07-31 21:01:31.860","img/card_backs/set1/purple.gif","2","260","1","",""
"casino-fixation","164","517151","0.0-25.0-0.47","A1354","true","img/card_backs/set1/purple.gif","img/card_backs/set1/yellow.gif","img/card_backs/set1/green.gif","img/card_backs/set1/red.gif","img/card_backs/set2/pink.gif","img/card_backs/set2/orange.gif","img/card_backs/set2/gray.gif","img/card_backs/set2/blue.gif","""event"",""trial"",""time""
""fullscreenenter"",""1"",""2211""
","
","
","""event"",""trial"",""time""
""fullscreenenter"",""1"",""2211""
","
","","null","","null","","fixation","2021-07-31 21:01:32.362","","","","","",""
"card-selection-trial","165","520481","0.0-25.0-1.47","A1354","true","img/card_backs/set1/purple.gif","img/card_backs/set1/yellow.gif","img/card_backs/set1/green.gif","img/card_backs/set1/red.gif","img/card_backs/set2/pink.gif","img/card_backs/set2/orange.gif","img/card_backs/set2/gray.gif","img/card_backs/set2/blue.gif","""event"",""trial"",""time""
""fullscreenenter"",""1"",""2211""
","
","
","""event"",""trial"",""time""
""fullscreenenter"",""1"",""2211""
","
","","1325.8999999910593","","","","real_trial","2021-07-31 21:01:35.692","img/card_backs/set1/yellow.gif","3","240","1","",""
"casino-fixation","166","520995","0.0-25.0-0.48","A1354","true","img/card_backs/set1/purple.gif","img/card_backs/set1/yellow.gif","img/card_backs/set1/green.gif","img/card_backs/set1/red.gif","img/card_backs/set2/pink.gif","img/card_backs/set2/orange.gif","img/card_backs/set2/gray.gif","img/card_backs/set2/blue.gif","""event"",""trial"",""time""
""fullscreenenter"",""1"",""2211""
","
","
","""event"",""trial"",""time""
""fullscreenenter"",""1"",""2211""
","
","","null","","null","","fixation","2021-07-31 21:01:36.206","","","","","",""
"card-selection-trial","167","523808","0.0-25.0-1.48","A1354","true","img/card_backs/set1/purple.gif","img/card_backs/set1/yellow.gif","img/card_backs/set1/green.gif","img/card_backs/set1/red.gif","img/card_backs/set2/pink.gif","img/card_backs/set2/orange.gif","img/card_backs/set2/gray.gif","img/card_backs/set2/blue.gif","""event"",""trial"",""time""
