"trial_type","trial_index","time_elapsed","internal_node_id","sub_id","risk_good_first","block1_A","block1_B","block1_C","block1_D","block2_A","block2_B","block2_C","block2_D","interactions","blur_events","focus_events","fullscreenenter_events","fullscreenexit_events","success","rt","stimulus","key_press","button_pressed","task_part","timestamp","card_choice","choice_position","points_earned","block","correct","response"
"pavlovia","0","3","0.0-0.0","1086","false","img/card_backs/set1/yellow.gif","img/card_backs/set1/purple.gif","img/card_backs/set1/red.gif","img/card_backs/set1/green.gif","img/card_backs/set2/orange.gif","img/card_backs/set2/pink.gif","img/card_backs/set2/gray.gif","img/card_backs/set2/blue.gif","""event"",""trial"",""time""
""focus"",""0"",""0""
""fullscreenenter"",""1"",""4726""
","
","""event"",""trial"",""time""
""focus"",""0"",""0""
","""event"",""trial"",""time""
""fullscreenenter"",""1"",""4726""
","
","","","","","","","","","","","","",""
"fullscreen","1","5496","0.0-1.0","1086","false","img/card_backs/set1/yellow.gif","img/card_backs/set1/purple.gif","img/card_backs/set1/red.gif","img/card_backs/set1/green.gif","img/card_backs/set2/orange.gif","img/card_backs/set2/pink.gif","img/card_backs/set2/gray.gif","img/card_backs/set2/blue.gif","""event"",""trial"",""time""
""focus"",""0"",""0""
""fullscreenenter"",""1"",""4726""
","
","""event"",""trial"",""time""
""focus"",""0"",""0""
","""event"",""trial"",""time""
""fullscreenenter"",""1"",""4726""
","
","true","","","","","","","","","","","",""
"audio-keyboard-response","2","8328","0.0-2.0","1086","false","img/card_backs/set1/yellow.gif","img/card_backs/set1/purple.gif","img/card_backs/set1/red.gif","img/card_backs/set1/green.gif","img/card_backs/set2/orange.gif","img/card_backs/set2/pink.gif","img/card_backs/set2/gray.gif","img/card_backs/set2/blue.gif","""event"",""trial"",""time""
""focus"",""0"",""0""
""fullscreenenter"",""1"",""4726""
","
","""event"",""trial"",""time""
""focus"",""0"",""0""
","""event"",""trial"",""time""
""fullscreenenter"",""1"",""4726""
","
","","2837","audio/beep_loop.wav","32","","","","","","","","",""
"audio-button-response","3","11718","0.0-3.0","1086","false","img/card_backs/set1/yellow.gif","img/card_backs/set1/purple.gif","img/card_backs/set1/red.gif","img/card_backs/set1/green.gif","img/card_backs/set2/orange.gif","img/card_backs/set2/pink.gif","img/card_backs/set2/gray.gif","img/card_backs/set2/blue.gif","""event"",""trial"",""time""
""focus"",""0"",""0""
""fullscreenenter"",""1"",""4726""
","
","""event"",""trial"",""time""
""focus"",""0"",""0""
","""event"",""trial"",""time""
""fullscreenenter"",""1"",""4726""
","
","","NaN","audio/turtle.mp3","","3","","","","","","","",""
"audio-button-response","4","14143","0.0-4.0","1086","false","img/card_backs/set1/yellow.gif","img/card_backs/set1/purple.gif","img/card_backs/set1/red.gif","img/card_backs/set1/green.gif","img/card_backs/set2/orange.gif","img/card_backs/set2/pink.gif","img/card_backs/set2/gray.gif","img/card_backs/set2/blue.gif","""event"",""trial"",""time""
""focus"",""0"",""0""
""fullscreenenter"",""1"",""4726""
","
","""event"",""trial"",""time""
""focus"",""0"",""0""
","""event"",""trial"",""time""
""fullscreenenter"",""1"",""4726""
","
","","NaN","audio/shark.mp3","","2","","","","","","","",""
"fullscreen","5","17740","0.0-5.0","1086","false","img/card_backs/set1/yellow.gif","img/card_backs/set1/purple.gif","img/card_backs/set1/red.gif","img/card_backs/set1/green.gif","img/card_backs/set2/orange.gif","img/card_backs/set2/pink.gif","img/card_backs/set2/gray.gif","img/card_backs/set2/blue.gif","""event"",""trial"",""time""
""focus"",""0"",""0""
""fullscreenenter"",""1"",""4726""
","
","""event"",""trial"",""time""
""focus"",""0"",""0""
","""event"",""trial"",""time""
""fullscreenenter"",""1"",""4726""
","
","true","","","","","","","","","","","",""
"casino-keyboard-response","6","21659","0.0-6.0-0.0","1086","false","img/card_backs/set1/yellow.gif","img/card_backs/set1/purple.gif","img/card_backs/set1/red.gif","img/card_backs/set1/green.gif","img/card_backs/set2/orange.gif","img/card_backs/set2/pink.gif","img/card_backs/set2/gray.gif","img/card_backs/set2/blue.gif","""event"",""trial"",""time""
""focus"",""0"",""0""
""fullscreenenter"",""1"",""4726""
","
","""event"",""trial"",""time""
""focus"",""0"",""0""
","""event"",""trial"",""time""
""fullscreenenter"",""1"",""4726""
","
","","3915","Welcome to the casino!","71","","instructions","2021-08-05 14:45:17.342","","","","","",""
"casino-keyboard-response","7","31651","0.0-6.0-0.1","1086","false","img/card_backs/set1/yellow.gif","img/card_backs/set1/purple.gif","img/card_backs/set1/red.gif","img/card_backs/set1/green.gif","img/card_backs/set2/orange.gif","img/card_backs/set2/pink.gif","img/card_backs/set2/gray.gif","img/card_backs/set2/blue.gif","""event"",""trial"",""time""
""focus"",""0"",""0""
""fullscreenenter"",""1"",""4726""
","
","""event"",""trial"",""time""
""focus"",""0"",""0""
","""event"",""trial"",""time""
""fullscreenenter"",""1"",""4726""
","
","","9988","Today you will be playing a game to earn tokens. </br> At the end of the experiment, you will be paid a bonus based on how many tokens you win. ","69","","instructions","2021-08-05 14:45:27.334","","","","","",""
"casino-keyboard-response","8","43558","0.0-6.0-0.2","1086","false","img/card_backs/set1/yellow.gif","img/card_backs/set1/purple.gif","img/card_backs/set1/red.gif","img/card_backs/set1/green.gif","img/card_backs/set2/orange.gif","img/card_backs/set2/pink.gif","img/card_backs/set2/gray.gif","img/card_backs/set2/blue.gif","""event"",""trial"",""time""
""focus"",""0"",""0""
""fullscreenenter"",""1"",""4726""
","
","""event"",""trial"",""time""
""focus"",""0"",""0""
","""event"",""trial"",""time""
""fullscreenenter"",""1"",""4726""
","
","","11902","On every turn, you will be shown four different decks of cards. </br> You need to select a card from one of the four decks.  ","75","","instructions","2021-08-05 14:45:39.241","","","","","",""
"casino-keyboard-response","9","49878","0.0-6.0-0.3","1086","false","img/card_backs/set1/yellow.gif","img/card_backs/set1/purple.gif","img/card_backs/set1/red.gif","img/card_backs/set1/green.gif","img/card_backs/set2/orange.gif","img/card_backs/set2/pink.gif","img/card_backs/set2/gray.gif","img/card_backs/set2/blue.gif","""event"",""trial"",""time""
""focus"",""0"",""0""
""fullscreenenter"",""1"",""4726""
","
","""event"",""trial"",""time""
""focus"",""0"",""0""
","""event"",""trial"",""time""
""fullscreenenter"",""1"",""4726""
","
","","6316","On the next screen, you will see what the decks will look like. ","66","","instructions","2021-08-05 14:45:45.561","","","","","",""
"card-selection-trial","10","53912","0.0-7.0-0.0","1086","false","img/card_backs/set1/yellow.gif","img/card_backs/set1/purple.gif","img/card_backs/set1/red.gif","img/card_backs/set1/green.gif","img/card_backs/set2/orange.gif","img/card_backs/set2/pink.gif","img/card_backs/set2/gray.gif","img/card_backs/set2/blue.gif","""event"",""trial"",""time""
""focus"",""0"",""0""
""fullscreenenter"",""1"",""4726""
","
","""event"",""trial"",""time""
""focus"",""0"",""0""
","""event"",""trial"",""time""
""fullscreenenter"",""1"",""4726""
","
","","null","","","","practice","2021-08-05 14:45:49.596","null","null","null","0","",""
"casino-keyboard-response","11","68932","0.0-8.0-0.0","1086","false","img/card_backs/set1/yellow.gif","img/card_backs/set1/purple.gif","img/card_backs/set1/red.gif","img/card_backs/set1/green.gif","img/card_backs/set2/orange.gif","img/card_backs/set2/pink.gif","img/card_backs/set2/gray.gif","img/card_backs/set2/blue.gif","""event"",""trial"",""time""
""focus"",""0"",""0""
""fullscreenenter"",""1"",""4726""
","
","""event"",""trial"",""time""
""focus"",""0"",""0""
","""event"",""trial"",""time""
""fullscreenenter"",""1"",""4726""
","
","","15017","You should pick a card from a deck using the '2', '4', '6', and '8' keys at the top of the keyboard.","85","","instructions","2021-08-05 14:46:04.615","","","","","",""
"casino-keyboard-response","12","74945","0.0-8.0-0.1","1086","false","img/card_backs/set1/yellow.gif","img/card_backs/set1/purple.gif","img/card_backs/set1/red.gif","img/card_backs/set1/green.gif","img/card_backs/set2/orange.gif","img/card_backs/set2/pink.gif","img/card_backs/set2/gray.gif","img/card_backs/set2/blue.gif","""event"",""trial"",""time""
""focus"",""0"",""0""
""fullscreenenter"",""1"",""4726""
","
","""event"",""trial"",""time""
""focus"",""0"",""0""
","""event"",""trial"",""time""
""fullscreenenter"",""1"",""4726""
","
","","6011","Once you select a card, it will turn over and you will see how many tokens you earned.","83","","instructions","2021-08-05 14:46:10.628","","","","","",""
"casino-keyboard-response","13","91033","0.0-8.0-0.2","1086","false","img/card_backs/set1/yellow.gif","img/card_backs/set1/purple.gif","img/card_backs/set1/red.gif","img/card_backs/set1/green.gif","img/card_backs/set2/orange.gif","img/card_backs/set2/pink.gif","img/card_backs/set2/gray.gif","img/card_backs/set2/blue.gif","""event"",""trial"",""time""
""focus"",""0"",""0""
""fullscreenenter"",""1"",""4726""
","
","""event"",""trial"",""time""
""focus"",""0"",""0""
","""event"",""trial"",""time""
""fullscreenenter"",""1"",""4726""
","
","","16088","Let's try practicing that! </br> First, try to put your fingers over the '2', '4', '6', and '8' keys. </br>  You can use whatever fingers are most comfortable for you. Try to find a comfortable position now. ","50","","instructions","2021-08-05 14:46:26.716","","","","","",""
"casino-keyboard-response","14","98123","0.0-8.0-0.3","1086","false","img/card_backs/set1/yellow.gif","img/card_backs/set1/purple.gif","img/card_backs/set1/red.gif","img/card_backs/set1/green.gif","img/card_backs/set2/orange.gif","img/card_backs/set2/pink.gif","img/card_backs/set2/gray.gif","img/card_backs/set2/blue.gif","""event"",""trial"",""time""
""focus"",""0"",""0""
""fullscreenenter"",""1"",""4726""
","
","""event"",""trial"",""time""
""focus"",""0"",""0""
","""event"",""trial"",""time""
""fullscreenenter"",""1"",""4726""
","
","","7089","Okay ready? </br> On the next screen, press '2' to select the left deck. ","50","","instructions","2021-08-05 14:46:33.806","","","","","",""
"card-selection-trial","15","101168","0.0-9.0-0.0","1086","false","img/card_backs/set1/yellow.gif","img/card_backs/set1/purple.gif","img/card_backs/set1/red.gif","img/card_backs/set1/green.gif","img/card_backs/set2/orange.gif","img/card_backs/set2/pink.gif","img/card_backs/set2/gray.gif","img/card_backs/set2/blue.gif","""event"",""trial"",""time""
""focus"",""0"",""0""
""fullscreenenter"",""1"",""4726""
","
","""event"",""trial"",""time""
""focus"",""0"",""0""
","""event"",""trial"",""time""
""fullscreenenter"",""1"",""4726""
","
","","1023","","","","practice_card_selection","2021-08-05 14:46:36.852","img/practice_cards/backs/dark_blue.gif","0","-200","","",""
"casino-keyboard-response","16","108771","0.0-10.0-0.0","1086","false","img/card_backs/set1/yellow.gif","img/card_backs/set1/purple.gif","img/card_backs/set1/red.gif","img/card_backs/set1/green.gif","img/card_backs/set2/orange.gif","img/card_backs/set2/pink.gif","img/card_backs/set2/gray.gif","img/card_backs/set2/blue.gif","""event"",""trial"",""time""
""focus"",""0"",""0""
""fullscreenenter"",""1"",""4726""
","
","""event"",""trial"",""time""
""focus"",""0"",""0""
","""event"",""trial"",""time""
""fullscreenenter"",""1"",""4726""
","
","","7601","Great! Now on the next screen, try pressing '6' to select the third deck.","54","","instructions","2021-08-05 14:46:44.454","","","","","",""
"card-selection-trial","17","113424","0.0-11.0-0.0","1086","false","img/card_backs/set1/yellow.gif","img/card_backs/set1/purple.gif","img/card_backs/set1/red.gif","img/card_backs/set1/green.gif","img/card_backs/set2/orange.gif","img/card_backs/set2/pink.gif","img/card_backs/set2/gray.gif","img/card_backs/set2/blue.gif","""event"",""trial"",""time""
""focus"",""0"",""0""
""fullscreenenter"",""1"",""4726""
","
","""event"",""trial"",""time""
""focus"",""0"",""0""
","""event"",""trial"",""time""
""fullscreenenter"",""1"",""4726""
","
","","2635","","","","practice_card_selection","2021-08-05 14:46:49.108","img/practice_cards/backs/black.gif","2","100","","",""
"casino-keyboard-response","18","118095","0.0-12.0-0.0","1086","false","img/card_backs/set1/yellow.gif","img/card_backs/set1/purple.gif","img/card_backs/set1/red.gif","img/card_backs/set1/green.gif","img/card_backs/set2/orange.gif","img/card_backs/set2/pink.gif","img/card_backs/set2/gray.gif","img/card_backs/set2/blue.gif","""event"",""trial"",""time""
""focus"",""0"",""0""
""fullscreenenter"",""1"",""4726""
","
","""event"",""trial"",""time""
""focus"",""0"",""0""
","""event"",""trial"",""time""
""fullscreenenter"",""1"",""4726""
","
","","4669","Now on the next screen, try pressing '4' to select the second deck.","52","","instructions","2021-08-05 14:46:53.778","","","","","",""
"card-selection-trial","19","121079","0.0-13.0-0.0","1086","false","img/card_backs/set1/yellow.gif","img/card_backs/set1/purple.gif","img/card_backs/set1/red.gif","img/card_backs/set1/green.gif","img/card_backs/set2/orange.gif","img/card_backs/set2/pink.gif","img/card_backs/set2/gray.gif","img/card_backs/set2/blue.gif","""event"",""trial"",""time""
""focus"",""0"",""0""
""fullscreenenter"",""1"",""4726""
","
","""event"",""trial"",""time""
""focus"",""0"",""0""
","""event"",""trial"",""time""
""fullscreenenter"",""1"",""4726""
","
","","966","","","","practice_card_selection","2021-08-05 14:46:56.762","img/practice_cards/backs/brown.gif","1","100","","",""
"casino-keyboard-response","20","126017","0.0-14.0-0.0","1086","false","img/card_backs/set1/yellow.gif","img/card_backs/set1/purple.gif","img/card_backs/set1/red.gif","img/card_backs/set1/green.gif","img/card_backs/set2/orange.gif","img/card_backs/set2/pink.gif","img/card_backs/set2/gray.gif","img/card_backs/set2/blue.gif","""event"",""trial"",""time""
""focus"",""0"",""0""
""fullscreenenter"",""1"",""4726""
","
","""event"",""trial"",""time""
""focus"",""0"",""0""
","""event"",""trial"",""time""
""fullscreenenter"",""1"",""4726""
","
","","4937","Finally, try pressing '8' to select the deck all the way on the right.","56","","instructions","2021-08-05 14:47:01.701","","","","","",""
"card-selection-trial","21","128588","0.0-15.0-0.0","1086","false","img/card_backs/set1/yellow.gif","img/card_backs/set1/purple.gif","img/card_backs/set1/red.gif","img/card_backs/set1/green.gif","img/card_backs/set2/orange.gif","img/card_backs/set2/pink.gif","img/card_backs/set2/gray.gif","img/card_backs/set2/blue.gif","""event"",""trial"",""time""
""focus"",""0"",""0""
""fullscreenenter"",""1"",""4726""
","
","""event"",""trial"",""time""
""focus"",""0"",""0""
","""event"",""trial"",""time""
""fullscreenenter"",""1"",""4726""
","
","","564","","","","practice_card_selection","2021-08-05 14:47:04.272","img/practice_cards/backs/brown.gif","3","-100","","",""
"casino-keyboard-response","22","133199","0.0-16.0-0.0","1086","false","img/card_backs/set1/yellow.gif","img/card_backs/set1/purple.gif","img/card_backs/set1/red.gif","img/card_backs/set1/green.gif","img/card_backs/set2/orange.gif","img/card_backs/set2/pink.gif","img/card_backs/set2/gray.gif","img/card_backs/set2/blue.gif","""event"",""trial"",""time""
""focus"",""0"",""0""
""fullscreenenter"",""1"",""4726""
","
","""event"",""trial"",""time""
""focus"",""0"",""0""
","""event"",""trial"",""time""
""fullscreenenter"",""1"",""4726""
","
","","4609","Great! It seems like you are getting the hang of this.","80","","instructions","2021-08-05 14:47:08.882","","","","","",""
"casino-keyboard-response","23","141166","0.0-16.0-0.1","1086","false","img/card_backs/set1/yellow.gif","img/card_backs/set1/purple.gif","img/card_backs/set1/red.gif","img/card_backs/set1/green.gif","img/card_backs/set2/orange.gif","img/card_backs/set2/pink.gif","img/card_backs/set2/gray.gif","img/card_backs/set2/blue.gif","""event"",""trial"",""time""
""focus"",""0"",""0""
""fullscreenenter"",""1"",""4726""
","
","""event"",""trial"",""time""
""focus"",""0"",""0""
","""event"",""trial"",""time""
""fullscreenenter"",""1"",""4726""
","
","","7965","You may have noticed that some cards will cause you to <b> win </b> tokens while other cards will cause you to <b> lose </b>  tokens.","70","","instructions","2021-08-05 14:47:16.849","","","","","",""
"casino-keyboard-response","24","149933","0.0-16.0-0.2","1086","false","img/card_backs/set1/yellow.gif","img/card_backs/set1/purple.gif","img/card_backs/set1/red.gif","img/card_backs/set1/green.gif","img/card_backs/set2/orange.gif","img/card_backs/set2/pink.gif","img/card_backs/set2/gray.gif","img/card_backs/set2/blue.gif","""event"",""trial"",""time""
""focus"",""0"",""0""
""fullscreenenter"",""1"",""4726""
","
","""event"",""trial"",""time""
""focus"",""0"",""0""
","""event"",""trial"",""time""
""fullscreenenter"",""1"",""4726""
","
","","8768","Each deck has a mix of cards that will cause you to win and lose tokens. </br> However, the cards in each colored deck are different.","73","","instructions","2021-08-05 14:47:25.617","","","","","",""
"casino-keyboard-response","25","162164","0.0-16.0-0.3","1086","false","img/card_backs/set1/yellow.gif","img/card_backs/set1/purple.gif","img/card_backs/set1/red.gif","img/card_backs/set1/green.gif","img/card_backs/set2/orange.gif","img/card_backs/set2/pink.gif","img/card_backs/set2/gray.gif","img/card_backs/set2/blue.gif","""event"",""trial"",""time""
""focus"",""0"",""0""
""fullscreenenter"",""1"",""4726""
","
","""event"",""trial"",""time""
""focus"",""0"",""0""
","""event"",""trial"",""time""
""fullscreenenter"",""1"",""4726""
","
","","12228","Some colored decks are luckier than others. </br> If you choose the lucky decks, you will earn more tokens than if you choose the unlucky decks.","69","","instructions","2021-08-05 14:47:37.847","","","","","",""
"casino-keyboard-response","26","170586","0.0-16.0-0.4","1086","false","img/card_backs/set1/yellow.gif","img/card_backs/set1/purple.gif","img/card_backs/set1/red.gif","img/card_backs/set1/green.gif","img/card_backs/set2/orange.gif","img/card_backs/set2/pink.gif","img/card_backs/set2/gray.gif","img/card_backs/set2/blue.gif","""event"",""trial"",""time""
""focus"",""0"",""0""
""fullscreenenter"",""1"",""4726""
","
","""event"",""trial"",""time""
""focus"",""0"",""0""
","""event"",""trial"",""time""
""fullscreenenter"",""1"",""4726""
","
","","8420","You should try to figure out which decks are lucky. </br> Then, try to choose the lucky decks so you can win the most tokens.","87","","instructions","2021-08-05 14:47:46.269","","","","","",""
"casino-keyboard-response","27","183277","0.0-16.0-0.5","1086","false","img/card_backs/set1/yellow.gif","img/card_backs/set1/purple.gif","img/card_backs/set1/red.gif","img/card_backs/set1/green.gif","img/card_backs/set2/orange.gif","img/card_backs/set2/pink.gif","img/card_backs/set2/gray.gif","img/card_backs/set2/blue.gif","""event"",""trial"",""time""
""focus"",""0"",""0""
""fullscreenenter"",""1"",""4726""
","
","""event"",""trial"",""time""
""focus"",""0"",""0""
","""event"",""trial"",""time""
""fullscreenenter"",""1"",""4726""
","
","","12691","To make it trickier, the casino dealer will switch the locations of the decks on every turn. </br> The color of the deck determines how lucky it is. The location does not matter.","88","","instructions","2021-08-05 14:47:58.960","","","","","",""
"casino-keyboard-response","28","198405","0.0-16.0-0.6","1086","false","img/card_backs/set1/yellow.gif","img/card_backs/set1/purple.gif","img/card_backs/set1/red.gif","img/card_backs/set1/green.gif","img/card_backs/set2/orange.gif","img/card_backs/set2/pink.gif","img/card_backs/set2/gray.gif","img/card_backs/set2/blue.gif","""event"",""trial"",""time""
""focus"",""0"",""0""
""fullscreenenter"",""1"",""4726""
","
","""event"",""trial"",""time""
""focus"",""0"",""0""
","""event"",""trial"",""time""
""fullscreenenter"",""1"",""4726""
","
","","15127","The mix of cards in each colored deck will stay the same throughout the game. </br> That means that a deck that is lucky early on will stay lucky.","79","","instructions","2021-08-05 14:48:14.088","","","","","",""
"casino-keyboard-response","29","207249","0.0-16.0-0.7","1086","false","img/card_backs/set1/yellow.gif","img/card_backs/set1/purple.gif","img/card_backs/set1/red.gif","img/card_backs/set1/green.gif","img/card_backs/set2/orange.gif","img/card_backs/set2/pink.gif","img/card_backs/set2/gray.gif","img/card_backs/set2/blue.gif","""event"",""trial"",""time""
""focus"",""0"",""0""
""fullscreenenter"",""1"",""4726""
","
","""event"",""trial"",""time""
""focus"",""0"",""0""
","""event"",""trial"",""time""
""fullscreenenter"",""1"",""4726""
","
","","8841","Remember though, all the decks have a <b> mix </b> of both <b> good </b> and <b> bad </b> cards so it may take a couple of turns to figure out if a deck is lucky.","69","","instructions","2021-08-05 14:48:22.932","","","","","",""
"casino-keyboard-response","30","218350","0.0-16.0-0.8","1086","false","img/card_backs/set1/yellow.gif","img/card_backs/set1/purple.gif","img/card_backs/set1/red.gif","img/card_backs/set1/green.gif","img/card_backs/set2/orange.gif","img/card_backs/set2/pink.gif","img/card_backs/set2/gray.gif","img/card_backs/set2/blue.gif","""event"",""trial"",""time""
""focus"",""0"",""0""
""fullscreenenter"",""1"",""4726""
","
","""event"",""trial"",""time""
""focus"",""0"",""0""
","""event"",""trial"",""time""
""fullscreenenter"",""1"",""4726""
","
","","11100","At the end of the game, you will be paid bonus money based on how many tokens you win. </br> If you win more tokens, you will earn more money!","72","","instructions","2021-08-05 14:48:34.033","","","","","",""
"casino-keyboard-response","31","229630","0.0-16.0-0.9","1086","false","img/card_backs/set1/yellow.gif","img/card_backs/set1/purple.gif","img/card_backs/set1/red.gif","img/card_backs/set1/green.gif","img/card_backs/set2/orange.gif","img/card_backs/set2/pink.gif","img/card_backs/set2/gray.gif","img/card_backs/set2/blue.gif","""event"",""trial"",""time""
""focus"",""0"",""0""
""fullscreenenter"",""1"",""4726""
","
","""event"",""trial"",""time""
""focus"",""0"",""0""
","""event"",""trial"",""time""
""fullscreenenter"",""1"",""4726""
","
","","11279","You will never <b> lose </b> money. </br> If you end up with fewer than 0 tokens, you will earn $0 of bonus money, but you will still be paid for playing the game.","83","","instructions","2021-08-05 14:48:45.313","","","","","",""
"casino-keyboard-response","32","236266","0.0-16.0-0.10","1086","false","img/card_backs/set1/yellow.gif","img/card_backs/set1/purple.gif","img/card_backs/set1/red.gif","img/card_backs/set1/green.gif","img/card_backs/set2/orange.gif","img/card_backs/set2/pink.gif","img/card_backs/set2/gray.gif","img/card_backs/set2/blue.gif","""event"",""trial"",""time""
""focus"",""0"",""0""
""fullscreenenter"",""1"",""4726""
","
","""event"",""trial"",""time""
""focus"",""0"",""0""
","""event"",""trial"",""time""
""fullscreenenter"",""1"",""4726""
","
","","6635","You will have 10 seconds to make each choice.","82","","instructions","2021-08-05 14:48:51.949","","","","","",""
"casino-keyboard-response","33","245583","0.0-16.0-0.11","1086","false","img/card_backs/set1/yellow.gif","img/card_backs/set1/purple.gif","img/card_backs/set1/red.gif","img/card_backs/set1/green.gif","img/card_backs/set2/orange.gif","img/card_backs/set2/pink.gif","img/card_backs/set2/gray.gif","img/card_backs/set2/blue.gif","""event"",""trial"",""time""
""focus"",""0"",""0""
""fullscreenenter"",""1"",""4726""
","
","""event"",""trial"",""time""
""focus"",""0"",""0""
","""event"",""trial"",""time""
""fullscreenenter"",""1"",""4726""
","
","","9315","Before you play the game for real, you will play with practice decks. </br> The tokens you earn during practice won't count toward your total.","86","","instructions","2021-08-05 14:49:01.266","","","","","",""
"casino-keyboard-response","34","251680","0.0-16.0-0.12","1086","false","img/card_backs/set1/yellow.gif","img/card_backs/set1/purple.gif","img/card_backs/set1/red.gif","img/card_backs/set1/green.gif","img/card_backs/set2/orange.gif","img/card_backs/set2/pink.gif","img/card_backs/set2/gray.gif","img/card_backs/set2/blue.gif","""event"",""trial"",""time""
""focus"",""0"",""0""
""fullscreenenter"",""1"",""4726""
","
","""event"",""trial"",""time""
""focus"",""0"",""0""
","""event"",""trial"",""time""
""fullscreenenter"",""1"",""4726""
","
","","6096","Ready? Remember, use the '2', '4', '6', and '8' keys to select the decks. </br> Put your fingers on those keys now and then press '2' to begin.","50","","instructions","2021-08-05 14:49:07.363","","","","","",""
"casino-fixation","35","252184","0.0-17.0-0.0","1086","false","img/card_backs/set1/yellow.gif","img/card_backs/set1/purple.gif","img/card_backs/set1/red.gif","img/card_backs/set1/green.gif","img/card_backs/set2/orange.gif","img/card_backs/set2/pink.gif","img/card_backs/set2/gray.gif","img/card_backs/set2/blue.gif","""event"",""trial"",""time""
""focus"",""0"",""0""
""fullscreenenter"",""1"",""4726""
","
","""event"",""trial"",""time""
""focus"",""0"",""0""
","""event"",""trial"",""time""
""fullscreenenter"",""1"",""4726""
","
","","null","","null","","fixation","2021-08-05 14:49:07.867","","","","","",""
"card-selection-trial","36","258114","0.0-17.0-1.0","1086","false","img/card_backs/set1/yellow.gif","img/card_backs/set1/purple.gif","img/card_backs/set1/red.gif","img/card_backs/set1/green.gif","img/card_backs/set2/orange.gif","img/card_backs/set2/pink.gif","img/card_backs/set2/gray.gif","img/card_backs/set2/blue.gif","""event"",""trial"",""time""
""focus"",""0"",""0""
""fullscreenenter"",""1"",""4726""
","
","""event"",""trial"",""time""
""focus"",""0"",""0""
","""event"",""trial"",""time""
""fullscreenenter"",""1"",""4726""
","
","","3921","","","","practice","2021-08-05 14:49:13.797","img/practice_cards/backs/dark_blue.gif","2","200","0","",""
"casino-fixation","37","258626","0.0-17.0-0.1","1086","false","img/card_backs/set1/yellow.gif","img/card_backs/set1/purple.gif","img/card_backs/set1/red.gif","img/card_backs/set1/green.gif","img/card_backs/set2/orange.gif","img/card_backs/set2/pink.gif","img/card_backs/set2/gray.gif","img/card_backs/set2/blue.gif","""event"",""trial"",""time""
""focus"",""0"",""0""
""fullscreenenter"",""1"",""4726""
","
","""event"",""trial"",""time""
""focus"",""0"",""0""
","""event"",""trial"",""time""
""fullscreenenter"",""1"",""4726""
","
","","null","","null","","fixation","2021-08-05 14:49:14.309","","","","","",""
"card-selection-trial","38","262573","0.0-17.0-1.1","1086","false","img/card_backs/set1/yellow.gif","img/card_backs/set1/purple.gif","img/card_backs/set1/red.gif","img/card_backs/set1/green.gif","img/card_backs/set2/orange.gif","img/card_backs/set2/pink.gif","img/card_backs/set2/gray.gif","img/card_backs/set2/blue.gif","""event"",""trial"",""time""
""focus"",""0"",""0""
""fullscreenenter"",""1"",""4726""
","
","""event"",""trial"",""time""
""focus"",""0"",""0""
","""event"",""trial"",""time""
""fullscreenenter"",""1"",""4726""
","
","","1929","","","","practice","2021-08-05 14:49:18.256","img/practice_cards/backs/dark_green.gif","1","-200","0","",""
"casino-fixation","39","263095","0.0-17.0-0.2","1086","false","img/card_backs/set1/yellow.gif","img/card_backs/set1/purple.gif","img/card_backs/set1/red.gif","img/card_backs/set1/green.gif","img/card_backs/set2/orange.gif","img/card_backs/set2/pink.gif","img/card_backs/set2/gray.gif","img/card_backs/set2/blue.gif","""event"",""trial"",""time""
""focus"",""0"",""0""
""fullscreenenter"",""1"",""4726""
","
","""event"",""trial"",""time""
""focus"",""0"",""0""
","""event"",""trial"",""time""
""fullscreenenter"",""1"",""4726""
","
","","null","","null","","fixation","2021-08-05 14:49:18.778","","","","","",""
"card-selection-trial","40","266584","0.0-17.0-1.2","1086","false","img/card_backs/set1/yellow.gif","img/card_backs/set1/purple.gif","img/card_backs/set1/red.gif","img/card_backs/set1/green.gif","img/card_backs/set2/orange.gif","img/card_backs/set2/pink.gif","img/card_backs/set2/gray.gif","img/card_backs/set2/blue.gif","""event"",""trial"",""time""
""focus"",""0"",""0""
""fullscreenenter"",""1"",""4726""
","
","""event"",""trial"",""time""
""focus"",""0"",""0""
","""event"",""trial"",""time""
""fullscreenenter"",""1"",""4726""
","
","","1472","","","","practice","2021-08-05 14:49:22.267","img/practice_cards/backs/brown.gif","3","-100","0","",""
"casino-fixation","41","267095","0.0-17.0-0.3","1086","false","img/card_backs/set1/yellow.gif","img/card_backs/set1/purple.gif","img/card_backs/set1/red.gif","img/card_backs/set1/green.gif","img/card_backs/set2/orange.gif","img/card_backs/set2/pink.gif","img/card_backs/set2/gray.gif","img/card_backs/set2/blue.gif","""event"",""trial"",""time""
""focus"",""0"",""0""
""fullscreenenter"",""1"",""4726""
","
","""event"",""trial"",""time""
""focus"",""0"",""0""
","""event"",""trial"",""time""
""fullscreenenter"",""1"",""4726""
","
","","null","","null","","fixation","2021-08-05 14:49:22.779","","","","","",""
"card-selection-trial","42","270456","0.0-17.0-1.3","1086","false","img/card_backs/set1/yellow.gif","img/card_backs/set1/purple.gif","img/card_backs/set1/red.gif","img/card_backs/set1/green.gif","img/card_backs/set2/orange.gif","img/card_backs/set2/pink.gif","img/card_backs/set2/gray.gif","img/card_backs/set2/blue.gif","""event"",""trial"",""time""
""focus"",""0"",""0""
""fullscreenenter"",""1"",""4726""
","
","""event"",""trial"",""time""
""focus"",""0"",""0""
","""event"",""trial"",""time""
""fullscreenenter"",""1"",""4726""
","
","","1346","","","","practice","2021-08-05 14:49:26.139","img/practice_cards/backs/dark_blue.gif","0","-200","0","",""
"casino-fixation","43","270978","0.0-17.0-0.4","1086","false","img/card_backs/set1/yellow.gif","img/card_backs/set1/purple.gif","img/card_backs/set1/red.gif","img/card_backs/set1/green.gif","img/card_backs/set2/orange.gif","img/card_backs/set2/pink.gif","img/card_backs/set2/gray.gif","img/card_backs/set2/blue.gif","""event"",""trial"",""time""
""focus"",""0"",""0""
""fullscreenenter"",""1"",""4726""
","
","""event"",""trial"",""time""
""focus"",""0"",""0""
","""event"",""trial"",""time""
""fullscreenenter"",""1"",""4726""
","
","","null","","null","","fixation","2021-08-05 14:49:26.661","","","","","",""
"card-selection-trial","44","274617","0.0-17.0-1.4","1086","false","img/card_backs/set1/yellow.gif","img/card_backs/set1/purple.gif","img/card_backs/set1/red.gif","img/card_backs/set1/green.gif","img/card_backs/set2/orange.gif","img/card_backs/set2/pink.gif","img/card_backs/set2/gray.gif","img/card_backs/set2/blue.gif","""event"",""trial"",""time""
""focus"",""0"",""0""
""fullscreenenter"",""1"",""4726""
","
","""event"",""trial"",""time""
""focus"",""0"",""0""
","""event"",""trial"",""time""
""fullscreenenter"",""1"",""4726""
","
","","1622","","","","practice","2021-08-05 14:49:30.300","img/practice_cards/backs/dark_green.gif","1","-200","0","",""
"casino-fixation","45","275137","0.0-17.0-0.5","1086","false","img/card_backs/set1/yellow.gif","img/card_backs/set1/purple.gif","img/card_backs/set1/red.gif","img/card_backs/set1/green.gif","img/card_backs/set2/orange.gif","img/card_backs/set2/pink.gif","img/card_backs/set2/gray.gif","img/card_backs/set2/blue.gif","""event"",""trial"",""time""
""focus"",""0"",""0""
""fullscreenenter"",""1"",""4726""
","
","""event"",""trial"",""time""
""focus"",""0"",""0""
","""event"",""trial"",""time""
""fullscreenenter"",""1"",""4726""
","
","","null","","null","","fixation","2021-08-05 14:49:30.820","","","","","",""
"card-selection-trial","46","280056","0.0-17.0-1.5","1086","false","img/card_backs/set1/yellow.gif","img/card_backs/set1/purple.gif","img/card_backs/set1/red.gif","img/card_backs/set1/green.gif","img/card_backs/set2/orange.gif","img/card_backs/set2/pink.gif","img/card_backs/set2/gray.gif","img/card_backs/set2/blue.gif","""event"",""trial"",""time""
""focus"",""0"",""0""
""fullscreenenter"",""1"",""4726""
","
","""event"",""trial"",""time""
""focus"",""0"",""0""
","""event"",""trial"",""time""
""fullscreenenter"",""1"",""4726""
","
","","2910","","","","practice","2021-08-05 14:49:35.739","img/practice_cards/backs/brown.gif","2","-100","0","",""
"casino-fixation","47","280567","0.0-17.0-0.6","1086","false","img/card_backs/set1/yellow.gif","img/card_backs/set1/purple.gif","img/card_backs/set1/red.gif","img/card_backs/set1/green.gif","img/card_backs/set2/orange.gif","img/card_backs/set2/pink.gif","img/card_backs/set2/gray.gif","img/card_backs/set2/blue.gif","""event"",""trial"",""time""
""focus"",""0"",""0""
""fullscreenenter"",""1"",""4726""
","
","""event"",""trial"",""time""
""focus"",""0"",""0""
","""event"",""trial"",""time""
""fullscreenenter"",""1"",""4726""
","
","","null","","null","","fixation","2021-08-05 14:49:36.251","","","","","",""
"card-selection-trial","48","283458","0.0-17.0-1.6","1086","false","img/card_backs/set1/yellow.gif","img/card_backs/set1/purple.gif","img/card_backs/set1/red.gif","img/card_backs/set1/green.gif","img/card_backs/set2/orange.gif","img/card_backs/set2/pink.gif","img/card_backs/set2/gray.gif","img/card_backs/set2/blue.gif","""event"",""trial"",""time""
""focus"",""0"",""0""
""fullscreenenter"",""1"",""4726""
","
","""event"",""trial"",""time""
""focus"",""0"",""0""
","""event"",""trial"",""time""
""fullscreenenter"",""1"",""4726""
","
","","874","","","","practice","2021-08-05 14:49:39.141","img/practice_cards/backs/dark_blue.gif","2","200","0","",""
"casino-fixation","49","283981","0.0-17.0-0.7","1086","false","img/card_backs/set1/yellow.gif","img/card_backs/set1/purple.gif","img/card_backs/set1/red.gif","img/card_backs/set1/green.gif","img/card_backs/set2/orange.gif","img/card_backs/set2/pink.gif","img/card_backs/set2/gray.gif","img/card_backs/set2/blue.gif","""event"",""trial"",""time""
""focus"",""0"",""0""
""fullscreenenter"",""1"",""4726""
","
","""event"",""trial"",""time""
""focus"",""0"",""0""
","""event"",""trial"",""time""
""fullscreenenter"",""1"",""4726""
","
","","null","","null","","fixation","2021-08-05 14:49:39.664","","","","","",""
"card-selection-trial","50","293696","0.0-17.0-1.7","1086","false","img/card_backs/set1/yellow.gif","img/card_backs/set1/purple.gif","img/card_backs/set1/red.gif","img/card_backs/set1/green.gif","img/card_backs/set2/orange.gif","img/card_backs/set2/pink.gif","img/card_backs/set2/gray.gif","img/card_backs/set2/blue.gif","""event"",""trial"",""time""
""focus"",""0"",""0""
""fullscreenenter"",""1"",""4726""
","
","""event"",""trial"",""time""
""focus"",""0"",""0""
","""event"",""trial"",""time""
""fullscreenenter"",""1"",""4726""
","
","","7709","","","","practice","2021-08-05 14:49:49.379","img/practice_cards/backs/brown.gif","3","100","0","",""
"casino-fixation","51","294221","0.0-17.0-0.8","1086","false","img/card_backs/set1/yellow.gif","img/card_backs/set1/purple.gif","img/card_backs/set1/red.gif","img/card_backs/set1/green.gif","img/card_backs/set2/orange.gif","img/card_backs/set2/pink.gif","img/card_backs/set2/gray.gif","img/card_backs/set2/blue.gif","""event"",""trial"",""time""
""focus"",""0"",""0""
""fullscreenenter"",""1"",""4726""
","
","""event"",""trial"",""time""
""focus"",""0"",""0""
","""event"",""trial"",""time""
""fullscreenenter"",""1"",""4726""
","
","","null","","null","","fixation","2021-08-05 14:49:49.904","","","","","",""
"card-selection-trial","52","298659","0.0-17.0-1.8","1086","false","img/card_backs/set1/yellow.gif","img/card_backs/set1/purple.gif","img/card_backs/set1/red.gif","img/card_backs/set1/green.gif","img/card_backs/set2/orange.gif","img/card_backs/set2/pink.gif","img/card_backs/set2/gray.gif","img/card_backs/set2/blue.gif","""event"",""trial"",""time""
""focus"",""0"",""0""
""fullscreenenter"",""1"",""4726""
","
","""event"",""trial"",""time""
""focus"",""0"",""0""
","""event"",""trial"",""time""
""fullscreenenter"",""1"",""4726""
","
","","2426","","","","practice","2021-08-05 14:49:54.342","img/practice_cards/backs/brown.gif","0","100","0","",""
"casino-fixation","53","299181","0.0-17.0-0.9","1086","false","img/card_backs/set1/yellow.gif","img/card_backs/set1/purple.gif","img/card_backs/set1/red.gif","img/card_backs/set1/green.gif","img/card_backs/set2/orange.gif","img/card_backs/set2/pink.gif","img/card_backs/set2/gray.gif","img/card_backs/set2/blue.gif","""event"",""trial"",""time""
""focus"",""0"",""0""
""fullscreenenter"",""1"",""4726""
","
","""event"",""trial"",""time""
""focus"",""0"",""0""
","""event"",""trial"",""time""
""fullscreenenter"",""1"",""4726""
","
","","null","","null","","fixation","2021-08-05 14:49:54.864","","","","","",""
"card-selection-trial","54","304088","0.0-17.0-1.9","1086","false","img/card_backs/set1/yellow.gif","img/card_backs/set1/purple.gif","img/card_backs/set1/red.gif","img/card_backs/set1/green.gif","img/card_backs/set2/orange.gif","img/card_backs/set2/pink.gif","img/card_backs/set2/gray.gif","img/card_backs/set2/blue.gif","""event"",""trial"",""time""
""focus"",""0"",""0""
""fullscreenenter"",""1"",""4726""
","
","""event"",""trial"",""time""
""focus"",""0"",""0""
","""event"",""trial"",""time""
""fullscreenenter"",""1"",""4726""
","
","","2882","","","","practice","2021-08-05 14:49:59.771","img/practice_cards/backs/brown.gif","2","100","0","",""
"casino-keyboard-response","55","312238","0.0-18.0","1086","false","img/card_backs/set1/yellow.gif","img/card_backs/set1/purple.gif","img/card_backs/set1/red.gif","img/card_backs/set1/green.gif","img/card_backs/set2/orange.gif","img/card_backs/set2/pink.gif","img/card_backs/set2/gray.gif","img/card_backs/set2/blue.gif","""event"",""trial"",""time""
""focus"",""0"",""0""
""fullscreenenter"",""1"",""4726""
","
","""event"",""trial"",""time""
""focus"",""0"",""0""
","""event"",""trial"",""time""
""fullscreenenter"",""1"",""4726""
","
","","8150","You earned -100 tokens during the practice round!","82","","","2021-08-05 14:50:07.921","","","","","",""
"casino-keyboard-response","56","317785","0.0-19.0-0.0","1086","false","img/card_backs/set1/yellow.gif","img/card_backs/set1/purple.gif","img/card_backs/set1/red.gif","img/card_backs/set1/green.gif","img/card_backs/set2/orange.gif","img/card_backs/set2/pink.gif","img/card_backs/set2/gray.gif","img/card_backs/set2/blue.gif","""event"",""trial"",""time""
""focus"",""0"",""0""
""fullscreenenter"",""1"",""4726""
","
","""event"",""trial"",""time""
""focus"",""0"",""0""
","""event"",""trial"",""time""
""fullscreenenter"",""1"",""4726""
","
","","5544","Nice job! You are almost ready to play the real game.","86","","instructions","2021-08-05 14:50:13.468","","","","","",""
"casino-keyboard-response","57","327058","0.0-19.0-0.1","1086","false","img/card_backs/set1/yellow.gif","img/card_backs/set1/purple.gif","img/card_backs/set1/red.gif","img/card_backs/set1/green.gif","img/card_backs/set2/orange.gif","img/card_backs/set2/pink.gif","img/card_backs/set2/gray.gif","img/card_backs/set2/blue.gif","""event"",""trial"",""time""
""focus"",""0"",""0""
""fullscreenenter"",""1"",""4726""
","
","""event"",""trial"",""time""
""focus"",""0"",""0""
","""event"",""trial"",""time""
""fullscreenenter"",""1"",""4726""
","
","","9273","You will play two rounds of the real game. In each round, you will pick 100 cards in total.","73","","instructions","2021-08-05 14:50:22.741","","","","","",""
"casino-keyboard-response","58","332188","0.0-19.0-0.2","1086","false","img/card_backs/set1/yellow.gif","img/card_backs/set1/purple.gif","img/card_backs/set1/red.gif","img/card_backs/set1/green.gif","img/card_backs/set2/orange.gif","img/card_backs/set2/pink.gif","img/card_backs/set2/gray.gif","img/card_backs/set2/blue.gif","""event"",""trial"",""time""
""focus"",""0"",""0""
""fullscreenenter"",""1"",""4726""
","
","""event"",""trial"",""time""
""focus"",""0"",""0""
","""event"",""trial"",""time""
""fullscreenenter"",""1"",""4726""
","
","","5128","We are now going to ask you some questions about how the game works.","66","","instructions","2021-08-05 14:50:27.871","","","","","",""
"casino-keyboard-response","59","338413","0.0-19.0-0.3","1086","false","img/card_backs/set1/yellow.gif","img/card_backs/set1/purple.gif","img/card_backs/set1/red.gif","img/card_backs/set1/green.gif","img/card_backs/set2/orange.gif","img/card_backs/set2/pink.gif","img/card_backs/set2/gray.gif","img/card_backs/set2/blue.gif","""event"",""trial"",""time""
""focus"",""0"",""0""
""fullscreenenter"",""1"",""4726""
","
","""event"",""trial"",""time""
""focus"",""0"",""0""
","""event"",""trial"",""time""
""fullscreenenter"",""1"",""4726""
","
","","6225","Answer carefully. You will not be able to begin the game until you answer them correctly.","67","","instructions","2021-08-05 14:50:34.096","","","","","",""
"casino-comp_q","60","348390","0.0-20.0-0.0","1086","false","img/card_backs/set1/yellow.gif","img/card_backs/set1/purple.gif","img/card_backs/set1/red.gif","img/card_backs/set1/green.gif","img/card_backs/set2/orange.gif","img/card_backs/set2/pink.gif","img/card_backs/set2/gray.gif","img/card_backs/set2/blue.gif","""event"",""trial"",""time""
""focus"",""0"",""0""
""fullscreenenter"",""1"",""4726""
","
","""event"",""trial"",""time""
""focus"",""0"",""0""
","""event"",""trial"",""time""
""fullscreenenter"",""1"",""4726""
","
","","9976","True or False: All the decks have some cards that cause you to win tokens and some cards that cause you to lose tokens.","84","","","2021-08-05 14:50:44.073","","","","","",""
"casino-keyboard-response","61","353133","0.0-20.0-1.0","1086","false","img/card_backs/set1/yellow.gif","img/card_backs/set1/purple.gif","img/card_backs/set1/red.gif","img/card_backs/set1/green.gif","img/card_backs/set2/orange.gif","img/card_backs/set2/pink.gif","img/card_backs/set2/gray.gif","img/card_backs/set2/blue.gif","""event"",""trial"",""time""
""focus"",""0"",""0""
""fullscreenenter"",""1"",""4726""
","
","""event"",""trial"",""time""
""focus"",""0"",""0""
","""event"",""trial"",""time""
""fullscreenenter"",""1"",""4726""
","
","","4741","True is correct! All the decks have a mix of winning and losing cards.","77","","","2021-08-05 14:50:48.816","","","","","true",""
"casino-comp_q","62","358531","0.0-21.0-0.0","1086","false","img/card_backs/set1/yellow.gif","img/card_backs/set1/purple.gif","img/card_backs/set1/red.gif","img/card_backs/set1/green.gif","img/card_backs/set2/orange.gif","img/card_backs/set2/pink.gif","img/card_backs/set2/gray.gif","img/card_backs/set2/blue.gif","""event"",""trial"",""time""
""focus"",""0"",""0""
""fullscreenenter"",""1"",""4726""
","
","""event"",""trial"",""time""
""focus"",""0"",""0""
","""event"",""trial"",""time""
""fullscreenenter"",""1"",""4726""
","
","","5396","True or False: You will have as much time as you want to make your response.","70","","","2021-08-05 14:50:54.214","","","","","",""
"casino-keyboard-response","63","364128","0.0-21.0-1.0","1086","false","img/card_backs/set1/yellow.gif","img/card_backs/set1/purple.gif","img/card_backs/set1/red.gif","img/card_backs/set1/green.gif","img/card_backs/set2/orange.gif","img/card_backs/set2/pink.gif","img/card_backs/set2/gray.gif","img/card_backs/set2/blue.gif","""event"",""trial"",""time""
""focus"",""0"",""0""
""fullscreenenter"",""1"",""4726""
","
","""event"",""trial"",""time""
""focus"",""0"",""0""
","""event"",""trial"",""time""
""fullscreenenter"",""1"",""4726""
","
","","5596","False is correct! You will only have 10 seconds to make each choice.","75","","","2021-08-05 14:50:59.812","","","","","true",""
"casino-comp_q","64","369331","0.0-22.0-0.0","1086","false","img/card_backs/set1/yellow.gif","img/card_backs/set1/purple.gif","img/card_backs/set1/red.gif","img/card_backs/set1/green.gif","img/card_backs/set2/orange.gif","img/card_backs/set2/pink.gif","img/card_backs/set2/gray.gif","img/card_backs/set2/blue.gif","""event"",""trial"",""time""
""focus"",""0"",""0""
""fullscreenenter"",""1"",""4726""
","
","""event"",""trial"",""time""
""focus"",""0"",""0""
","""event"",""trial"",""time""
""fullscreenenter"",""1"",""4726""
","
","","5201","True or False: The location of the deck determines how lucky it is.","70","","","2021-08-05 14:51:05.014","","","","","",""
"casino-keyboard-response","65","375511","0.0-22.0-1.0","1086","false","img/card_backs/set1/yellow.gif","img/card_backs/set1/purple.gif","img/card_backs/set1/red.gif","img/card_backs/set1/green.gif","img/card_backs/set2/orange.gif","img/card_backs/set2/pink.gif","img/card_backs/set2/gray.gif","img/card_backs/set2/blue.gif","""event"",""trial"",""time""
""focus"",""0"",""0""
""fullscreenenter"",""1"",""4726""
","
","""event"",""trial"",""time""
""focus"",""0"",""0""
","""event"",""trial"",""time""
""fullscreenenter"",""1"",""4726""
","
","","6178","False is correct! The <i>color</i>  of the deck determines how lucky or unlucky it is.","68","","","2021-08-05 14:51:11.194","","","","","true",""
"casino-keyboard-response","66","382115","0.0-23.0-0.0","1086","false","img/card_backs/set1/yellow.gif","img/card_backs/set1/purple.gif","img/card_backs/set1/red.gif","img/card_backs/set1/green.gif","img/card_backs/set2/orange.gif","img/card_backs/set2/pink.gif","img/card_backs/set2/gray.gif","img/card_backs/set2/blue.gif","""event"",""trial"",""time""
""focus"",""0"",""0""
""fullscreenenter"",""1"",""4726""
","
","""event"",""trial"",""time""
""focus"",""0"",""0""
","""event"",""trial"",""time""
""fullscreenenter"",""1"",""4726""
","
","","6603","Great job! Now it's time to start the real game.","82","","instructions","2021-08-05 14:51:17.798","","","","","",""
"casino-keyboard-response","67","387806","0.0-23.0-0.1","1086","false","img/card_backs/set1/yellow.gif","img/card_backs/set1/purple.gif","img/card_backs/set1/red.gif","img/card_backs/set1/green.gif","img/card_backs/set2/orange.gif","img/card_backs/set2/pink.gif","img/card_backs/set2/gray.gif","img/card_backs/set2/blue.gif","""event"",""trial"",""time""
""focus"",""0"",""0""
""fullscreenenter"",""1"",""4726""
","
","""event"",""trial"",""time""
""focus"",""0"",""0""
","""event"",""trial"",""time""
""fullscreenenter"",""1"",""4726""
","
","","5689","Before we start, we're going to head into a new room of the casino.","86","","instructions","2021-08-05 14:51:23.489","","","","","",""
"casino-keyboard-response","68","396570","0.0-24.0-0.0","1086","false","img/card_backs/set1/yellow.gif","img/card_backs/set1/purple.gif","img/card_backs/set1/red.gif","img/card_backs/set1/green.gif","img/card_backs/set2/orange.gif","img/card_backs/set2/pink.gif","img/card_backs/set2/gray.gif","img/card_backs/set2/blue.gif","""event"",""trial"",""time""
""focus"",""0"",""0""
""fullscreenenter"",""1"",""4726""
","
","""event"",""trial"",""time""
""focus"",""0"",""0""
","""event"",""trial"",""time""
""fullscreenenter"",""1"",""4726""
","
","","8763","Here we are! The real game will use different cards, but the rules will be the same.","71","","instructions","2021-08-05 14:51:32.253","","","","","",""
"casino-keyboard-response","69","414217","0.0-24.0-0.1","1086","false","img/card_backs/set1/yellow.gif","img/card_backs/set1/purple.gif","img/card_backs/set1/red.gif","img/card_backs/set1/green.gif","img/card_backs/set2/orange.gif","img/card_backs/set2/pink.gif","img/card_backs/set2/gray.gif","img/card_backs/set2/blue.gif","""event"",""trial"",""time""
""focus"",""0"",""0""
""fullscreenenter"",""1"",""4726""
","
","""event"",""trial"",""time""
""focus"",""0"",""0""
","""event"",""trial"",""time""
""fullscreenenter"",""1"",""4726""
","
","","17646","Ready? Put your fingers over the '2', '4', 6', and '8' keys so you are ready to play the game. </br> Then press 2 to start.","50","","instructions","2021-08-05 14:51:49.900","","","","","",""
"casino-fixation","70","414721","0.0-25.0-0.0","1086","false","img/card_backs/set1/yellow.gif","img/card_backs/set1/purple.gif","img/card_backs/set1/red.gif","img/card_backs/set1/green.gif","img/card_backs/set2/orange.gif","img/card_backs/set2/pink.gif","img/card_backs/set2/gray.gif","img/card_backs/set2/blue.gif","""event"",""trial"",""time""
""focus"",""0"",""0""
""fullscreenenter"",""1"",""4726""
","
","""event"",""trial"",""time""
""focus"",""0"",""0""
","""event"",""trial"",""time""
""fullscreenenter"",""1"",""4726""
","
","","null","","null","","fixation","2021-08-05 14:51:50.404","","","","","",""
"card-selection-trial","71","418203","0.0-25.0-1.0","1086","false","img/card_backs/set1/yellow.gif","img/card_backs/set1/purple.gif","img/card_backs/set1/red.gif","img/card_backs/set1/green.gif","img/card_backs/set2/orange.gif","img/card_backs/set2/pink.gif","img/card_backs/set2/gray.gif","img/card_backs/set2/blue.gif","""event"",""trial"",""time""
""focus"",""0"",""0""
""fullscreenenter"",""1"",""4726""
","
","""event"",""trial"",""time""
""focus"",""0"",""0""
","""event"",""trial"",""time""
""fullscreenenter"",""1"",""4726""
","
","","1475","","","","real_trial","2021-08-05 14:51:53.886","img/card_backs/set1/green.gif","2","100","1","",""
"casino-fixation","72","418720","0.0-25.0-0.1","1086","false","img/card_backs/set1/yellow.gif","img/card_backs/set1/purple.gif","img/card_backs/set1/red.gif","img/card_backs/set1/green.gif","img/card_backs/set2/orange.gif","img/card_backs/set2/pink.gif","img/card_backs/set2/gray.gif","img/card_backs/set2/blue.gif","""event"",""trial"",""time""
""focus"",""0"",""0""
""fullscreenenter"",""1"",""4726""
","
","""event"",""trial"",""time""
""focus"",""0"",""0""
","""event"",""trial"",""time""
""fullscreenenter"",""1"",""4726""
","
","","null","","null","","fixation","2021-08-05 14:51:54.404","","","","","",""
"card-selection-trial","73","421548","0.0-25.0-1.1","1086","false","img/card_backs/set1/yellow.gif","img/card_backs/set1/purple.gif","img/card_backs/set1/red.gif","img/card_backs/set1/green.gif","img/card_backs/set2/orange.gif","img/card_backs/set2/pink.gif","img/card_backs/set2/gray.gif","img/card_backs/set2/blue.gif","""event"",""trial"",""time""
""focus"",""0"",""0""
""fullscreenenter"",""1"",""4726""
","
","""event"",""trial"",""time""
""focus"",""0"",""0""
","""event"",""trial"",""time""
""fullscreenenter"",""1"",""4726""
","
","","804","","","","real_trial","2021-08-05 14:51:57.231","img/card_backs/set1/purple.gif","1","-240","1","",""
"casino-fixation","74","422070","0.0-25.0-0.2","1086","false","img/card_backs/set1/yellow.gif","img/card_backs/set1/purple.gif","img/card_backs/set1/red.gif","img/card_backs/set1/green.gif","img/card_backs/set2/orange.gif","img/card_backs/set2/pink.gif","img/card_backs/set2/gray.gif","img/card_backs/set2/blue.gif","""event"",""trial"",""time""
""focus"",""0"",""0""
""fullscreenenter"",""1"",""4726""
","
","""event"",""trial"",""time""
""focus"",""0"",""0""
","""event"",""trial"",""time""
""fullscreenenter"",""1"",""4726""
","
","","null","","null","","fixation","2021-08-05 14:51:57.753","","","","","",""
"card-selection-trial","75","425623","0.0-25.0-1.2","1086","false","img/card_backs/set1/yellow.gif","img/card_backs/set1/purple.gif","img/card_backs/set1/red.gif","img/card_backs/set1/green.gif","img/card_backs/set2/orange.gif","img/card_backs/set2/pink.gif","img/card_backs/set2/gray.gif","img/card_backs/set2/blue.gif","""event"",""trial"",""time""
""focus"",""0"",""0""
""fullscreenenter"",""1"",""4726""
","
","""event"",""trial"",""time""
""focus"",""0"",""0""
","""event"",""trial"",""time""
""fullscreenenter"",""1"",""4726""
","
","","1533","","","","real_trial","2021-08-05 14:52:01.306","img/card_backs/set1/green.gif","0","100","1","",""
"casino-fixation","76","426144","0.0-25.0-0.3","1086","false","img/card_backs/set1/yellow.gif","img/card_backs/set1/purple.gif","img/card_backs/set1/red.gif","img/card_backs/set1/green.gif","img/card_backs/set2/orange.gif","img/card_backs/set2/pink.gif","img/card_backs/set2/gray.gif","img/card_backs/set2/blue.gif","""event"",""trial"",""time""
""focus"",""0"",""0""
""fullscreenenter"",""1"",""4726""
","
","""event"",""trial"",""time""
""focus"",""0"",""0""
","""event"",""trial"",""time""
""fullscreenenter"",""1"",""4726""
","
","","null","","null","","fixation","2021-08-05 14:52:01.827","","","","","",""
"card-selection-trial","77","429762","0.0-25.0-1.3","1086","false","img/card_backs/set1/yellow.gif","img/card_backs/set1/purple.gif","img/card_backs/set1/red.gif","img/card_backs/set1/green.gif","img/card_backs/set2/orange.gif","img/card_backs/set2/pink.gif","img/card_backs/set2/gray.gif","img/card_backs/set2/blue.gif","""event"",""trial"",""time""
""focus"",""0"",""0""
""fullscreenenter"",""1"",""4726""
","
","""event"",""trial"",""time""
""focus"",""0"",""0""
","""event"",""trial"",""time""
""fullscreenenter"",""1"",""4726""
","
","","1597","","","","real_trial","2021-08-05 14:52:05.446","img/card_backs/set1/green.gif","1","-50","1","",""
"casino-fixation","78","430283","0.0-25.0-0.4","1086","false","img/card_backs/set1/yellow.gif","img/card_backs/set1/purple.gif","img/card_backs/set1/red.gif","img/card_backs/set1/green.gif","img/card_backs/set2/orange.gif","img/card_backs/set2/pink.gif","img/card_backs/set2/gray.gif","img/card_backs/set2/blue.gif","""event"",""trial"",""time""
""focus"",""0"",""0""
""fullscreenenter"",""1"",""4726""
","
","""event"",""trial"",""time""
""focus"",""0"",""0""
","""event"",""trial"",""time""
""fullscreenenter"",""1"",""4726""
","
","","null","","null","","fixation","2021-08-05 14:52:05.966","","","","","",""
"card-selection-trial","79","433858","0.0-25.0-1.4","1086","false","img/card_backs/set1/yellow.gif","img/card_backs/set1/purple.gif","img/card_backs/set1/red.gif","img/card_backs/set1/green.gif","img/card_backs/set2/orange.gif","img/card_backs/set2/pink.gif","img/card_backs/set2/gray.gif","img/card_backs/set2/blue.gif","""event"",""trial"",""time""
""focus"",""0"",""0""
""fullscreenenter"",""1"",""4726""
","
","""event"",""trial"",""time""
""focus"",""0"",""0""
","""event"",""trial"",""time""
""fullscreenenter"",""1"",""4726""
","
","","1548","","","","real_trial","2021-08-05 14:52:09.541","img/card_backs/set1/purple.gif","1","-240","1","",""
"casino-fixation","80","434380","0.0-25.0-0.5","1086","false","img/card_backs/set1/yellow.gif","img/card_backs/set1/purple.gif","img/card_backs/set1/red.gif","img/card_backs/set1/green.gif","img/card_backs/set2/orange.gif","img/card_backs/set2/pink.gif","img/card_backs/set2/gray.gif","img/card_backs/set2/blue.gif","""event"",""trial"",""time""
""focus"",""0"",""0""
""fullscreenenter"",""1"",""4726""
","
","""event"",""trial"",""time""
""focus"",""0"",""0""
","""event"",""trial"",""time""
""fullscreenenter"",""1"",""4726""
","
","","null","","null","","fixation","2021-08-05 14:52:10.063","","","","","",""
"card-selection-trial","81","440237","0.0-25.0-1.5","1086","false","img/card_backs/set1/yellow.gif","img/card_backs/set1/purple.gif","img/card_backs/set1/red.gif","img/card_backs/set1/green.gif","img/card_backs/set2/orange.gif","img/card_backs/set2/pink.gif","img/card_backs/set2/gray.gif","img/card_backs/set2/blue.gif","""event"",""trial"",""time""
""focus"",""0"",""0""
""fullscreenenter"",""1"",""4726""
","
","""event"",""trial"",""time""
""focus"",""0"",""0""
","""event"",""trial"",""time""
""fullscreenenter"",""1"",""4726""
","
","","3842","","","","real_trial","2021-08-05 14:52:15.920","img/card_backs/set1/green.gif","0","100","1","",""
"casino-fixation","82","440758","0.0-25.0-0.6","1086","false","img/card_backs/set1/yellow.gif","img/card_backs/set1/purple.gif","img/card_backs/set1/red.gif","img/card_backs/set1/green.gif","img/card_backs/set2/orange.gif","img/card_backs/set2/pink.gif","img/card_backs/set2/gray.gif","img/card_backs/set2/blue.gif","""event"",""trial"",""time""
""focus"",""0"",""0""
""fullscreenenter"",""1"",""4726""
","
","""event"",""trial"",""time""
""focus"",""0"",""0""
","""event"",""trial"",""time""
""fullscreenenter"",""1"",""4726""
","
","","null","","null","","fixation","2021-08-05 14:52:16.442","","","","","",""
"card-selection-trial","83","445804","0.0-25.0-1.6","1086","false","img/card_backs/set1/yellow.gif","img/card_backs/set1/purple.gif","img/card_backs/set1/red.gif","img/card_backs/set1/green.gif","img/card_backs/set2/orange.gif","img/card_backs/set2/pink.gif","img/card_backs/set2/gray.gif","img/card_backs/set2/blue.gif","""event"",""trial"",""time""
""focus"",""0"",""0""
""fullscreenenter"",""1"",""4726""
","
","""event"",""trial"",""time""
""focus"",""0"",""0""
","""event"",""trial"",""time""
""fullscreenenter"",""1"",""4726""
","
","","3036","","","","real_trial","2021-08-05 14:52:21.488","img/card_backs/set1/green.gif","0","-50","1","",""
"casino-fixation","84","446324","0.0-25.0-0.7","1086","false","img/card_backs/set1/yellow.gif","img/card_backs/set1/purple.gif","img/card_backs/set1/red.gif","img/card_backs/set1/green.gif","img/card_backs/set2/orange.gif","img/card_backs/set2/pink.gif","img/card_backs/set2/gray.gif","img/card_backs/set2/blue.gif","""event"",""trial"",""time""
""focus"",""0"",""0""
""fullscreenenter"",""1"",""4726""
","
","""event"",""trial"",""time""
""focus"",""0"",""0""
","""event"",""trial"",""time""
""fullscreenenter"",""1"",""4726""
","
","","null","","null","","fixation","2021-08-05 14:52:22.007","","","","","",""
"card-selection-trial","85","449869","0.0-25.0-1.7","1086","false","img/card_backs/set1/yellow.gif","img/card_backs/set1/purple.gif","img/card_backs/set1/red.gif","img/card_backs/set1/green.gif","img/card_backs/set2/orange.gif","img/card_backs/set2/pink.gif","img/card_backs/set2/gray.gif","img/card_backs/set2/blue.gif","""event"",""trial"",""time""
""focus"",""0"",""0""
""fullscreenenter"",""1"",""4726""
","
","""event"",""trial"",""time""
""focus"",""0"",""0""
","""event"",""trial"",""time""
""fullscreenenter"",""1"",""4726""
","
","","1520","","","","real_trial","2021-08-05 14:52:25.552","img/card_backs/set1/green.gif","1","-50","1","",""
"casino-fixation","86","450390","0.0-25.0-0.8","1086","false","img/card_backs/set1/yellow.gif","img/card_backs/set1/purple.gif","img/card_backs/set1/red.gif","img/card_backs/set1/green.gif","img/card_backs/set2/orange.gif","img/card_backs/set2/pink.gif","img/card_backs/set2/gray.gif","img/card_backs/set2/blue.gif","""event"",""trial"",""time""
""focus"",""0"",""0""
""fullscreenenter"",""1"",""4726""
","
","""event"",""trial"",""time""
""focus"",""0"",""0""
","""event"",""trial"",""time""
""fullscreenenter"",""1"",""4726""
","
","","null","","null","","fixation","2021-08-05 14:52:26.074","","","","","",""
"card-selection-trial","87","453559","0.0-25.0-1.8","1086","false","img/card_backs/set1/yellow.gif","img/card_backs/set1/purple.gif","img/card_backs/set1/red.gif","img/card_backs/set1/green.gif","img/card_backs/set2/orange.gif","img/card_backs/set2/pink.gif","img/card_backs/set2/gray.gif","img/card_backs/set2/blue.gif","""event"",""trial"",""time""
""focus"",""0"",""0""
""fullscreenenter"",""1"",""4726""
","
","""event"",""trial"",""time""
""focus"",""0"",""0""
","""event"",""trial"",""time""
""fullscreenenter"",""1"",""4726""
","
","","1155","","","","real_trial","2021-08-05 14:52:29.242","img/card_backs/set1/green.gif","0","110","1","",""
"casino-fixation","88","454081","0.0-25.0-0.9","1086","false","img/card_backs/set1/yellow.gif","img/card_backs/set1/purple.gif","img/card_backs/set1/red.gif","img/card_backs/set1/green.gif","img/card_backs/set2/orange.gif","img/card_backs/set2/pink.gif","img/card_backs/set2/gray.gif","img/card_backs/set2/blue.gif","""event"",""trial"",""time""
""focus"",""0"",""0""
""fullscreenenter"",""1"",""4726""
","
","""event"",""trial"",""time""
""focus"",""0"",""0""
","""event"",""trial"",""time""
""fullscreenenter"",""1"",""4726""
","
","","null","","null","","fixation","2021-08-05 14:52:29.764","","","","","",""
"card-selection-trial","89","457569","0.0-25.0-1.9","1086","false","img/card_backs/set1/yellow.gif","img/card_backs/set1/purple.gif","img/card_backs/set1/red.gif","img/card_backs/set1/green.gif","img/card_backs/set2/orange.gif","img/card_backs/set2/pink.gif","img/card_backs/set2/gray.gif","img/card_backs/set2/blue.gif","""event"",""trial"",""time""
""focus"",""0"",""0""
""fullscreenenter"",""1"",""4726""
","
","""event"",""trial"",""time""
""focus"",""0"",""0""
","""event"",""trial"",""time""
""fullscreenenter"",""1"",""4726""
","
","","1476","","","","real_trial","2021-08-05 14:52:33.252","img/card_backs/set1/green.gif","0","110","1","",""
"casino-fixation","90","458092","0.0-25.0-0.10","1086","false","img/card_backs/set1/yellow.gif","img/card_backs/set1/purple.gif","img/card_backs/set1/red.gif","img/card_backs/set1/green.gif","img/card_backs/set2/orange.gif","img/card_backs/set2/pink.gif","img/card_backs/set2/gray.gif","img/card_backs/set2/blue.gif","""event"",""trial"",""time""
""focus"",""0"",""0""
""fullscreenenter"",""1"",""4726""
","
","""event"",""trial"",""time""
""focus"",""0"",""0""
","""event"",""trial"",""time""
""fullscreenenter"",""1"",""4726""
","
","","null","","null","","fixation","2021-08-05 14:52:33.775","","","","","",""
"card-selection-trial","91","461303","0.0-25.0-1.10","1086","false","img/card_backs/set1/yellow.gif","img/card_backs/set1/purple.gif","img/card_backs/set1/red.gif","img/card_backs/set1/green.gif","img/card_backs/set2/orange.gif","img/card_backs/set2/pink.gif","img/card_backs/set2/gray.gif","img/card_backs/set2/blue.gif","""event"",""trial"",""time""
""focus"",""0"",""0""
""fullscreenenter"",""1"",""4726""
","
","""event"",""trial"",""time""
""focus"",""0"",""0""
","""event"",""trial"",""time""
""fullscreenenter"",""1"",""4726""
","
","","1189","","","","real_trial","2021-08-05 14:52:36.986","img/card_backs/set1/green.gif","1","-50","1","",""
"casino-fixation","92","461825","0.0-25.0-0.11","1086","false","img/card_backs/set1/yellow.gif","img/card_backs/set1/purple.gif","img/card_backs/set1/red.gif","img/card_backs/set1/green.gif","img/card_backs/set2/orange.gif","img/card_backs/set2/pink.gif","img/card_backs/set2/gray.gif","img/card_backs/set2/blue.gif","""event"",""trial"",""time""
""focus"",""0"",""0""
""fullscreenenter"",""1"",""4726""
","
","""event"",""trial"",""time""
""focus"",""0"",""0""
","""event"",""trial"",""time""
""fullscreenenter"",""1"",""4726""
","
","","null","","null","","fixation","2021-08-05 14:52:37.508","","","","","",""
"card-selection-trial","93","464898","0.0-25.0-1.11","1086","false","img/card_backs/set1/yellow.gif","img/card_backs/set1/purple.gif","img/card_backs/set1/red.gif","img/card_backs/set1/green.gif","img/card_backs/set2/orange.gif","img/card_backs/set2/pink.gif","img/card_backs/set2/gray.gif","img/card_backs/set2/blue.gif","""event"",""trial"",""time""
""focus"",""0"",""0""
""fullscreenenter"",""1"",""4726""
","
","""event"",""trial"",""time""
""focus"",""0"",""0""
","""event"",""trial"",""time""
""fullscreenenter"",""1"",""4726""
","
","","1064","","","","real_trial","2021-08-05 14:52:40.581","img/card_backs/set1/green.gif","3","120","1","",""
"casino-fixation","94","465421","0.0-25.0-0.12","1086","false","img/card_backs/set1/yellow.gif","img/card_backs/set1/purple.gif","img/card_backs/set1/red.gif","img/card_backs/set1/green.gif","img/card_backs/set2/orange.gif","img/card_backs/set2/pink.gif","img/card_backs/set2/gray.gif","img/card_backs/set2/blue.gif","""event"",""trial"",""time""
""focus"",""0"",""0""
""fullscreenenter"",""1"",""4726""
","
","""event"",""trial"",""time""
""focus"",""0"",""0""
","""event"",""trial"",""time""
""fullscreenenter"",""1"",""4726""
","
","","null","","null","","fixation","2021-08-05 14:52:41.104","","","","","",""
"card-selection-trial","95","468460","0.0-25.0-1.12","1086","false","img/card_backs/set1/yellow.gif","img/card_backs/set1/purple.gif","img/card_backs/set1/red.gif","img/card_backs/set1/green.gif","img/card_backs/set2/orange.gif","img/card_backs/set2/pink.gif","img/card_backs/set2/gray.gif","img/card_backs/set2/blue.gif","""event"",""trial"",""time""
""focus"",""0"",""0""
""fullscreenenter"",""1"",""4726""
","
","""event"",""trial"",""time""
""focus"",""0"",""0""
","""event"",""trial"",""time""
""fullscreenenter"",""1"",""4726""
","
","","1028","","","","real_trial","2021-08-05 14:52:44.143","img/card_backs/set1/green.gif","2","-50","1","",""
"casino-fixation","96","468983","0.0-25.0-0.13","1086","false","img/card_backs/set1/yellow.gif","img/card_backs/set1/purple.gif","img/card_backs/set1/red.gif","img/card_backs/set1/green.gif","img/card_backs/set2/orange.gif","img/card_backs/set2/pink.gif","img/card_backs/set2/gray.gif","img/card_backs/set2/blue.gif","""event"",""trial"",""time""
""focus"",""0"",""0""
""fullscreenenter"",""1"",""4726""
","
","""event"",""trial"",""time""
""focus"",""0"",""0""
","""event"",""trial"",""time""
""fullscreenenter"",""1"",""4726""
","
","","null","","null","","fixation","2021-08-05 14:52:44.666","","","","","",""
"card-selection-trial","97","472631","0.0-25.0-1.13","1086","false","img/card_backs/set1/yellow.gif","img/card_backs/set1/purple.gif","img/card_backs/set1/red.gif","img/card_backs/set1/green.gif","img/card_backs/set2/orange.gif","img/card_backs/set2/pink.gif","img/card_backs/set2/gray.gif","img/card_backs/set2/blue.gif","""event"",""trial"",""time""
""focus"",""0"",""0""
""fullscreenenter"",""1"",""4726""
","
","""event"",""trial"",""time""
""focus"",""0"",""0""
","""event"",""trial"",""time""
""fullscreenenter"",""1"",""4726""
","
","","1629","","","","real_trial","2021-08-05 14:52:48.314","img/card_backs/set1/green.gif","2","-60","1","",""
"casino-fixation","98","473154","0.0-25.0-0.14","1086","false","img/card_backs/set1/yellow.gif","img/card_backs/set1/purple.gif","img/card_backs/set1/red.gif","img/card_backs/set1/green.gif","img/card_backs/set2/orange.gif","img/card_backs/set2/pink.gif","img/card_backs/set2/gray.gif","img/card_backs/set2/blue.gif","""event"",""trial"",""time""
""focus"",""0"",""0""
""fullscreenenter"",""1"",""4726""
","
","""event"",""trial"",""time""
""focus"",""0"",""0""
","""event"",""trial"",""time""
""fullscreenenter"",""1"",""4726""
","
","","null","","null","","fixation","2021-08-05 14:52:48.837","","","","","",""
"card-selection-trial","99","476439","0.0-25.0-1.14","1086","false","img/card_backs/set1/yellow.gif","img/card_backs/set1/purple.gif","img/card_backs/set1/red.gif","img/card_backs/set1/green.gif","img/card_backs/set2/orange.gif","img/card_backs/set2/pink.gif","img/card_backs/set2/gray.gif","img/card_backs/set2/blue.gif","""event"",""trial"",""time""
""focus"",""0"",""0""
""fullscreenenter"",""1"",""4726""
","
","""event"",""trial"",""time""
""focus"",""0"",""0""
","""event"",""trial"",""time""
""fullscreenenter"",""1"",""4726""
","
","","1267","","","","real_trial","2021-08-05 14:52:52.122","img/card_backs/set1/green.gif","0","120","1","",""
"casino-fixation","100","476961","0.0-25.0-0.15","1086","false","img/card_backs/set1/yellow.gif","img/card_backs/set1/purple.gif","img/card_backs/set1/red.gif","img/card_backs/set1/green.gif","img/card_backs/set2/orange.gif","img/card_backs/set2/pink.gif","img/card_backs/set2/gray.gif","img/card_backs/set2/blue.gif","""event"",""trial"",""time""
""focus"",""0"",""0""
""fullscreenenter"",""1"",""4726""
","
","""event"",""trial"",""time""
""focus"",""0"",""0""
","""event"",""trial"",""time""
""fullscreenenter"",""1"",""4726""
","
","","null","","null","","fixation","2021-08-05 14:52:52.644","","","","","",""
"card-selection-trial","101","480109","0.0-25.0-1.15","1086","false","img/card_backs/set1/yellow.gif","img/card_backs/set1/purple.gif","img/card_backs/set1/red.gif","img/card_backs/set1/green.gif","img/card_backs/set2/orange.gif","img/card_backs/set2/pink.gif","img/card_backs/set2/gray.gif","img/card_backs/set2/blue.gif","""event"",""trial"",""time""
""focus"",""0"",""0""
""fullscreenenter"",""1"",""4726""
","
","""event"",""trial"",""time""
""focus"",""0"",""0""
","""event"",""trial"",""time""
""fullscreenenter"",""1"",""4726""
","
","","1121","","","","real_trial","2021-08-05 14:52:55.792","img/card_backs/set1/green.gif","0","-60","1","",""
"casino-fixation","102","480631","0.0-25.0-0.16","1086","false","img/card_backs/set1/yellow.gif","img/card_backs/set1/purple.gif","img/card_backs/set1/red.gif","img/card_backs/set1/green.gif","img/card_backs/set2/orange.gif","img/card_backs/set2/pink.gif","img/card_backs/set2/gray.gif","img/card_backs/set2/blue.gif","""event"",""trial"",""time""
""focus"",""0"",""0""
""fullscreenenter"",""1"",""4726""
","
","""event"",""trial"",""time""
""focus"",""0"",""0""
","""event"",""trial"",""time""
""fullscreenenter"",""1"",""4726""
","
","","null","","null","","fixation","2021-08-05 14:52:56.314","","","","","",""
"card-selection-trial","103","483853","0.0-25.0-1.16","1086","false","img/card_backs/set1/yellow.gif","img/card_backs/set1/purple.gif","img/card_backs/set1/red.gif","img/card_backs/set1/green.gif","img/card_backs/set2/orange.gif","img/card_backs/set2/pink.gif","img/card_backs/set2/gray.gif","img/card_backs/set2/blue.gif","""event"",""trial"",""time""
""focus"",""0"",""0""
""fullscreenenter"",""1"",""4726""
","
","""event"",""trial"",""time""
""focus"",""0"",""0""
","""event"",""trial"",""time""
""fullscreenenter"",""1"",""4726""
","
","","1204","","","","real_trial","2021-08-05 14:52:59.536","img/card_backs/set1/green.gif","1","100","1","",""
"casino-fixation","104","484368","0.0-25.0-0.17","1086","false","img/card_backs/set1/yellow.gif","img/card_backs/set1/purple.gif","img/card_backs/set1/red.gif","img/card_backs/set1/green.gif","img/card_backs/set2/orange.gif","img/card_backs/set2/pink.gif","img/card_backs/set2/gray.gif","img/card_backs/set2/blue.gif","""event"",""trial"",""time""
""focus"",""0"",""0""
""fullscreenenter"",""1"",""4726""
","
","""event"",""trial"",""time""
""focus"",""0"",""0""
","""event"",""trial"",""time""
""fullscreenenter"",""1"",""4726""
","
","","null","","null","","fixation","2021-08-05 14:53:00.052","","","","","",""
"card-selection-trial","105","487180","0.0-25.0-1.17","1086","false","img/card_backs/set1/yellow.gif","img/card_backs/set1/purple.gif","img/card_backs/set1/red.gif","img/card_backs/set1/green.gif","img/card_backs/set2/orange.gif","img/card_backs/set2/pink.gif","img/card_backs/set2/gray.gif","img/card_backs/set2/blue.gif","""event"",""trial"",""time""
""focus"",""0"",""0""
""fullscreenenter"",""1"",""4726""
","
","""event"",""trial"",""time""
""focus"",""0"",""0""
","""event"",""trial"",""time""
""fullscreenenter"",""1"",""4726""
","
","","798","","","","real_trial","2021-08-05 14:53:02.863","img/card_backs/set1/green.gif","0","110","1","",""
"casino-fixation","106","487703","0.0-25.0-0.18","1086","false","img/card_backs/set1/yellow.gif","img/card_backs/set1/purple.gif","img/card_backs/set1/red.gif","img/card_backs/set1/green.gif","img/card_backs/set2/orange.gif","img/card_backs/set2/pink.gif","img/card_backs/set2/gray.gif","img/card_backs/set2/blue.gif","""event"",""trial"",""time""
""focus"",""0"",""0""
""fullscreenenter"",""1"",""4726""
","
","""event"",""trial"",""time""
""focus"",""0"",""0""
","""event"",""trial"",""time""
""fullscreenenter"",""1"",""4726""
","
","","null","","null","","fixation","2021-08-05 14:53:03.386","","","","","",""
"card-selection-trial","107","491106","0.0-25.0-1.18","1086","false","img/card_backs/set1/yellow.gif","img/card_backs/set1/purple.gif","img/card_backs/set1/red.gif","img/card_backs/set1/green.gif","img/card_backs/set2/orange.gif","img/card_backs/set2/pink.gif","img/card_backs/set2/gray.gif","img/card_backs/set2/blue.gif","""event"",""trial"",""time""
""focus"",""0"",""0""
""fullscreenenter"",""1"",""4726""
","
","""event"",""trial"",""time""
""focus"",""0"",""0""
","""event"",""trial"",""time""
""fullscreenenter"",""1"",""4726""
","
","","1385","","","","real_trial","2021-08-05 14:53:06.789","img/card_backs/set1/red.gif","0","-60","1","",""
"casino-fixation","108","491618","0.0-25.0-0.19","1086","false","img/card_backs/set1/yellow.gif","img/card_backs/set1/purple.gif","img/card_backs/set1/red.gif","img/card_backs/set1/green.gif","img/card_backs/set2/orange.gif","img/card_backs/set2/pink.gif","img/card_backs/set2/gray.gif","img/card_backs/set2/blue.gif","""event"",""trial"",""time""
""focus"",""0"",""0""
""fullscreenenter"",""1"",""4726""
","
","""event"",""trial"",""time""
""focus"",""0"",""0""
","""event"",""trial"",""time""
""fullscreenenter"",""1"",""4726""
","
","","null","","null","","fixation","2021-08-05 14:53:07.301","","","","","",""
"card-selection-trial","109","494668","0.0-25.0-1.19","1086","false","img/card_backs/set1/yellow.gif","img/card_backs/set1/purple.gif","img/card_backs/set1/red.gif","img/card_backs/set1/green.gif","img/card_backs/set2/orange.gif","img/card_backs/set2/pink.gif","img/card_backs/set2/gray.gif","img/card_backs/set2/blue.gif","""event"",""trial"",""time""
""focus"",""0"",""0""
""fullscreenenter"",""1"",""4726""
","
","""event"",""trial"",""time""
""focus"",""0"",""0""
","""event"",""trial"",""time""
""fullscreenenter"",""1"",""4726""
","
","","1038","","","","real_trial","2021-08-05 14:53:10.351","img/card_backs/set1/green.gif","0","-60","1","",""
"casino-fixation","110","495190","0.0-25.0-0.20","1086","false","img/card_backs/set1/yellow.gif","img/card_backs/set1/purple.gif","img/card_backs/set1/red.gif","img/card_backs/set1/green.gif","img/card_backs/set2/orange.gif","img/card_backs/set2/pink.gif","img/card_backs/set2/gray.gif","img/card_backs/set2/blue.gif","""event"",""trial"",""time""
""focus"",""0"",""0""
""fullscreenenter"",""1"",""4726""
","
","""event"",""trial"",""time""
""focus"",""0"",""0""
","""event"",""trial"",""time""
""fullscreenenter"",""1"",""4726""
","
","","null","","null","","fixation","2021-08-05 14:53:10.874","","","","","",""
"card-selection-trial","111","497954","0.0-25.0-1.20","1086","false","img/card_backs/set1/yellow.gif","img/card_backs/set1/purple.gif","img/card_backs/set1/red.gif","img/card_backs/set1/green.gif","img/card_backs/set2/orange.gif","img/card_backs/set2/pink.gif","img/card_backs/set2/gray.gif","img/card_backs/set2/blue.gif","""event"",""trial"",""time""
""focus"",""0"",""0""
""fullscreenenter"",""1"",""4726""
","
","""event"",""trial"",""time""
""focus"",""0"",""0""
","""event"",""trial"",""time""
""fullscreenenter"",""1"",""4726""
","
","","749","","","","real_trial","2021-08-05 14:53:13.637","img/card_backs/set1/green.gif","0","100","1","",""
"casino-fixation","112","498476","0.0-25.0-0.21","1086","false","img/card_backs/set1/yellow.gif","img/card_backs/set1/purple.gif","img/card_backs/set1/red.gif","img/card_backs/set1/green.gif","img/card_backs/set2/orange.gif","img/card_backs/set2/pink.gif","img/card_backs/set2/gray.gif","img/card_backs/set2/blue.gif","""event"",""trial"",""time""
""focus"",""0"",""0""
""fullscreenenter"",""1"",""4726""
","
","""event"",""trial"",""time""
""focus"",""0"",""0""
","""event"",""trial"",""time""
""fullscreenenter"",""1"",""4726""
","
","","null","","null","","fixation","2021-08-05 14:53:14.159","","","","","",""
"card-selection-trial","113","501601","0.0-25.0-1.21","1086","false","img/card_backs/set1/yellow.gif","img/card_backs/set1/purple.gif","img/card_backs/set1/red.gif","img/card_backs/set1/green.gif","img/card_backs/set2/orange.gif","img/card_backs/set2/pink.gif","img/card_backs/set2/gray.gif","img/card_backs/set2/blue.gif","""event"",""trial"",""time""
""focus"",""0"",""0""
""fullscreenenter"",""1"",""4726""
","
","""event"",""trial"",""time""
""focus"",""0"",""0""
","""event"",""trial"",""time""
""fullscreenenter"",""1"",""4726""
","
","","1108","","","","real_trial","2021-08-05 14:53:17.284","img/card_backs/set1/green.gif","3","-70","1","",""
"casino-fixation","114","502124","0.0-25.0-0.22","1086","false","img/card_backs/set1/yellow.gif","img/card_backs/set1/purple.gif","img/card_backs/set1/red.gif","img/card_backs/set1/green.gif","img/card_backs/set2/orange.gif","img/card_backs/set2/pink.gif","img/card_backs/set2/gray.gif","img/card_backs/set2/blue.gif","""event"",""trial"",""time""
""focus"",""0"",""0""
""fullscreenenter"",""1"",""4726""
","
","""event"",""trial"",""time""
""focus"",""0"",""0""
","""event"",""trial"",""time""
""fullscreenenter"",""1"",""4726""
","
","","null","","null","","fixation","2021-08-05 14:53:17.807","","","","","",""
"card-selection-trial","115","505025","0.0-25.0-1.22","1086","false","img/card_backs/set1/yellow.gif","img/card_backs/set1/purple.gif","img/card_backs/set1/red.gif","img/card_backs/set1/green.gif","img/card_backs/set2/orange.gif","img/card_backs/set2/pink.gif","img/card_backs/set2/gray.gif","img/card_backs/set2/blue.gif","""event"",""trial"",""time""
""focus"",""0"",""0""
""fullscreenenter"",""1"",""4726""
","
","""event"",""trial"",""time""
""focus"",""0"",""0""
","""event"",""trial"",""time""
""fullscreenenter"",""1"",""4726""
","
","","885","","","","real_trial","2021-08-05 14:53:20.708","img/card_backs/set1/green.gif","3","110","1","",""
"casino-fixation","116","505537","0.0-25.0-0.23","1086","false","img/card_backs/set1/yellow.gif","img/card_backs/set1/purple.gif","img/card_backs/set1/red.gif","img/card_backs/set1/green.gif","img/card_backs/set2/orange.gif","img/card_backs/set2/pink.gif","img/card_backs/set2/gray.gif","img/card_backs/set2/blue.gif","""event"",""trial"",""time""
""focus"",""0"",""0""
""fullscreenenter"",""1"",""4726""
","
","""event"",""trial"",""time""
""focus"",""0"",""0""
","""event"",""trial"",""time""
""fullscreenenter"",""1"",""4726""
","
","","null","","null","","fixation","2021-08-05 14:53:21.220","","","","","",""
"card-selection-trial","117","508642","0.0-25.0-1.23","1086","false","img/card_backs/set1/yellow.gif","img/card_backs/set1/purple.gif","img/card_backs/set1/red.gif","img/card_backs/set1/green.gif","img/card_backs/set2/orange.gif","img/card_backs/set2/pink.gif","img/card_backs/set2/gray.gif","img/card_backs/set2/blue.gif","""event"",""trial"",""time""
""focus"",""0"",""0""
""fullscreenenter"",""1"",""4726""
","
","""event"",""trial"",""time""
""focus"",""0"",""0""
","""event"",""trial"",""time""
""fullscreenenter"",""1"",""4726""
","
","","1081","","","","real_trial","2021-08-05 14:53:24.325","img/card_backs/set1/green.gif","2","110","1","",""
"casino-fixation","118","509152","0.0-25.0-0.24","1086","false","img/card_backs/set1/yellow.gif","img/card_backs/set1/purple.gif","img/card_backs/set1/red.gif","img/card_backs/set1/green.gif","img/card_backs/set2/orange.gif","img/card_backs/set2/pink.gif","img/card_backs/set2/gray.gif","img/card_backs/set2/blue.gif","""event"",""trial"",""time""
""focus"",""0"",""0""
""fullscreenenter"",""1"",""4726""
","
","""event"",""trial"",""time""
""focus"",""0"",""0""
","""event"",""trial"",""time""
""fullscreenenter"",""1"",""4726""
","
","","null","","null","","fixation","2021-08-05 14:53:24.835","","","","","",""
"card-selection-trial","119","512107","0.0-25.0-1.24","1086","false","img/card_backs/set1/yellow.gif","img/card_backs/set1/purple.gif","img/card_backs/set1/red.gif","img/card_backs/set1/green.gif","img/card_backs/set2/orange.gif","img/card_backs/set2/pink.gif","img/card_backs/set2/gray.gif","img/card_backs/set2/blue.gif","""event"",""trial"",""time""
""focus"",""0"",""0""
""fullscreenenter"",""1"",""4726""
","
","""event"",""trial"",""time""
""focus"",""0"",""0""
","""event"",""trial"",""time""
""fullscreenenter"",""1"",""4726""
","
","","947","","","","real_trial","2021-08-05 14:53:27.791","img/card_backs/set1/green.gif","3","-50","1","",""
"casino-fixation","120","512613","0.0-25.0-0.25","1086","false","img/card_backs/set1/yellow.gif","img/card_backs/set1/purple.gif","img/card_backs/set1/red.gif","img/card_backs/set1/green.gif","img/card_backs/set2/orange.gif","img/card_backs/set2/pink.gif","img/card_backs/set2/gray.gif","img/card_backs/set2/blue.gif","""event"",""trial"",""time""
""focus"",""0"",""0""
""fullscreenenter"",""1"",""4726""
","
","""event"",""trial"",""time""
""focus"",""0"",""0""
","""event"",""trial"",""time""
""fullscreenenter"",""1"",""4726""
","
","","null","","null","","fixation","2021-08-05 14:53:28.296","","","","","",""
"card-selection-trial","121","516726","0.0-25.0-1.25","1086","false","img/card_backs/set1/yellow.gif","img/card_backs/set1/purple.gif","img/card_backs/set1/red.gif","img/card_backs/set1/green.gif","img/card_backs/set2/orange.gif","img/card_backs/set2/pink.gif","img/card_backs/set2/gray.gif","img/card_backs/set2/blue.gif","""event"",""trial"",""time""
""focus"",""0"",""0""
""fullscreenenter"",""1"",""4726""
","
","""event"",""trial"",""time""
""focus"",""0"",""0""
","""event"",""trial"",""time""
""fullscreenenter"",""1"",""4726""
","
","","2098","","","","real_trial","2021-08-05 14:53:32.410","img/card_backs/set1/green.gif","1","-70","1","",""
"casino-fixation","122","517249","0.0-25.0-0.26","1086","false","img/card_backs/set1/yellow.gif","img/card_backs/set1/purple.gif","img/card_backs/set1/red.gif","img/card_backs/set1/green.gif","img/card_backs/set2/orange.gif","img/card_backs/set2/pink.gif","img/card_backs/set2/gray.gif","img/card_backs/set2/blue.gif","""event"",""trial"",""time""
""focus"",""0"",""0""
""fullscreenenter"",""1"",""4726""
","
","""event"",""trial"",""time""
""focus"",""0"",""0""
","""event"",""trial"",""time""
""fullscreenenter"",""1"",""4726""
","
","","null","","null","","fixation","2021-08-05 14:53:32.932","","","","","",""
"card-selection-trial","123","519873","0.0-25.0-1.26","1086","false","img/card_backs/set1/yellow.gif","img/card_backs/set1/purple.gif","img/card_backs/set1/red.gif","img/card_backs/set1/green.gif","img/card_backs/set2/orange.gif","img/card_backs/set2/pink.gif","img/card_backs/set2/gray.gif","img/card_backs/set2/blue.gif","""event"",""trial"",""time""
""focus"",""0"",""0""
""fullscreenenter"",""1"",""4726""
","
","""event"",""trial"",""time""
""focus"",""0"",""0""
","""event"",""trial"",""time""
""fullscreenenter"",""1"",""4726""
","
","","604","","","","real_trial","2021-08-05 14:53:35.557","img/card_backs/set1/green.gif","3","110","1","",""
"casino-fixation","124","520395","0.0-25.0-0.27","1086","false","img/card_backs/set1/yellow.gif","img/card_backs/set1/purple.gif","img/card_backs/set1/red.gif","img/card_backs/set1/green.gif","img/card_backs/set2/orange.gif","img/card_backs/set2/pink.gif","img/card_backs/set2/gray.gif","img/card_backs/set2/blue.gif","""event"",""trial"",""time""
""focus"",""0"",""0""
""fullscreenenter"",""1"",""4726""
","
","""event"",""trial"",""time""
""focus"",""0"",""0""
","""event"",""trial"",""time""
""fullscreenenter"",""1"",""4726""
","
","","null","","null","","fixation","2021-08-05 14:53:36.078","","","","","",""
"card-selection-trial","125","523340","0.0-25.0-1.27","1086","false","img/card_backs/set1/yellow.gif","img/card_backs/set1/purple.gif","img/card_backs/set1/red.gif","img/card_backs/set1/green.gif","img/card_backs/set2/orange.gif","img/card_backs/set2/pink.gif","img/card_backs/set2/gray.gif","img/card_backs/set2/blue.gif","""event"",""trial"",""time""
""focus"",""0"",""0""
""fullscreenenter"",""1"",""4726""
","
","""event"",""trial"",""time""
""focus"",""0"",""0""
","""event"",""trial"",""time""
""fullscreenenter"",""1"",""4726""
","
","","939","","","","real_trial","2021-08-05 14:53:39.024","img/card_backs/set1/green.gif","1","120","1","",""
"casino-fixation","126","523863","0.0-25.0-0.28","1086","false","img/card_backs/set1/yellow.gif","img/card_backs/set1/purple.gif","img/card_backs/set1/red.gif","img/card_backs/set1/green.gif","img/card_backs/set2/orange.gif","img/card_backs/set2/pink.gif","img/card_backs/set2/gray.gif","img/card_backs/set2/blue.gif","""event"",""trial"",""time""
""focus"",""0"",""0""
""fullscreenenter"",""1"",""4726""
","
","""event"",""trial"",""time""
""focus"",""0"",""0""
","""event"",""trial"",""time""
""fullscreenenter"",""1"",""4726""
","
","","null","","null","","fixation","2021-08-05 14:53:39.546","","","","","",""
"card-selection-trial","127","528152","0.0-25.0-1.28","1086","false","img/card_backs/set1/yellow.gif","img/card_backs/set1/purple.gif","img/card_backs/set1/red.gif","img/card_backs/set1/green.gif","img/card_backs/set2/orange.gif","img/card_backs/set2/pink.gif","img/card_backs/set2/gray.gif","img/card_backs/set2/blue.gif","""event"",""trial"",""time""
""focus"",""0"",""0""
""fullscreenenter"",""1"",""4726""
","
","""event"",""trial"",""time""
""focus"",""0"",""0""
","""event"",""trial"",""time""
""fullscreenenter"",""1"",""4726""
","
","","2266","","","","real_trial","2021-08-05 14:53:43.835","img/card_backs/set1/green.gif","2","-70","1","",""
"casino-fixation","128","528662","0.0-25.0-0.29","1086","false","img/card_backs/set1/yellow.gif","img/card_backs/set1/purple.gif","img/card_backs/set1/red.gif","img/card_backs/set1/green.gif","img/card_backs/set2/orange.gif","img/card_backs/set2/pink.gif","img/card_backs/set2/gray.gif","img/card_backs/set2/blue.gif","""event"",""trial"",""time""
""focus"",""0"",""0""
""fullscreenenter"",""1"",""4726""
","
","""event"",""trial"",""time""
""focus"",""0"",""0""
","""event"",""trial"",""time""
""fullscreenenter"",""1"",""4726""
","
","","null","","null","","fixation","2021-08-05 14:53:44.345","","","","","",""
"card-selection-trial","129","531574","0.0-25.0-1.29","1086","false","img/card_backs/set1/yellow.gif","img/card_backs/set1/purple.gif","img/card_backs/set1/red.gif","img/card_backs/set1/green.gif","img/card_backs/set2/orange.gif","img/card_backs/set2/pink.gif","img/card_backs/set2/gray.gif","img/card_backs/set2/blue.gif","""event"",""trial"",""time""
""focus"",""0"",""0""
""fullscreenenter"",""1"",""4726""
","
","""event"",""trial"",""time""
""focus"",""0"",""0""
","""event"",""trial"",""time""
""fullscreenenter"",""1"",""4726""
","
","","895","","","","real_trial","2021-08-05 14:53:47.257","img/card_backs/set1/green.gif","3","-70","1","",""
"casino-fixation","130","532096","0.0-25.0-0.30","1086","false","img/card_backs/set1/yellow.gif","img/card_backs/set1/purple.gif","img/card_backs/set1/red.gif","img/card_backs/set1/green.gif","img/card_backs/set2/orange.gif","img/card_backs/set2/pink.gif","img/card_backs/set2/gray.gif","img/card_backs/set2/blue.gif","""event"",""trial"",""time""
""focus"",""0"",""0""
""fullscreenenter"",""1"",""4726""
","
","""event"",""trial"",""time""
""focus"",""0"",""0""
","""event"",""trial"",""time""
""fullscreenenter"",""1"",""4726""
","
","","null","","null","","fixation","2021-08-05 14:53:47.780","","","","","",""
"card-selection-trial","131","534786","0.0-25.0-1.30","1086","false","img/card_backs/set1/yellow.gif","img/card_backs/set1/purple.gif","img/card_backs/set1/red.gif","img/card_backs/set1/green.gif","img/card_backs/set2/orange.gif","img/card_backs/set2/pink.gif","img/card_backs/set2/gray.gif","img/card_backs/set2/blue.gif","""event"",""trial"",""time""
""focus"",""0"",""0""
""fullscreenenter"",""1"",""4726""
","
","""event"",""trial"",""time""
""focus"",""0"",""0""
","""event"",""trial"",""time""
""fullscreenenter"",""1"",""4726""
","
","","665","","","","real_trial","2021-08-05 14:53:50.469","img/card_backs/set1/green.gif","3","100","1","",""
"casino-fixation","132","535297","0.0-25.0-0.31","1086","false","img/card_backs/set1/yellow.gif","img/card_backs/set1/purple.gif","img/card_backs/set1/red.gif","img/card_backs/set1/green.gif","img/card_backs/set2/orange.gif","img/card_backs/set2/pink.gif","img/card_backs/set2/gray.gif","img/card_backs/set2/blue.gif","""event"",""trial"",""time""
""focus"",""0"",""0""
""fullscreenenter"",""1"",""4726""
","
","""event"",""trial"",""time""
""focus"",""0"",""0""
","""event"",""trial"",""time""
""fullscreenenter"",""1"",""4726""
","
","","null","","null","","fixation","2021-08-05 14:53:50.980","","","","","",""
"card-selection-trial","133","538007","0.0-25.0-1.31","1086","false","img/card_backs/set1/yellow.gif","img/card_backs/set1/purple.gif","img/card_backs/set1/red.gif","img/card_backs/set1/green.gif","img/card_backs/set2/orange.gif","img/card_backs/set2/pink.gif","img/card_backs/set2/gray.gif","img/card_backs/set2/blue.gif","""event"",""trial"",""time""
""focus"",""0"",""0""
""fullscreenenter"",""1"",""4726""
","
","""event"",""trial"",""time""
""focus"",""0"",""0""
","""event"",""trial"",""time""
""fullscreenenter"",""1"",""4726""
","
","","684","","","","real_trial","2021-08-05 14:53:53.690","img/card_backs/set1/green.gif","3","110","1","",""
"casino-fixation","134","538529","0.0-25.0-0.32","1086","false","img/card_backs/set1/yellow.gif","img/card_backs/set1/purple.gif","img/card_backs/set1/red.gif","img/card_backs/set1/green.gif","img/card_backs/set2/orange.gif","img/card_backs/set2/pink.gif","img/card_backs/set2/gray.gif","img/card_backs/set2/blue.gif","""event"",""trial"",""time""
""focus"",""0"",""0""
""fullscreenenter"",""1"",""4726""
","
","""event"",""trial"",""time""
""focus"",""0"",""0""
","""event"",""trial"",""time""
""fullscreenenter"",""1"",""4726""
","
","","null","","null","","fixation","2021-08-05 14:53:54.212","","","","","",""
"card-selection-trial","135","541516","0.0-25.0-1.32","1086","false","img/card_backs/set1/yellow.gif","img/card_backs/set1/purple.gif","img/card_backs/set1/red.gif","img/card_backs/set1/green.gif","img/card_backs/set2/orange.gif","img/card_backs/set2/pink.gif","img/card_backs/set2/gray.gif","img/card_backs/set2/blue.gif","""event"",""trial"",""time""
""focus"",""0"",""0""
""fullscreenenter"",""1"",""4726""
","
","""event"",""trial"",""time""
""focus"",""0"",""0""
","""event"",""trial"",""time""
""fullscreenenter"",""1"",""4726""
","
","","969","","","","real_trial","2021-08-05 14:53:57.199","img/card_backs/set1/green.gif","3","100","1","",""
"casino-fixation","136","542038","0.0-25.0-0.33","1086","false","img/card_backs/set1/yellow.gif","img/card_backs/set1/purple.gif","img/card_backs/set1/red.gif","img/card_backs/set1/green.gif","img/card_backs/set2/orange.gif","img/card_backs/set2/pink.gif","img/card_backs/set2/gray.gif","img/card_backs/set2/blue.gif","""event"",""trial"",""time""
""focus"",""0"",""0""
""fullscreenenter"",""1"",""4726""
","
","""event"",""trial"",""time""
""focus"",""0"",""0""
","""event"",""trial"",""time""
""fullscreenenter"",""1"",""4726""
","
","","null","","null","","fixation","2021-08-05 14:53:57.721","","","","","",""
"card-selection-trial","137","545473","0.0-25.0-1.33","1086","false","img/card_backs/set1/yellow.gif","img/card_backs/set1/purple.gif","img/card_backs/set1/red.gif","img/card_backs/set1/green.gif","img/card_backs/set2/orange.gif","img/card_backs/set2/pink.gif","img/card_backs/set2/gray.gif","img/card_backs/set2/blue.gif","""event"",""trial"",""time""
""focus"",""0"",""0""
""fullscreenenter"",""1"",""4726""
","
","""event"",""trial"",""time""
""focus"",""0"",""0""
","""event"",""trial"",""time""
""fullscreenenter"",""1"",""4726""
","
","","1428","","","","real_trial","2021-08-05 14:54:01.156","img/card_backs/set1/green.gif","2","-60","1","",""
"casino-fixation","138","545985","0.0-25.0-0.34","1086","false","img/card_backs/set1/yellow.gif","img/card_backs/set1/purple.gif","img/card_backs/set1/red.gif","img/card_backs/set1/green.gif","img/card_backs/set2/orange.gif","img/card_backs/set2/pink.gif","img/card_backs/set2/gray.gif","img/card_backs/set2/blue.gif","""event"",""trial"",""time""
""focus"",""0"",""0""
""fullscreenenter"",""1"",""4726""
","
","""event"",""trial"",""time""
""focus"",""0"",""0""
","""event"",""trial"",""time""
""fullscreenenter"",""1"",""4726""
","
","","null","","null","","fixation","2021-08-05 14:54:01.668","","","","","",""
"card-selection-trial","139","549445","0.0-25.0-1.34","1086","false","img/card_backs/set1/yellow.gif","img/card_backs/set1/purple.gif","img/card_backs/set1/red.gif","img/card_backs/set1/green.gif","img/card_backs/set2/orange.gif","img/card_backs/set2/pink.gif","img/card_backs/set2/gray.gif","img/card_backs/set2/blue.gif","""event"",""trial"",""time""
""focus"",""0"",""0""
""fullscreenenter"",""1"",""4726""
","
","""event"",""trial"",""time""
""focus"",""0"",""0""
","""event"",""trial"",""time""
""fullscreenenter"",""1"",""4726""
","
","","1446","","","","real_trial","2021-08-05 14:54:05.128","img/card_backs/set1/green.gif","2","120","1","",""
"casino-fixation","140","549953","0.0-25.0-0.35","1086","false","img/card_backs/set1/yellow.gif","img/card_backs/set1/purple.gif","img/card_backs/set1/red.gif","img/card_backs/set1/green.gif","img/card_backs/set2/orange.gif","img/card_backs/set2/pink.gif","img/card_backs/set2/gray.gif","img/card_backs/set2/blue.gif","""event"",""trial"",""time""
""focus"",""0"",""0""
""fullscreenenter"",""1"",""4726""
","
","""event"",""trial"",""time""
""focus"",""0"",""0""
","""event"",""trial"",""time""
""fullscreenenter"",""1"",""4726""
","
","","null","","null","","fixation","2021-08-05 14:54:05.636","","","","","",""
"card-selection-trial","141","553003","0.0-25.0-1.35","1086","false","img/card_backs/set1/yellow.gif","img/card_backs/set1/purple.gif","img/card_backs/set1/red.gif","img/card_backs/set1/green.gif","img/card_backs/set2/orange.gif","img/card_backs/set2/pink.gif","img/card_backs/set2/gray.gif","img/card_backs/set2/blue.gif","""event"",""trial"",""time""
""focus"",""0"",""0""
""fullscreenenter"",""1"",""4726""
","
","""event"",""trial"",""time""
""focus"",""0"",""0""
","""event"",""trial"",""time""
""fullscreenenter"",""1"",""4726""
","
","","1030","","","","real_trial","2021-08-05 14:54:08.686","img/card_backs/set1/purple.gif","2","-240","1","",""
"casino-fixation","142","553516","0.0-25.0-0.36","1086","false","img/card_backs/set1/yellow.gif","img/card_backs/set1/purple.gif","img/card_backs/set1/red.gif","img/card_backs/set1/green.gif","img/card_backs/set2/orange.gif","img/card_backs/set2/pink.gif","img/card_backs/set2/gray.gif","img/card_backs/set2/blue.gif","""event"",""trial"",""time""
""focus"",""0"",""0""
""fullscreenenter"",""1"",""4726""
","
","""event"",""trial"",""time""
""focus"",""0"",""0""
","""event"",""trial"",""time""
""fullscreenenter"",""1"",""4726""
","
","","null","","null","","fixation","2021-08-05 14:54:09.199","","","","","",""
"card-selection-trial","143","556352","0.0-25.0-1.36","1086","false","img/card_backs/set1/yellow.gif","img/card_backs/set1/purple.gif","img/card_backs/set1/red.gif","img/card_backs/set1/green.gif","img/card_backs/set2/orange.gif","img/card_backs/set2/pink.gif","img/card_backs/set2/gray.gif","img/card_backs/set2/blue.gif","""event"",""trial"",""time""
""focus"",""0"",""0""
""fullscreenenter"",""1"",""4726""
","
","""event"",""trial"",""time""
""focus"",""0"",""0""
","""event"",""trial"",""time""
""fullscreenenter"",""1"",""4726""
","
","","828","","","","real_trial","2021-08-05 14:54:12.035","img/card_backs/set1/green.gif","3","-60","1","",""
"casino-fixation","144","556864","0.0-25.0-0.37","1086","false","img/card_backs/set1/yellow.gif","img/card_backs/set1/purple.gif","img/card_backs/set1/red.gif","img/card_backs/set1/green.gif","img/card_backs/set2/orange.gif","img/card_backs/set2/pink.gif","img/card_backs/set2/gray.gif","img/card_backs/set2/blue.gif","""event"",""trial"",""time""
""focus"",""0"",""0""
""fullscreenenter"",""1"",""4726""
","
","""event"",""trial"",""time""
""focus"",""0"",""0""
","""event"",""trial"",""time""
""fullscreenenter"",""1"",""4726""
","
","","null","","null","","fixation","2021-08-05 14:54:12.548","","","","","",""
"card-selection-trial","145","560192","0.0-25.0-1.37","1086","false","img/card_backs/set1/yellow.gif","img/card_backs/set1/purple.gif","img/card_backs/set1/red.gif","img/card_backs/set1/green.gif","img/card_backs/set2/orange.gif","img/card_backs/set2/pink.gif","img/card_backs/set2/gray.gif","img/card_backs/set2/blue.gif","""event"",""trial"",""time""
""focus"",""0"",""0""
""fullscreenenter"",""1"",""4726""
","
","""event"",""trial"",""time""
""focus"",""0"",""0""
","""event"",""trial"",""time""
""fullscreenenter"",""1"",""4726""
","
","","1313","","","","real_trial","2021-08-05 14:54:15.876","img/card_backs/set1/green.gif","1","100","1","",""
"casino-fixation","146","560705","0.0-25.0-0.38","1086","false","img/card_backs/set1/yellow.gif","img/card_backs/set1/purple.gif","img/card_backs/set1/red.gif","img/card_backs/set1/green.gif","img/card_backs/set2/orange.gif","img/card_backs/set2/pink.gif","img/card_backs/set2/gray.gif","img/card_backs/set2/blue.gif","""event"",""trial"",""time""
""focus"",""0"",""0""
""fullscreenenter"",""1"",""4726""
","
","""event"",""trial"",""time""
""focus"",""0"",""0""
","""event"",""trial"",""time""
""fullscreenenter"",""1"",""4726""
","
","","null","","null","","fixation","2021-08-05 14:54:16.388","","","","","",""
"card-selection-trial","147","564098","0.0-25.0-1.38","1086","false","img/card_backs/set1/yellow.gif","img/card_backs/set1/purple.gif","img/card_backs/set1/red.gif","img/card_backs/set1/green.gif","img/card_backs/set2/orange.gif","img/card_backs/set2/pink.gif","img/card_backs/set2/gray.gif","img/card_backs/set2/blue.gif","""event"",""trial"",""time""
""focus"",""0"",""0""
""fullscreenenter"",""1"",""4726""
","
","""event"",""trial"",""time""
""focus"",""0"",""0""
","""event"",""trial"",""time""
""fullscreenenter"",""1"",""4726""
","
","","1384","","","","real_trial","2021-08-05 14:54:19.781","img/card_backs/set1/green.gif","2","-70","1","",""
"casino-fixation","148","564619","0.0-25.0-0.39","1086","false","img/card_backs/set1/yellow.gif","img/card_backs/set1/purple.gif","img/card_backs/set1/red.gif","img/card_backs/set1/green.gif","img/card_backs/set2/orange.gif","img/card_backs/set2/pink.gif","img/card_backs/set2/gray.gif","img/card_backs/set2/blue.gif","""event"",""trial"",""time""
""focus"",""0"",""0""
""fullscreenenter"",""1"",""4726""
","
","""event"",""trial"",""time""
""focus"",""0"",""0""
","""event"",""trial"",""time""
""fullscreenenter"",""1"",""4726""
","
","","null","","null","","fixation","2021-08-05 14:54:20.303","","","","","",""
"card-selection-trial","149","567287","0.0-25.0-1.39","1086","false","img/card_backs/set1/yellow.gif","img/card_backs/set1/purple.gif","img/card_backs/set1/red.gif","img/card_backs/set1/green.gif","img/card_backs/set2/orange.gif","img/card_backs/set2/pink.gif","img/card_backs/set2/gray.gif","img/card_backs/set2/blue.gif","""event"",""trial"",""time""
""focus"",""0"",""0""
""fullscreenenter"",""1"",""4726""
","
","""event"",""trial"",""time""
""focus"",""0"",""0""
","""event"",""trial"",""time""
""fullscreenenter"",""1"",""4726""
","
","","656","","","","real_trial","2021-08-05 14:54:22.971","img/card_backs/set1/green.gif","0","110","1","",""
