"success","trial_type","trial_index","time_elapsed","internal_node_id","subject_id","interactions","blur_events","focus_events","fullscreenenter_events","fullscreenexit_events","rt","stimulus","button_pressed","key_press","part","timestamp","unshuffled_button","correct_response","correct_button","correct","value"
"true","fullscreen","0","7374","0.0-0.0","979","""event"",""trial"",""time""
""fullscreenenter"",""0"",""6394""
","
","
","""event"",""trial"",""time""
""fullscreenenter"",""0"",""6394""
","
","","","","","","","","","","",""
"","pavlovia","1","7387","0.0-1.0","979","""event"",""trial"",""time""
""fullscreenenter"",""0"",""6394""
","
","
","""event"",""trial"",""time""
""fullscreenenter"",""0"",""6394""
","
","","","","","","","","","","",""
"","html-button-response","2","9567","0.0-2.0","979","""event"",""trial"",""time""
""fullscreenenter"",""0"",""6394""
","
","
","""event"",""trial"",""time""
""fullscreenenter"",""0"",""6394""
","
","2175","<p>Welcome! Press START to begin.</p><br>","0","","","","","","","",""
"","audio-button-response","3","26043","0.0-3.0","979","""event"",""trial"",""time""
""fullscreenenter"",""0"",""6394""
","
","
","""event"",""trial"",""time""
""fullscreenenter"",""0"",""6394""
","
","16476.200000047684","audio/mars_instructions_slide2.wav","0","","","","","","","",""
"","audio-button-response","4","29268","0.0-4.0","979","""event"",""trial"",""time""
""fullscreenenter"",""0"",""6394""
","
","
","""event"",""trial"",""time""
""fullscreenenter"",""0"",""6394""
","
","3221","audio/mars_instructions_slide3.wav","0","","","","","","","",""
"","html-keyboard-response","5","29773","0.0-5.0-0.0","979","""event"",""trial"",""time""
""fullscreenenter"",""0"",""6394""
","
","
","""event"",""trial"",""time""
""fullscreenenter"",""0"",""6394""
","
","null","<div style=""font-size:60px;"">+</div>","","null","fixation","2021-07-15 20:26:24.846","","","","",""
"","mars-trial","6","40161","0.0-5.0-1.0","979","""event"",""trial"",""time""
""fullscreenenter"",""0"",""6394""
","
","
","""event"",""trial"",""time""
""fullscreenenter"",""0"",""6394""
","
","8274.600000143051","<img style='border: 4px solid darkgrey;' src='practice/pt1_M1.png'></img>","2","","practice","","0","<img src='practice/pt1_T1.png'></img>","0","true",""
"","html-keyboard-response","7","40668","0.0-6.0-0.0","979","""event"",""trial"",""time""
""fullscreenenter"",""0"",""6394""
","
","
","""event"",""trial"",""time""
""fullscreenenter"",""0"",""6394""
","
","null","<div style=""font-size:60px;"">+</div>","","null","fixation","2021-07-15 20:26:35.742","","","","",""
"","mars-trial","8","45581","0.0-6.0-1.0","979","""event"",""trial"",""time""
""fullscreenenter"",""0"",""6394""
","
","
","""event"",""trial"",""time""
""fullscreenenter"",""0"",""6394""
","
","2795.7999999523163","<img style='border: 4px solid darkgrey;' src='practice/pt2_M1.png'></img>","0","","practice","","0","<img src='practice/pt2_T1.png'></img>","0","true",""
"","html-keyboard-response","9","46091","0.0-7.0-0.0","979","""event"",""trial"",""time""
""fullscreenenter"",""0"",""6394""
","
","
","""event"",""trial"",""time""
""fullscreenenter"",""0"",""6394""
","
","null","<div style=""font-size:60px;"">+</div>","","null","fixation","2021-07-15 20:26:41.165","","","","",""
"","mars-trial","10","50220","0.0-7.0-1.0","979","""event"",""trial"",""time""
""fullscreenenter"",""0"",""6394""
","
","
","""event"",""trial"",""time""
""fullscreenenter"",""0"",""6394""
","
","2009.5","<img style='border: 4px solid darkgrey;' src='practice/pt3_M1.png'></img>","2","","practice","","0","<img src='practice/pt3_T1.png'></img>","0","true",""
"","audio-button-response","11","51748","0.0-8.0","979","""event"",""trial"",""time""
""fullscreenenter"",""0"",""6394""
","
","
","""event"",""trial"",""time""
""fullscreenenter"",""0"",""6394""
","
","1524.5","audio/mars_instructions_slide4.wav","0","","","","","","","",""
"","call-function","12","51750","0.0-9.0","979","""event"",""trial"",""time""
""fullscreenenter"",""0"",""6394""
","
","
","""event"",""trial"",""time""
""fullscreenenter"",""0"",""6394""
","
","","","","","","","","","","",""
"","html-keyboard-response","13","52252","0.0-10.0-0.0","979","""event"",""trial"",""time""
""fullscreenenter"",""0"",""6394""
","
","
","""event"",""trial"",""time""
""fullscreenenter"",""0"",""6394""
","
","null","<div style=""font-size:60px;"">+</div>","","null","fixation","2021-07-15 20:26:47.325","","","","",""
"","mars-trial","14","55330","0.0-10.0-1.0","979","""event"",""trial"",""time""
""fullscreenenter"",""0"",""6394""
","
","
","""event"",""trial"",""time""
""fullscreenenter"",""0"",""6394""
","
","2466.2999999523163","<img style='border: 4px solid darkgrey;' src='img/tf1_1_M_ss3.jpeg'></img>","0","","exp","","0","<img src='img/tf1_1_T1_ss3_md.jpeg'></img>","0","true",""
"","html-keyboard-response","15","55835","0.0-10.0-0.1","979","""event"",""trial"",""time""
""fullscreenenter"",""0"",""6394""
","
","
","""event"",""trial"",""time""
""fullscreenenter"",""0"",""6394""
","
","null","<div style=""font-size:60px;"">+</div>","","null","fixation","2021-07-15 20:26:50.908","","","","",""
"","mars-trial","16","60849","0.0-10.0-1.1","979","""event"",""trial"",""time""
""fullscreenenter"",""0"",""6394""
","
","
","""event"",""trial"",""time""
""fullscreenenter"",""0"",""6394""
","
","4399.900000095367","<img style='border: 4px solid darkgrey;' src='img/tf1_2_M_ss1.jpeg'></img>","2","","exp","","0","<img src='img/tf1_2_T1_ss1_md.jpeg'></img>","0","true",""
"","html-keyboard-response","17","61351","0.0-10.0-0.2","979","""event"",""trial"",""time""
""fullscreenenter"",""0"",""6394""
","
","
","""event"",""trial"",""time""
""fullscreenenter"",""0"",""6394""
","
","null","<div style=""font-size:60px;"">+</div>","","null","fixation","2021-07-15 20:26:56.425","","","","",""
"","mars-trial","18","64555","0.0-10.0-1.2","979","""event"",""trial"",""time""
""fullscreenenter"",""0"",""6394""
","
","
","""event"",""trial"",""time""
""fullscreenenter"",""0"",""6394""
","
","2592.300000190735","<img style='border: 4px solid darkgrey;' src='img/tf1_3_M_ss2.jpeg'></img>","1","","exp","","0","<img src='img/tf1_3_T1_ss2_md.jpeg'></img>","0","true",""
"","html-keyboard-response","19","65066","0.0-10.0-0.3","979","""event"",""trial"",""time""
""fullscreenenter"",""0"",""6394""
","
","
","""event"",""trial"",""time""
""fullscreenenter"",""0"",""6394""
","
","null","<div style=""font-size:60px;"">+</div>","","null","fixation","2021-07-15 20:27:00.139","","","","",""
"","mars-trial","20","68500","0.0-10.0-1.3","979","""event"",""trial"",""time""
""fullscreenenter"",""0"",""6394""
","
","
","""event"",""trial"",""time""
""fullscreenenter"",""0"",""6394""
","
","2817.0999999046326","<img style='border: 4px solid darkgrey;' src='img/tf1_4_M_ss3.jpeg'></img>","2","","exp","","0","<img src='img/tf1_4_T1_ss3_md.jpeg'></img>","0","true",""
"","html-keyboard-response","21","69011","0.0-10.0-0.4","979","""event"",""trial"",""time""
""fullscreenenter"",""0"",""6394""
","
","
","""event"",""trial"",""time""
""fullscreenenter"",""0"",""6394""
","
","null","<div style=""font-size:60px;"">+</div>","","null","fixation","2021-07-15 20:27:04.084","","","","",""
"","mars-trial","22","71562","0.0-10.0-1.4","979","""event"",""trial"",""time""
""fullscreenenter"",""0"",""6394""
","
","
","""event"",""trial"",""time""
""fullscreenenter"",""0"",""6394""
","
","1932.5","<img style='border: 4px solid darkgrey;' src='img/tf1_5_M_ss1.jpeg'></img>","2","","exp","","0","<img src='img/tf1_5_T1_ss1_md.jpeg'></img>","0","true",""
"","html-keyboard-response","23","72065","0.0-10.0-0.5","979","""event"",""trial"",""time""
""fullscreenenter"",""0"",""6394""
","
","
","""event"",""trial"",""time""
""fullscreenenter"",""0"",""6394""
","
","null","<div style=""font-size:60px;"">+</div>","","null","fixation","2021-07-15 20:27:07.138","","","","",""
"","mars-trial","24","79441","0.0-10.0-1.5","979","""event"",""trial"",""time""
""fullscreenenter"",""0"",""6394""
","
","
","""event"",""trial"",""time""
""fullscreenenter"",""0"",""6394""
","
","6759.299999952316","<img style='border: 4px solid darkgrey;' src='img/tf1_6_M_ss2.jpeg'></img>","3","","exp","","2","<img src='img/tf1_6_T1_ss2_md.jpeg'></img>","0","false",""
"","html-keyboard-response","25","79945","0.0-10.0-0.6","979","""event"",""trial"",""time""
""fullscreenenter"",""0"",""6394""
","
","
","""event"",""trial"",""time""
""fullscreenenter"",""0"",""6394""
","
","null","<div style=""font-size:60px;"">+</div>","","null","fixation","2021-07-15 20:27:15.018","","","","",""
"","mars-trial","26","89621","0.0-10.0-1.6","979","""event"",""trial"",""time""
""fullscreenenter"",""0"",""6394""
","
","
","""event"",""trial"",""time""
""fullscreenenter"",""0"",""6394""
","
","9065.699999809265","<img style='border: 4px solid darkgrey;' src='img/tf1_7_M_ss3.jpeg'></img>","0","","exp","","0","<img src='img/tf1_7_T1_ss3_md.jpeg'></img>","0","true",""
"","html-keyboard-response","27","90134","0.0-10.0-0.7","979","""event"",""trial"",""time""
""fullscreenenter"",""0"",""6394""
","
","
","""event"",""trial"",""time""
""fullscreenenter"",""0"",""6394""
","
","null","<div style=""font-size:60px;"">+</div>","","null","fixation","2021-07-15 20:27:25.207","","","","",""
"","mars-trial","28","99251","0.0-10.0-1.7","979","""event"",""trial"",""time""
""fullscreenenter"",""0"",""6394""
","
","
","""event"",""trial"",""time""
""fullscreenenter"",""0"",""6394""
","
","8504.600000143051","<img style='border: 4px solid darkgrey;' src='img/tf1_8_M_ss1.jpeg'></img>","3","","exp","","0","<img src='img/tf1_8_T1_ss1_md.jpeg'></img>","0","true",""
"","html-keyboard-response","29","99755","0.0-10.0-0.8","979","""event"",""trial"",""time""
""fullscreenenter"",""0"",""6394""
","
","
","""event"",""trial"",""time""
""fullscreenenter"",""0"",""6394""
","
","null","<div style=""font-size:60px;"">+</div>","","null","fixation","2021-07-15 20:27:34.828","","","","",""
"","mars-trial","30","115525","0.0-10.0-1.8","979","""event"",""trial"",""time""
""fullscreenenter"",""0"",""6394""
","
","
","""event"",""trial"",""time""
""fullscreenenter"",""0"",""6394""
","
","15160.399999856949","<img style='border: 4px solid darkgrey;' src='img/tf1_9_M_ss2.jpeg'></img>","0","","exp","","0","<img src='img/tf1_9_T1_ss2_md.jpeg'></img>","0","true",""
"","html-keyboard-response","31","116028","0.0-10.0-0.9","979","""event"",""trial"",""time""
""fullscreenenter"",""0"",""6394""
","
","
","""event"",""trial"",""time""
""fullscreenenter"",""0"",""6394""
","
","null","<div style=""font-size:60px;"">+</div>","","null","fixation","2021-07-15 20:27:51.102","","","","",""
"","mars-trial","32","135141","0.0-10.0-1.9","979","""event"",""trial"",""time""
""fullscreenenter"",""0"",""6394""
","
","
","""event"",""trial"",""time""
""fullscreenenter"",""0"",""6394""
","
","18494.599999904633","<img style='border: 4px solid darkgrey;' src='img/tf1_10_M_ss3.jpeg'></img>","3","","exp","","0","<img src='img/tf1_10_T1_ss3_md.jpeg'></img>","0","true",""
"","html-keyboard-response","33","135644","0.0-10.0-0.10","979","""event"",""trial"",""time""
""fullscreenenter"",""0"",""6394""
","
","
","""event"",""trial"",""time""
""fullscreenenter"",""0"",""6394""
","
","null","<div style=""font-size:60px;"">+</div>","","null","fixation","2021-07-15 20:28:10.717","","","","",""
"","mars-trial","34","142645","0.0-10.0-1.10","979","""event"",""trial"",""time""
""fullscreenenter"",""0"",""6394""
","
","
","""event"",""trial"",""time""
""fullscreenenter"",""0"",""6394""
","
","6394.900000095367","<img style='border: 4px solid darkgrey;' src='img/tf1_11_M_ss1.jpeg'></img>","2","","exp","","1","<img src='img/tf1_11_T1_ss1_md.jpeg'></img>","0","false",""
"","html-keyboard-response","35","143148","0.0-10.0-0.11","979","""event"",""trial"",""time""
""fullscreenenter"",""0"",""6394""
","
","
","""event"",""trial"",""time""
""fullscreenenter"",""0"",""6394""
","
","null","<div style=""font-size:60px;"">+</div>","","null","fixation","2021-07-15 20:28:18.222","","","","",""
"","mars-trial","36","170181","0.0-10.0-1.11","979","""event"",""trial"",""time""
""fullscreenenter"",""0"",""6394""
","
","
","""event"",""trial"",""time""
""fullscreenenter"",""0"",""6394""
","
","26422.299999952316","<img style='border: 4px solid darkgrey;' src='img/tf1_12_M_ss2.jpeg'></img>","3","","exp","","3","<img src='img/tf1_12_T1_ss2_md.jpeg'></img>","0","false",""
"","html-keyboard-response","37","170685","0.0-10.0-0.12","979","""event"",""trial"",""time""
""fullscreenenter"",""0"",""6394""
","
","
","""event"",""trial"",""time""
""fullscreenenter"",""0"",""6394""
","
","null","<div style=""font-size:60px;"">+</div>","","null","fixation","2021-07-15 20:28:45.758","","","","",""
"","mars-trial","38","181241","0.0-10.0-1.12","979","""event"",""trial"",""time""
""fullscreenenter"",""0"",""6394""
","
","
","""event"",""trial"",""time""
""fullscreenenter"",""0"",""6394""
","
","9946.699999809265","<img style='border: 4px solid darkgrey;' src='img/tf1_13_M_ss3.jpeg'></img>","2","","exp","","0","<img src='img/tf1_13_T1_ss3_md.jpeg'></img>","0","true",""
"","html-keyboard-response","39","181745","0.0-10.0-0.13","979","""event"",""trial"",""time""
""fullscreenenter"",""0"",""6394""
","
","
","""event"",""trial"",""time""
""fullscreenenter"",""0"",""6394""
","
","null","<div style=""font-size:60px;"">+</div>","","null","fixation","2021-07-15 20:28:56.818","","","","",""
"","mars-trial","40","186520","0.0-10.0-1.13","979","""event"",""trial"",""time""
""fullscreenenter"",""0"",""6394""
","
","
","""event"",""trial"",""time""
""fullscreenenter"",""0"",""6394""
","
","4156.900000095367","<img style='border: 4px solid darkgrey;' src='img/tf1_14_M_ss1.jpeg'></img>","2","","exp","","2","<img src='img/tf1_14_T1_ss1_md.jpeg'></img>","0","false",""
"","html-keyboard-response","41","187023","0.0-10.0-0.14","979","""event"",""trial"",""time""
""fullscreenenter"",""0"",""6394""
","
","
","""event"",""trial"",""time""
""fullscreenenter"",""0"",""6394""
","
","null","<div style=""font-size:60px;"">+</div>","","null","fixation","2021-07-15 20:29:02.096","","","","",""
"","mars-trial","42","201591","0.0-10.0-1.14","979","""event"",""trial"",""time""
""fullscreenenter"",""0"",""6394""
","
","
","""event"",""trial"",""time""
""fullscreenenter"",""0"",""6394""
","
","13959","<img style='border: 4px solid darkgrey;' src='img/tf1_15_M_ss2.jpeg'></img>","1","","exp","","1","<img src='img/tf1_15_T1_ss2_md.jpeg'></img>","0","false",""
"","html-keyboard-response","43","202094","0.0-10.0-0.15","979","""event"",""trial"",""time""
""fullscreenenter"",""0"",""6394""
","
","
","""event"",""trial"",""time""
""fullscreenenter"",""0"",""6394""
","
","null","<div style=""font-size:60px;"">+</div>","","null","fixation","2021-07-15 20:29:17.167","","","","",""
"","mars-trial","44","208264","0.0-10.0-1.15","979","""event"",""trial"",""time""
""fullscreenenter"",""0"",""6394""
","
","
","""event"",""trial"",""time""
""fullscreenenter"",""0"",""6394""
","
","5546.799999952316","<img style='border: 4px solid darkgrey;' src='img/tf1_16_M_ss3.jpeg'></img>","2","","exp","","1","<img src='img/tf1_16_T1_ss3_md.jpeg'></img>","0","false",""
"","html-keyboard-response","45","208767","0.0-10.0-0.16","979","""event"",""trial"",""time""
""fullscreenenter"",""0"",""6394""
","
","
","""event"",""trial"",""time""
""fullscreenenter"",""0"",""6394""
","
","null","<div style=""font-size:60px;"">+</div>","","null","fixation","2021-07-15 20:29:23.840","","","","",""
"","mars-trial","46","220238","0.0-10.0-1.16","979","""event"",""trial"",""time""
""fullscreenenter"",""0"",""6394""
","
","
","""event"",""trial"",""time""
""fullscreenenter"",""0"",""6394""
","
","10862","<img style='border: 4px solid darkgrey;' src='img/tf1_17_M_ss1.jpeg'></img>","2","","exp","","0","<img src='img/tf1_17_T1_ss1_md.jpeg'></img>","0","true",""
"","html-keyboard-response","47","220741","0.0-10.0-0.17","979","""event"",""trial"",""time""
""fullscreenenter"",""0"",""6394""
","
","
","""event"",""trial"",""time""
""fullscreenenter"",""0"",""6394""
","
","null","<div style=""font-size:60px;"">+</div>","","null","fixation","2021-07-15 20:29:35.814","","","","",""
"","mars-trial","48","224770","0.0-10.0-1.17","979","""event"",""trial"",""time""
""fullscreenenter"",""0"",""6394""
","
","
","""event"",""trial"",""time""
""fullscreenenter"",""0"",""6394""
","
","3408.5999999046326","<img style='border: 4px solid darkgrey;' src='img/tf1_18_M_ss2.jpeg'></img>","2","","exp","","3","<img src='img/tf1_18_T1_ss2_md.jpeg'></img>","0","false",""
"","html-keyboard-response","49","225272","0.0-10.0-0.18","979","""event"",""trial"",""time""
""fullscreenenter"",""0"",""6394""
","
","
","""event"",""trial"",""time""
""fullscreenenter"",""0"",""6394""
","
","null","<div style=""font-size:60px;"">+</div>","","null","fixation","2021-07-15 20:29:40.346","","","","",""
"","mars-trial","50","230438","0.0-10.0-1.18","979","""event"",""trial"",""time""
""fullscreenenter"",""0"",""6394""
","
","
","""event"",""trial"",""time""
""fullscreenenter"",""0"",""6394""
","
","4552.200000047684","<img style='border: 4px solid darkgrey;' src='img/tf1_19_M_ss3.jpeg'></img>","2","","exp","","3","<img src='img/tf1_19_T1_ss3_md.jpeg'></img>","0","false",""
"","html-keyboard-response","51","230942","0.0-10.0-0.19","979","""event"",""trial"",""time""
""fullscreenenter"",""0"",""6394""
","
","
","""event"",""trial"",""time""
""fullscreenenter"",""0"",""6394""
","
","null","<div style=""font-size:60px;"">+</div>","","null","fixation","2021-07-15 20:29:46.015","","","","",""
"","mars-trial","52","238130","0.0-10.0-1.19","979","""event"",""trial"",""time""
""fullscreenenter"",""0"",""6394""
","
","
","""event"",""trial"",""time""
""fullscreenenter"",""0"",""6394""
","
","6579.100000143051","<img style='border: 4px solid darkgrey;' src='img/tf1_20_M_ss1.jpeg'></img>","1","","exp","","0","<img src='img/tf1_20_T1_ss1_md.jpeg'></img>","0","true",""
"","html-keyboard-response","53","238634","0.0-10.0-0.20","979","""event"",""trial"",""time""
""fullscreenenter"",""0"",""6394""
","
","
","""event"",""trial"",""time""
""fullscreenenter"",""0"",""6394""
","
","null","<div style=""font-size:60px;"">+</div>","","null","fixation","2021-07-15 20:29:53.707","","","","",""
"","mars-trial","54","249806","0.0-10.0-1.20","979","""event"",""trial"",""time""
""fullscreenenter"",""0"",""6394""
","
","
","""event"",""trial"",""time""
""fullscreenenter"",""0"",""6394""
","
","10548.199999809265","<img style='border: 4px solid darkgrey;' src='img/tf1_21_M_ss2.jpeg'></img>","1","","exp","","2","<img src='img/tf1_21_T1_ss2_md.jpeg'></img>","0","false",""
"","html-keyboard-response","55","250309","0.0-10.0-0.21","979","""event"",""trial"",""time""
""fullscreenenter"",""0"",""6394""
","
","
","""event"",""trial"",""time""
""fullscreenenter"",""0"",""6394""
","
","null","<div style=""font-size:60px;"">+</div>","","null","fixation","2021-07-15 20:30:05.382","","","","",""
"","mars-trial","56","257652","0.0-10.0-1.21","979","""event"",""trial"",""time""
""fullscreenenter"",""0"",""6394""
","
","
","""event"",""trial"",""time""
""fullscreenenter"",""0"",""6394""
","
","6730","<img style='border: 4px solid darkgrey;' src='img/tf1_22_M_ss3.jpeg'></img>","1","","exp","","0","<img src='img/tf1_22_T1_ss3_md.jpeg'></img>","0","true",""
"","html-keyboard-response","57","258155","0.0-10.0-0.22","979","""event"",""trial"",""time""
""fullscreenenter"",""0"",""6394""
","
","
","""event"",""trial"",""time""
""fullscreenenter"",""0"",""6394""
","
","null","<div style=""font-size:60px;"">+</div>","","null","fixation","2021-07-15 20:30:13.228","","","","",""
"","mars-trial","58","275245","0.0-10.0-1.22","979","""event"",""trial"",""time""
""fullscreenenter"",""0"",""6394""
","
","
","""event"",""trial"",""time""
""fullscreenenter"",""0"",""6394""
","
","16481.599999904633","<img style='border: 4px solid darkgrey;' src='img/tf1_23_M_ss1.jpeg'></img>","3","","exp","","0","<img src='img/tf1_23_T1_ss1_md.jpeg'></img>","0","true",""
"","html-keyboard-response","59","275755","0.0-10.0-0.23","979","""event"",""trial"",""time""
""fullscreenenter"",""0"",""6394""
","
","
","""event"",""trial"",""time""
""fullscreenenter"",""0"",""6394""
","
","null","<div style=""font-size:60px;"">+</div>","","null","fixation","2021-07-15 20:30:30.828","","","","",""
"","mars-trial","60","299356","0.0-10.0-1.23","979","""event"",""trial"",""time""
""fullscreenenter"",""0"",""6394""
","
","
","""event"",""trial"",""time""
""fullscreenenter"",""0"",""6394""
","
","22986.5","<img style='border: 4px solid darkgrey;' src='img/tf1_24_M_ss2.jpeg'></img>","1","","exp","","1","<img src='img/tf1_24_T1_ss2_md.jpeg'></img>","0","false",""
"","html-keyboard-response","61","299861","0.0-10.0-0.24","979","""event"",""trial"",""time""
""fullscreenenter"",""0"",""6394""
","
","
","""event"",""trial"",""time""
""fullscreenenter"",""0"",""6394""
","
","null","<div style=""font-size:60px;"">+</div>","","null","fixation","2021-07-15 20:30:54.934","","","","",""
"","mars-trial","62","309232","0.0-10.0-1.24","979","""event"",""trial"",""time""
""fullscreenenter"",""0"",""6394""
","
","
","""event"",""trial"",""time""
""fullscreenenter"",""0"",""6394""
","
","8752.700000047684","<img style='border: 4px solid darkgrey;' src='img/tf1_25_M_ss3.jpeg'></img>","2","","exp","","0","<img src='img/tf1_25_T1_ss3_md.jpeg'></img>","0","true",""
"","html-keyboard-response","63","309742","0.0-10.0-0.25","979","""event"",""trial"",""time""
""fullscreenenter"",""0"",""6394""
","
","
","""event"",""trial"",""time""
""fullscreenenter"",""0"",""6394""
","
","null","<div style=""font-size:60px;"">+</div>","","null","fixation","2021-07-15 20:31:04.815","","","","",""
"","mars-trial","64","316131","0.0-10.0-1.25","979","""event"",""trial"",""time""
""fullscreenenter"",""0"",""6394""
","
","
","""event"",""trial"",""time""
""fullscreenenter"",""0"",""6394""
","
","5771","<img style='border: 4px solid darkgrey;' src='img/tf1_26_M_ss1.jpeg'></img>","2","","exp","","3","<img src='img/tf1_26_T1_ss1_md.jpeg'></img>","0","false",""
"","html-keyboard-response","65","316635","0.0-10.0-0.26","979","""event"",""trial"",""time""
""fullscreenenter"",""0"",""6394""
","
","
","""event"",""trial"",""time""
""fullscreenenter"",""0"",""6394""
","
","null","<div style=""font-size:60px;"">+</div>","","null","fixation","2021-07-15 20:31:11.708","","","","",""
"","mars-trial","66","319751","0.0-10.0-1.26","979","""event"",""trial"",""time""
""fullscreenenter"",""0"",""6394""
","
","
","""event"",""trial"",""time""
""fullscreenenter"",""0"",""6394""
","
","2504.2999999523163","<img style='border: 4px solid darkgrey;' src='img/tf1_27_M_ss2.jpeg'></img>","2","","exp","","0","<img src='img/tf1_27_T1_ss2_md.jpeg'></img>","0","true",""
"","html-keyboard-response","67","320255","0.0-10.0-0.27","979","""event"",""trial"",""time""
""fullscreenenter"",""0"",""6394""
","
","
","""event"",""trial"",""time""
""fullscreenenter"",""0"",""6394""
","
","null","<div style=""font-size:60px;"">+</div>","","null","fixation","2021-07-15 20:31:15.328","","","","",""
"","mars-trial","68","340031","0.0-10.0-1.27","979","""event"",""trial"",""time""
""fullscreenenter"",""0"",""6394""
","
","
","""event"",""trial"",""time""
""fullscreenenter"",""0"",""6394""
","
","19162.89999985695","<img style='border: 4px solid darkgrey;' src='img/tf1_28_M_ss3.jpeg'></img>","0","","exp","","2","<img src='img/tf1_28_T1_ss3_md.jpeg'></img>","0","false",""
"","html-keyboard-response","69","340535","0.0-10.0-0.28","979","""event"",""trial"",""time""
""fullscreenenter"",""0"",""6394""
","
","
","""event"",""trial"",""time""
""fullscreenenter"",""0"",""6394""
","
","null","<div style=""font-size:60px;"">+</div>","","null","fixation","2021-07-15 20:31:35.609","","","","",""
"","mars-trial","70","346072","0.0-10.0-1.28","979","""event"",""trial"",""time""
""fullscreenenter"",""0"",""6394""
","
","
","""event"",""trial"",""time""
""fullscreenenter"",""0"",""6394""
","
","4912.099999904633","<img style='border: 4px solid darkgrey;' src='img/tf1_29_M_ss1.jpeg'></img>","3","","exp","","3","<img src='img/tf1_29_T1_ss1_md.jpeg'></img>","0","false",""
"","html-keyboard-response","71","346576","0.0-10.0-0.29","979","""event"",""trial"",""time""
""fullscreenenter"",""0"",""6394""
","
","
","""event"",""trial"",""time""
""fullscreenenter"",""0"",""6394""
","
","null","<div style=""font-size:60px;"">+</div>","","null","fixation","2021-07-15 20:31:41.649","","","","",""
"","mars-trial","72","356843","0.0-10.0-1.29","979","""event"",""trial"",""time""
""fullscreenenter"",""0"",""6394""
","
","
","""event"",""trial"",""time""
""fullscreenenter"",""0"",""6394""
","
","9645.300000190735","<img style='border: 4px solid darkgrey;' src='img/tf1_30_M_ss2.jpeg'></img>","1","","exp","","1","<img src='img/tf1_30_T1_ss2_md.jpeg'></img>","0","false",""
"","html-keyboard-response","73","357347","0.0-10.0-0.30","979","""event"",""trial"",""time""
""fullscreenenter"",""0"",""6394""
","
","
","""event"",""trial"",""time""
""fullscreenenter"",""0"",""6394""
","
","null","<div style=""font-size:60px;"">+</div>","","null","fixation","2021-07-15 20:31:52.420","","","","",""
"","mars-trial","74","363953","0.0-10.0-1.30","979","""event"",""trial"",""time""
""fullscreenenter"",""0"",""6394""
","
","
","""event"",""trial"",""time""
""fullscreenenter"",""0"",""6394""
","
","5996.399999856949","<img style='border: 4px solid darkgrey;' src='img/tf1_31_M_ss3.jpeg'></img>","1","","exp","","3","<img src='img/tf1_31_T1_ss3_md.jpeg'></img>","0","false",""
"","html-keyboard-response","75","364455","0.0-10.0-0.31","979","""event"",""trial"",""time""
""fullscreenenter"",""0"",""6394""
","
","
","""event"",""trial"",""time""
""fullscreenenter"",""0"",""6394""
","
","null","<div style=""font-size:60px;"">+</div>","","null","fixation","2021-07-15 20:31:59.529","","","","",""
"","mars-trial","76","378179","0.0-10.0-1.31","979","""event"",""trial"",""time""
""fullscreenenter"",""0"",""6394""
","
","
","""event"",""trial"",""time""
""fullscreenenter"",""0"",""6394""
","
","13113.599999904633","<img style='border: 4px solid darkgrey;' src='img/tf1_32_M_ss1.jpeg'></img>","0","","exp","","0","<img src='img/tf1_32_T1_ss1_md.jpeg'></img>","0","true",""
"","html-keyboard-response","77","378683","0.0-10.0-0.32","979","""event"",""trial"",""time""
""fullscreenenter"",""0"",""6394""
","
","
","""event"",""trial"",""time""
""fullscreenenter"",""0"",""6394""
","
","null","<div style=""font-size:60px;"">+</div>","","null","fixation","2021-07-15 20:32:13.756","","","","",""
"","mars-trial","78","383624","0.0-10.0-1.32","979","""event"",""trial"",""time""
""fullscreenenter"",""0"",""6394""
","
","
","""event"",""trial"",""time""
""fullscreenenter"",""0"",""6394""
","
","4330.399999856949","<img style='border: 4px solid darkgrey;' src='img/tf1_33_M_ss2.jpeg'></img>","3","","exp","","0","<img src='img/tf1_33_T1_ss2_md.jpeg'></img>","0","true",""
"","html-keyboard-response","79","384127","0.0-10.0-0.33","979","""event"",""trial"",""time""
""fullscreenenter"",""0"",""6394""
","
","
","""event"",""trial"",""time""
""fullscreenenter"",""0"",""6394""
","
","null","<div style=""font-size:60px;"">+</div>","","null","fixation","2021-07-15 20:32:19.200","","","","",""
"","mars-trial","80","389711","0.0-10.0-1.33","979","""event"",""trial"",""time""
""fullscreenenter"",""0"",""6394""
","
","
","""event"",""trial"",""time""
""fullscreenenter"",""0"",""6394""
","
","4977.200000047684","<img style='border: 4px solid darkgrey;' src='img/tf1_34_M_ss3.jpeg'></img>","2","","exp","","0","<img src='img/tf1_34_T1_ss3_md.jpeg'></img>","0","true",""
"","html-keyboard-response","81","390214","0.0-10.0-0.34","979","""event"",""trial"",""time""
""fullscreenenter"",""0"",""6394""
","
","
","""event"",""trial"",""time""
""fullscreenenter"",""0"",""6394""
","
","null","<div style=""font-size:60px;"">+</div>","","null","fixation","2021-07-15 20:32:25.287","","","","",""
"","mars-trial","82","395267","0.0-10.0-1.34","979","""event"",""trial"",""time""
""fullscreenenter"",""0"",""6394""
","
","
","""event"",""trial"",""time""
""fullscreenenter"",""0"",""6394""
","
","4441.700000047684","<img style='border: 4px solid darkgrey;' src='img/tf1_35_M_ss1.jpeg'></img>","2","","exp","","0","<img src='img/tf1_35_T1_ss1_md.jpeg'></img>","0","true",""
"","html-keyboard-response","83","395770","0.0-10.0-0.35","979","""event"",""trial"",""time""
""fullscreenenter"",""0"",""6394""
","
","
","""event"",""trial"",""time""
""fullscreenenter"",""0"",""6394""
","
","null","<div style=""font-size:60px;"">+</div>","","null","fixation","2021-07-15 20:32:30.843","","","","",""
"","mars-trial","84","413109","0.0-10.0-1.35","979","""event"",""trial"",""time""
""fullscreenenter"",""0"",""6394""
","
","
","""event"",""trial"",""time""
""fullscreenenter"",""0"",""6394""
","
","16724","<img style='border: 4px solid darkgrey;' src='img/tf1_36_M_ss2.jpeg'></img>","3","","exp","","3","<img src='img/tf1_36_T1_ss2_md.jpeg'></img>","0","false",""
"","html-keyboard-response","85","413612","0.0-10.0-0.36","979","""event"",""trial"",""time""
""fullscreenenter"",""0"",""6394""
","
","
","""event"",""trial"",""time""
""fullscreenenter"",""0"",""6394""
","
","null","<div style=""font-size:60px;"">+</div>","","null","fixation","2021-07-15 20:32:48.685","","","","",""
"","mars-trial","86","416986","0.0-10.0-1.36","979","""event"",""trial"",""time""
""fullscreenenter"",""0"",""6394""
","
","
","""event"",""trial"",""time""
""fullscreenenter"",""0"",""6394""
","
","2760.7000000476837","<img style='border: 4px solid darkgrey;' src='img/tf1_37_M_ss3.jpeg'></img>","3","","exp","","1","<img src='img/tf1_37_T1_ss3_md.jpeg'></img>","0","false",""
"","html-keyboard-response","87","417488","0.0-10.0-0.37","979","""event"",""trial"",""time""
""fullscreenenter"",""0"",""6394""
","
","
","""event"",""trial"",""time""
""fullscreenenter"",""0"",""6394""
","
","null","<div style=""font-size:60px;"">+</div>","","null","fixation","2021-07-15 20:32:52.562","","","","",""
"","mars-trial","88","422808","0.0-10.0-1.37","979","""event"",""trial"",""time""
""fullscreenenter"",""0"",""6394""
","
","
","""event"",""trial"",""time""
""fullscreenenter"",""0"",""6394""
","
","4708.400000095367","<img style='border: 4px solid darkgrey;' src='img/tf1_38_M_ss1.jpeg'></img>","2","","exp","","0","<img src='img/tf1_38_T1_ss1_md.jpeg'></img>","0","true",""
"","html-keyboard-response","89","423311","0.0-10.0-0.38","979","""event"",""trial"",""time""
""fullscreenenter"",""0"",""6394""
","
","
","""event"",""trial"",""time""
""fullscreenenter"",""0"",""6394""
","
","null","<div style=""font-size:60px;"">+</div>","","null","fixation","2021-07-15 20:32:58.384","","","","",""
"","mars-trial","90","427012","0.0-10.0-1.38","979","""event"",""trial"",""time""
""fullscreenenter"",""0"",""6394""
","
","
","""event"",""trial"",""time""
""fullscreenenter"",""0"",""6394""
","
","3082.2000000476837","<img style='border: 4px solid darkgrey;' src='img/tf1_39_M_ss2.jpeg'></img>","2","","exp","","0","<img src='img/tf1_39_T1_ss2_md.jpeg'></img>","0","true",""
"","html-keyboard-response","91","427515","0.0-10.0-0.39","979","""event"",""trial"",""time""
""fullscreenenter"",""0"",""6394""
","
","
","""event"",""trial"",""time""
""fullscreenenter"",""0"",""6394""
","
","null","<div style=""font-size:60px;"">+</div>","","null","fixation","2021-07-15 20:33:02.588","","","","",""
"","mars-trial","92","434562","0.0-10.0-1.39","979","""event"",""trial"",""time""
""fullscreenenter"",""0"",""6394""
","
","
","""event"",""trial"",""time""
""fullscreenenter"",""0"",""6394""
","
","6436","<img style='border: 4px solid darkgrey;' src='img/tf1_40_M_ss3.jpeg'></img>","3","","exp","","3","<img src='img/tf1_40_T1_ss3_md.jpeg'></img>","0","false",""
"","html-keyboard-response","93","435065","0.0-10.0-0.40","979","""event"",""trial"",""time""
""fullscreenenter"",""0"",""6394""
","
","
","""event"",""trial"",""time""
""fullscreenenter"",""0"",""6394""
","
","null","<div style=""font-size:60px;"">+</div>","","null","fixation","2021-07-15 20:33:10.138","","","","",""
"","mars-trial","94","443950","0.0-10.0-1.40","979","""event"",""trial"",""time""
""fullscreenenter"",""0"",""6394""
","
","
","""event"",""trial"",""time""
""fullscreenenter"",""0"",""6394""
","
","8264.699999809265","<img style='border: 4px solid darkgrey;' src='img/tf1_41_M_ss1.jpeg'></img>","3","","exp","","0","<img src='img/tf1_41_T1_ss1_md.jpeg'></img>","0","true",""
"","html-keyboard-response","95","444454","0.0-10.0-0.41","979","""event"",""trial"",""time""
""fullscreenenter"",""0"",""6394""
","
","
","""event"",""trial"",""time""
""fullscreenenter"",""0"",""6394""
","
","null","<div style=""font-size:60px;"">+</div>","","null","fixation","2021-07-15 20:33:19.527","","","","",""
"","mars-trial","96","452691","0.0-10.0-1.41","979","""event"",""trial"",""time""
""fullscreenenter"",""0"",""6394""
","
","
","""event"",""trial"",""time""
""fullscreenenter"",""0"",""6394""
","
","7618.600000143051","<img style='border: 4px solid darkgrey;' src='img/tf1_42_M_ss2.jpeg'></img>","3","","exp","","3","<img src='img/tf1_42_T1_ss2_md.jpeg'></img>","0","false",""
"","html-keyboard-response","97","453195","0.0-10.0-0.42","979","""event"",""trial"",""time""
""fullscreenenter"",""0"",""6394""
","
","
","""event"",""trial"",""time""
""fullscreenenter"",""0"",""6394""
","
","null","<div style=""font-size:60px;"">+</div>","","null","fixation","2021-07-15 20:33:28.268","","","","",""
"","mars-trial","98","456579","0.0-10.0-1.42","979","""event"",""trial"",""time""
""fullscreenenter"",""0"",""6394""
","
","
","""event"",""trial"",""time""
""fullscreenenter"",""0"",""6394""
","
","2773.100000143051","<img style='border: 4px solid darkgrey;' src='img/tf1_43_M_ss3.jpeg'></img>","2","","exp","","2","<img src='img/tf1_43_T1_ss3_md.jpeg'></img>","0","false",""
"","html-keyboard-response","99","457081","0.0-10.0-0.43","979","""event"",""trial"",""time""
""fullscreenenter"",""0"",""6394""
","
","
","""event"",""trial"",""time""
""fullscreenenter"",""0"",""6394""
","
","null","<div style=""font-size:60px;"">+</div>","","null","fixation","2021-07-15 20:33:32.154","","","","",""
"","mars-trial","100","461815","0.0-10.0-1.43","979","""event"",""trial"",""time""
""fullscreenenter"",""0"",""6394""
","
","
","""event"",""trial"",""time""
""fullscreenenter"",""0"",""6394""
","
","4111.600000143051","<img style='border: 4px solid darkgrey;' src='img/tf1_44_M_ss1.jpeg'></img>","3","","exp","","2","<img src='img/tf1_44_T1_ss1_md.jpeg'></img>","0","false",""
"","html-keyboard-response","101","462318","0.0-10.0-0.44","979","""event"",""trial"",""time""
""fullscreenenter"",""0"",""6394""
","
","
","""event"",""trial"",""time""
""fullscreenenter"",""0"",""6394""
","
","null","<div style=""font-size:60px;"">+</div>","","null","fixation","2021-07-15 20:33:37.391","","","","",""
"","mars-trial","102","467316","0.0-10.0-1.44","979","""event"",""trial"",""time""
""fullscreenenter"",""0"",""6394""
","
","
","""event"",""trial"",""time""
""fullscreenenter"",""0"",""6394""
","
","4377.299999952316","<img style='border: 4px solid darkgrey;' src='img/tf1_45_M_ss2.jpeg'></img>","3","","exp","","0","<img src='img/tf1_45_T1_ss2_md.jpeg'></img>","0","true",""
"","html-keyboard-response","103","467820","0.0-10.0-0.45","979","""event"",""trial"",""time""
""fullscreenenter"",""0"",""6394""
","
","
","""event"",""trial"",""time""
""fullscreenenter"",""0"",""6394""
","
","null","<div style=""font-size:60px;"">+</div>","","null","fixation","2021-07-15 20:33:42.893","","","","",""
"","mars-trial","104","471653","0.0-10.0-1.45","979","""event"",""trial"",""time""
""fullscreenenter"",""0"",""6394""
","
","
","""event"",""trial"",""time""
""fullscreenenter"",""0"",""6394""
","
","3220.9000000953674","<img style='border: 4px solid darkgrey;' src='img/tf1_46_M_ss3.jpeg'></img>","3","","exp","","1","<img src='img/tf1_46_T1_ss3_md.jpeg'></img>","0","false",""
"","html-keyboard-response","105","472157","0.0-10.0-0.46","979","""event"",""trial"",""time""
""fullscreenenter"",""0"",""6394""
","
","
","""event"",""trial"",""time""
""fullscreenenter"",""0"",""6394""
","
","null","<div style=""font-size:60px;"">+</div>","","null","fixation","2021-07-15 20:33:47.230","","","","",""
"","mars-trial","106","477180","0.0-10.0-1.46","979","""event"",""trial"",""time""
""fullscreenenter"",""0"",""6394""
","
","
","""event"",""trial"",""time""
""fullscreenenter"",""0"",""6394""
","
","4407.5","<img style='border: 4px solid darkgrey;' src='img/tf1_47_M_ss1.jpeg'></img>","3","","exp","","0","<img src='img/tf1_47_T1_ss1_md.jpeg'></img>","0","true",""
"","html-keyboard-response","107","477683","0.0-10.0-0.47","979","""event"",""trial"",""time""
""fullscreenenter"",""0"",""6394""
","
","
","""event"",""trial"",""time""
""fullscreenenter"",""0"",""6394""
","
","null","<div style=""font-size:60px;"">+</div>","","null","fixation","2021-07-15 20:33:52.756","","","","",""
"","mars-trial","108","491493","0.0-10.0-1.47","979","""event"",""trial"",""time""
""fullscreenenter"",""0"",""6394""
","
","
","""event"",""trial"",""time""
""fullscreenenter"",""0"",""6394""
","
","13184.200000047684","<img style='border: 4px solid darkgrey;' src='img/tf1_48_M_ss2.jpeg'></img>","0","","exp","","0","<img src='img/tf1_48_T1_ss2_md.jpeg'></img>","0","true",""
"","html-keyboard-response","109","491996","0.0-10.0-0.48","979","""event"",""trial"",""time""
""fullscreenenter"",""0"",""6394""
","
","
","""event"",""trial"",""time""
""fullscreenenter"",""0"",""6394""
","
","null","<div style=""font-size:60px;"">+</div>","","null","fixation","2021-07-15 20:34:07.070","","","","",""
"","mars-trial","110","498566","0.0-10.0-1.48","979","""event"",""trial"",""time""
""fullscreenenter"",""0"",""6394""
","
","
","""event"",""trial"",""time""
""fullscreenenter"",""0"",""6394""
","
","5958.5","<img style='border: 4px solid darkgrey;' src='img/tf1_49_M_ss3.jpeg'></img>","2","","exp","","0","<img src='img/tf1_49_T1_ss3_md.jpeg'></img>","0","true",""
"","html-keyboard-response","111","499070","0.0-10.0-0.49","979","""event"",""trial"",""time""
""fullscreenenter"",""0"",""6394""
","
","
","""event"",""trial"",""time""
""fullscreenenter"",""0"",""6394""
","
","null","<div style=""font-size:60px;"">+</div>","","null","fixation","2021-07-15 20:34:14.143","","","","",""
"","mars-trial","112","505742","0.0-10.0-1.49","979","""event"",""trial"",""time""
""fullscreenenter"",""0"",""6394""
","
","
","""event"",""trial"",""time""
""fullscreenenter"",""0"",""6394""
","
","6059.099999904633","<img style='border: 4px solid darkgrey;' src='img/tf1_50_M_ss1.jpeg'></img>","3","","exp","","0","<img src='img/tf1_50_T1_ss1_md.jpeg'></img>","0","true",""
"","html-keyboard-response","113","506245","0.0-10.0-0.50","979","""event"",""trial"",""time""
""fullscreenenter"",""0"",""6394""
","
","
","""event"",""trial"",""time""
""fullscreenenter"",""0"",""6394""
","
","null","<div style=""font-size:60px;"">+</div>","","null","fixation","2021-07-15 20:34:21.319","","","","",""
"","mars-trial","114","530526","0.0-10.0-1.50","979","""event"",""trial"",""time""
""fullscreenenter"",""0"",""6394""
","
","
","""event"",""trial"",""time""
""fullscreenenter"",""0"",""6394""
","
","23670","<img style='border: 4px solid darkgrey;' src='img/tf1_51_M_ss2.jpeg'></img>","1","","exp","","0","<img src='img/tf1_51_T1_ss2_md.jpeg'></img>","0","true",""
"","html-keyboard-response","115","531030","0.0-10.0-0.51","979","""event"",""trial"",""time""
""fullscreenenter"",""0"",""6394""
","
","
","""event"",""trial"",""time""
""fullscreenenter"",""0"",""6394""
","
","null","<div style=""font-size:60px;"">+</div>","","null","fixation","2021-07-15 20:34:46.103","","","","",""
"","mars-trial","116","531737","0.0-10.0-1.51","979","""event"",""trial"",""time""
""fullscreenenter"",""0"",""6394""
","
","
","""event"",""trial"",""time""
""fullscreenenter"",""0"",""6394""
","
","","","","","exp","","","<img src='img/tf1_52_T1_ss3_md.jpeg'></img>","0","false",""
"","html-keyboard-response","117","532239","0.0-10.0-0.52","979","""event"",""trial"",""time""
""fullscreenenter"",""0"",""6394""
","
","
","""event"",""trial"",""time""
""fullscreenenter"",""0"",""6394""
","
","null","<div style=""font-size:60px;"">+</div>","","null","fixation","2021-07-15 20:34:47.313","","","","",""
"","audio-button-response","118","537609","0.0-11.0","979","""event"",""trial"",""time""
""fullscreenenter"",""0"",""6394""
","
","
","""event"",""trial"",""time""
""fullscreenenter"",""0"",""6394""
","
","5264.300000190735","audio/mars_instructions_slide5.wav","0","","","","","","","",""
