"success","trial_type","trial_index","time_elapsed","internal_node_id","subject_id","interactions","blur_events","focus_events","fullscreenenter_events","fullscreenexit_events","rt","stimulus","button_pressed","key_press","part","timestamp","unshuffled_button","correct_response","correct_button","correct","value"
"true","fullscreen","0","3788","0.0-0.0","513","""event"",""trial"",""time""
""fullscreenenter"",""0"",""2805""
","
","
","""event"",""trial"",""time""
""fullscreenenter"",""0"",""2805""
","
","","","","","","","","","","",""
"","pavlovia","1","3792","0.0-1.0","513","""event"",""trial"",""time""
""fullscreenenter"",""0"",""2805""
","
","
","""event"",""trial"",""time""
""fullscreenenter"",""0"",""2805""
","
","","","","","","","","","","",""
"","html-button-response","2","5565","0.0-2.0","513","""event"",""trial"",""time""
""fullscreenenter"",""0"",""2805""
","
","
","""event"",""trial"",""time""
""fullscreenenter"",""0"",""2805""
","
","1771.3000000001102","<p>Welcome! Press START to begin.</p><br>","0","","","","","","","",""
"","audio-button-response","3","9460","0.0-3.0","513","""event"",""trial"",""time""
""fullscreenenter"",""0"",""2805""
","
","
","""event"",""trial"",""time""
""fullscreenenter"",""0"",""2805""
","
","3891.165000000001","audio/mars_instructions_slide2.wav","0","","","","","","","",""
"","audio-button-response","4","11658","0.0-4.0","513","""event"",""trial"",""time""
""fullscreenenter"",""0"",""2805""
","
","
","""event"",""trial"",""time""
""fullscreenenter"",""0"",""2805""
","
","2195.645000000013","audio/mars_instructions_slide3.wav","0","","","","","","","",""
"","html-keyboard-response","5","12160","0.0-5.0-0.0","513","""event"",""trial"",""time""
""fullscreenenter"",""0"",""2805""
","
","
","""event"",""trial"",""time""
""fullscreenenter"",""0"",""2805""
","
","null","<div style=""font-size:60px;"">+</div>","","null","fixation","2021-06-03 20:55:43.959","","","","",""
"","mars-trial","6","18148","0.0-5.0-1.0","513","""event"",""trial"",""time""
""fullscreenenter"",""0"",""2805""
","
","
","""event"",""trial"",""time""
""fullscreenenter"",""0"",""2805""
","
","3881.5099999999366","<img style='border: 4px solid darkgrey;' src='practice/pt1_M1.png'></img>","2","","practice","","0","<img src='practice/pt1_T1.png'></img>","0","true",""
"","html-keyboard-response","7","18651","0.0-6.0-0.0","513","""event"",""trial"",""time""
""fullscreenenter"",""0"",""2805""
","
","
","""event"",""trial"",""time""
""fullscreenenter"",""0"",""2805""
","
","null","<div style=""font-size:60px;"">+</div>","","null","fixation","2021-06-03 20:55:50.449","","","","",""
"","mars-trial","8","23802","0.0-6.0-1.0","513","""event"",""trial"",""time""
""fullscreenenter"",""0"",""2805""
","
","
","""event"",""trial"",""time""
""fullscreenenter"",""0"",""2805""
","
","3044.6599999997925","<img style='border: 4px solid darkgrey;' src='practice/pt2_M1.png'></img>","1","","practice","","0","<img src='practice/pt2_T1.png'></img>","0","true",""
"","html-keyboard-response","9","24304","0.0-7.0-0.0","513","""event"",""trial"",""time""
""fullscreenenter"",""0"",""2805""
","
","
","""event"",""trial"",""time""
""fullscreenenter"",""0"",""2805""
","
","null","<div style=""font-size:60px;"">+</div>","","null","fixation","2021-06-03 20:55:56.102","","","","",""
"","mars-trial","10","27954","0.0-7.0-1.0","513","""event"",""trial"",""time""
""fullscreenenter"",""0"",""2805""
","
","
","""event"",""trial"",""time""
""fullscreenenter"",""0"",""2805""
","
","1544.9500000002008","<img style='border: 4px solid darkgrey;' src='practice/pt3_M1.png'></img>","1","","practice","","0","<img src='practice/pt3_T1.png'></img>","0","true",""
"","audio-button-response","11","49957","0.0-8.0","513","""event"",""trial"",""time""
""fullscreenenter"",""0"",""2805""
","
","
","""event"",""trial"",""time""
""fullscreenenter"",""0"",""2805""
","
","22001.62999999998","audio/mars_instructions_slide4.wav","0","","","","","","","",""
"","call-function","12","49959","0.0-9.0","513","""event"",""trial"",""time""
""fullscreenenter"",""0"",""2805""
","
","
","""event"",""trial"",""time""
""fullscreenenter"",""0"",""2805""
","
","","","","","","","","","","",""
"","html-keyboard-response","13","50460","0.0-10.0-0.0","513","""event"",""trial"",""time""
""fullscreenenter"",""0"",""2805""
","
","
","""event"",""trial"",""time""
""fullscreenenter"",""0"",""2805""
","
","null","<div style=""font-size:60px;"">+</div>","","null","fixation","2021-06-03 20:56:22.258","","","","",""
"","mars-trial","14","53534","0.0-10.0-1.0","513","""event"",""trial"",""time""
""fullscreenenter"",""0"",""2805""
","
","
","""event"",""trial"",""time""
""fullscreenenter"",""0"",""2805""
","
","2468.7250000001804","<img style='border: 4px solid darkgrey;' src='img/tf1_1_M_ss3.jpeg'></img>","0","","exp","","0","<img src='img/tf1_1_T1_ss3_md.jpeg'></img>","0","true",""
"","html-keyboard-response","15","54035","0.0-10.0-0.1","513","""event"",""trial"",""time""
""fullscreenenter"",""0"",""2805""
","
","
","""event"",""trial"",""time""
""fullscreenenter"",""0"",""2805""
","
","null","<div style=""font-size:60px;"">+</div>","","null","fixation","2021-06-03 20:56:25.834","","","","",""
"","mars-trial","16","56622","0.0-10.0-1.1","513","""event"",""trial"",""time""
""fullscreenenter"",""0"",""2805""
","
","
","""event"",""trial"",""time""
""fullscreenenter"",""0"",""2805""
","
","1981.8250000000698","<img style='border: 4px solid darkgrey;' src='img/tf1_2_M_ss1.jpeg'></img>","2","","exp","","0","<img src='img/tf1_2_T1_ss1_md.jpeg'></img>","0","true",""
"","html-keyboard-response","17","57124","0.0-10.0-0.2","513","""event"",""trial"",""time""
""fullscreenenter"",""0"",""2805""
","
","
","""event"",""trial"",""time""
""fullscreenenter"",""0"",""2805""
","
","null","<div style=""font-size:60px;"">+</div>","","null","fixation","2021-06-03 20:56:28.922","","","","",""
"","mars-trial","18","60367","0.0-10.0-1.2","513","""event"",""trial"",""time""
""fullscreenenter"",""0"",""2805""
","
","
","""event"",""trial"",""time""
""fullscreenenter"",""0"",""2805""
","
","2638.340000000193","<img style='border: 4px solid darkgrey;' src='img/tf1_3_M_ss2.jpeg'></img>","3","","exp","","0","<img src='img/tf1_3_T1_ss2_md.jpeg'></img>","0","true",""
"","html-keyboard-response","19","60869","0.0-10.0-0.3","513","""event"",""trial"",""time""
""fullscreenenter"",""0"",""2805""
","
","
","""event"",""trial"",""time""
""fullscreenenter"",""0"",""2805""
","
","null","<div style=""font-size:60px;"">+</div>","","null","fixation","2021-06-03 20:56:32.667","","","","",""
"","mars-trial","20","64044","0.0-10.0-1.3","513","""event"",""trial"",""time""
""fullscreenenter"",""0"",""2805""
","
","
","""event"",""trial"",""time""
""fullscreenenter"",""0"",""2805""
","
","2569.494999999959","<img style='border: 4px solid darkgrey;' src='img/tf1_4_M_ss3.jpeg'></img>","3","","exp","","0","<img src='img/tf1_4_T1_ss3_md.jpeg'></img>","0","true",""
"","html-keyboard-response","21","64545","0.0-10.0-0.4","513","""event"",""trial"",""time""
""fullscreenenter"",""0"",""2805""
","
","
","""event"",""trial"",""time""
""fullscreenenter"",""0"",""2805""
","
","null","<div style=""font-size:60px;"">+</div>","","null","fixation","2021-06-03 20:56:36.343","","","","",""
"","mars-trial","22","66410","0.0-10.0-1.4","513","""event"",""trial"",""time""
""fullscreenenter"",""0"",""2805""
","
","
","""event"",""trial"",""time""
""fullscreenenter"",""0"",""2805""
","
","1259.6849999999831","<img style='border: 4px solid darkgrey;' src='img/tf1_5_M_ss1.jpeg'></img>","3","","exp","","0","<img src='img/tf1_5_T1_ss1_md.jpeg'></img>","0","true",""
"","html-keyboard-response","23","66912","0.0-10.0-0.5","513","""event"",""trial"",""time""
""fullscreenenter"",""0"",""2805""
","
","
","""event"",""trial"",""time""
""fullscreenenter"",""0"",""2805""
","
","null","<div style=""font-size:60px;"">+</div>","","null","fixation","2021-06-03 20:56:38.710","","","","",""
"","mars-trial","24","71409","0.0-10.0-1.5","513","""event"",""trial"",""time""
""fullscreenenter"",""0"",""2805""
","
","
","""event"",""trial"",""time""
""fullscreenenter"",""0"",""2805""
","
","3892.579999999958","<img style='border: 4px solid darkgrey;' src='img/tf1_6_M_ss2.jpeg'></img>","2","","exp","","3","<img src='img/tf1_6_T1_ss2_md.jpeg'></img>","0","false",""
"","html-keyboard-response","25","71911","0.0-10.0-0.6","513","""event"",""trial"",""time""
""fullscreenenter"",""0"",""2805""
","
","
","""event"",""trial"",""time""
""fullscreenenter"",""0"",""2805""
","
","null","<div style=""font-size:60px;"">+</div>","","null","fixation","2021-06-03 20:56:43.709","","","","",""
"","mars-trial","26","76029","0.0-10.0-1.6","513","""event"",""trial"",""time""
""fullscreenenter"",""0"",""2805""
","
","
","""event"",""trial"",""time""
""fullscreenenter"",""0"",""2805""
","
","3512.5799999998417","<img style='border: 4px solid darkgrey;' src='img/tf1_7_M_ss3.jpeg'></img>","2","","exp","","2","<img src='img/tf1_7_T1_ss3_md.jpeg'></img>","0","false",""
"","html-keyboard-response","27","76531","0.0-10.0-0.7","513","""event"",""trial"",""time""
""fullscreenenter"",""0"",""2805""
","
","
","""event"",""trial"",""time""
""fullscreenenter"",""0"",""2805""
","
","null","<div style=""font-size:60px;"">+</div>","","null","fixation","2021-06-03 20:56:48.329","","","","",""
"","mars-trial","28","80602","0.0-10.0-1.7","513","""event"",""trial"",""time""
""fullscreenenter"",""0"",""2805""
","
","
","""event"",""trial"",""time""
""fullscreenenter"",""0"",""2805""
","
","3465.7899999999645","<img style='border: 4px solid darkgrey;' src='img/tf1_8_M_ss1.jpeg'></img>","1","","exp","","0","<img src='img/tf1_8_T1_ss1_md.jpeg'></img>","0","true",""
"","html-keyboard-response","29","81104","0.0-10.0-0.8","513","""event"",""trial"",""time""
""fullscreenenter"",""0"",""2805""
","
","
","""event"",""trial"",""time""
""fullscreenenter"",""0"",""2805""
","
","null","<div style=""font-size:60px;"">+</div>","","null","fixation","2021-06-03 20:56:52.902","","","","",""
"","mars-trial","30","87242","0.0-10.0-1.8","513","""event"",""trial"",""time""
""fullscreenenter"",""0"",""2805""
","
","
","""event"",""trial"",""time""
""fullscreenenter"",""0"",""2805""
","
","5531.170000000202","<img style='border: 4px solid darkgrey;' src='img/tf1_9_M_ss2.jpeg'></img>","0","","exp","","0","<img src='img/tf1_9_T1_ss2_md.jpeg'></img>","0","true",""
"","html-keyboard-response","31","87744","0.0-10.0-0.9","513","""event"",""trial"",""time""
""fullscreenenter"",""0"",""2805""
","
","
","""event"",""trial"",""time""
""fullscreenenter"",""0"",""2805""
","
","null","<div style=""font-size:60px;"">+</div>","","null","fixation","2021-06-03 20:56:59.542","","","","",""
"","mars-trial","32","92650","0.0-10.0-1.9","513","""event"",""trial"",""time""
""fullscreenenter"",""0"",""2805""
","
","
","""event"",""trial"",""time""
""fullscreenenter"",""0"",""2805""
","
","4299.614999999903","<img style='border: 4px solid darkgrey;' src='img/tf1_10_M_ss3.jpeg'></img>","1","","exp","","3","<img src='img/tf1_10_T1_ss3_md.jpeg'></img>","0","false",""
"","html-keyboard-response","33","93152","0.0-10.0-0.10","513","""event"",""trial"",""time""
""fullscreenenter"",""0"",""2805""
","
","
","""event"",""trial"",""time""
""fullscreenenter"",""0"",""2805""
","
","null","<div style=""font-size:60px;"">+</div>","","null","fixation","2021-06-03 20:57:04.950","","","","",""
"","mars-trial","34","97868","0.0-10.0-1.10","513","""event"",""trial"",""time""
""fullscreenenter"",""0"",""2805""
","
","
","""event"",""trial"",""time""
""fullscreenenter"",""0"",""2805""
","
","4110.39500000015","<img style='border: 4px solid darkgrey;' src='img/tf1_11_M_ss1.jpeg'></img>","1","","exp","","2","<img src='img/tf1_11_T1_ss1_md.jpeg'></img>","0","false",""
"","html-keyboard-response","35","98370","0.0-10.0-0.11","513","""event"",""trial"",""time""
""fullscreenenter"",""0"",""2805""
","
","
","""event"",""trial"",""time""
""fullscreenenter"",""0"",""2805""
","
","null","<div style=""font-size:60px;"">+</div>","","null","fixation","2021-06-03 20:57:10.168","","","","",""
"","mars-trial","36","104796","0.0-10.0-1.11","513","""event"",""trial"",""time""
""fullscreenenter"",""0"",""2805""
","
","
","""event"",""trial"",""time""
""fullscreenenter"",""0"",""2805""
","
","5821.300000000061","<img style='border: 4px solid darkgrey;' src='img/tf1_12_M_ss2.jpeg'></img>","2","","exp","","2","<img src='img/tf1_12_T1_ss2_md.jpeg'></img>","0","false",""
"","html-keyboard-response","37","105298","0.0-10.0-0.12","513","""event"",""trial"",""time""
""fullscreenenter"",""0"",""2805""
","
","
","""event"",""trial"",""time""
""fullscreenenter"",""0"",""2805""
","
","null","<div style=""font-size:60px;"">+</div>","","null","fixation","2021-06-03 20:57:17.096","","","","",""
"","mars-trial","38","109484","0.0-10.0-1.12","513","""event"",""trial"",""time""
""fullscreenenter"",""0"",""2805""
","
","
","""event"",""trial"",""time""
""fullscreenenter"",""0"",""2805""
","
","3580.405000000159","<img style='border: 4px solid darkgrey;' src='img/tf1_13_M_ss3.jpeg'></img>","0","","exp","","2","<img src='img/tf1_13_T1_ss3_md.jpeg'></img>","0","false",""
"","html-keyboard-response","39","109986","0.0-10.0-0.13","513","""event"",""trial"",""time""
""fullscreenenter"",""0"",""2805""
","
","
","""event"",""trial"",""time""
""fullscreenenter"",""0"",""2805""
","
","null","<div style=""font-size:60px;"">+</div>","","null","fixation","2021-06-03 20:57:21.784","","","","",""
"","mars-trial","40","116627","0.0-10.0-1.13","513","""event"",""trial"",""time""
""fullscreenenter"",""0"",""2805""
","
","
","""event"",""trial"",""time""
""fullscreenenter"",""0"",""2805""
","
","6036.530000000086","<img style='border: 4px solid darkgrey;' src='img/tf1_14_M_ss1.jpeg'></img>","1","","exp","","3","<img src='img/tf1_14_T1_ss1_md.jpeg'></img>","0","false",""
"","html-keyboard-response","41","117129","0.0-10.0-0.14","513","""event"",""trial"",""time""
""fullscreenenter"",""0"",""2805""
","
","
","""event"",""trial"",""time""
""fullscreenenter"",""0"",""2805""
","
","null","<div style=""font-size:60px;"">+</div>","","null","fixation","2021-06-03 20:57:28.927","","","","",""
"","mars-trial","42","122419","0.0-10.0-1.14","513","""event"",""trial"",""time""
""fullscreenenter"",""0"",""2805""
","
","
","""event"",""trial"",""time""
""fullscreenenter"",""0"",""2805""
","
","4684.554999999818","<img style='border: 4px solid darkgrey;' src='img/tf1_15_M_ss2.jpeg'></img>","2","","exp","","1","<img src='img/tf1_15_T1_ss2_md.jpeg'></img>","0","false",""
"","html-keyboard-response","43","122921","0.0-10.0-0.15","513","""event"",""trial"",""time""
""fullscreenenter"",""0"",""2805""
","
","
","""event"",""trial"",""time""
""fullscreenenter"",""0"",""2805""
","
","null","<div style=""font-size:60px;"">+</div>","","null","fixation","2021-06-03 20:57:34.719","","","","",""
"","mars-trial","44","128574","0.0-10.0-1.15","513","""event"",""trial"",""time""
""fullscreenenter"",""0"",""2805""
","
","
","""event"",""trial"",""time""
""fullscreenenter"",""0"",""2805""
","
","5047.549999999988","<img style='border: 4px solid darkgrey;' src='img/tf1_16_M_ss3.jpeg'></img>","0","","exp","","0","<img src='img/tf1_16_T1_ss3_md.jpeg'></img>","0","true",""
"","html-keyboard-response","45","129076","0.0-10.0-0.16","513","""event"",""trial"",""time""
""fullscreenenter"",""0"",""2805""
","
","
","""event"",""trial"",""time""
""fullscreenenter"",""0"",""2805""
","
","null","<div style=""font-size:60px;"">+</div>","","null","fixation","2021-06-03 20:57:40.874","","","","",""
"","mars-trial","46","134119","0.0-10.0-1.16","513","""event"",""trial"",""time""
""fullscreenenter"",""0"",""2805""
","
","
","""event"",""trial"",""time""
""fullscreenenter"",""0"",""2805""
","
","4437.554999999993","<img style='border: 4px solid darkgrey;' src='img/tf1_17_M_ss1.jpeg'></img>","1","","exp","","1","<img src='img/tf1_17_T1_ss1_md.jpeg'></img>","0","false",""
"","html-keyboard-response","47","134621","0.0-10.0-0.17","513","""event"",""trial"",""time""
""fullscreenenter"",""0"",""2805""
","
","
","""event"",""trial"",""time""
""fullscreenenter"",""0"",""2805""
","
","null","<div style=""font-size:60px;"">+</div>","","null","fixation","2021-06-03 20:57:46.419","","","","",""
"","mars-trial","48","140408","0.0-10.0-1.17","513","""event"",""trial"",""time""
""fullscreenenter"",""0"",""2805""
","
","
","""event"",""trial"",""time""
""fullscreenenter"",""0"",""2805""
","
","5181.090000000055","<img style='border: 4px solid darkgrey;' src='img/tf1_18_M_ss2.jpeg'></img>","2","","exp","","3","<img src='img/tf1_18_T1_ss2_md.jpeg'></img>","0","false",""
"","html-keyboard-response","49","140909","0.0-10.0-0.18","513","""event"",""trial"",""time""
""fullscreenenter"",""0"",""2805""
","
","
","""event"",""trial"",""time""
""fullscreenenter"",""0"",""2805""
","
","null","<div style=""font-size:60px;"">+</div>","","null","fixation","2021-06-03 20:57:52.708","","","","",""
"","mars-trial","50","147759","0.0-10.0-1.18","513","""event"",""trial"",""time""
""fullscreenenter"",""0"",""2805""
","
","
","""event"",""trial"",""time""
""fullscreenenter"",""0"",""2805""
","
","6243.405000000144","<img style='border: 4px solid darkgrey;' src='img/tf1_19_M_ss3.jpeg'></img>","0","","exp","","3","<img src='img/tf1_19_T1_ss3_md.jpeg'></img>","0","false",""
"","html-keyboard-response","51","148262","0.0-10.0-0.19","513","""event"",""trial"",""time""
""fullscreenenter"",""0"",""2805""
","
","
","""event"",""trial"",""time""
""fullscreenenter"",""0"",""2805""
","
","null","<div style=""font-size:60px;"">+</div>","","null","fixation","2021-06-03 20:58:00.060","","","","",""
"","mars-trial","52","154389","0.0-10.0-1.19","513","""event"",""trial"",""time""
""fullscreenenter"",""0"",""2805""
","
","
","""event"",""trial"",""time""
""fullscreenenter"",""0"",""2805""
","
","5522.200000000099","<img style='border: 4px solid darkgrey;' src='img/tf1_20_M_ss1.jpeg'></img>","1","","exp","","2","<img src='img/tf1_20_T1_ss1_md.jpeg'></img>","0","false",""
"","html-keyboard-response","53","154891","0.0-10.0-0.20","513","""event"",""trial"",""time""
""fullscreenenter"",""0"",""2805""
","
","
","""event"",""trial"",""time""
""fullscreenenter"",""0"",""2805""
","
","null","<div style=""font-size:60px;"">+</div>","","null","fixation","2021-06-03 20:58:06.689","","","","",""
"","mars-trial","54","163043","0.0-10.0-1.20","513","""event"",""trial"",""time""
""fullscreenenter"",""0"",""2805""
","
","
","""event"",""trial"",""time""
""fullscreenenter"",""0"",""2805""
","
","7547.209999999963","<img style='border: 4px solid darkgrey;' src='img/tf1_21_M_ss2.jpeg'></img>","0","","exp","","1","<img src='img/tf1_21_T1_ss2_md.jpeg'></img>","0","false",""
"","html-keyboard-response","55","163545","0.0-10.0-0.21","513","""event"",""trial"",""time""
""fullscreenenter"",""0"",""2805""
","
","
","""event"",""trial"",""time""
""fullscreenenter"",""0"",""2805""
","
","null","<div style=""font-size:60px;"">+</div>","","null","fixation","2021-06-03 20:58:15.343","","","","",""
"","mars-trial","56","167471","0.0-10.0-1.21","513","""event"",""trial"",""time""
""fullscreenenter"",""0"",""2805""
","
","
","""event"",""trial"",""time""
""fullscreenenter"",""0"",""2805""
","
","3321.375","<img style='border: 4px solid darkgrey;' src='img/tf1_22_M_ss3.jpeg'></img>","0","","exp","","1","<img src='img/tf1_22_T1_ss3_md.jpeg'></img>","0","false",""
"","html-keyboard-response","57","167972","0.0-10.0-0.22","513","""event"",""trial"",""time""
""fullscreenenter"",""0"",""2805""
","
","
","""event"",""trial"",""time""
""fullscreenenter"",""0"",""2805""
","
","null","<div style=""font-size:60px;"">+</div>","","null","fixation","2021-06-03 20:58:19.770","","","","",""
"","mars-trial","58","177109","0.0-10.0-1.22","513","""event"",""trial"",""time""
""fullscreenenter"",""0"",""2805""
","
","
","""event"",""trial"",""time""
""fullscreenenter"",""0"",""2805""
","
","8531.035000000207","<img style='border: 4px solid darkgrey;' src='img/tf1_23_M_ss1.jpeg'></img>","0","","exp","","0","<img src='img/tf1_23_T1_ss1_md.jpeg'></img>","0","true",""
"","html-keyboard-response","59","177611","0.0-10.0-0.23","513","""event"",""trial"",""time""
""fullscreenenter"",""0"",""2805""
","
","
","""event"",""trial"",""time""
""fullscreenenter"",""0"",""2805""
","
","null","<div style=""font-size:60px;"">+</div>","","null","fixation","2021-06-03 20:58:29.410","","","","",""
"","mars-trial","60","183539","0.0-10.0-1.23","513","""event"",""trial"",""time""
""fullscreenenter"",""0"",""2805""
","
","
","""event"",""trial"",""time""
""fullscreenenter"",""0"",""2805""
","
","5323.124999999884","<img style='border: 4px solid darkgrey;' src='img/tf1_24_M_ss2.jpeg'></img>","1","","exp","","1","<img src='img/tf1_24_T1_ss2_md.jpeg'></img>","0","false",""
"","html-keyboard-response","61","184041","0.0-10.0-0.24","513","""event"",""trial"",""time""
""fullscreenenter"",""0"",""2805""
","
","
","""event"",""trial"",""time""
""fullscreenenter"",""0"",""2805""
","
","null","<div style=""font-size:60px;"">+</div>","","null","fixation","2021-06-03 20:58:35.839","","","","",""
"","mars-trial","62","190820","0.0-10.0-1.24","513","""event"",""trial"",""time""
""fullscreenenter"",""0"",""2805""
","
","
","""event"",""trial"",""time""
""fullscreenenter"",""0"",""2805""
","
","6173.440000000031","<img style='border: 4px solid darkgrey;' src='img/tf1_25_M_ss3.jpeg'></img>","1","","exp","","1","<img src='img/tf1_25_T1_ss3_md.jpeg'></img>","0","false",""
"","html-keyboard-response","63","191326","0.0-10.0-0.25","513","""event"",""trial"",""time""
""fullscreenenter"",""0"",""2805""
","
","
","""event"",""trial"",""time""
""fullscreenenter"",""0"",""2805""
","
","null","<div style=""font-size:60px;"">+</div>","","null","fixation","2021-06-03 20:58:43.124","","","","",""
"","mars-trial","64","197434","0.0-10.0-1.25","513","""event"",""trial"",""time""
""fullscreenenter"",""0"",""2805""
","
","
","""event"",""trial"",""time""
""fullscreenenter"",""0"",""2805""
","
","5502.860000000073","<img style='border: 4px solid darkgrey;' src='img/tf1_26_M_ss1.jpeg'></img>","3","","exp","","2","<img src='img/tf1_26_T1_ss1_md.jpeg'></img>","0","false",""
"","html-keyboard-response","65","197936","0.0-10.0-0.26","513","""event"",""trial"",""time""
""fullscreenenter"",""0"",""2805""
","
","
","""event"",""trial"",""time""
""fullscreenenter"",""0"",""2805""
","
","null","<div style=""font-size:60px;"">+</div>","","null","fixation","2021-06-03 20:58:49.734","","","","",""
"","mars-trial","66","207446","0.0-10.0-1.26","513","""event"",""trial"",""time""
""fullscreenenter"",""0"",""2805""
","
","
","""event"",""trial"",""time""
""fullscreenenter"",""0"",""2805""
","
","8904.895000000135","<img style='border: 4px solid darkgrey;' src='img/tf1_27_M_ss2.jpeg'></img>","1","","exp","","3","<img src='img/tf1_27_T1_ss2_md.jpeg'></img>","0","false",""
"","html-keyboard-response","67","207947","0.0-10.0-0.27","513","""event"",""trial"",""time""
""fullscreenenter"",""0"",""2805""
","
","
","""event"",""trial"",""time""
""fullscreenenter"",""0"",""2805""
","
","null","<div style=""font-size:60px;"">+</div>","","null","fixation","2021-06-03 20:58:59.745","","","","",""
"","mars-trial","68","215719","0.0-10.0-1.27","513","""event"",""trial"",""time""
""fullscreenenter"",""0"",""2805""
","
","
","""event"",""trial"",""time""
""fullscreenenter"",""0"",""2805""
","
","7167.070000000182","<img style='border: 4px solid darkgrey;' src='img/tf1_28_M_ss3.jpeg'></img>","1","","exp","","0","<img src='img/tf1_28_T1_ss3_md.jpeg'></img>","0","true",""
"","html-keyboard-response","69","216221","0.0-10.0-0.28","513","""event"",""trial"",""time""
""fullscreenenter"",""0"",""2805""
","
","
","""event"",""trial"",""time""
""fullscreenenter"",""0"",""2805""
","
","null","<div style=""font-size:60px;"">+</div>","","null","fixation","2021-06-03 20:59:08.019","","","","",""
"","mars-trial","70","224717","0.0-10.0-1.28","513","""event"",""trial"",""time""
""fullscreenenter"",""0"",""2805""
","
","
","""event"",""trial"",""time""
""fullscreenenter"",""0"",""2805""
","
","7890.06999999992","<img style='border: 4px solid darkgrey;' src='img/tf1_29_M_ss1.jpeg'></img>","3","","exp","","1","<img src='img/tf1_29_T1_ss1_md.jpeg'></img>","0","false",""
"","html-keyboard-response","71","225218","0.0-10.0-0.29","513","""event"",""trial"",""time""
""fullscreenenter"",""0"",""2805""
","
","
","""event"",""trial"",""time""
""fullscreenenter"",""0"",""2805""
","
","null","<div style=""font-size:60px;"">+</div>","","null","fixation","2021-06-03 20:59:17.016","","","","",""
"","mars-trial","72","233627","0.0-10.0-1.29","513","""event"",""trial"",""time""
""fullscreenenter"",""0"",""2805""
","
","
","""event"",""trial"",""time""
""fullscreenenter"",""0"",""2805""
","
","7802.609999999957","<img style='border: 4px solid darkgrey;' src='img/tf1_30_M_ss2.jpeg'></img>","0","","exp","","1","<img src='img/tf1_30_T1_ss2_md.jpeg'></img>","0","false",""
"","html-keyboard-response","73","234129","0.0-10.0-0.30","513","""event"",""trial"",""time""
""fullscreenenter"",""0"",""2805""
","
","
","""event"",""trial"",""time""
""fullscreenenter"",""0"",""2805""
","
","null","<div style=""font-size:60px;"">+</div>","","null","fixation","2021-06-03 20:59:25.927","","","","",""
"","mars-trial","74","241314","0.0-10.0-1.30","513","""event"",""trial"",""time""
""fullscreenenter"",""0"",""2805""
","
","
","""event"",""trial"",""time""
""fullscreenenter"",""0"",""2805""
","
","6579.690000000031","<img style='border: 4px solid darkgrey;' src='img/tf1_31_M_ss3.jpeg'></img>","3","","exp","","3","<img src='img/tf1_31_T1_ss3_md.jpeg'></img>","0","false",""
"","html-keyboard-response","75","241815","0.0-10.0-0.31","513","""event"",""trial"",""time""
""fullscreenenter"",""0"",""2805""
","
","
","""event"",""trial"",""time""
""fullscreenenter"",""0"",""2805""
","
","null","<div style=""font-size:60px;"">+</div>","","null","fixation","2021-06-03 20:59:33.613","","","","",""
"","mars-trial","76","246987","0.0-10.0-1.31","513","""event"",""trial"",""time""
""fullscreenenter"",""0"",""2805""
","
","
","""event"",""trial"",""time""
""fullscreenenter"",""0"",""2805""
","
","4567.185000000114","<img style='border: 4px solid darkgrey;' src='img/tf1_32_M_ss1.jpeg'></img>","3","","exp","","2","<img src='img/tf1_32_T1_ss1_md.jpeg'></img>","0","false",""
"","html-keyboard-response","77","247489","0.0-10.0-0.32","513","""event"",""trial"",""time""
""fullscreenenter"",""0"",""2805""
","
","
","""event"",""trial"",""time""
""fullscreenenter"",""0"",""2805""
","
","null","<div style=""font-size:60px;"">+</div>","","null","fixation","2021-06-03 20:59:39.287","","","","",""
"","mars-trial","78","252095","0.0-10.0-1.32","513","""event"",""trial"",""time""
""fullscreenenter"",""0"",""2805""
","
","
","""event"",""trial"",""time""
""fullscreenenter"",""0"",""2805""
","
","4000.4400000000314","<img style='border: 4px solid darkgrey;' src='img/tf1_33_M_ss2.jpeg'></img>","1","","exp","","2","<img src='img/tf1_33_T1_ss2_md.jpeg'></img>","0","false",""
"","html-keyboard-response","79","252596","0.0-10.0-0.33","513","""event"",""trial"",""time""
""fullscreenenter"",""0"",""2805""
","
","
","""event"",""trial"",""time""
""fullscreenenter"",""0"",""2805""
","
","null","<div style=""font-size:60px;"">+</div>","","null","fixation","2021-06-03 20:59:44.395","","","","",""
"","mars-trial","80","259378","0.0-10.0-1.33","513","""event"",""trial"",""time""
""fullscreenenter"",""0"",""2805""
","
","
","""event"",""trial"",""time""
""fullscreenenter"",""0"",""2805""
","
","6176.374999999767","<img style='border: 4px solid darkgrey;' src='img/tf1_34_M_ss3.jpeg'></img>","3","","exp","","1","<img src='img/tf1_34_T1_ss3_md.jpeg'></img>","0","false",""
"","html-keyboard-response","81","259880","0.0-10.0-0.34","513","""event"",""trial"",""time""
""fullscreenenter"",""0"",""2805""
","
","
","""event"",""trial"",""time""
""fullscreenenter"",""0"",""2805""
","
","null","<div style=""font-size:60px;"">+</div>","","null","fixation","2021-06-03 20:59:51.678","","","","",""
"","mars-trial","82","265622","0.0-10.0-1.34","513","""event"",""trial"",""time""
""fullscreenenter"",""0"",""2805""
","
","
","""event"",""trial"",""time""
""fullscreenenter"",""0"",""2805""
","
","5136.119999999879","<img style='border: 4px solid darkgrey;' src='img/tf1_35_M_ss1.jpeg'></img>","1","","exp","","0","<img src='img/tf1_35_T1_ss1_md.jpeg'></img>","0","true",""
"","html-keyboard-response","83","266124","0.0-10.0-0.35","513","""event"",""trial"",""time""
""fullscreenenter"",""0"",""2805""
","
","
","""event"",""trial"",""time""
""fullscreenenter"",""0"",""2805""
","
","null","<div style=""font-size:60px;"">+</div>","","null","fixation","2021-06-03 20:59:57.922","","","","",""
"","mars-trial","84","272789","0.0-10.0-1.35","513","""event"",""trial"",""time""
""fullscreenenter"",""0"",""2805""
","
","
","""event"",""trial"",""time""
""fullscreenenter"",""0"",""2805""
","
","6058.025000000256","<img style='border: 4px solid darkgrey;' src='img/tf1_36_M_ss2.jpeg'></img>","0","","exp","","2","<img src='img/tf1_36_T1_ss2_md.jpeg'></img>","0","false",""
"","html-keyboard-response","85","273291","0.0-10.0-0.36","513","""event"",""trial"",""time""
""fullscreenenter"",""0"",""2805""
","
","
","""event"",""trial"",""time""
""fullscreenenter"",""0"",""2805""
","
","null","<div style=""font-size:60px;"">+</div>","","null","fixation","2021-06-03 21:00:05.089","","","","",""
"","mars-trial","86","278942","0.0-10.0-1.36","513","""event"",""trial"",""time""
""fullscreenenter"",""0"",""2805""
","
","
","""event"",""trial"",""time""
""fullscreenenter"",""0"",""2805""
","
","5045.630000000063","<img style='border: 4px solid darkgrey;' src='img/tf1_37_M_ss3.jpeg'></img>","3","","exp","","0","<img src='img/tf1_37_T1_ss3_md.jpeg'></img>","0","true",""
"","html-keyboard-response","87","279443","0.0-10.0-0.37","513","""event"",""trial"",""time""
""fullscreenenter"",""0"",""2805""
","
","
","""event"",""trial"",""time""
""fullscreenenter"",""0"",""2805""
","
","null","<div style=""font-size:60px;"">+</div>","","null","fixation","2021-06-03 21:00:11.241","","","","",""
"","mars-trial","88","283414","0.0-10.0-1.37","513","""event"",""trial"",""time""
""fullscreenenter"",""0"",""2805""
","
","
","""event"",""trial"",""time""
""fullscreenenter"",""0"",""2805""
","
","3365.655000000086","<img style='border: 4px solid darkgrey;' src='img/tf1_38_M_ss1.jpeg'></img>","3","","exp","","0","<img src='img/tf1_38_T1_ss1_md.jpeg'></img>","0","true",""
"","html-keyboard-response","89","283916","0.0-10.0-0.38","513","""event"",""trial"",""time""
""fullscreenenter"",""0"",""2805""
","
","
","""event"",""trial"",""time""
""fullscreenenter"",""0"",""2805""
","
","null","<div style=""font-size:60px;"">+</div>","","null","fixation","2021-06-03 21:00:15.714","","","","",""
"","mars-trial","90","292340","0.0-10.0-1.38","513","""event"",""trial"",""time""
""fullscreenenter"",""0"",""2805""
","
","
","""event"",""trial"",""time""
""fullscreenenter"",""0"",""2805""
","
","7818.040000000154","<img style='border: 4px solid darkgrey;' src='img/tf1_39_M_ss2.jpeg'></img>","1","","exp","","0","<img src='img/tf1_39_T1_ss2_md.jpeg'></img>","0","true",""
"","html-keyboard-response","91","292841","0.0-10.0-0.39","513","""event"",""trial"",""time""
""fullscreenenter"",""0"",""2805""
","
","
","""event"",""trial"",""time""
""fullscreenenter"",""0"",""2805""
","
","null","<div style=""font-size:60px;"">+</div>","","null","fixation","2021-06-03 21:00:24.640","","","","",""
"","mars-trial","92","301018","0.0-10.0-1.39","513","""event"",""trial"",""time""
""fullscreenenter"",""0"",""2805""
","
","
","""event"",""trial"",""time""
""fullscreenenter"",""0"",""2805""
","
","7571.439999999711","<img style='border: 4px solid darkgrey;' src='img/tf1_40_M_ss3.jpeg'></img>","0","","exp","","1","<img src='img/tf1_40_T1_ss3_md.jpeg'></img>","0","false",""
"","html-keyboard-response","93","301520","0.0-10.0-0.40","513","""event"",""trial"",""time""
""fullscreenenter"",""0"",""2805""
","
","
","""event"",""trial"",""time""
""fullscreenenter"",""0"",""2805""
","
","null","<div style=""font-size:60px;"">+</div>","","null","fixation","2021-06-03 21:00:33.318","","","","",""
"","mars-trial","94","305084","0.0-10.0-1.40","513","""event"",""trial"",""time""
""fullscreenenter"",""0"",""2805""
","
","
","""event"",""trial"",""time""
""fullscreenenter"",""0"",""2805""
","
","2958.5449999999837","<img style='border: 4px solid darkgrey;' src='img/tf1_41_M_ss1.jpeg'></img>","3","","exp","","0","<img src='img/tf1_41_T1_ss1_md.jpeg'></img>","0","true",""
"","html-keyboard-response","95","305586","0.0-10.0-0.41","513","""event"",""trial"",""time""
""fullscreenenter"",""0"",""2805""
","
","
","""event"",""trial"",""time""
""fullscreenenter"",""0"",""2805""
","
","null","<div style=""font-size:60px;"">+</div>","","null","fixation","2021-06-03 21:00:37.384","","","","",""
"","mars-trial","96","310704","0.0-10.0-1.41","513","""event"",""trial"",""time""
""fullscreenenter"",""0"",""2805""
","
","
","""event"",""trial"",""time""
""fullscreenenter"",""0"",""2805""
","
","4512.929999999818","<img style='border: 4px solid darkgrey;' src='img/tf1_42_M_ss2.jpeg'></img>","0","","exp","","1","<img src='img/tf1_42_T1_ss2_md.jpeg'></img>","0","false",""
"","html-keyboard-response","97","311205","0.0-10.0-0.42","513","""event"",""trial"",""time""
""fullscreenenter"",""0"",""2805""
","
","
","""event"",""trial"",""time""
""fullscreenenter"",""0"",""2805""
","
","null","<div style=""font-size:60px;"">+</div>","","null","fixation","2021-06-03 21:00:43.003","","","","",""
"","mars-trial","98","317495","0.0-10.0-1.42","513","""event"",""trial"",""time""
""fullscreenenter"",""0"",""2805""
","
","
","""event"",""trial"",""time""
""fullscreenenter"",""0"",""2805""
","
","5684.609999999753","<img style='border: 4px solid darkgrey;' src='img/tf1_43_M_ss3.jpeg'></img>","1","","exp","","0","<img src='img/tf1_43_T1_ss3_md.jpeg'></img>","0","true",""
"","html-keyboard-response","99","317997","0.0-10.0-0.43","513","""event"",""trial"",""time""
""fullscreenenter"",""0"",""2805""
","
","
","""event"",""trial"",""time""
""fullscreenenter"",""0"",""2805""
","
","null","<div style=""font-size:60px;"">+</div>","","null","fixation","2021-06-03 21:00:49.795","","","","",""
"","mars-trial","100","324525","0.0-10.0-1.43","513","""event"",""trial"",""time""
""fullscreenenter"",""0"",""2805""
","
","
","""event"",""trial"",""time""
""fullscreenenter"",""0"",""2805""
","
","5922.944999999774","<img style='border: 4px solid darkgrey;' src='img/tf1_44_M_ss1.jpeg'></img>","2","","exp","","0","<img src='img/tf1_44_T1_ss1_md.jpeg'></img>","0","true",""
"","html-keyboard-response","101","325028","0.0-10.0-0.44","513","""event"",""trial"",""time""
""fullscreenenter"",""0"",""2805""
","
","
","""event"",""trial"",""time""
""fullscreenenter"",""0"",""2805""
","
","null","<div style=""font-size:60px;"">+</div>","","null","fixation","2021-06-03 21:00:56.826","","","","",""
"","mars-trial","102","331040","0.0-10.0-1.44","513","""event"",""trial"",""time""
""fullscreenenter"",""0"",""2805""
","
","
","""event"",""trial"",""time""
""fullscreenenter"",""0"",""2805""
","
","5406.594999999972","<img style='border: 4px solid darkgrey;' src='img/tf1_45_M_ss2.jpeg'></img>","2","","exp","","0","<img src='img/tf1_45_T1_ss2_md.jpeg'></img>","0","true",""
"","html-keyboard-response","103","331542","0.0-10.0-0.45","513","""event"",""trial"",""time""
""fullscreenenter"",""0"",""2805""
","
","
","""event"",""trial"",""time""
""fullscreenenter"",""0"",""2805""
","
","null","<div style=""font-size:60px;"">+</div>","","null","fixation","2021-06-03 21:01:03.340","","","","",""
"","mars-trial","104","336695","0.0-10.0-1.45","513","""event"",""trial"",""time""
""fullscreenenter"",""0"",""2805""
","
","
","""event"",""trial"",""time""
""fullscreenenter"",""0"",""2805""
","
","4548.070000000298","<img style='border: 4px solid darkgrey;' src='img/tf1_46_M_ss3.jpeg'></img>","2","","exp","","0","<img src='img/tf1_46_T1_ss3_md.jpeg'></img>","0","true",""
"","html-keyboard-response","105","337197","0.0-10.0-0.46","513","""event"",""trial"",""time""
""fullscreenenter"",""0"",""2805""
","
","
","""event"",""trial"",""time""
""fullscreenenter"",""0"",""2805""
","
","null","<div style=""font-size:60px;"">+</div>","","null","fixation","2021-06-03 21:01:08.995","","","","",""
"","mars-trial","106","339638","0.0-10.0-1.46","513","""event"",""trial"",""time""
""fullscreenenter"",""0"",""2805""
","
","
","""event"",""trial"",""time""
""fullscreenenter"",""0"",""2805""
","
","1835.3250000000116","<img style='border: 4px solid darkgrey;' src='img/tf1_47_M_ss1.jpeg'></img>","0","","exp","","1","<img src='img/tf1_47_T1_ss1_md.jpeg'></img>","0","false",""
"","html-keyboard-response","107","340140","0.0-10.0-0.47","513","""event"",""trial"",""time""
""fullscreenenter"",""0"",""2805""
","
","
","""event"",""trial"",""time""
""fullscreenenter"",""0"",""2805""
","
","null","<div style=""font-size:60px;"">+</div>","","null","fixation","2021-06-03 21:01:11.938","","","","",""
"","mars-trial","108","347125","0.0-10.0-1.47","513","""event"",""trial"",""time""
""fullscreenenter"",""0"",""2805""
","
","
","""event"",""trial"",""time""
""fullscreenenter"",""0"",""2805""
","
","6379.85499999969","<img style='border: 4px solid darkgrey;' src='img/tf1_48_M_ss2.jpeg'></img>","0","","exp","","0","<img src='img/tf1_48_T1_ss2_md.jpeg'></img>","0","true",""
"","html-keyboard-response","109","347627","0.0-10.0-0.48","513","""event"",""trial"",""time""
""fullscreenenter"",""0"",""2805""
","
","
","""event"",""trial"",""time""
""fullscreenenter"",""0"",""2805""
","
","null","<div style=""font-size:60px;"">+</div>","","null","fixation","2021-06-03 21:01:19.425","","","","",""
"","mars-trial","110","354237","0.0-10.0-1.48","513","""event"",""trial"",""time""
""fullscreenenter"",""0"",""2805""
","
","
","""event"",""trial"",""time""
""fullscreenenter"",""0"",""2805""
","
","6003.430000000168","<img style='border: 4px solid darkgrey;' src='img/tf1_49_M_ss3.jpeg'></img>","0","","exp","","1","<img src='img/tf1_49_T1_ss3_md.jpeg'></img>","0","false",""
"","html-keyboard-response","111","354738","0.0-10.0-0.49","513","""event"",""trial"",""time""
""fullscreenenter"",""0"",""2805""
","
","
","""event"",""trial"",""time""
""fullscreenenter"",""0"",""2805""
","
","null","<div style=""font-size:60px;"">+</div>","","null","fixation","2021-06-03 21:01:26.537","","","","",""
"","mars-trial","112","361817","0.0-10.0-1.49","513","""event"",""trial"",""time""
""fullscreenenter"",""0"",""2805""
","
","
","""event"",""trial"",""time""
""fullscreenenter"",""0"",""2805""
","
","6471.989999999991","<img style='border: 4px solid darkgrey;' src='img/tf1_50_M_ss1.jpeg'></img>","0","","exp","","1","<img src='img/tf1_50_T1_ss1_md.jpeg'></img>","0","false",""
"","html-keyboard-response","113","362318","0.0-10.0-0.50","513","""event"",""trial"",""time""
""fullscreenenter"",""0"",""2805""
","
","
","""event"",""trial"",""time""
""fullscreenenter"",""0"",""2805""
","
","null","<div style=""font-size:60px;"">+</div>","","null","fixation","2021-06-03 21:01:34.117","","","","",""
"","mars-trial","114","368599","0.0-10.0-1.50","513","""event"",""trial"",""time""
""fullscreenenter"",""0"",""2805""
","
","
","""event"",""trial"",""time""
""fullscreenenter"",""0"",""2805""
","
","5672.794999999984","<img style='border: 4px solid darkgrey;' src='img/tf1_51_M_ss2.jpeg'></img>","1","","exp","","1","<img src='img/tf1_51_T1_ss2_md.jpeg'></img>","0","false",""
"","html-keyboard-response","115","369100","0.0-10.0-0.51","513","""event"",""trial"",""time""
""fullscreenenter"",""0"",""2805""
","
","
","""event"",""trial"",""time""
""fullscreenenter"",""0"",""2805""
","
","null","<div style=""font-size:60px;"">+</div>","","null","fixation","2021-06-03 21:01:40.898","","","","",""
"","mars-trial","116","373624","0.0-10.0-1.51","513","""event"",""trial"",""time""
""fullscreenenter"",""0"",""2805""
","
","
","""event"",""trial"",""time""
""fullscreenenter"",""0"",""2805""
","
","3919.3150000001187","<img style='border: 4px solid darkgrey;' src='img/tf1_52_M_ss3.jpeg'></img>","3","","exp","","0","<img src='img/tf1_52_T1_ss3_md.jpeg'></img>","0","true",""
"","html-keyboard-response","117","374128","0.0-10.0-0.52","513","""event"",""trial"",""time""
""fullscreenenter"",""0"",""2805""
","
","
","""event"",""trial"",""time""
""fullscreenenter"",""0"",""2805""
","
","null","<div style=""font-size:60px;"">+</div>","","null","fixation","2021-06-03 21:01:45.926","","","","",""
"","mars-trial","118","378229","0.0-10.0-1.52","513","""event"",""trial"",""time""
""fullscreenenter"",""0"",""2805""
","
","
","""event"",""trial"",""time""
""fullscreenenter"",""0"",""2805""
","
","3496.090000000084","<img style='border: 4px solid darkgrey;' src='img/tf1_53_M_ss1.jpeg'></img>","3","","exp","","2","<img src='img/tf1_53_T1_ss1_md.jpeg'></img>","0","false",""
"","html-keyboard-response","119","378730","0.0-10.0-0.53","513","""event"",""trial"",""time""
""fullscreenenter"",""0"",""2805""
","
","
","""event"",""trial"",""time""
""fullscreenenter"",""0"",""2805""
","
","null","<div style=""font-size:60px;"">+</div>","","null","fixation","2021-06-03 21:01:50.528","","","","",""
"","mars-trial","120","382160","0.0-10.0-1.53","513","""event"",""trial"",""time""
""fullscreenenter"",""0"",""2805""
","
","
","""event"",""trial"",""time""
""fullscreenenter"",""0"",""2805""
","
","2823.6150000002235","<img style='border: 4px solid darkgrey;' src='img/tf1_54_M_ss2.jpeg'></img>","0","","exp","","1","<img src='img/tf1_54_T1_ss2_md.jpeg'></img>","0","false",""
"","html-keyboard-response","121","382662","0.0-10.0-0.54","513","""event"",""trial"",""time""
""fullscreenenter"",""0"",""2805""
","
","
","""event"",""trial"",""time""
""fullscreenenter"",""0"",""2805""
","
","null","<div style=""font-size:60px;"">+</div>","","null","fixation","2021-06-03 21:01:54.460","","","","",""
"","mars-trial","122","386998","0.0-10.0-1.54","513","""event"",""trial"",""time""
""fullscreenenter"",""0"",""2805""
","
","
","""event"",""trial"",""time""
""fullscreenenter"",""0"",""2805""
","
","3731.8200000004144","<img style='border: 4px solid darkgrey;' src='img/tf1_55_M_ss3.jpeg'></img>","3","","exp","","3","<img src='img/tf1_55_T1_ss3_md.jpeg'></img>","0","false",""
"","html-keyboard-response","123","387500","0.0-10.0-0.55","513","""event"",""trial"",""time""
""fullscreenenter"",""0"",""2805""
","
","
","""event"",""trial"",""time""
""fullscreenenter"",""0"",""2805""
","
","null","<div style=""font-size:60px;"">+</div>","","null","fixation","2021-06-03 21:01:59.298","","","","",""
"","mars-trial","124","393831","0.0-10.0-1.55","513","""event"",""trial"",""time""
""fullscreenenter"",""0"",""2805""
","
","
","""event"",""trial"",""time""
""fullscreenenter"",""0"",""2805""
","
","5726.050000000221","<img style='border: 4px solid darkgrey;' src='img/tf1_56_M_ss1.jpeg'></img>","2","","exp","","1","<img src='img/tf1_56_T1_ss1_md.jpeg'></img>","0","false",""
"","html-keyboard-response","125","394333","0.0-10.0-0.56","513","""event"",""trial"",""time""
""fullscreenenter"",""0"",""2805""
","
","
","""event"",""trial"",""time""
""fullscreenenter"",""0"",""2805""
","
","null","<div style=""font-size:60px;"">+</div>","","null","fixation","2021-06-03 21:02:06.131","","","","",""
"","mars-trial","126","400552","0.0-10.0-1.56","513","""event"",""trial"",""time""
""fullscreenenter"",""0"",""2805""
","
","
","""event"",""trial"",""time""
""fullscreenenter"",""0"",""2805""
","
","5613.574999999895","<img style='border: 4px solid darkgrey;' src='img/tf1_57_M_ss2.jpeg'></img>","0","","exp","","0","<img src='img/tf1_57_T1_ss2_md.jpeg'></img>","0","true",""
"","html-keyboard-response","127","401054","0.0-10.0-0.57","513","""event"",""trial"",""time""
""fullscreenenter"",""0"",""2805""
","
","
","""event"",""trial"",""time""
""fullscreenenter"",""0"",""2805""
","
","null","<div style=""font-size:60px;"">+</div>","","null","fixation","2021-06-03 21:02:12.852","","","","",""
"","mars-trial","128","409677","0.0-10.0-1.57","513","""event"",""trial"",""time""
""fullscreenenter"",""0"",""2805""
","
","
","""event"",""trial"",""time""
""fullscreenenter"",""0"",""2805""
","
","8017.919999999809","<img style='border: 4px solid darkgrey;' src='img/tf1_58_M_ss3.jpeg'></img>","1","","exp","","3","<img src='img/tf1_58_T1_ss3_md.jpeg'></img>","0","false",""
"","html-keyboard-response","129","410180","0.0-10.0-0.58","513","""event"",""trial"",""time""
""fullscreenenter"",""0"",""2805""
","
","
","""event"",""trial"",""time""
""fullscreenenter"",""0"",""2805""
","
","null","<div style=""font-size:60px;"">+</div>","","null","fixation","2021-06-03 21:02:21.978","","","","",""
"","mars-trial","130","413619","0.0-10.0-1.58","513","""event"",""trial"",""time""
""fullscreenenter"",""0"",""2805""
","
","
","""event"",""trial"",""time""
""fullscreenenter"",""0"",""2805""
","
","2834.4950000000536","<img style='border: 4px solid darkgrey;' src='img/tf1_59_M_ss1.jpeg'></img>","3","","exp","","3","<img src='img/tf1_59_T1_ss1_md.jpeg'></img>","0","false",""
"","html-keyboard-response","131","414121","0.0-10.0-0.59","513","""event"",""trial"",""time""
""fullscreenenter"",""0"",""2805""
","
","
","""event"",""trial"",""time""
""fullscreenenter"",""0"",""2805""
","
","null","<div style=""font-size:60px;"">+</div>","","null","fixation","2021-06-03 21:02:25.919","","","","",""
"","mars-trial","132","418920","0.0-10.0-1.59","513","""event"",""trial"",""time""
""fullscreenenter"",""0"",""2805""
","
","
","""event"",""trial"",""time""
""fullscreenenter"",""0"",""2805""
","
","4193.075000000128","<img style='border: 4px solid darkgrey;' src='img/tf1_60_M_ss2.jpeg'></img>","2","","exp","","1","<img src='img/tf1_60_T1_ss2_md.jpeg'></img>","0","false",""
"","html-keyboard-response","133","419421","0.0-10.0-0.60","513","""event"",""trial"",""time""
""fullscreenenter"",""0"",""2805""
","
","
","""event"",""trial"",""time""
""fullscreenenter"",""0"",""2805""
","
","null","<div style=""font-size:60px;"">+</div>","","null","fixation","2021-06-03 21:02:31.219","","","","",""
"","mars-trial","134","422908","0.0-10.0-1.60","513","""event"",""trial"",""time""
""fullscreenenter"",""0"",""2805""
","
","
","""event"",""trial"",""time""
""fullscreenenter"",""0"",""2805""
","
","2881.2050000001327","<img style='border: 4px solid darkgrey;' src='img/tf1_61_M_ss3.jpeg'></img>","2","","exp","","2","<img src='img/tf1_61_T1_ss3_md.jpeg'></img>","0","false",""
"","html-keyboard-response","135","423410","0.0-10.0-0.61","513","""event"",""trial"",""time""
""fullscreenenter"",""0"",""2805""
","
","
","""event"",""trial"",""time""
""fullscreenenter"",""0"",""2805""
","
","null","<div style=""font-size:60px;"">+</div>","","null","fixation","2021-06-03 21:02:35.208","","","","",""
"","mars-trial","136","431740","0.0-10.0-1.61","513","""event"",""trial"",""time""
""fullscreenenter"",""0"",""2805""
","
","
","""event"",""trial"",""time""
""fullscreenenter"",""0"",""2805""
","
","7724.180000000168","<img style='border: 4px solid darkgrey;' src='img/tf1_62_M_ss1.jpeg'></img>","3","","exp","","0","<img src='img/tf1_62_T1_ss1_md.jpeg'></img>","0","true",""
"","html-keyboard-response","137","432242","0.0-10.0-0.62","513","""event"",""trial"",""time""
""fullscreenenter"",""0"",""2805""
","
","
","""event"",""trial"",""time""
""fullscreenenter"",""0"",""2805""
","
","null","<div style=""font-size:60px;"">+</div>","","null","fixation","2021-06-03 21:02:44.040","","","","",""
"","mars-trial","138","438365","0.0-10.0-1.62","513","""event"",""trial"",""time""
""fullscreenenter"",""0"",""2805""
","
","
","""event"",""trial"",""time""
""fullscreenenter"",""0"",""2805""
","
","5517.15499999997","<img style='border: 4px solid darkgrey;' src='img/tf1_63_M_ss2.jpeg'></img>","0","","exp","","1","<img src='img/tf1_63_T1_ss2_md.jpeg'></img>","0","false",""
"","html-keyboard-response","139","438866","0.0-10.0-0.63","513","""event"",""trial"",""time""
""fullscreenenter"",""0"",""2805""
","
","
","""event"",""trial"",""time""
""fullscreenenter"",""0"",""2805""
","
","null","<div style=""font-size:60px;"">+</div>","","null","fixation","2021-06-03 21:02:50.664","","","","",""
"","mars-trial","140","443608","0.0-10.0-1.63","513","""event"",""trial"",""time""
""fullscreenenter"",""0"",""2805""
","
","
","""event"",""trial"",""time""
""fullscreenenter"",""0"",""2805""
","
","4137.359999999695","<img style='border: 4px solid darkgrey;' src='img/tf1_64_M_ss3.jpeg'></img>","3","","exp","","3","<img src='img/tf1_64_T1_ss3_md.jpeg'></img>","0","false",""
"","html-keyboard-response","141","444110","0.0-10.0-0.64","513","""event"",""trial"",""time""
""fullscreenenter"",""0"",""2805""
","
","
","""event"",""trial"",""time""
""fullscreenenter"",""0"",""2805""
","
","null","<div style=""font-size:60px;"">+</div>","","null","fixation","2021-06-03 21:02:55.908","","","","",""
"","mars-trial","142","451278","0.0-10.0-1.64","513","""event"",""trial"",""time""
""fullscreenenter"",""0"",""2805""
","
","
","""event"",""trial"",""time""
""fullscreenenter"",""0"",""2805""
","
","6562.440000000177","<img style='border: 4px solid darkgrey;' src='img/tf1_65_M_ss1.jpeg'></img>","2","","exp","","2","<img src='img/tf1_65_T1_ss1_md.jpeg'></img>","0","false",""
"","html-keyboard-response","143","451779","0.0-10.0-0.65","513","""event"",""trial"",""time""
""fullscreenenter"",""0"",""2805""
","
","
","""event"",""trial"",""time""
""fullscreenenter"",""0"",""2805""
","
","null","<div style=""font-size:60px;"">+</div>","","null","fixation","2021-06-03 21:03:03.577","","","","",""
"","mars-trial","144","457837","0.0-10.0-1.65","513","""event"",""trial"",""time""
""fullscreenenter"",""0"",""2805""
","
","
","""event"",""trial"",""time""
""fullscreenenter"",""0"",""2805""
","
","5450.665000000328","<img style='border: 4px solid darkgrey;' src='img/tf1_66_M_ss2.jpeg'></img>","1","","exp","","1","<img src='img/tf1_66_T1_ss2_md.jpeg'></img>","0","false",""
"","html-keyboard-response","145","458338","0.0-10.0-0.66","513","""event"",""trial"",""time""
""fullscreenenter"",""0"",""2805""
","
","
","""event"",""trial"",""time""
""fullscreenenter"",""0"",""2805""
","
","null","<div style=""font-size:60px;"">+</div>","","null","fixation","2021-06-03 21:03:10.136","","","","",""
"","mars-trial","146","464134","0.0-10.0-1.66","513","""event"",""trial"",""time""
""fullscreenenter"",""0"",""2805""
","
","
","""event"",""trial"",""time""
""fullscreenenter"",""0"",""2805""
","
","5189.914999999921","<img style='border: 4px solid darkgrey;' src='img/tf1_67_M_ss3.jpeg'></img>","3","","exp","","0","<img src='img/tf1_67_T1_ss3_md.jpeg'></img>","0","true",""
"","html-keyboard-response","147","464636","0.0-10.0-0.67","513","""event"",""trial"",""time""
""fullscreenenter"",""0"",""2805""
","
","
","""event"",""trial"",""time""
""fullscreenenter"",""0"",""2805""
","
","null","<div style=""font-size:60px;"">+</div>","","null","fixation","2021-06-03 21:03:16.434","","","","",""
"","mars-trial","148","466460","0.0-10.0-1.67","513","""event"",""trial"",""time""
""fullscreenenter"",""0"",""2805""
","
","
","""event"",""trial"",""time""
""fullscreenenter"",""0"",""2805""
","
","1218.9899999998743","<img style='border: 4px solid darkgrey;' src='img/tf1_68_M_ss1.jpeg'></img>","3","","exp","","0","<img src='img/tf1_68_T1_ss1_md.jpeg'></img>","0","true",""
"","html-keyboard-response","149","466962","0.0-10.0-0.68","513","""event"",""trial"",""time""
""fullscreenenter"",""0"",""2805""
","
","
","""event"",""trial"",""time""
""fullscreenenter"",""0"",""2805""
","
","null","<div style=""font-size:60px;"">+</div>","","null","fixation","2021-06-03 21:03:18.760","","","","",""
"","mars-trial","150","470438","0.0-10.0-1.68","513","""event"",""trial"",""time""
""fullscreenenter"",""0"",""2805""
","
","
","""event"",""trial"",""time""
""fullscreenenter"",""0"",""2805""
","
","2871.8850000000093","<img style='border: 4px solid darkgrey;' src='img/tf1_69_M_ss2.jpeg'></img>","3","","exp","","1","<img src='img/tf1_69_T1_ss2_md.jpeg'></img>","0","false",""
"","html-keyboard-response","151","470940","0.0-10.0-0.69","513","""event"",""trial"",""time""
""fullscreenenter"",""0"",""2805""
","
","
","""event"",""trial"",""time""
""fullscreenenter"",""0"",""2805""
","
","null","<div style=""font-size:60px;"">+</div>","","null","fixation","2021-06-03 21:03:22.738","","","","",""
"","mars-trial","152","475099","0.0-10.0-1.69","513","""event"",""trial"",""time""
""fullscreenenter"",""0"",""2805""
","
","
","""event"",""trial"",""time""
""fullscreenenter"",""0"",""2805""
","
","3553.8400000000256","<img style='border: 4px solid darkgrey;' src='img/tf1_70_M_ss3.jpeg'></img>","2","","exp","","2","<img src='img/tf1_70_T1_ss3_md.jpeg'></img>","0","false",""
"","html-keyboard-response","153","475600","0.0-10.0-0.70","513","""event"",""trial"",""time""
""fullscreenenter"",""0"",""2805""
","
","
","""event"",""trial"",""time""
""fullscreenenter"",""0"",""2805""
","
","null","<div style=""font-size:60px;"">+</div>","","null","fixation","2021-06-03 21:03:27.399","","","","",""
"","mars-trial","154","481302","0.0-10.0-1.70","513","""event"",""trial"",""time""
""fullscreenenter"",""0"",""2805""
","
","
","""event"",""trial"",""time""
""fullscreenenter"",""0"",""2805""
","
","5096.784999999742","<img style='border: 4px solid darkgrey;' src='img/tf1_71_M_ss1.jpeg'></img>","0","","exp","","0","<img src='img/tf1_71_T1_ss1_md.jpeg'></img>","0","true",""
"","html-keyboard-response","155","481804","0.0-10.0-0.71","513","""event"",""trial"",""time""
""fullscreenenter"",""0"",""2805""
","
","
","""event"",""trial"",""time""
""fullscreenenter"",""0"",""2805""
","
","null","<div style=""font-size:60px;"">+</div>","","null","fixation","2021-06-03 21:03:33.602","","","","",""
"","mars-trial","156","488661","0.0-10.0-1.71","513","""event"",""trial"",""time""
""fullscreenenter"",""0"",""2805""
","
","
","""event"",""trial"",""time""
""fullscreenenter"",""0"",""2805""
","
","6251.52500000014","<img style='border: 4px solid darkgrey;' src='img/tf1_72_M_ss2.jpeg'></img>","3","","exp","","0","<img src='img/tf1_72_T1_ss2_md.jpeg'></img>","0","true",""
"","html-keyboard-response","157","489163","0.0-10.0-0.72","513","""event"",""trial"",""time""
""fullscreenenter"",""0"",""2805""
","
","
","""event"",""trial"",""time""
""fullscreenenter"",""0"",""2805""
","
","null","<div style=""font-size:60px;"">+</div>","","null","fixation","2021-06-03 21:03:40.961","","","","",""
"","mars-trial","158","493481","0.0-10.0-1.72","513","""event"",""trial"",""time""
""fullscreenenter"",""0"",""2805""
","
","
","""event"",""trial"",""time""
""fullscreenenter"",""0"",""2805""
","
","3713.140000000305","<img style='border: 4px solid darkgrey;' src='img/tf1_73_M_ss3.jpeg'></img>","0","","exp","","0","<img src='img/tf1_73_T1_ss3_md.jpeg'></img>","0","true",""
"","html-keyboard-response","159","493983","0.0-10.0-0.73","513","""event"",""trial"",""time""
""fullscreenenter"",""0"",""2805""
","
","
","""event"",""trial"",""time""
""fullscreenenter"",""0"",""2805""
","
","null","<div style=""font-size:60px;"">+</div>","","null","fixation","2021-06-03 21:03:45.781","","","","",""
"","mars-trial","160","499884","0.0-10.0-1.73","513","""event"",""trial"",""time""
""fullscreenenter"",""0"",""2805""
","
","
","""event"",""trial"",""time""
""fullscreenenter"",""0"",""2805""
","
","5295.384999999951","<img style='border: 4px solid darkgrey;' src='img/tf1_74_M_ss1.jpeg'></img>","3","","exp","","0","<img src='img/tf1_74_T1_ss1_md.jpeg'></img>","0","true",""
"","html-keyboard-response","161","500385","0.0-10.0-0.74","513","""event"",""trial"",""time""
""fullscreenenter"",""0"",""2805""
","
","
","""event"",""trial"",""time""
""fullscreenenter"",""0"",""2805""
","
","null","<div style=""font-size:60px;"">+</div>","","null","fixation","2021-06-03 21:03:52.183","","","","",""
"","mars-trial","162","503885","0.0-10.0-1.74","513","""event"",""trial"",""time""
""fullscreenenter"",""0"",""2805""
","
","
","""event"",""trial"",""time""
""fullscreenenter"",""0"",""2805""
","
","2893.5050000000047","<img style='border: 4px solid darkgrey;' src='img/tf1_75_M_ss2.jpeg'></img>","3","","exp","","3","<img src='img/tf1_75_T1_ss2_md.jpeg'></img>","0","false",""
"","html-keyboard-response","163","504386","0.0-10.0-0.75","513","""event"",""trial"",""time""
""fullscreenenter"",""0"",""2805""
","
","
","""event"",""trial"",""time""
""fullscreenenter"",""0"",""2805""
","
","null","<div style=""font-size:60px;"">+</div>","","null","fixation","2021-06-03 21:03:56.184","","","","",""
"","mars-trial","164","512694","0.0-10.0-1.75","513","""event"",""trial"",""time""
""fullscreenenter"",""0"",""2805""
","
","
","""event"",""trial"",""time""
""fullscreenenter"",""0"",""2805""
","
","7703.075000000361","<img style='border: 4px solid darkgrey;' src='img/tf1_76_M_ss3.jpeg'></img>","3","","exp","","2","<img src='img/tf1_76_T1_ss3_md.jpeg'></img>","0","false",""
"","html-keyboard-response","165","513196","0.0-10.0-0.76","513","""event"",""trial"",""time""
""fullscreenenter"",""0"",""2805""
","
","
","""event"",""trial"",""time""
""fullscreenenter"",""0"",""2805""
","
","null","<div style=""font-size:60px;"">+</div>","","null","fixation","2021-06-03 21:04:04.994","","","","",""
"","mars-trial","166","517980","0.0-10.0-1.76","513","""event"",""trial"",""time""
""fullscreenenter"",""0"",""2805""
","
","
","""event"",""trial"",""time""
""fullscreenenter"",""0"",""2805""
","
","4178.179999999877","<img style='border: 4px solid darkgrey;' src='img/tf1_77_M_ss1.jpeg'></img>","3","","exp","","0","<img src='img/tf1_77_T1_ss1_md.jpeg'></img>","0","true",""
"","html-keyboard-response","167","518482","0.0-10.0-0.77","513","""event"",""trial"",""time""
""fullscreenenter"",""0"",""2805""
","
","
","""event"",""trial"",""time""
""fullscreenenter"",""0"",""2805""
","
","null","<div style=""font-size:60px;"">+</div>","","null","fixation","2021-06-03 21:04:10.280","","","","",""
"","mars-trial","168","526062","0.0-10.0-1.77","513","""event"",""trial"",""time""
""fullscreenenter"",""0"",""2805""
","
","
","""event"",""trial"",""time""
""fullscreenenter"",""0"",""2805""
","
","6974.384999999951","<img style='border: 4px solid darkgrey;' src='img/tf1_78_M_ss2.jpeg'></img>","1","","exp","","2","<img src='img/tf1_78_T1_ss2_md.jpeg'></img>","0","false",""
"","html-keyboard-response","169","526564","0.0-10.0-0.78","513","""event"",""trial"",""time""
""fullscreenenter"",""0"",""2805""
","
","
","""event"",""trial"",""time""
""fullscreenenter"",""0"",""2805""
","
","null","<div style=""font-size:60px;"">+</div>","","null","fixation","2021-06-03 21:04:18.362","","","","",""
"","mars-trial","170","529959","0.0-10.0-1.78","513","""event"",""trial"",""time""
""fullscreenenter"",""0"",""2805""
","
","
","""event"",""trial"",""time""
""fullscreenenter"",""0"",""2805""
","
","","","","","exp","","","<img src='img/tf1_79_T1_ss3_md.jpeg'></img>","0","false",""
"","html-keyboard-response","171","530460","0.0-10.0-0.79","513","""event"",""trial"",""time""
""fullscreenenter"",""0"",""2805""
","
","
","""event"",""trial"",""time""
""fullscreenenter"",""0"",""2805""
","
","null","<div style=""font-size:60px;"">+</div>","","null","fixation","2021-06-03 21:04:22.259","","","","",""
"","audio-button-response","172","533277","0.0-11.0","513","""event"",""trial"",""time""
""fullscreenenter"",""0"",""2805""
","
","
","""event"",""trial"",""time""
""fullscreenenter"",""0"",""2805""
","
","2713.819999999949","audio/mars_instructions_slide5.wav","0","","","","","","","",""
