"success","trial_type","trial_index","time_elapsed","internal_node_id","subject_id","interactions","blur_events","focus_events","fullscreenenter_events","fullscreenexit_events","rt","stimulus","button_pressed","key_press","part","timestamp","unshuffled_button","correct_response","correct_button","correct","value"
"true","fullscreen","0","25823","0.0-0.0","A110","""event"",""trial"",""time""
""blur"",""0"",""2496""
""focus"",""0"",""21487""
""fullscreenenter"",""0"",""24845""
","""event"",""trial"",""time""
""blur"",""0"",""2496""
","""event"",""trial"",""time""
""focus"",""0"",""21487""
","""event"",""trial"",""time""
""fullscreenenter"",""0"",""24845""
","
","","","","","","","","","","",""
"","pavlovia","1","25836","0.0-1.0","A110","""event"",""trial"",""time""
""blur"",""0"",""2496""
""focus"",""0"",""21487""
""fullscreenenter"",""0"",""24845""
","""event"",""trial"",""time""
""blur"",""0"",""2496""
","""event"",""trial"",""time""
""focus"",""0"",""21487""
","""event"",""trial"",""time""
""fullscreenenter"",""0"",""24845""
","
","","","","","","","","","","",""
"","html-button-response","2","27474","0.0-2.0","A110","""event"",""trial"",""time""
""blur"",""0"",""2496""
""focus"",""0"",""21487""
""fullscreenenter"",""0"",""24845""
","""event"",""trial"",""time""
""blur"",""0"",""2496""
","""event"",""trial"",""time""
""focus"",""0"",""21487""
","""event"",""trial"",""time""
""fullscreenenter"",""0"",""24845""
","
","1633.7449999991804","<p>Welcome! Press START to begin.</p><br>","0","","","","","","","",""
"","audio-button-response","3","52834","0.0-3.0","A110","""event"",""trial"",""time""
""blur"",""0"",""2496""
""focus"",""0"",""21487""
""fullscreenenter"",""0"",""24845""
","""event"",""trial"",""time""
""blur"",""0"",""2496""
","""event"",""trial"",""time""
""focus"",""0"",""21487""
","""event"",""trial"",""time""
""fullscreenenter"",""0"",""24845""
","
","25358.530000001338","audio/mars_instructions_slide2.wav","0","","","","","","","",""
"","audio-button-response","4","69931","0.0-4.0","A110","""event"",""trial"",""time""
""blur"",""0"",""2496""
""focus"",""0"",""21487""
""fullscreenenter"",""0"",""24845""
","""event"",""trial"",""time""
""blur"",""0"",""2496""
","""event"",""trial"",""time""
""focus"",""0"",""21487""
","""event"",""trial"",""time""
""fullscreenenter"",""0"",""24845""
","
","17096.03000000061","audio/mars_instructions_slide3.wav","0","","","","","","","",""
"","html-keyboard-response","5","70441","0.0-5.0-0.0","A110","""event"",""trial"",""time""
""blur"",""0"",""2496""
""focus"",""0"",""21487""
""fullscreenenter"",""0"",""24845""
","""event"",""trial"",""time""
""blur"",""0"",""2496""
","""event"",""trial"",""time""
""focus"",""0"",""21487""
","""event"",""trial"",""time""
""fullscreenenter"",""0"",""24845""
","
","null","<div style=""font-size:60px;"">+</div>","","null","fixation","2021-04-23 19:07:11.530","","","","",""
"","mars-trial","6","84936","0.0-5.0-1.0","A110","""event"",""trial"",""time""
""blur"",""0"",""2496""
""focus"",""0"",""21487""
""fullscreenenter"",""0"",""24845""
","""event"",""trial"",""time""
""blur"",""0"",""2496""
","""event"",""trial"",""time""
""focus"",""0"",""21487""
","""event"",""trial"",""time""
""fullscreenenter"",""0"",""24845""
","
","12371.964999998454","<img style='border: 4px solid darkgrey;' src='practice/pt1_M1.png'></img>","1","","practice","","0","<img src='practice/pt1_T1.png'></img>","0","true",""
"","html-keyboard-response","7","85448","0.0-6.0-0.0","A110","""event"",""trial"",""time""
""blur"",""0"",""2496""
""focus"",""0"",""21487""
""fullscreenenter"",""0"",""24845""
","""event"",""trial"",""time""
""blur"",""0"",""2496""
","""event"",""trial"",""time""
""focus"",""0"",""21487""
","""event"",""trial"",""time""
""fullscreenenter"",""0"",""24845""
","
","null","<div style=""font-size:60px;"">+</div>","","null","fixation","2021-04-23 19:07:26.537","","","","",""
"","mars-trial","8","91314","0.0-6.0-1.0","A110","""event"",""trial"",""time""
""blur"",""0"",""2496""
""focus"",""0"",""21487""
""fullscreenenter"",""0"",""24845""
","""event"",""trial"",""time""
""blur"",""0"",""2496""
","""event"",""trial"",""time""
""focus"",""0"",""21487""
","""event"",""trial"",""time""
""fullscreenenter"",""0"",""24845""
","
","3742.3200000012002","<img style='border: 4px solid darkgrey;' src='practice/pt2_M1.png'></img>","2","","practice","","0","<img src='practice/pt2_T1.png'></img>","0","true",""
"","html-keyboard-response","9","91828","0.0-7.0-0.0","A110","""event"",""trial"",""time""
""blur"",""0"",""2496""
""focus"",""0"",""21487""
""fullscreenenter"",""0"",""24845""
","""event"",""trial"",""time""
""blur"",""0"",""2496""
","""event"",""trial"",""time""
""focus"",""0"",""21487""
","""event"",""trial"",""time""
""fullscreenenter"",""0"",""24845""
","
","null","<div style=""font-size:60px;"">+</div>","","null","fixation","2021-04-23 19:07:32.917","","","","",""
"","mars-trial","10","95522","0.0-7.0-1.0","A110","""event"",""trial"",""time""
""blur"",""0"",""2496""
""focus"",""0"",""21487""
""fullscreenenter"",""0"",""24845""
","""event"",""trial"",""time""
""blur"",""0"",""2496""
","""event"",""trial"",""time""
""focus"",""0"",""21487""
","""event"",""trial"",""time""
""fullscreenenter"",""0"",""24845""
","
","1567.0549999995274","<img style='border: 4px solid darkgrey;' src='practice/pt3_M1.png'></img>","3","","practice","","0","<img src='practice/pt3_T1.png'></img>","0","true",""
"","audio-button-response","11","99990","0.0-8.0","A110","""event"",""trial"",""time""
""blur"",""0"",""2496""
""focus"",""0"",""21487""
""fullscreenenter"",""0"",""24845""
","""event"",""trial"",""time""
""blur"",""0"",""2496""
","""event"",""trial"",""time""
""focus"",""0"",""21487""
","""event"",""trial"",""time""
""fullscreenenter"",""0"",""24845""
","
","4467.0399999995425","audio/mars_instructions_slide4.wav","0","","","","","","","",""
"","call-function","12","99991","0.0-9.0","A110","""event"",""trial"",""time""
""blur"",""0"",""2496""
""focus"",""0"",""21487""
""fullscreenenter"",""0"",""24845""
","""event"",""trial"",""time""
""blur"",""0"",""2496""
","""event"",""trial"",""time""
""focus"",""0"",""21487""
","""event"",""trial"",""time""
""fullscreenenter"",""0"",""24845""
","
","","","","","","","","","","",""
"","html-keyboard-response","13","100493","0.0-10.0-0.0","A110","""event"",""trial"",""time""
""blur"",""0"",""2496""
""focus"",""0"",""21487""
""fullscreenenter"",""0"",""24845""
","""event"",""trial"",""time""
""blur"",""0"",""2496""
","""event"",""trial"",""time""
""focus"",""0"",""21487""
","""event"",""trial"",""time""
""fullscreenenter"",""0"",""24845""
","
","null","<div style=""font-size:60px;"">+</div>","","null","fixation","2021-04-23 19:07:41.582","","","","",""
"","mars-trial","14","103032","0.0-10.0-1.0","A110","""event"",""trial"",""time""
""blur"",""0"",""2496""
""focus"",""0"",""21487""
""fullscreenenter"",""0"",""24845""
","""event"",""trial"",""time""
""blur"",""0"",""2496""
","""event"",""trial"",""time""
""focus"",""0"",""21487""
","""event"",""trial"",""time""
""fullscreenenter"",""0"",""24845""
","
","1932.3200000035285","<img style='border: 4px solid darkgrey;' src='img/tf1_1_M_ss3.jpeg'></img>","3","","exp","","0","<img src='img/tf1_1_T1_ss3_md.jpeg'></img>","0","true",""
"","html-keyboard-response","15","103541","0.0-10.0-0.1","A110","""event"",""trial"",""time""
""blur"",""0"",""2496""
""focus"",""0"",""21487""
""fullscreenenter"",""0"",""24845""
","""event"",""trial"",""time""
""blur"",""0"",""2496""
","""event"",""trial"",""time""
""focus"",""0"",""21487""
","""event"",""trial"",""time""
""fullscreenenter"",""0"",""24845""
","
","null","<div style=""font-size:60px;"">+</div>","","null","fixation","2021-04-23 19:07:44.630","","","","",""
"","mars-trial","16","106950","0.0-10.0-1.1","A110","""event"",""trial"",""time""
""blur"",""0"",""2496""
""focus"",""0"",""21487""
""fullscreenenter"",""0"",""24845""
","""event"",""trial"",""time""
""blur"",""0"",""2496""
","""event"",""trial"",""time""
""focus"",""0"",""21487""
","""event"",""trial"",""time""
""fullscreenenter"",""0"",""24845""
","
","2796.519999999873","<img style='border: 4px solid darkgrey;' src='img/tf1_2_M_ss1.jpeg'></img>","2","","exp","","0","<img src='img/tf1_2_T1_ss1_md.jpeg'></img>","0","true",""
"","html-keyboard-response","17","107458","0.0-10.0-0.2","A110","""event"",""trial"",""time""
""blur"",""0"",""2496""
""focus"",""0"",""21487""
""fullscreenenter"",""0"",""24845""
","""event"",""trial"",""time""
""blur"",""0"",""2496""
","""event"",""trial"",""time""
""focus"",""0"",""21487""
","""event"",""trial"",""time""
""fullscreenenter"",""0"",""24845""
","
","null","<div style=""font-size:60px;"">+</div>","","null","fixation","2021-04-23 19:07:48.548","","","","",""
"","mars-trial","18","110479","0.0-10.0-1.2","A110","""event"",""trial"",""time""
""blur"",""0"",""2496""
""focus"",""0"",""21487""
""fullscreenenter"",""0"",""24845""
","""event"",""trial"",""time""
""blur"",""0"",""2496""
","""event"",""trial"",""time""
""focus"",""0"",""21487""
","""event"",""trial"",""time""
""fullscreenenter"",""0"",""24845""
","
","2405.16000000207","<img style='border: 4px solid darkgrey;' src='img/tf1_3_M_ss2.jpeg'></img>","1","","exp","","0","<img src='img/tf1_3_T1_ss2_md.jpeg'></img>","0","true",""
"","html-keyboard-response","19","110991","0.0-10.0-0.3","A110","""event"",""trial"",""time""
""blur"",""0"",""2496""
""focus"",""0"",""21487""
""fullscreenenter"",""0"",""24845""
","""event"",""trial"",""time""
""blur"",""0"",""2496""
","""event"",""trial"",""time""
""focus"",""0"",""21487""
","""event"",""trial"",""time""
""fullscreenenter"",""0"",""24845""
","
","null","<div style=""font-size:60px;"">+</div>","","null","fixation","2021-04-23 19:07:52.080","","","","",""
"","mars-trial","20","115284","0.0-10.0-1.3","A110","""event"",""trial"",""time""
""blur"",""0"",""2496""
""focus"",""0"",""21487""
""fullscreenenter"",""0"",""24845""
","""event"",""trial"",""time""
""blur"",""0"",""2496""
","""event"",""trial"",""time""
""focus"",""0"",""21487""
","""event"",""trial"",""time""
""fullscreenenter"",""0"",""24845""
","
","3668.5599999982514","<img style='border: 4px solid darkgrey;' src='img/tf1_4_M_ss3.jpeg'></img>","1","","exp","","0","<img src='img/tf1_4_T1_ss3_md.jpeg'></img>","0","true",""
"","html-keyboard-response","21","115796","0.0-10.0-0.4","A110","""event"",""trial"",""time""
""blur"",""0"",""2496""
""focus"",""0"",""21487""
""fullscreenenter"",""0"",""24845""
","""event"",""trial"",""time""
""blur"",""0"",""2496""
","""event"",""trial"",""time""
""focus"",""0"",""21487""
","""event"",""trial"",""time""
""fullscreenenter"",""0"",""24845""
","
","null","<div style=""font-size:60px;"">+</div>","","null","fixation","2021-04-23 19:07:56.885","","","","",""
"","mars-trial","22","118273","0.0-10.0-1.4","A110","""event"",""trial"",""time""
""blur"",""0"",""2496""
""focus"",""0"",""21487""
""fullscreenenter"",""0"",""24845""
","""event"",""trial"",""time""
""blur"",""0"",""2496""
","""event"",""trial"",""time""
""focus"",""0"",""21487""
","""event"",""trial"",""time""
""fullscreenenter"",""0"",""24845""
","
","1850.4900000007183","<img style='border: 4px solid darkgrey;' src='img/tf1_5_M_ss1.jpeg'></img>","0","","exp","","0","<img src='img/tf1_5_T1_ss1_md.jpeg'></img>","0","true",""
"","html-keyboard-response","23","118774","0.0-10.0-0.5","A110","""event"",""trial"",""time""
""blur"",""0"",""2496""
""focus"",""0"",""21487""
""fullscreenenter"",""0"",""24845""
","""event"",""trial"",""time""
""blur"",""0"",""2496""
","""event"",""trial"",""time""
""focus"",""0"",""21487""
","""event"",""trial"",""time""
""fullscreenenter"",""0"",""24845""
","
","null","<div style=""font-size:60px;"">+</div>","","null","fixation","2021-04-23 19:07:59.863","","","","",""
"","mars-trial","24","128964","0.0-10.0-1.5","A110","""event"",""trial"",""time""
""blur"",""0"",""2496""
""focus"",""0"",""21487""
""fullscreenenter"",""0"",""24845""
","""event"",""trial"",""time""
""blur"",""0"",""2496""
","""event"",""trial"",""time""
""focus"",""0"",""21487""
","""event"",""trial"",""time""
""fullscreenenter"",""0"",""24845""
","
","9564.130000002478","<img style='border: 4px solid darkgrey;' src='img/tf1_6_M_ss2.jpeg'></img>","3","","exp","","0","<img src='img/tf1_6_T1_ss2_md.jpeg'></img>","0","true",""
"","html-keyboard-response","25","129476","0.0-10.0-0.6","A110","""event"",""trial"",""time""
""blur"",""0"",""2496""
""focus"",""0"",""21487""
""fullscreenenter"",""0"",""24845""
","""event"",""trial"",""time""
""blur"",""0"",""2496""
","""event"",""trial"",""time""
""focus"",""0"",""21487""
","""event"",""trial"",""time""
""fullscreenenter"",""0"",""24845""
","
","null","<div style=""font-size:60px;"">+</div>","","null","fixation","2021-04-23 19:08:10.565","","","","",""
"","mars-trial","26","132934","0.0-10.0-1.6","A110","""event"",""trial"",""time""
""blur"",""0"",""2496""
""focus"",""0"",""21487""
""fullscreenenter"",""0"",""24845""
","""event"",""trial"",""time""
""blur"",""0"",""2496""
","""event"",""trial"",""time""
""focus"",""0"",""21487""
","""event"",""trial"",""time""
""fullscreenenter"",""0"",""24845""
","
","2846.1700000007113","<img style='border: 4px solid darkgrey;' src='img/tf1_7_M_ss3.jpeg'></img>","1","","exp","","0","<img src='img/tf1_7_T1_ss3_md.jpeg'></img>","0","true",""
"","html-keyboard-response","27","133435","0.0-10.0-0.7","A110","""event"",""trial"",""time""
""blur"",""0"",""2496""
""focus"",""0"",""21487""
""fullscreenenter"",""0"",""24845""
","""event"",""trial"",""time""
""blur"",""0"",""2496""
","""event"",""trial"",""time""
""focus"",""0"",""21487""
","""event"",""trial"",""time""
""fullscreenenter"",""0"",""24845""
","
","null","<div style=""font-size:60px;"">+</div>","","null","fixation","2021-04-23 19:08:14.524","","","","",""
"","mars-trial","28","141159","0.0-10.0-1.7","A110","""event"",""trial"",""time""
""blur"",""0"",""2496""
""focus"",""0"",""21487""
""fullscreenenter"",""0"",""24845""
","""event"",""trial"",""time""
""blur"",""0"",""2496""
","""event"",""trial"",""time""
""focus"",""0"",""21487""
","""event"",""trial"",""time""
""fullscreenenter"",""0"",""24845""
","
","7119.670000000042","<img style='border: 4px solid darkgrey;' src='img/tf1_8_M_ss1.jpeg'></img>","0","","exp","","0","<img src='img/tf1_8_T1_ss1_md.jpeg'></img>","0","true",""
"","html-keyboard-response","29","141668","0.0-10.0-0.8","A110","""event"",""trial"",""time""
""blur"",""0"",""2496""
""focus"",""0"",""21487""
""fullscreenenter"",""0"",""24845""
","""event"",""trial"",""time""
""blur"",""0"",""2496""
","""event"",""trial"",""time""
""focus"",""0"",""21487""
","""event"",""trial"",""time""
""fullscreenenter"",""0"",""24845""
","
","null","<div style=""font-size:60px;"">+</div>","","null","fixation","2021-04-23 19:08:22.757","","","","",""
"","mars-trial","30","151966","0.0-10.0-1.8","A110","""event"",""trial"",""time""
""blur"",""0"",""2496""
""focus"",""0"",""21487""
""fullscreenenter"",""0"",""24845""
","""event"",""trial"",""time""
""blur"",""0"",""2496""
","""event"",""trial"",""time""
""focus"",""0"",""21487""
","""event"",""trial"",""time""
""fullscreenenter"",""0"",""24845""
","
","9684.790000002977","<img style='border: 4px solid darkgrey;' src='img/tf1_9_M_ss2.jpeg'></img>","3","","exp","","0","<img src='img/tf1_9_T1_ss2_md.jpeg'></img>","0","true",""
"","html-keyboard-response","31","152468","0.0-10.0-0.9","A110","""event"",""trial"",""time""
""blur"",""0"",""2496""
""focus"",""0"",""21487""
""fullscreenenter"",""0"",""24845""
","""event"",""trial"",""time""
""blur"",""0"",""2496""
","""event"",""trial"",""time""
""focus"",""0"",""21487""
","""event"",""trial"",""time""
""fullscreenenter"",""0"",""24845""
","
","null","<div style=""font-size:60px;"">+</div>","","null","fixation","2021-04-23 19:08:33.557","","","","",""
"","mars-trial","32","177841","0.0-10.0-1.9","A110","""event"",""trial"",""time""
""blur"",""0"",""2496""
""focus"",""0"",""21487""
""fullscreenenter"",""0"",""24845""
","""event"",""trial"",""time""
""blur"",""0"",""2496""
","""event"",""trial"",""time""
""focus"",""0"",""21487""
","""event"",""trial"",""time""
""fullscreenenter"",""0"",""24845""
","
","24768.755000000965","<img style='border: 4px solid darkgrey;' src='img/tf1_10_M_ss3.jpeg'></img>","1","","exp","","0","<img src='img/tf1_10_T1_ss3_md.jpeg'></img>","0","true",""
"","html-keyboard-response","33","178342","0.0-10.0-0.10","A110","""event"",""trial"",""time""
""blur"",""0"",""2496""
""focus"",""0"",""21487""
""fullscreenenter"",""0"",""24845""
","""event"",""trial"",""time""
""blur"",""0"",""2496""
","""event"",""trial"",""time""
""focus"",""0"",""21487""
","""event"",""trial"",""time""
""fullscreenenter"",""0"",""24845""
","
","null","<div style=""font-size:60px;"">+</div>","","null","fixation","2021-04-23 19:08:59.431","","","","",""
"","mars-trial","34","199614","0.0-10.0-1.10","A110","""event"",""trial"",""time""
""blur"",""0"",""2496""
""focus"",""0"",""21487""
""fullscreenenter"",""0"",""24845""
","""event"",""trial"",""time""
""blur"",""0"",""2496""
","""event"",""trial"",""time""
""focus"",""0"",""21487""
","""event"",""trial"",""time""
""fullscreenenter"",""0"",""24845""
","
","20667.230000002746","<img style='border: 4px solid darkgrey;' src='img/tf1_11_M_ss1.jpeg'></img>","1","","exp","","0","<img src='img/tf1_11_T1_ss1_md.jpeg'></img>","0","true",""
"","html-keyboard-response","35","200116","0.0-10.0-0.11","A110","""event"",""trial"",""time""
""blur"",""0"",""2496""
""focus"",""0"",""21487""
""fullscreenenter"",""0"",""24845""
","""event"",""trial"",""time""
""blur"",""0"",""2496""
","""event"",""trial"",""time""
""focus"",""0"",""21487""
","""event"",""trial"",""time""
""fullscreenenter"",""0"",""24845""
","
","null","<div style=""font-size:60px;"">+</div>","","null","fixation","2021-04-23 19:09:21.205","","","","",""
"","mars-trial","36","220661","0.0-10.0-1.11","A110","""event"",""trial"",""time""
""blur"",""0"",""2496""
""focus"",""0"",""21487""
""fullscreenenter"",""0"",""24845""
","""event"",""trial"",""time""
""blur"",""0"",""2496""
","""event"",""trial"",""time""
""focus"",""0"",""21487""
","""event"",""trial"",""time""
""fullscreenenter"",""0"",""24845""
","
","19941.179999997985","<img style='border: 4px solid darkgrey;' src='img/tf1_12_M_ss2.jpeg'></img>","2","","exp","","3","<img src='img/tf1_12_T1_ss2_md.jpeg'></img>","0","false",""
"","html-keyboard-response","37","221163","0.0-10.0-0.12","A110","""event"",""trial"",""time""
""blur"",""0"",""2496""
""focus"",""0"",""21487""
""fullscreenenter"",""0"",""24845""
","""event"",""trial"",""time""
""blur"",""0"",""2496""
","""event"",""trial"",""time""
""focus"",""0"",""21487""
","""event"",""trial"",""time""
""fullscreenenter"",""0"",""24845""
","
","null","<div style=""font-size:60px;"">+</div>","","null","fixation","2021-04-23 19:09:42.252","","","","",""
"","mars-trial","38","241768","0.0-10.0-1.12","A110","""event"",""trial"",""time""
""blur"",""0"",""2496""
""focus"",""0"",""21487""
""fullscreenenter"",""0"",""24845""
","""event"",""trial"",""time""
""blur"",""0"",""2496""
","""event"",""trial"",""time""
""focus"",""0"",""21487""
","""event"",""trial"",""time""
""fullscreenenter"",""0"",""24845""
","
","20000.56499999846","<img style='border: 4px solid darkgrey;' src='img/tf1_13_M_ss3.jpeg'></img>","2","","exp","","1","<img src='img/tf1_13_T1_ss3_md.jpeg'></img>","0","false",""
"","html-keyboard-response","39","242269","0.0-10.0-0.13","A110","""event"",""trial"",""time""
""blur"",""0"",""2496""
""focus"",""0"",""21487""
""fullscreenenter"",""0"",""24845""
","""event"",""trial"",""time""
""blur"",""0"",""2496""
","""event"",""trial"",""time""
""focus"",""0"",""21487""
","""event"",""trial"",""time""
""fullscreenenter"",""0"",""24845""
","
","null","<div style=""font-size:60px;"">+</div>","","null","fixation","2021-04-23 19:10:03.358","","","","",""
"","mars-trial","40","260593","0.0-10.0-1.13","A110","""event"",""trial"",""time""
""blur"",""0"",""2496""
""focus"",""0"",""21487""
""fullscreenenter"",""0"",""24845""
","""event"",""trial"",""time""
""blur"",""0"",""2496""
","""event"",""trial"",""time""
""focus"",""0"",""21487""
","""event"",""trial"",""time""
""fullscreenenter"",""0"",""24845""
","
","17718.990000001184","<img style='border: 4px solid darkgrey;' src='img/tf1_14_M_ss1.jpeg'></img>","1","","exp","","1","<img src='img/tf1_14_T1_ss1_md.jpeg'></img>","0","false",""
"","html-keyboard-response","41","261094","0.0-10.0-0.14","A110","""event"",""trial"",""time""
""blur"",""0"",""2496""
""focus"",""0"",""21487""
""fullscreenenter"",""0"",""24845""
","""event"",""trial"",""time""
""blur"",""0"",""2496""
","""event"",""trial"",""time""
""focus"",""0"",""21487""
","""event"",""trial"",""time""
""fullscreenenter"",""0"",""24845""
","
","null","<div style=""font-size:60px;"">+</div>","","null","fixation","2021-04-23 19:10:22.184","","","","",""
"","mars-trial","42","284733","0.0-10.0-1.14","A110","""event"",""trial"",""time""
""blur"",""0"",""2496""
""focus"",""0"",""21487""
""fullscreenenter"",""0"",""24845""
","""event"",""trial"",""time""
""blur"",""0"",""2496""
","""event"",""trial"",""time""
""focus"",""0"",""21487""
","""event"",""trial"",""time""
""fullscreenenter"",""0"",""24845""
","
","23033.900000002235","<img style='border: 4px solid darkgrey;' src='img/tf1_15_M_ss2.jpeg'></img>","1","","exp","","0","<img src='img/tf1_15_T1_ss2_md.jpeg'></img>","0","true",""
"","html-keyboard-response","43","285235","0.0-10.0-0.15","A110","""event"",""trial"",""time""
""blur"",""0"",""2496""
""focus"",""0"",""21487""
""fullscreenenter"",""0"",""24845""
","""event"",""trial"",""time""
""blur"",""0"",""2496""
","""event"",""trial"",""time""
""focus"",""0"",""21487""
","""event"",""trial"",""time""
""fullscreenenter"",""0"",""24845""
","
","null","<div style=""font-size:60px;"">+</div>","","null","fixation","2021-04-23 19:10:46.324","","","","",""
"","mars-trial","44","305886","0.0-10.0-1.15","A110","""event"",""trial"",""time""
""blur"",""0"",""2496""
""focus"",""0"",""21487""
""fullscreenenter"",""0"",""24845""
","""event"",""trial"",""time""
""blur"",""0"",""2496""
","""event"",""trial"",""time""
""focus"",""0"",""21487""
","""event"",""trial"",""time""
""fullscreenenter"",""0"",""24845""
","
","20045.200000000477","<img style='border: 4px solid darkgrey;' src='img/tf1_16_M_ss3.jpeg'></img>","0","","exp","","3","<img src='img/tf1_16_T1_ss3_md.jpeg'></img>","0","false",""
"","html-keyboard-response","45","306387","0.0-10.0-0.16","A110","""event"",""trial"",""time""
""blur"",""0"",""2496""
""focus"",""0"",""21487""
""fullscreenenter"",""0"",""24845""
","""event"",""trial"",""time""
""blur"",""0"",""2496""
","""event"",""trial"",""time""
""focus"",""0"",""21487""
","""event"",""trial"",""time""
""fullscreenenter"",""0"",""24845""
","
","null","<div style=""font-size:60px;"">+</div>","","null","fixation","2021-04-23 19:11:07.476","","","","",""
"","mars-trial","46","324460","0.0-10.0-1.16","A110","""event"",""trial"",""time""
""blur"",""0"",""2496""
""focus"",""0"",""21487""
""fullscreenenter"",""0"",""24845""
","""event"",""trial"",""time""
""blur"",""0"",""2496""
","""event"",""trial"",""time""
""focus"",""0"",""21487""
","""event"",""trial"",""time""
""fullscreenenter"",""0"",""24845""
","
","17467.075000000477","<img style='border: 4px solid darkgrey;' src='img/tf1_17_M_ss1.jpeg'></img>","2","","exp","","0","<img src='img/tf1_17_T1_ss1_md.jpeg'></img>","0","true",""
"","html-keyboard-response","47","324961","0.0-10.0-0.17","A110","""event"",""trial"",""time""
""blur"",""0"",""2496""
""focus"",""0"",""21487""
""fullscreenenter"",""0"",""24845""
","""event"",""trial"",""time""
""blur"",""0"",""2496""
","""event"",""trial"",""time""
""focus"",""0"",""21487""
","""event"",""trial"",""time""
""fullscreenenter"",""0"",""24845""
","
","null","<div style=""font-size:60px;"">+</div>","","null","fixation","2021-04-23 19:11:26.050","","","","",""
"","mars-trial","48","338595","0.0-10.0-1.17","A110","""event"",""trial"",""time""
""blur"",""0"",""2496""
""focus"",""0"",""21487""
""fullscreenenter"",""0"",""24845""
","""event"",""trial"",""time""
""blur"",""0"",""2496""
","""event"",""trial"",""time""
""focus"",""0"",""21487""
","""event"",""trial"",""time""
""fullscreenenter"",""0"",""24845""
","
","13029.529999999795","<img style='border: 4px solid darkgrey;' src='img/tf1_18_M_ss2.jpeg'></img>","3","","exp","","0","<img src='img/tf1_18_T1_ss2_md.jpeg'></img>","0","true",""
"","html-keyboard-response","49","339096","0.0-10.0-0.18","A110","""event"",""trial"",""time""
""blur"",""0"",""2496""
""focus"",""0"",""21487""
""fullscreenenter"",""0"",""24845""
","""event"",""trial"",""time""
""blur"",""0"",""2496""
","""event"",""trial"",""time""
""focus"",""0"",""21487""
","""event"",""trial"",""time""
""fullscreenenter"",""0"",""24845""
","
","null","<div style=""font-size:60px;"">+</div>","","null","fixation","2021-04-23 19:11:40.185","","","","",""
"","mars-trial","50","345254","0.0-10.0-1.18","A110","""event"",""trial"",""time""
""blur"",""0"",""2496""
""focus"",""0"",""21487""
""fullscreenenter"",""0"",""24845""
","""event"",""trial"",""time""
""blur"",""0"",""2496""
","""event"",""trial"",""time""
""focus"",""0"",""21487""
","""event"",""trial"",""time""
""fullscreenenter"",""0"",""24845""
","
","5551.885000000766","<img style='border: 4px solid darkgrey;' src='img/tf1_19_M_ss3.jpeg'></img>","2","","exp","","3","<img src='img/tf1_19_T1_ss3_md.jpeg'></img>","0","false",""
"","html-keyboard-response","51","345756","0.0-10.0-0.19","A110","""event"",""trial"",""time""
""blur"",""0"",""2496""
""focus"",""0"",""21487""
""fullscreenenter"",""0"",""24845""
","""event"",""trial"",""time""
""blur"",""0"",""2496""
","""event"",""trial"",""time""
""focus"",""0"",""21487""
","""event"",""trial"",""time""
""fullscreenenter"",""0"",""24845""
","
","null","<div style=""font-size:60px;"">+</div>","","null","fixation","2021-04-23 19:11:46.845","","","","",""
"","mars-trial","52","356424","0.0-10.0-1.19","A110","""event"",""trial"",""time""
""blur"",""0"",""2496""
""focus"",""0"",""21487""
""fullscreenenter"",""0"",""24845""
","""event"",""trial"",""time""
""blur"",""0"",""2496""
","""event"",""trial"",""time""
""focus"",""0"",""21487""
","""event"",""trial"",""time""
""fullscreenenter"",""0"",""24845""
","
","10063.514999998035","<img style='border: 4px solid darkgrey;' src='img/tf1_20_M_ss1.jpeg'></img>","2","","exp","","0","<img src='img/tf1_20_T1_ss1_md.jpeg'></img>","0","true",""
"","html-keyboard-response","53","356926","0.0-10.0-0.20","A110","""event"",""trial"",""time""
""blur"",""0"",""2496""
""focus"",""0"",""21487""
""fullscreenenter"",""0"",""24845""
","""event"",""trial"",""time""
""blur"",""0"",""2496""
","""event"",""trial"",""time""
""focus"",""0"",""21487""
","""event"",""trial"",""time""
""fullscreenenter"",""0"",""24845""
","
","null","<div style=""font-size:60px;"">+</div>","","null","fixation","2021-04-23 19:11:58.016","","","","",""
"","mars-trial","54","375383","0.0-10.0-1.20","A110","""event"",""trial"",""time""
""blur"",""0"",""2496""
""focus"",""0"",""21487""
""fullscreenenter"",""0"",""24845""
","""event"",""trial"",""time""
""blur"",""0"",""2496""
","""event"",""trial"",""time""
""focus"",""0"",""21487""
","""event"",""trial"",""time""
""fullscreenenter"",""0"",""24845""
","
","17852.395000001707","<img style='border: 4px solid darkgrey;' src='img/tf1_21_M_ss2.jpeg'></img>","3","","exp","","0","<img src='img/tf1_21_T1_ss2_md.jpeg'></img>","0","true",""
"","html-keyboard-response","55","375884","0.0-10.0-0.21","A110","""event"",""trial"",""time""
""blur"",""0"",""2496""
""focus"",""0"",""21487""
""fullscreenenter"",""0"",""24845""
","""event"",""trial"",""time""
""blur"",""0"",""2496""
","""event"",""trial"",""time""
""focus"",""0"",""21487""
","""event"",""trial"",""time""
""fullscreenenter"",""0"",""24845""
","
","null","<div style=""font-size:60px;"">+</div>","","null","fixation","2021-04-23 19:12:16.973","","","","",""
"","mars-trial","56","387026","0.0-10.0-1.21","A110","""event"",""trial"",""time""
""blur"",""0"",""2496""
""focus"",""0"",""21487""
""fullscreenenter"",""0"",""24845""
","""event"",""trial"",""time""
""blur"",""0"",""2496""
","""event"",""trial"",""time""
""focus"",""0"",""21487""
","""event"",""trial"",""time""
""fullscreenenter"",""0"",""24845""
","
","10535.119999996852","<img style='border: 4px solid darkgrey;' src='img/tf1_22_M_ss3.jpeg'></img>","2","","exp","","0","<img src='img/tf1_22_T1_ss3_md.jpeg'></img>","0","true",""
"","html-keyboard-response","57","387529","0.0-10.0-0.22","A110","""event"",""trial"",""time""
""blur"",""0"",""2496""
""focus"",""0"",""21487""
""fullscreenenter"",""0"",""24845""
","""event"",""trial"",""time""
""blur"",""0"",""2496""
","""event"",""trial"",""time""
""focus"",""0"",""21487""
","""event"",""trial"",""time""
""fullscreenenter"",""0"",""24845""
","
","null","<div style=""font-size:60px;"">+</div>","","null","fixation","2021-04-23 19:12:28.618","","","","",""
"","mars-trial","58","399968","0.0-10.0-1.22","A110","""event"",""trial"",""time""
""blur"",""0"",""2496""
""focus"",""0"",""21487""
""fullscreenenter"",""0"",""24845""
","""event"",""trial"",""time""
""blur"",""0"",""2496""
","""event"",""trial"",""time""
""focus"",""0"",""21487""
","""event"",""trial"",""time""
""fullscreenenter"",""0"",""24845""
","
","11834.17499999993","<img style='border: 4px solid darkgrey;' src='img/tf1_23_M_ss1.jpeg'></img>","1","","exp","","0","<img src='img/tf1_23_T1_ss1_md.jpeg'></img>","0","true",""
"","html-keyboard-response","59","400470","0.0-10.0-0.23","A110","""event"",""trial"",""time""
""blur"",""0"",""2496""
""focus"",""0"",""21487""
""fullscreenenter"",""0"",""24845""
","""event"",""trial"",""time""
""blur"",""0"",""2496""
","""event"",""trial"",""time""
""focus"",""0"",""21487""
","""event"",""trial"",""time""
""fullscreenenter"",""0"",""24845""
","
","null","<div style=""font-size:60px;"">+</div>","","null","fixation","2021-04-23 19:12:41.559","","","","",""
"","mars-trial","60","411458","0.0-10.0-1.23","A110","""event"",""trial"",""time""
""blur"",""0"",""2496""
""focus"",""0"",""21487""
""fullscreenenter"",""0"",""24845""
","""event"",""trial"",""time""
""blur"",""0"",""2496""
","""event"",""trial"",""time""
""focus"",""0"",""21487""
","""event"",""trial"",""time""
""fullscreenenter"",""0"",""24845""
","
","10382.190000000235","<img style='border: 4px solid darkgrey;' src='img/tf1_24_M_ss2.jpeg'></img>","1","","exp","","1","<img src='img/tf1_24_T1_ss2_md.jpeg'></img>","0","false",""
"","html-keyboard-response","61","411960","0.0-10.0-0.24","A110","""event"",""trial"",""time""
""blur"",""0"",""2496""
""focus"",""0"",""21487""
""fullscreenenter"",""0"",""24845""
","""event"",""trial"",""time""
""blur"",""0"",""2496""
","""event"",""trial"",""time""
""focus"",""0"",""21487""
","""event"",""trial"",""time""
""fullscreenenter"",""0"",""24845""
","
","null","<div style=""font-size:60px;"">+</div>","","null","fixation","2021-04-23 19:12:53.049","","","","",""
"","mars-trial","62","426131","0.0-10.0-1.24","A110","""event"",""trial"",""time""
""blur"",""0"",""2496""
""focus"",""0"",""21487""
""fullscreenenter"",""0"",""24845""
","""event"",""trial"",""time""
""blur"",""0"",""2496""
","""event"",""trial"",""time""
""focus"",""0"",""21487""
","""event"",""trial"",""time""
""fullscreenenter"",""0"",""24845""
","
","13565.59500000003","<img style='border: 4px solid darkgrey;' src='img/tf1_25_M_ss3.jpeg'></img>","2","","exp","","0","<img src='img/tf1_25_T1_ss3_md.jpeg'></img>","0","true",""
"","html-keyboard-response","63","426632","0.0-10.0-0.25","A110","""event"",""trial"",""time""
""blur"",""0"",""2496""
""focus"",""0"",""21487""
""fullscreenenter"",""0"",""24845""
","""event"",""trial"",""time""
""blur"",""0"",""2496""
","""event"",""trial"",""time""
""focus"",""0"",""21487""
","""event"",""trial"",""time""
""fullscreenenter"",""0"",""24845""
","
","null","<div style=""font-size:60px;"">+</div>","","null","fixation","2021-04-23 19:13:07.721","","","","",""
"","mars-trial","64","439756","0.0-10.0-1.25","A110","""event"",""trial"",""time""
""blur"",""0"",""2496""
""focus"",""0"",""21487""
""fullscreenenter"",""0"",""24845""
","""event"",""trial"",""time""
""blur"",""0"",""2496""
","""event"",""trial"",""time""
""focus"",""0"",""21487""
","""event"",""trial"",""time""
""fullscreenenter"",""0"",""24845""
","
","12510.874999999884","<img style='border: 4px solid darkgrey;' src='img/tf1_26_M_ss1.jpeg'></img>","2","","exp","","2","<img src='img/tf1_26_T1_ss1_md.jpeg'></img>","0","false",""
"","html-keyboard-response","65","440258","0.0-10.0-0.26","A110","""event"",""trial"",""time""
""blur"",""0"",""2496""
""focus"",""0"",""21487""
""fullscreenenter"",""0"",""24845""
","""event"",""trial"",""time""
""blur"",""0"",""2496""
","""event"",""trial"",""time""
""focus"",""0"",""21487""
","""event"",""trial"",""time""
""fullscreenenter"",""0"",""24845""
","
","null","<div style=""font-size:60px;"">+</div>","","null","fixation","2021-04-23 19:13:21.347","","","","",""
"","mars-trial","66","458093","0.0-10.0-1.26","A110","""event"",""trial"",""time""
""blur"",""0"",""2496""
""focus"",""0"",""21487""
""fullscreenenter"",""0"",""24845""
","""event"",""trial"",""time""
""blur"",""0"",""2496""
","""event"",""trial"",""time""
""focus"",""0"",""21487""
","""event"",""trial"",""time""
""fullscreenenter"",""0"",""24845""
","
","17230.069999997853","<img style='border: 4px solid darkgrey;' src='img/tf1_27_M_ss2.jpeg'></img>","0","","exp","","1","<img src='img/tf1_27_T1_ss2_md.jpeg'></img>","0","false",""
"","html-keyboard-response","67","458595","0.0-10.0-0.27","A110","""event"",""trial"",""time""
""blur"",""0"",""2496""
""focus"",""0"",""21487""
""fullscreenenter"",""0"",""24845""
","""event"",""trial"",""time""
""blur"",""0"",""2496""
","""event"",""trial"",""time""
""focus"",""0"",""21487""
","""event"",""trial"",""time""
""fullscreenenter"",""0"",""24845""
","
","null","<div style=""font-size:60px;"">+</div>","","null","fixation","2021-04-23 19:13:39.684","","","","",""
"","mars-trial","68","466032","0.0-10.0-1.27","A110","""event"",""trial"",""time""
""blur"",""0"",""2496""
""focus"",""0"",""21487""
""fullscreenenter"",""0"",""24845""
","""event"",""trial"",""time""
""blur"",""0"",""2496""
","""event"",""trial"",""time""
""focus"",""0"",""21487""
","""event"",""trial"",""time""
""fullscreenenter"",""0"",""24845""
","
","6831.879999997909","<img style='border: 4px solid darkgrey;' src='img/tf1_28_M_ss3.jpeg'></img>","0","","exp","","0","<img src='img/tf1_28_T1_ss3_md.jpeg'></img>","0","true",""
"","html-keyboard-response","69","466534","0.0-10.0-0.28","A110","""event"",""trial"",""time""
""blur"",""0"",""2496""
""focus"",""0"",""21487""
""fullscreenenter"",""0"",""24845""
","""event"",""trial"",""time""
""blur"",""0"",""2496""
","""event"",""trial"",""time""
""focus"",""0"",""21487""
","""event"",""trial"",""time""
""fullscreenenter"",""0"",""24845""
","
","null","<div style=""font-size:60px;"">+</div>","","null","fixation","2021-04-23 19:13:47.623","","","","",""
"","mars-trial","70","488262","0.0-10.0-1.28","A110","""event"",""trial"",""time""
""blur"",""0"",""2496""
""focus"",""0"",""21487""
""fullscreenenter"",""0"",""24845""
","""event"",""trial"",""time""
""blur"",""0"",""2496""
","""event"",""trial"",""time""
""focus"",""0"",""21487""
","""event"",""trial"",""time""
""fullscreenenter"",""0"",""24845""
","
","21123.17500000063","<img style='border: 4px solid darkgrey;' src='img/tf1_29_M_ss1.jpeg'></img>","0","","exp","","3","<img src='img/tf1_29_T1_ss1_md.jpeg'></img>","0","false",""
"","html-keyboard-response","71","488764","0.0-10.0-0.29","A110","""event"",""trial"",""time""
""blur"",""0"",""2496""
""focus"",""0"",""21487""
""fullscreenenter"",""0"",""24845""
","""event"",""trial"",""time""
""blur"",""0"",""2496""
","""event"",""trial"",""time""
""focus"",""0"",""21487""
","""event"",""trial"",""time""
""fullscreenenter"",""0"",""24845""
","
","null","<div style=""font-size:60px;"">+</div>","","null","fixation","2021-04-23 19:14:09.853","","","","",""
"","mars-trial","72","503267","0.0-10.0-1.29","A110","""event"",""trial"",""time""
""blur"",""0"",""2496""
""focus"",""0"",""21487""
""fullscreenenter"",""0"",""24845""
","""event"",""trial"",""time""
""blur"",""0"",""2496""
","""event"",""trial"",""time""
""focus"",""0"",""21487""
","""event"",""trial"",""time""
""fullscreenenter"",""0"",""24845""
","
","13898.229999998817","<img style='border: 4px solid darkgrey;' src='img/tf1_30_M_ss2.jpeg'></img>","1","","exp","","1","<img src='img/tf1_30_T1_ss2_md.jpeg'></img>","0","false",""
"","html-keyboard-response","73","503769","0.0-10.0-0.30","A110","""event"",""trial"",""time""
""blur"",""0"",""2496""
""focus"",""0"",""21487""
""fullscreenenter"",""0"",""24845""
","""event"",""trial"",""time""
""blur"",""0"",""2496""
","""event"",""trial"",""time""
""focus"",""0"",""21487""
","""event"",""trial"",""time""
""fullscreenenter"",""0"",""24845""
","
","null","<div style=""font-size:60px;"">+</div>","","null","fixation","2021-04-23 19:14:24.858","","","","",""
"","mars-trial","74","533874","0.0-10.0-1.30","A110","""event"",""trial"",""time""
""blur"",""0"",""2496""
""focus"",""0"",""21487""
""fullscreenenter"",""0"",""24845""
","""event"",""trial"",""time""
""blur"",""0"",""2496""
","""event"",""trial"",""time""
""focus"",""0"",""21487""
","""event"",""trial"",""time""
""fullscreenenter"",""0"",""24845""
","
","null","<img style='border: 4px solid darkgrey;' src='img/tf1_31_M_ss3.jpeg'></img>","null","","exp","","null","<img src='img/tf1_31_T1_ss3_md.jpeg'></img>","0","false",""
"","html-keyboard-response","75","534376","0.0-10.0-0.31","A110","""event"",""trial"",""time""
""blur"",""0"",""2496""
""focus"",""0"",""21487""
""fullscreenenter"",""0"",""24845""
","""event"",""trial"",""time""
""blur"",""0"",""2496""
","""event"",""trial"",""time""
""focus"",""0"",""21487""
","""event"",""trial"",""time""
""fullscreenenter"",""0"",""24845""
","
","null","<div style=""font-size:60px;"">+</div>","","null","fixation","2021-04-23 19:14:55.465","","","","",""
"","mars-trial","76","545267","0.0-10.0-1.31","A110","""event"",""trial"",""time""
""blur"",""0"",""2496""
""focus"",""0"",""21487""
""fullscreenenter"",""0"",""24845""
","""event"",""trial"",""time""
""blur"",""0"",""2496""
","""event"",""trial"",""time""
""focus"",""0"",""21487""
","""event"",""trial"",""time""
""fullscreenenter"",""0"",""24845""
","
","10285.100000001024","<img style='border: 4px solid darkgrey;' src='img/tf1_32_M_ss1.jpeg'></img>","2","","exp","","1","<img src='img/tf1_32_T1_ss1_md.jpeg'></img>","0","false",""
"","html-keyboard-response","77","545769","0.0-10.0-0.32","A110","""event"",""trial"",""time""
""blur"",""0"",""2496""
""focus"",""0"",""21487""
""fullscreenenter"",""0"",""24845""
","""event"",""trial"",""time""
""blur"",""0"",""2496""
","""event"",""trial"",""time""
""focus"",""0"",""21487""
","""event"",""trial"",""time""
""fullscreenenter"",""0"",""24845""
","
","null","<div style=""font-size:60px;"">+</div>","","null","fixation","2021-04-23 19:15:06.858","","","","",""
"","mars-trial","78","550743","0.0-10.0-1.32","A110","""event"",""trial"",""time""
""blur"",""0"",""2496""
""focus"",""0"",""21487""
""fullscreenenter"",""0"",""24845""
","""event"",""trial"",""time""
""blur"",""0"",""2496""
","""event"",""trial"",""time""
""focus"",""0"",""21487""
","""event"",""trial"",""time""
""fullscreenenter"",""0"",""24845""
","
","4369.425000000745","<img style='border: 4px solid darkgrey;' src='img/tf1_33_M_ss2.jpeg'></img>","2","","exp","","2","<img src='img/tf1_33_T1_ss2_md.jpeg'></img>","0","false",""
"","html-keyboard-response","79","551245","0.0-10.0-0.33","A110","""event"",""trial"",""time""
""blur"",""0"",""2496""
""focus"",""0"",""21487""
""fullscreenenter"",""0"",""24845""
","""event"",""trial"",""time""
""blur"",""0"",""2496""
","""event"",""trial"",""time""
""focus"",""0"",""21487""
","""event"",""trial"",""time""
""fullscreenenter"",""0"",""24845""
","
","null","<div style=""font-size:60px;"">+</div>","","null","fixation","2021-04-23 19:15:12.334","","","","",""
"","mars-trial","80","566274","0.0-10.0-1.33","A110","""event"",""trial"",""time""
""blur"",""0"",""2496""
""focus"",""0"",""21487""
""fullscreenenter"",""0"",""24845""
","""event"",""trial"",""time""
""blur"",""0"",""2496""
","""event"",""trial"",""time""
""focus"",""0"",""21487""
","""event"",""trial"",""time""
""fullscreenenter"",""0"",""24845""
","
","14425.144999997457","<img style='border: 4px solid darkgrey;' src='img/tf1_34_M_ss3.jpeg'></img>","3","","exp","","2","<img src='img/tf1_34_T1_ss3_md.jpeg'></img>","0","false",""
"","html-keyboard-response","81","566776","0.0-10.0-0.34","A110","""event"",""trial"",""time""
""blur"",""0"",""2496""
""focus"",""0"",""21487""
""fullscreenenter"",""0"",""24845""
","""event"",""trial"",""time""
""blur"",""0"",""2496""
","""event"",""trial"",""time""
""focus"",""0"",""21487""
","""event"",""trial"",""time""
""fullscreenenter"",""0"",""24845""
","
","null","<div style=""font-size:60px;"">+</div>","","null","fixation","2021-04-23 19:15:27.865","","","","",""
"","mars-trial","82","574881","0.0-10.0-1.34","A110","""event"",""trial"",""time""
""blur"",""0"",""2496""
""focus"",""0"",""21487""
""fullscreenenter"",""0"",""24845""
","""event"",""trial"",""time""
""blur"",""0"",""2496""
","""event"",""trial"",""time""
""focus"",""0"",""21487""
","""event"",""trial"",""time""
""fullscreenenter"",""0"",""24845""
","
","7500.8749999979045","<img style='border: 4px solid darkgrey;' src='img/tf1_35_M_ss1.jpeg'></img>","0","","exp","","1","<img src='img/tf1_35_T1_ss1_md.jpeg'></img>","0","false",""
"","html-keyboard-response","83","575383","0.0-10.0-0.35","A110","""event"",""trial"",""time""
""blur"",""0"",""2496""
""focus"",""0"",""21487""
""fullscreenenter"",""0"",""24845""
","""event"",""trial"",""time""
""blur"",""0"",""2496""
","""event"",""trial"",""time""
""focus"",""0"",""21487""
","""event"",""trial"",""time""
""fullscreenenter"",""0"",""24845""
","
","null","<div style=""font-size:60px;"">+</div>","","null","fixation","2021-04-23 19:15:36.472","","","","",""
"","mars-trial","84","579993","0.0-10.0-1.35","A110","""event"",""trial"",""time""
""blur"",""0"",""2496""
""focus"",""0"",""21487""
""fullscreenenter"",""0"",""24845""
","""event"",""trial"",""time""
""blur"",""0"",""2496""
","""event"",""trial"",""time""
""focus"",""0"",""21487""
","""event"",""trial"",""time""
""fullscreenenter"",""0"",""24845""
","
","","","","","exp","","","<img src='img/tf1_36_T1_ss2_md.jpeg'></img>","0","false",""
"","html-keyboard-response","85","580507","0.0-10.0-0.36","A110","""event"",""trial"",""time""
""blur"",""0"",""2496""
""focus"",""0"",""21487""
""fullscreenenter"",""0"",""24845""
","""event"",""trial"",""time""
""blur"",""0"",""2496""
","""event"",""trial"",""time""
""focus"",""0"",""21487""
","""event"",""trial"",""time""
""fullscreenenter"",""0"",""24845""
","
","null","<div style=""font-size:60px;"">+</div>","","null","fixation","2021-04-23 19:15:41.596","","","","",""
"","audio-button-response","86","584568","0.0-11.0","A110","""event"",""trial"",""time""
""blur"",""0"",""2496""
""focus"",""0"",""21487""
""fullscreenenter"",""0"",""24845""
","""event"",""trial"",""time""
""blur"",""0"",""2496""
","""event"",""trial"",""time""
""focus"",""0"",""21487""
","""event"",""trial"",""time""
""fullscreenenter"",""0"",""24845""
","
","3957.8250000013504","audio/mars_instructions_slide5.wav","0","","","","","","","",""
