"success","trial_type","trial_index","time_elapsed","internal_node_id","subject_id","interactions","blur_events","focus_events","fullscreenenter_events","fullscreenexit_events","rt","stimulus","button_pressed","key_press","part","timestamp","unshuffled_button","correct_response","correct_button","correct","value"
"true","fullscreen","0","9236","0.0-0.0","A790","""event"",""trial"",""time""
""focus"",""0"",""0""
""fullscreenenter"",""0"",""8568""
","
","""event"",""trial"",""time""
""focus"",""0"",""0""
","""event"",""trial"",""time""
""fullscreenenter"",""0"",""8568""
","
","","","","","","","","","","",""
"","pavlovia","1","9253","0.0-1.0","A790","""event"",""trial"",""time""
""focus"",""0"",""0""
""fullscreenenter"",""0"",""8568""
","
","""event"",""trial"",""time""
""focus"",""0"",""0""
","""event"",""trial"",""time""
""fullscreenenter"",""0"",""8568""
","
","","","","","","","","","","",""
"","html-button-response","2","11067","0.0-2.0","A790","""event"",""trial"",""time""
""focus"",""0"",""0""
""fullscreenenter"",""0"",""8568""
","
","""event"",""trial"",""time""
""focus"",""0"",""0""
","""event"",""trial"",""time""
""fullscreenenter"",""0"",""8568""
","
","1809","<p>Welcome! Press START to begin.</p><br>","0","","","","","","","",""
"","audio-button-response","3","27667","0.0-3.0","A790","""event"",""trial"",""time""
""focus"",""0"",""0""
""fullscreenenter"",""0"",""8568""
","
","""event"",""trial"",""time""
""focus"",""0"",""0""
","""event"",""trial"",""time""
""fullscreenenter"",""0"",""8568""
","
","16595","audio/mars_instructions_slide2.wav","0","","","","","","","",""
"","audio-button-response","4","56262","0.0-4.0","A790","""event"",""trial"",""time""
""focus"",""0"",""0""
""fullscreenenter"",""0"",""8568""
","
","""event"",""trial"",""time""
""focus"",""0"",""0""
","""event"",""trial"",""time""
""fullscreenenter"",""0"",""8568""
","
","28590","audio/mars_instructions_slide3.wav","0","","","","","","","",""
"","html-keyboard-response","5","56775","0.0-5.0-0.0","A790","""event"",""trial"",""time""
""focus"",""0"",""0""
""fullscreenenter"",""0"",""8568""
","
","""event"",""trial"",""time""
""focus"",""0"",""0""
","""event"",""trial"",""time""
""fullscreenenter"",""0"",""8568""
","
","null","<div style=""font-size:60px;"">+</div>","","null","fixation","2021-04-05 08:20:09.482","","","","",""
"","mars-trial","6","65036","0.0-5.0-1.0","A790","""event"",""trial"",""time""
""focus"",""0"",""0""
""fullscreenenter"",""0"",""8568""
","
","""event"",""trial"",""time""
""focus"",""0"",""0""
","""event"",""trial"",""time""
""fullscreenenter"",""0"",""8568""
","
","6120","<img style='border: 4px solid darkgrey;' src='practice/pt1_M1.png'></img>","3","","practice","","0","<img src='practice/pt1_T1.png'></img>","0","true",""
"","html-keyboard-response","7","65546","0.0-6.0-0.0","A790","""event"",""trial"",""time""
""focus"",""0"",""0""
""fullscreenenter"",""0"",""8568""
","
","""event"",""trial"",""time""
""focus"",""0"",""0""
","""event"",""trial"",""time""
""fullscreenenter"",""0"",""8568""
","
","null","<div style=""font-size:60px;"">+</div>","","null","fixation","2021-04-05 08:20:18.252","","","","",""
"","mars-trial","8","70065","0.0-6.0-1.0","A790","""event"",""trial"",""time""
""focus"",""0"",""0""
""fullscreenenter"",""0"",""8568""
","
","""event"",""trial"",""time""
""focus"",""0"",""0""
","""event"",""trial"",""time""
""fullscreenenter"",""0"",""8568""
","
","2398","<img style='border: 4px solid darkgrey;' src='practice/pt2_M1.png'></img>","1","","practice","","0","<img src='practice/pt2_T1.png'></img>","0","true",""
"","html-keyboard-response","9","70584","0.0-7.0-0.0","A790","""event"",""trial"",""time""
""focus"",""0"",""0""
""fullscreenenter"",""0"",""8568""
","
","""event"",""trial"",""time""
""focus"",""0"",""0""
","""event"",""trial"",""time""
""fullscreenenter"",""0"",""8568""
","
","null","<div style=""font-size:60px;"">+</div>","","null","fixation","2021-04-05 08:20:23.290","","","","",""
"","mars-trial","10","74922","0.0-7.0-1.0","A790","""event"",""trial"",""time""
""focus"",""0"",""0""
""fullscreenenter"",""0"",""8568""
","
","""event"",""trial"",""time""
""focus"",""0"",""0""
","""event"",""trial"",""time""
""fullscreenenter"",""0"",""8568""
","
","2211","<img style='border: 4px solid darkgrey;' src='practice/pt3_M1.png'></img>","0","","practice","","0","<img src='practice/pt3_T1.png'></img>","0","true",""
"","audio-button-response","11","77582","0.0-8.0","A790","""event"",""trial"",""time""
""focus"",""0"",""0""
""fullscreenenter"",""0"",""8568""
","
","""event"",""trial"",""time""
""focus"",""0"",""0""
","""event"",""trial"",""time""
""fullscreenenter"",""0"",""8568""
","
","2654","audio/mars_instructions_slide4.wav","0","","","","","","","",""
"","call-function","12","77583","0.0-9.0","A790","""event"",""trial"",""time""
""focus"",""0"",""0""
""fullscreenenter"",""0"",""8568""
","
","""event"",""trial"",""time""
""focus"",""0"",""0""
","""event"",""trial"",""time""
""fullscreenenter"",""0"",""8568""
","
","","","","","","","","","","",""
"","html-keyboard-response","13","78085","0.0-10.0-0.0","A790","""event"",""trial"",""time""
""focus"",""0"",""0""
""fullscreenenter"",""0"",""8568""
","
","""event"",""trial"",""time""
""focus"",""0"",""0""
","""event"",""trial"",""time""
""fullscreenenter"",""0"",""8568""
","
","null","<div style=""font-size:60px;"">+</div>","","null","fixation","2021-04-05 08:20:30.791","","","","",""
"","mars-trial","14","79908","0.0-10.0-1.0","A790","""event"",""trial"",""time""
""focus"",""0"",""0""
""fullscreenenter"",""0"",""8568""
","
","""event"",""trial"",""time""
""focus"",""0"",""0""
","""event"",""trial"",""time""
""fullscreenenter"",""0"",""8568""
","
","1189","<img style='border: 4px solid darkgrey;' src='img/tf1_1_M_ss3.jpeg'></img>","2","","exp","","0","<img src='img/tf1_1_T1_ss3_md.jpeg'></img>","0","true",""
"","html-keyboard-response","15","80424","0.0-10.0-0.1","A790","""event"",""trial"",""time""
""focus"",""0"",""0""
""fullscreenenter"",""0"",""8568""
","
","""event"",""trial"",""time""
""focus"",""0"",""0""
","""event"",""trial"",""time""
""fullscreenenter"",""0"",""8568""
","
","null","<div style=""font-size:60px;"">+</div>","","null","fixation","2021-04-05 08:20:33.131","","","","",""
"","mars-trial","16","83809","0.0-10.0-1.1","A790","""event"",""trial"",""time""
""focus"",""0"",""0""
""fullscreenenter"",""0"",""8568""
","
","""event"",""trial"",""time""
""focus"",""0"",""0""
","""event"",""trial"",""time""
""fullscreenenter"",""0"",""8568""
","
","2755","<img style='border: 4px solid darkgrey;' src='img/tf1_2_M_ss1.jpeg'></img>","0","","exp","","0","<img src='img/tf1_2_T1_ss1_md.jpeg'></img>","0","true",""
"","html-keyboard-response","17","84324","0.0-10.0-0.2","A790","""event"",""trial"",""time""
""focus"",""0"",""0""
""fullscreenenter"",""0"",""8568""
","
","""event"",""trial"",""time""
""focus"",""0"",""0""
","""event"",""trial"",""time""
""fullscreenenter"",""0"",""8568""
","
","null","<div style=""font-size:60px;"">+</div>","","null","fixation","2021-04-05 08:20:37.030","","","","",""
"","mars-trial","18","87080","0.0-10.0-1.2","A790","""event"",""trial"",""time""
""focus"",""0"",""0""
""fullscreenenter"",""0"",""8568""
","
","""event"",""trial"",""time""
""focus"",""0"",""0""
","""event"",""trial"",""time""
""fullscreenenter"",""0"",""8568""
","
","2151","<img style='border: 4px solid darkgrey;' src='img/tf1_3_M_ss2.jpeg'></img>","3","","exp","","0","<img src='img/tf1_3_T1_ss2_md.jpeg'></img>","0","true",""
"","html-keyboard-response","19","87596","0.0-10.0-0.3","A790","""event"",""trial"",""time""
""focus"",""0"",""0""
""fullscreenenter"",""0"",""8568""
","
","""event"",""trial"",""time""
""focus"",""0"",""0""
","""event"",""trial"",""time""
""fullscreenenter"",""0"",""8568""
","
","null","<div style=""font-size:60px;"">+</div>","","null","fixation","2021-04-05 08:20:40.303","","","","",""
"","mars-trial","20","90836","0.0-10.0-1.3","A790","""event"",""trial"",""time""
""focus"",""0"",""0""
""fullscreenenter"",""0"",""8568""
","
","""event"",""trial"",""time""
""focus"",""0"",""0""
","""event"",""trial"",""time""
""fullscreenenter"",""0"",""8568""
","
","2619","<img style='border: 4px solid darkgrey;' src='img/tf1_4_M_ss3.jpeg'></img>","1","","exp","","0","<img src='img/tf1_4_T1_ss3_md.jpeg'></img>","0","true",""
"","html-keyboard-response","21","91345","0.0-10.0-0.4","A790","""event"",""trial"",""time""
""focus"",""0"",""0""
""fullscreenenter"",""0"",""8568""
","
","""event"",""trial"",""time""
""focus"",""0"",""0""
","""event"",""trial"",""time""
""fullscreenenter"",""0"",""8568""
","
","null","<div style=""font-size:60px;"">+</div>","","null","fixation","2021-04-05 08:20:44.051","","","","",""
"","mars-trial","22","93443","0.0-10.0-1.4","A790","""event"",""trial"",""time""
""focus"",""0"",""0""
""fullscreenenter"",""0"",""8568""
","
","""event"",""trial"",""time""
""focus"",""0"",""0""
","""event"",""trial"",""time""
""fullscreenenter"",""0"",""8568""
","
","1476","<img style='border: 4px solid darkgrey;' src='img/tf1_5_M_ss1.jpeg'></img>","3","","exp","","0","<img src='img/tf1_5_T1_ss1_md.jpeg'></img>","0","true",""
"","html-keyboard-response","23","93958","0.0-10.0-0.5","A790","""event"",""trial"",""time""
""focus"",""0"",""0""
""fullscreenenter"",""0"",""8568""
","
","""event"",""trial"",""time""
""focus"",""0"",""0""
","""event"",""trial"",""time""
""fullscreenenter"",""0"",""8568""
","
","null","<div style=""font-size:60px;"">+</div>","","null","fixation","2021-04-05 08:20:46.664","","","","",""
"","mars-trial","24","111467","0.0-10.0-1.5","A790","""event"",""trial"",""time""
""focus"",""0"",""0""
""fullscreenenter"",""0"",""8568""
","
","""event"",""trial"",""time""
""focus"",""0"",""0""
","""event"",""trial"",""time""
""fullscreenenter"",""0"",""8568""
","
","16886","<img style='border: 4px solid darkgrey;' src='img/tf1_6_M_ss2.jpeg'></img>","0","","exp","","0","<img src='img/tf1_6_T1_ss2_md.jpeg'></img>","0","true",""
"","html-keyboard-response","25","111974","0.0-10.0-0.6","A790","""event"",""trial"",""time""
""focus"",""0"",""0""
""fullscreenenter"",""0"",""8568""
","
","""event"",""trial"",""time""
""focus"",""0"",""0""
","""event"",""trial"",""time""
""fullscreenenter"",""0"",""8568""
","
","null","<div style=""font-size:60px;"">+</div>","","null","fixation","2021-04-05 08:21:04.681","","","","",""
"","mars-trial","26","119810","0.0-10.0-1.6","A790","""event"",""trial"",""time""
""focus"",""0"",""0""
""fullscreenenter"",""0"",""8568""
","
","""event"",""trial"",""time""
""focus"",""0"",""0""
","""event"",""trial"",""time""
""fullscreenenter"",""0"",""8568""
","
","7207","<img style='border: 4px solid darkgrey;' src='img/tf1_7_M_ss3.jpeg'></img>","1","","exp","","0","<img src='img/tf1_7_T1_ss3_md.jpeg'></img>","0","true",""
"","html-keyboard-response","27","120324","0.0-10.0-0.7","A790","""event"",""trial"",""time""
""focus"",""0"",""0""
""fullscreenenter"",""0"",""8568""
","
","""event"",""trial"",""time""
""focus"",""0"",""0""
","""event"",""trial"",""time""
""fullscreenenter"",""0"",""8568""
","
","null","<div style=""font-size:60px;"">+</div>","","null","fixation","2021-04-05 08:21:13.030","","","","",""
"","mars-trial","28","131366","0.0-10.0-1.7","A790","""event"",""trial"",""time""
""focus"",""0"",""0""
""fullscreenenter"",""0"",""8568""
","
","""event"",""trial"",""time""
""focus"",""0"",""0""
","""event"",""trial"",""time""
""fullscreenenter"",""0"",""8568""
","
","10424","<img style='border: 4px solid darkgrey;' src='img/tf1_8_M_ss1.jpeg'></img>","3","","exp","","0","<img src='img/tf1_8_T1_ss1_md.jpeg'></img>","0","true",""
"","html-keyboard-response","29","131875","0.0-10.0-0.8","A790","""event"",""trial"",""time""
""focus"",""0"",""0""
""fullscreenenter"",""0"",""8568""
","
","""event"",""trial"",""time""
""focus"",""0"",""0""
","""event"",""trial"",""time""
""fullscreenenter"",""0"",""8568""
","
","null","<div style=""font-size:60px;"">+</div>","","null","fixation","2021-04-05 08:21:24.581","","","","",""
"","mars-trial","30","137693","0.0-10.0-1.8","A790","""event"",""trial"",""time""
""focus"",""0"",""0""
""fullscreenenter"",""0"",""8568""
","
","""event"",""trial"",""time""
""focus"",""0"",""0""
","""event"",""trial"",""time""
""fullscreenenter"",""0"",""8568""
","
","5195","<img style='border: 4px solid darkgrey;' src='img/tf1_9_M_ss2.jpeg'></img>","0","","exp","","0","<img src='img/tf1_9_T1_ss2_md.jpeg'></img>","0","true",""
"","html-keyboard-response","31","138204","0.0-10.0-0.9","A790","""event"",""trial"",""time""
""focus"",""0"",""0""
""fullscreenenter"",""0"",""8568""
","
","""event"",""trial"",""time""
""focus"",""0"",""0""
","""event"",""trial"",""time""
""fullscreenenter"",""0"",""8568""
","
","null","<div style=""font-size:60px;"">+</div>","","null","fixation","2021-04-05 08:21:30.911","","","","",""
"","mars-trial","32","164825","0.0-10.0-1.9","A790","""event"",""trial"",""time""
""focus"",""0"",""0""
""fullscreenenter"",""0"",""8568""
","
","""event"",""trial"",""time""
""focus"",""0"",""0""
","""event"",""trial"",""time""
""fullscreenenter"",""0"",""8568""
","
","26004","<img style='border: 4px solid darkgrey;' src='img/tf1_10_M_ss3.jpeg'></img>","1","","exp","","3","<img src='img/tf1_10_T1_ss3_md.jpeg'></img>","0","false",""
"","html-keyboard-response","33","165335","0.0-10.0-0.10","A790","""event"",""trial"",""time""
""focus"",""0"",""0""
""fullscreenenter"",""0"",""8568""
","
","""event"",""trial"",""time""
""focus"",""0"",""0""
","""event"",""trial"",""time""
""fullscreenenter"",""0"",""8568""
","
","null","<div style=""font-size:60px;"">+</div>","","null","fixation","2021-04-05 08:21:58.041","","","","",""
"","mars-trial","34","186073","0.0-10.0-1.10","A790","""event"",""trial"",""time""
""focus"",""0"",""0""
""fullscreenenter"",""0"",""8568""
","
","""event"",""trial"",""time""
""focus"",""0"",""0""
","""event"",""trial"",""time""
""fullscreenenter"",""0"",""8568""
","
","20098","<img style='border: 4px solid darkgrey;' src='img/tf1_11_M_ss1.jpeg'></img>","2","","exp","","1","<img src='img/tf1_11_T1_ss1_md.jpeg'></img>","0","false",""
"","html-keyboard-response","35","186586","0.0-10.0-0.11","A790","""event"",""trial"",""time""
""focus"",""0"",""0""
""fullscreenenter"",""0"",""8568""
","
","""event"",""trial"",""time""
""focus"",""0"",""0""
","""event"",""trial"",""time""
""fullscreenenter"",""0"",""8568""
","
","null","<div style=""font-size:60px;"">+</div>","","null","fixation","2021-04-05 08:22:19.292","","","","",""
"","mars-trial","36","212956","0.0-10.0-1.11","A790","""event"",""trial"",""time""
""focus"",""0"",""0""
""fullscreenenter"",""0"",""8568""
","
","""event"",""trial"",""time""
""focus"",""0"",""0""
","""event"",""trial"",""time""
""fullscreenenter"",""0"",""8568""
","
","25745","<img style='border: 4px solid darkgrey;' src='img/tf1_12_M_ss2.jpeg'></img>","2","","exp","","2","<img src='img/tf1_12_T1_ss2_md.jpeg'></img>","0","false",""
"","html-keyboard-response","37","213462","0.0-10.0-0.12","A790","""event"",""trial"",""time""
""focus"",""0"",""0""
""fullscreenenter"",""0"",""8568""
","
","""event"",""trial"",""time""
""focus"",""0"",""0""
","""event"",""trial"",""time""
""fullscreenenter"",""0"",""8568""
","
","null","<div style=""font-size:60px;"">+</div>","","null","fixation","2021-04-05 08:22:46.168","","","","",""
"","mars-trial","38","241501","0.0-10.0-1.12","A790","""event"",""trial"",""time""
""focus"",""0"",""0""
""fullscreenenter"",""0"",""8568""
","
","""event"",""trial"",""time""
""focus"",""0"",""0""
","""event"",""trial"",""time""
""fullscreenenter"",""0"",""8568""
","
","27426","<img style='border: 4px solid darkgrey;' src='img/tf1_13_M_ss3.jpeg'></img>","0","","exp","","0","<img src='img/tf1_13_T1_ss3_md.jpeg'></img>","0","true",""
"","html-keyboard-response","39","242015","0.0-10.0-0.13","A790","""event"",""trial"",""time""
""focus"",""0"",""0""
""fullscreenenter"",""0"",""8568""
","
","""event"",""trial"",""time""
""focus"",""0"",""0""
","""event"",""trial"",""time""
""fullscreenenter"",""0"",""8568""
","
","null","<div style=""font-size:60px;"">+</div>","","null","fixation","2021-04-05 08:23:14.722","","","","",""
"","mars-trial","40","271398","0.0-10.0-1.13","A790","""event"",""trial"",""time""
""focus"",""0"",""0""
""fullscreenenter"",""0"",""8568""
","
","""event"",""trial"",""time""
""focus"",""0"",""0""
","""event"",""trial"",""time""
""fullscreenenter"",""0"",""8568""
","
","28763","<img style='border: 4px solid darkgrey;' src='img/tf1_14_M_ss1.jpeg'></img>","1","","exp","","0","<img src='img/tf1_14_T1_ss1_md.jpeg'></img>","0","true",""
"","html-keyboard-response","41","271903","0.0-10.0-0.14","A790","""event"",""trial"",""time""
""focus"",""0"",""0""
""fullscreenenter"",""0"",""8568""
","
","""event"",""trial"",""time""
""focus"",""0"",""0""
","""event"",""trial"",""time""
""fullscreenenter"",""0"",""8568""
","
","null","<div style=""font-size:60px;"">+</div>","","null","fixation","2021-04-05 08:23:44.609","","","","",""
"","mars-trial","42","291665","0.0-10.0-1.14","A790","""event"",""trial"",""time""
""focus"",""0"",""0""
""fullscreenenter"",""0"",""8568""
","
","""event"",""trial"",""time""
""focus"",""0"",""0""
","""event"",""trial"",""time""
""fullscreenenter"",""0"",""8568""
","
","19130","<img style='border: 4px solid darkgrey;' src='img/tf1_15_M_ss2.jpeg'></img>","2","","exp","","0","<img src='img/tf1_15_T1_ss2_md.jpeg'></img>","0","true",""
"","html-keyboard-response","43","292178","0.0-10.0-0.15","A790","""event"",""trial"",""time""
""focus"",""0"",""0""
""fullscreenenter"",""0"",""8568""
","
","""event"",""trial"",""time""
""focus"",""0"",""0""
","""event"",""trial"",""time""
""fullscreenenter"",""0"",""8568""
","
","null","<div style=""font-size:60px;"">+</div>","","null","fixation","2021-04-05 08:24:04.884","","","","",""
"","mars-trial","44","320242","0.0-10.0-1.15","A790","""event"",""trial"",""time""
""focus"",""0"",""0""
""fullscreenenter"",""0"",""8568""
","
","""event"",""trial"",""time""
""focus"",""0"",""0""
","""event"",""trial"",""time""
""fullscreenenter"",""0"",""8568""
","
","27456","<img style='border: 4px solid darkgrey;' src='img/tf1_16_M_ss3.jpeg'></img>","1","","exp","","2","<img src='img/tf1_16_T1_ss3_md.jpeg'></img>","0","false",""
"","html-keyboard-response","45","320756","0.0-10.0-0.16","A790","""event"",""trial"",""time""
""focus"",""0"",""0""
""fullscreenenter"",""0"",""8568""
","
","""event"",""trial"",""time""
""focus"",""0"",""0""
","""event"",""trial"",""time""
""fullscreenenter"",""0"",""8568""
","
","null","<div style=""font-size:60px;"">+</div>","","null","fixation","2021-04-05 08:24:33.462","","","","",""
"","mars-trial","46","347865","0.0-10.0-1.16","A790","""event"",""trial"",""time""
""focus"",""0"",""0""
""fullscreenenter"",""0"",""8568""
","
","""event"",""trial"",""time""
""focus"",""0"",""0""
","""event"",""trial"",""time""
""fullscreenenter"",""0"",""8568""
","
","26493","<img style='border: 4px solid darkgrey;' src='img/tf1_17_M_ss1.jpeg'></img>","3","","exp","","1","<img src='img/tf1_17_T1_ss1_md.jpeg'></img>","0","false",""
"","html-keyboard-response","47","348380","0.0-10.0-0.17","A790","""event"",""trial"",""time""
""focus"",""0"",""0""
""fullscreenenter"",""0"",""8568""
","
","""event"",""trial"",""time""
""focus"",""0"",""0""
","""event"",""trial"",""time""
""fullscreenenter"",""0"",""8568""
","
","null","<div style=""font-size:60px;"">+</div>","","null","fixation","2021-04-05 08:25:01.086","","","","",""
"","mars-trial","48","377826","0.0-10.0-1.17","A790","""event"",""trial"",""time""
""focus"",""0"",""0""
""fullscreenenter"",""0"",""8568""
","
","""event"",""trial"",""time""
""focus"",""0"",""0""
","""event"",""trial"",""time""
""fullscreenenter"",""0"",""8568""
","
","28816","<img style='border: 4px solid darkgrey;' src='img/tf1_18_M_ss2.jpeg'></img>","2","","exp","","0","<img src='img/tf1_18_T1_ss2_md.jpeg'></img>","0","true",""
"","html-keyboard-response","49","378331","0.0-10.0-0.18","A790","""event"",""trial"",""time""
""focus"",""0"",""0""
""fullscreenenter"",""0"",""8568""
","
","""event"",""trial"",""time""
""focus"",""0"",""0""
","""event"",""trial"",""time""
""fullscreenenter"",""0"",""8568""
","
","null","<div style=""font-size:60px;"">+</div>","","null","fixation","2021-04-05 08:25:31.037","","","","",""
"","mars-trial","50","401631","0.0-10.0-1.18","A790","""event"",""trial"",""time""
""focus"",""0"",""0""
""fullscreenenter"",""0"",""8568""
","
","""event"",""trial"",""time""
""focus"",""0"",""0""
","""event"",""trial"",""time""
""fullscreenenter"",""0"",""8568""
","
","22673","<img style='border: 4px solid darkgrey;' src='img/tf1_19_M_ss3.jpeg'></img>","2","","exp","","0","<img src='img/tf1_19_T1_ss3_md.jpeg'></img>","0","true",""
"","html-keyboard-response","51","402136","0.0-10.0-0.19","A790","""event"",""trial"",""time""
""focus"",""0"",""0""
""fullscreenenter"",""0"",""8568""
","
","""event"",""trial"",""time""
""focus"",""0"",""0""
","""event"",""trial"",""time""
""fullscreenenter"",""0"",""8568""
","
","null","<div style=""font-size:60px;"">+</div>","","null","fixation","2021-04-05 08:25:54.844","","","","",""
"","mars-trial","52","422222","0.0-10.0-1.19","A790","""event"",""trial"",""time""
""focus"",""0"",""0""
""fullscreenenter"",""0"",""8568""
","
","""event"",""trial"",""time""
""focus"",""0"",""0""
","""event"",""trial"",""time""
""fullscreenenter"",""0"",""8568""
","
","19474","<img style='border: 4px solid darkgrey;' src='img/tf1_20_M_ss1.jpeg'></img>","1","","exp","","0","<img src='img/tf1_20_T1_ss1_md.jpeg'></img>","0","true",""
"","html-keyboard-response","53","422736","0.0-10.0-0.20","A790","""event"",""trial"",""time""
""focus"",""0"",""0""
""fullscreenenter"",""0"",""8568""
","
","""event"",""trial"",""time""
""focus"",""0"",""0""
","""event"",""trial"",""time""
""fullscreenenter"",""0"",""8568""
","
","null","<div style=""font-size:60px;"">+</div>","","null","fixation","2021-04-05 08:26:15.442","","","","",""
"","mars-trial","54","451259","0.0-10.0-1.20","A790","""event"",""trial"",""time""
""focus"",""0"",""0""
""fullscreenenter"",""0"",""8568""
","
","""event"",""trial"",""time""
""focus"",""0"",""0""
","""event"",""trial"",""time""
""fullscreenenter"",""0"",""8568""
","
","27885","<img style='border: 4px solid darkgrey;' src='img/tf1_21_M_ss2.jpeg'></img>","2","","exp","","2","<img src='img/tf1_21_T1_ss2_md.jpeg'></img>","0","false",""
"","html-keyboard-response","55","451770","0.0-10.0-0.21","A790","""event"",""trial"",""time""
""focus"",""0"",""0""
""fullscreenenter"",""0"",""8568""
","
","""event"",""trial"",""time""
""focus"",""0"",""0""
","""event"",""trial"",""time""
""fullscreenenter"",""0"",""8568""
","
","null","<div style=""font-size:60px;"">+</div>","","null","fixation","2021-04-05 08:26:44.476","","","","",""
"","mars-trial","56","465269","0.0-10.0-1.21","A790","""event"",""trial"",""time""
""focus"",""0"",""0""
""fullscreenenter"",""0"",""8568""
","
","""event"",""trial"",""time""
""focus"",""0"",""0""
","""event"",""trial"",""time""
""fullscreenenter"",""0"",""8568""
","
","12877","<img style='border: 4px solid darkgrey;' src='img/tf1_22_M_ss3.jpeg'></img>","1","","exp","","0","<img src='img/tf1_22_T1_ss3_md.jpeg'></img>","0","true",""
"","html-keyboard-response","57","465780","0.0-10.0-0.22","A790","""event"",""trial"",""time""
""focus"",""0"",""0""
""fullscreenenter"",""0"",""8568""
","
","""event"",""trial"",""time""
""focus"",""0"",""0""
","""event"",""trial"",""time""
""fullscreenenter"",""0"",""8568""
","
","null","<div style=""font-size:60px;"">+</div>","","null","fixation","2021-04-05 08:26:58.487","","","","",""
"","mars-trial","58","481767","0.0-10.0-1.22","A790","""event"",""trial"",""time""
""focus"",""0"",""0""
""fullscreenenter"",""0"",""8568""
","
","""event"",""trial"",""time""
""focus"",""0"",""0""
","""event"",""trial"",""time""
""fullscreenenter"",""0"",""8568""
","
","15373","<img style='border: 4px solid darkgrey;' src='img/tf1_23_M_ss1.jpeg'></img>","3","","exp","","0","<img src='img/tf1_23_T1_ss1_md.jpeg'></img>","0","true",""
"","html-keyboard-response","59","482284","0.0-10.0-0.23","A790","""event"",""trial"",""time""
""focus"",""0"",""0""
""fullscreenenter"",""0"",""8568""
","
","""event"",""trial"",""time""
""focus"",""0"",""0""
","""event"",""trial"",""time""
""fullscreenenter"",""0"",""8568""
","
","null","<div style=""font-size:60px;"">+</div>","","null","fixation","2021-04-05 08:27:14.991","","","","",""
"","mars-trial","60","510317","0.0-10.0-1.23","A790","""event"",""trial"",""time""
""focus"",""0"",""0""
""fullscreenenter"",""0"",""8568""
","
","""event"",""trial"",""time""
""focus"",""0"",""0""
","""event"",""trial"",""time""
""fullscreenenter"",""0"",""8568""
","
","27415","<img style='border: 4px solid darkgrey;' src='img/tf1_24_M_ss2.jpeg'></img>","3","","exp","","3","<img src='img/tf1_24_T1_ss2_md.jpeg'></img>","0","false",""
"","html-keyboard-response","61","510822","0.0-10.0-0.24","A790","""event"",""trial"",""time""
""focus"",""0"",""0""
""fullscreenenter"",""0"",""8568""
","
","""event"",""trial"",""time""
""focus"",""0"",""0""
","""event"",""trial"",""time""
""fullscreenenter"",""0"",""8568""
","
","null","<div style=""font-size:60px;"">+</div>","","null","fixation","2021-04-05 08:27:43.528","","","","",""
"","mars-trial","62","525236","0.0-10.0-1.24","A790","""event"",""trial"",""time""
""focus"",""0"",""0""
""fullscreenenter"",""0"",""8568""
","
","""event"",""trial"",""time""
""focus"",""0"",""0""
","""event"",""trial"",""time""
""fullscreenenter"",""0"",""8568""
","
","13806","<img style='border: 4px solid darkgrey;' src='img/tf1_25_M_ss3.jpeg'></img>","3","","exp","","0","<img src='img/tf1_25_T1_ss3_md.jpeg'></img>","0","true",""
"","html-keyboard-response","63","525741","0.0-10.0-0.25","A790","""event"",""trial"",""time""
""focus"",""0"",""0""
""fullscreenenter"",""0"",""8568""
","
","""event"",""trial"",""time""
""focus"",""0"",""0""
","""event"",""trial"",""time""
""fullscreenenter"",""0"",""8568""
","
","null","<div style=""font-size:60px;"">+</div>","","null","fixation","2021-04-05 08:27:58.447","","","","",""
"","mars-trial","64","555294","0.0-10.0-1.25","A790","""event"",""trial"",""time""
""focus"",""0"",""0""
""fullscreenenter"",""0"",""8568""
","
","""event"",""trial"",""time""
""focus"",""0"",""0""
","""event"",""trial"",""time""
""fullscreenenter"",""0"",""8568""
","
","28916","<img style='border: 4px solid darkgrey;' src='img/tf1_26_M_ss1.jpeg'></img>","1","","exp","","0","<img src='img/tf1_26_T1_ss1_md.jpeg'></img>","0","true",""
"","html-keyboard-response","65","555799","0.0-10.0-0.26","A790","""event"",""trial"",""time""
""focus"",""0"",""0""
""fullscreenenter"",""0"",""8568""
","
","""event"",""trial"",""time""
""focus"",""0"",""0""
","""event"",""trial"",""time""
""fullscreenenter"",""0"",""8568""
","
","null","<div style=""font-size:60px;"">+</div>","","null","fixation","2021-04-05 08:28:28.505","","","","",""
"","mars-trial","66","557593","0.0-10.0-1.26","A790","""event"",""trial"",""time""
""focus"",""0"",""0""
""fullscreenenter"",""0"",""8568""
","
","""event"",""trial"",""time""
""focus"",""0"",""0""
","""event"",""trial"",""time""
""fullscreenenter"",""0"",""8568""
","
","","","","","exp","","","<img src='img/tf1_27_T1_ss2_md.jpeg'></img>","0","false",""
"","html-keyboard-response","67","558099","0.0-10.0-0.27","A790","""event"",""trial"",""time""
""focus"",""0"",""0""
""fullscreenenter"",""0"",""8568""
","
","""event"",""trial"",""time""
""focus"",""0"",""0""
","""event"",""trial"",""time""
""fullscreenenter"",""0"",""8568""
","
","null","<div style=""font-size:60px;"">+</div>","","null","fixation","2021-04-05 08:28:30.805","","","","",""
"","audio-button-response","68","562281","0.0-11.0","A790","""event"",""trial"",""time""
""focus"",""0"",""0""
""fullscreenenter"",""0"",""8568""
","
","""event"",""trial"",""time""
""focus"",""0"",""0""
","""event"",""trial"",""time""
""fullscreenenter"",""0"",""8568""
","
","4071","audio/mars_instructions_slide5.wav","0","","","","","","","",""
