"success","trial_type","trial_index","time_elapsed","internal_node_id","subject_id","interactions","blur_events","focus_events","fullscreenenter_events","fullscreenexit_events","rt","stimulus","button_pressed","key_press","part","timestamp","unshuffled_button","correct_response","correct_button","correct","value"
"true","fullscreen","0","9586","0.0-0.0","A1232","""event"",""trial"",""time""
""fullscreenenter"",""0"",""8638""
","
","
","""event"",""trial"",""time""
""fullscreenenter"",""0"",""8638""
","
","","","","","","","","","","",""
"","pavlovia","1","9591","0.0-1.0","A1232","""event"",""trial"",""time""
""fullscreenenter"",""0"",""8638""
","
","
","""event"",""trial"",""time""
""fullscreenenter"",""0"",""8638""
","
","","","","","","","","","","",""
"","html-button-response","2","17459","0.0-2.0","A1232","""event"",""trial"",""time""
""fullscreenenter"",""0"",""8638""
","
","
","""event"",""trial"",""time""
""fullscreenenter"",""0"",""8638""
","
","7867","<p>Welcome! Press START to begin.</p><br>","0","","","","","","","",""
"","audio-button-response","3","26117","0.0-3.0","A1232","""event"",""trial"",""time""
""fullscreenenter"",""0"",""8638""
","
","
","""event"",""trial"",""time""
""fullscreenenter"",""0"",""8638""
","
","8646","audio/mars_instructions_slide2.wav","0","","","","","","","",""
"","audio-button-response","4","32083","0.0-4.0","A1232","""event"",""trial"",""time""
""fullscreenenter"",""0"",""8638""
","
","
","""event"",""trial"",""time""
""fullscreenenter"",""0"",""8638""
","
","5965","audio/mars_instructions_slide3.wav","0","","","","","","","",""
"","html-keyboard-response","5","32585","0.0-5.0-0.0","A1232","""event"",""trial"",""time""
""fullscreenenter"",""0"",""8638""
","
","
","""event"",""trial"",""time""
""fullscreenenter"",""0"",""8638""
","
","null","<div style=""font-size:60px;"">+</div>","","null","fixation","2021-07-30 15:21:50.412","","","","",""
"","mars-trial","6","44691","0.0-5.0-1.0","A1232","""event"",""trial"",""time""
""fullscreenenter"",""0"",""8638""
","
","
","""event"",""trial"",""time""
""fullscreenenter"",""0"",""8638""
","
","10000","<img style='border: 4px solid darkgrey;' src='practice/pt1_M1.png'></img>","0","","practice","","1","<img src='practice/pt1_T1.png'></img>","0","false",""
"","html-keyboard-response","7","45194","0.0-5.1-0.1","A1232","""event"",""trial"",""time""
""fullscreenenter"",""0"",""8638""
","
","
","""event"",""trial"",""time""
""fullscreenenter"",""0"",""8638""
","
","null","<div style=""font-size:60px;"">+</div>","","null","fixation","2021-07-30 15:22:03.021","","","","",""
"","mars-trial","8","57121","0.0-5.1-1.1","A1232","""event"",""trial"",""time""
""fullscreenenter"",""0"",""8638""
","
","
","""event"",""trial"",""time""
""fullscreenenter"",""0"",""8638""
","
","9824","<img style='border: 4px solid darkgrey;' src='practice/pt1_M1.png'></img>","2","","practice","","0","<img src='practice/pt1_T1.png'></img>","0","true",""
"","html-keyboard-response","9","57623","0.0-6.0-0.0","A1232","""event"",""trial"",""time""
""fullscreenenter"",""0"",""8638""
","
","
","""event"",""trial"",""time""
""fullscreenenter"",""0"",""8638""
","
","null","<div style=""font-size:60px;"">+</div>","","null","fixation","2021-07-30 15:22:15.450","","","","",""
"","mars-trial","10","61755","0.0-6.0-1.0","A1232","""event"",""trial"",""time""
""fullscreenenter"",""0"",""8638""
","
","
","""event"",""trial"",""time""
""fullscreenenter"",""0"",""8638""
","
","2025.9999999999854","<img style='border: 4px solid darkgrey;' src='practice/pt2_M1.png'></img>","1","","practice","","0","<img src='practice/pt2_T1.png'></img>","0","true",""
"","html-keyboard-response","11","62257","0.0-7.0-0.0","A1232","""event"",""trial"",""time""
""fullscreenenter"",""0"",""8638""
","
","
","""event"",""trial"",""time""
""fullscreenenter"",""0"",""8638""
","
","null","<div style=""font-size:60px;"">+</div>","","null","fixation","2021-07-30 15:22:20.084","","","","",""
"","mars-trial","12","65756","0.0-7.0-1.0","A1232","""event"",""trial"",""time""
""fullscreenenter"",""0"",""8638""
","
","
","""event"",""trial"",""time""
""fullscreenenter"",""0"",""8638""
","
","1394","<img style='border: 4px solid darkgrey;' src='practice/pt3_M1.png'></img>","3","","practice","","0","<img src='practice/pt3_T1.png'></img>","0","true",""
"","audio-button-response","13","66778","0.0-8.0","A1232","""event"",""trial"",""time""
""fullscreenenter"",""0"",""8638""
","
","
","""event"",""trial"",""time""
""fullscreenenter"",""0"",""8638""
","
","1020","audio/mars_instructions_slide4.wav","0","","","","","","","",""
"","call-function","14","66778","0.0-9.0","A1232","""event"",""trial"",""time""
""fullscreenenter"",""0"",""8638""
","
","
","""event"",""trial"",""time""
""fullscreenenter"",""0"",""8638""
","
","","","","","","","","","","",""
"","html-keyboard-response","15","67280","0.0-10.0-0.0","A1232","""event"",""trial"",""time""
""fullscreenenter"",""0"",""8638""
","
","
","""event"",""trial"",""time""
""fullscreenenter"",""0"",""8638""
","
","null","<div style=""font-size:60px;"">+</div>","","null","fixation","2021-07-30 15:22:25.107","","","","",""
"","mars-trial","16","70009","0.0-10.0-1.0","A1232","""event"",""trial"",""time""
""fullscreenenter"",""0"",""8638""
","
","
","""event"",""trial"",""time""
""fullscreenenter"",""0"",""8638""
","
","2125","<img style='border: 4px solid darkgrey;' src='img/tf1_1_M_ss3.jpeg'></img>","0","","exp","","0","<img src='img/tf1_1_T1_ss3_md.jpeg'></img>","0","true",""
"","html-keyboard-response","17","70512","0.0-10.0-0.1","A1232","""event"",""trial"",""time""
""fullscreenenter"",""0"",""8638""
","
","
","""event"",""trial"",""time""
""fullscreenenter"",""0"",""8638""
","
","null","<div style=""font-size:60px;"">+</div>","","null","fixation","2021-07-30 15:22:28.339","","","","",""
"","mars-trial","18","74112","0.0-10.0-1.1","A1232","""event"",""trial"",""time""
""fullscreenenter"",""0"",""8638""
","
","
","""event"",""trial"",""time""
""fullscreenenter"",""0"",""8638""
","
","2997.9999999999854","<img style='border: 4px solid darkgrey;' src='img/tf1_2_M_ss1.jpeg'></img>","0","","exp","","0","<img src='img/tf1_2_T1_ss1_md.jpeg'></img>","0","true",""
"","html-keyboard-response","19","74614","0.0-10.0-0.2","A1232","""event"",""trial"",""time""
""fullscreenenter"",""0"",""8638""
","
","
","""event"",""trial"",""time""
""fullscreenenter"",""0"",""8638""
","
","null","<div style=""font-size:60px;"">+</div>","","null","fixation","2021-07-30 15:22:32.441","","","","",""
"","mars-trial","20","77514","0.0-10.0-1.2","A1232","""event"",""trial"",""time""
""fullscreenenter"",""0"",""8638""
","
","
","""event"",""trial"",""time""
""fullscreenenter"",""0"",""8638""
","
","2296","<img style='border: 4px solid darkgrey;' src='img/tf1_3_M_ss2.jpeg'></img>","1","","exp","","0","<img src='img/tf1_3_T1_ss2_md.jpeg'></img>","0","true",""
"","html-keyboard-response","21","78016","0.0-10.0-0.3","A1232","""event"",""trial"",""time""
""fullscreenenter"",""0"",""8638""
","
","
","""event"",""trial"",""time""
""fullscreenenter"",""0"",""8638""
","
","null","<div style=""font-size:60px;"">+</div>","","null","fixation","2021-07-30 15:22:35.843","","","","",""
"","mars-trial","22","80685","0.0-10.0-1.3","A1232","""event"",""trial"",""time""
""fullscreenenter"",""0"",""8638""
","
","
","""event"",""trial"",""time""
""fullscreenenter"",""0"",""8638""
","
","2063.9999999999854","<img style='border: 4px solid darkgrey;' src='img/tf1_4_M_ss3.jpeg'></img>","2","","exp","","0","<img src='img/tf1_4_T1_ss3_md.jpeg'></img>","0","true",""
"","html-keyboard-response","23","81186","0.0-10.0-0.4","A1232","""event"",""trial"",""time""
""fullscreenenter"",""0"",""8638""
","
","
","""event"",""trial"",""time""
""fullscreenenter"",""0"",""8638""
","
","null","<div style=""font-size:60px;"">+</div>","","null","fixation","2021-07-30 15:22:39.013","","","","",""
"","mars-trial","24","83042","0.0-10.0-1.4","A1232","""event"",""trial"",""time""
""fullscreenenter"",""0"",""8638""
","
","
","""event"",""trial"",""time""
""fullscreenenter"",""0"",""8638""
","
","1252","<img style='border: 4px solid darkgrey;' src='img/tf1_5_M_ss1.jpeg'></img>","2","","exp","","0","<img src='img/tf1_5_T1_ss1_md.jpeg'></img>","0","true",""
"","html-keyboard-response","25","83544","0.0-10.0-0.5","A1232","""event"",""trial"",""time""
""fullscreenenter"",""0"",""8638""
","
","
","""event"",""trial"",""time""
""fullscreenenter"",""0"",""8638""
","
","null","<div style=""font-size:60px;"">+</div>","","null","fixation","2021-07-30 15:22:41.371","","","","",""
"","mars-trial","26","92064","0.0-10.0-1.5","A1232","""event"",""trial"",""time""
""fullscreenenter"",""0"",""8638""
","
","
","""event"",""trial"",""time""
""fullscreenenter"",""0"",""8638""
","
","7917","<img style='border: 4px solid darkgrey;' src='img/tf1_6_M_ss2.jpeg'></img>","0","","exp","","0","<img src='img/tf1_6_T1_ss2_md.jpeg'></img>","0","true",""
"","html-keyboard-response","27","92566","0.0-10.0-0.6","A1232","""event"",""trial"",""time""
""fullscreenenter"",""0"",""8638""
","
","
","""event"",""trial"",""time""
""fullscreenenter"",""0"",""8638""
","
","null","<div style=""font-size:60px;"">+</div>","","null","fixation","2021-07-30 15:22:50.393","","","","",""
"","mars-trial","28","95566","0.0-10.0-1.6","A1232","""event"",""trial"",""time""
""fullscreenenter"",""0"",""8638""
","
","
","""event"",""trial"",""time""
""fullscreenenter"",""0"",""8638""
","
","2395","<img style='border: 4px solid darkgrey;' src='img/tf1_7_M_ss3.jpeg'></img>","0","","exp","","0","<img src='img/tf1_7_T1_ss3_md.jpeg'></img>","0","true",""
"","html-keyboard-response","29","96068","0.0-10.0-0.7","A1232","""event"",""trial"",""time""
""fullscreenenter"",""0"",""8638""
","
","
","""event"",""trial"",""time""
""fullscreenenter"",""0"",""8638""
","
","null","<div style=""font-size:60px;"">+</div>","","null","fixation","2021-07-30 15:22:53.895","","","","",""
"","mars-trial","30","104898","0.0-10.0-1.7","A1232","""event"",""trial"",""time""
""fullscreenenter"",""0"",""8638""
","
","
","""event"",""trial"",""time""
""fullscreenenter"",""0"",""8638""
","
","8225","<img style='border: 4px solid darkgrey;' src='img/tf1_8_M_ss1.jpeg'></img>","0","","exp","","0","<img src='img/tf1_8_T1_ss1_md.jpeg'></img>","0","true",""
"","html-keyboard-response","31","105400","0.0-10.0-0.8","A1232","""event"",""trial"",""time""
""fullscreenenter"",""0"",""8638""
","
","
","""event"",""trial"",""time""
""fullscreenenter"",""0"",""8638""
","
","null","<div style=""font-size:60px;"">+</div>","","null","fixation","2021-07-30 15:23:03.227","","","","",""
"","mars-trial","32","111637","0.0-10.0-1.8","A1232","""event"",""trial"",""time""
""fullscreenenter"",""0"",""8638""
","
","
","""event"",""trial"",""time""
""fullscreenenter"",""0"",""8638""
","
","5633.000000000015","<img style='border: 4px solid darkgrey;' src='img/tf1_9_M_ss2.jpeg'></img>","1","","exp","","0","<img src='img/tf1_9_T1_ss2_md.jpeg'></img>","0","true",""
"","html-keyboard-response","33","112139","0.0-10.0-0.9","A1232","""event"",""trial"",""time""
""fullscreenenter"",""0"",""8638""
","
","
","""event"",""trial"",""time""
""fullscreenenter"",""0"",""8638""
","
","null","<div style=""font-size:60px;"">+</div>","","null","fixation","2021-07-30 15:23:09.966","","","","",""
"","mars-trial","34","125111","0.0-10.0-1.9","A1232","""event"",""trial"",""time""
""fullscreenenter"",""0"",""8638""
","
","
","""event"",""trial"",""time""
""fullscreenenter"",""0"",""8638""
","
","12369","<img style='border: 4px solid darkgrey;' src='img/tf1_10_M_ss3.jpeg'></img>","1","","exp","","0","<img src='img/tf1_10_T1_ss3_md.jpeg'></img>","0","true",""
"","html-keyboard-response","35","125613","0.0-10.0-0.10","A1232","""event"",""trial"",""time""
""fullscreenenter"",""0"",""8638""
","
","
","""event"",""trial"",""time""
""fullscreenenter"",""0"",""8638""
","
","null","<div style=""font-size:60px;"">+</div>","","null","fixation","2021-07-30 15:23:23.441","","","","",""
"","mars-trial","36","133103","0.0-10.0-1.10","A1232","""event"",""trial"",""time""
""fullscreenenter"",""0"",""8638""
","
","
","""event"",""trial"",""time""
""fullscreenenter"",""0"",""8638""
","
","6885.000000000029","<img style='border: 4px solid darkgrey;' src='img/tf1_11_M_ss1.jpeg'></img>","3","","exp","","3","<img src='img/tf1_11_T1_ss1_md.jpeg'></img>","0","false",""
"","html-keyboard-response","37","133605","0.0-10.0-0.11","A1232","""event"",""trial"",""time""
""fullscreenenter"",""0"",""8638""
","
","
","""event"",""trial"",""time""
""fullscreenenter"",""0"",""8638""
","
","null","<div style=""font-size:60px;"">+</div>","","null","fixation","2021-07-30 15:23:31.432","","","","",""
"","mars-trial","38","136776","0.0-10.0-1.11","A1232","""event"",""trial"",""time""
""fullscreenenter"",""0"",""8638""
","
","
","""event"",""trial"",""time""
""fullscreenenter"",""0"",""8638""
","
","2566","<img style='border: 4px solid darkgrey;' src='img/tf1_12_M_ss2.jpeg'></img>","2","","exp","","1","<img src='img/tf1_12_T1_ss2_md.jpeg'></img>","0","false",""
"","html-keyboard-response","39","137278","0.0-10.0-0.12","A1232","""event"",""trial"",""time""
""fullscreenenter"",""0"",""8638""
","
","
","""event"",""trial"",""time""
""fullscreenenter"",""0"",""8638""
","
","null","<div style=""font-size:60px;"">+</div>","","null","fixation","2021-07-30 15:23:35.105","","","","",""
"","mars-trial","40","150281","0.0-10.0-1.12","A1232","""event"",""trial"",""time""
""fullscreenenter"",""0"",""8638""
","
","
","""event"",""trial"",""time""
""fullscreenenter"",""0"",""8638""
","
","12398","<img style='border: 4px solid darkgrey;' src='img/tf1_13_M_ss3.jpeg'></img>","1","","exp","","0","<img src='img/tf1_13_T1_ss3_md.jpeg'></img>","0","true",""
"","html-keyboard-response","41","150784","0.0-10.0-0.13","A1232","""event"",""trial"",""time""
""fullscreenenter"",""0"",""8638""
","
","
","""event"",""trial"",""time""
""fullscreenenter"",""0"",""8638""
","
","null","<div style=""font-size:60px;"">+</div>","","null","fixation","2021-07-30 15:23:48.611","","","","",""
"","mars-trial","42","172479","0.0-10.0-1.13","A1232","""event"",""trial"",""time""
""fullscreenenter"",""0"",""8638""
","
","
","""event"",""trial"",""time""
""fullscreenenter"",""0"",""8638""
","
","21091","<img style='border: 4px solid darkgrey;' src='img/tf1_14_M_ss1.jpeg'></img>","1","","exp","","0","<img src='img/tf1_14_T1_ss1_md.jpeg'></img>","0","true",""
"","html-keyboard-response","43","172981","0.0-10.0-0.14","A1232","""event"",""trial"",""time""
""fullscreenenter"",""0"",""8638""
","
","
","""event"",""trial"",""time""
""fullscreenenter"",""0"",""8638""
","
","null","<div style=""font-size:60px;"">+</div>","","null","fixation","2021-07-30 15:24:10.808","","","","",""
"","mars-trial","44","186778","0.0-10.0-1.14","A1232","""event"",""trial"",""time""
""fullscreenenter"",""0"",""8638""
","
","
","""event"",""trial"",""time""
""fullscreenenter"",""0"",""8638""
","
","13193","<img style='border: 4px solid darkgrey;' src='img/tf1_15_M_ss2.jpeg'></img>","1","","exp","","0","<img src='img/tf1_15_T1_ss2_md.jpeg'></img>","0","true",""
"","html-keyboard-response","45","187281","0.0-10.0-0.15","A1232","""event"",""trial"",""time""
""fullscreenenter"",""0"",""8638""
","
","
","""event"",""trial"",""time""
""fullscreenenter"",""0"",""8638""
","
","null","<div style=""font-size:60px;"">+</div>","","null","fixation","2021-07-30 15:24:25.108","","","","",""
"","mars-trial","46","193140","0.0-10.0-1.15","A1232","""event"",""trial"",""time""
""fullscreenenter"",""0"",""8638""
","
","
","""event"",""trial"",""time""
""fullscreenenter"",""0"",""8638""
","
","5255","<img style='border: 4px solid darkgrey;' src='img/tf1_16_M_ss3.jpeg'></img>","1","","exp","","3","<img src='img/tf1_16_T1_ss3_md.jpeg'></img>","0","false",""
"","html-keyboard-response","47","193643","0.0-10.0-0.16","A1232","""event"",""trial"",""time""
""fullscreenenter"",""0"",""8638""
","
","
","""event"",""trial"",""time""
""fullscreenenter"",""0"",""8638""
","
","null","<div style=""font-size:60px;"">+</div>","","null","fixation","2021-07-30 15:24:31.470","","","","",""
"","mars-trial","48","202276","0.0-10.0-1.16","A1232","""event"",""trial"",""time""
""fullscreenenter"",""0"",""8638""
","
","
","""event"",""trial"",""time""
""fullscreenenter"",""0"",""8638""
","
","8030","<img style='border: 4px solid darkgrey;' src='img/tf1_17_M_ss1.jpeg'></img>","0","","exp","","2","<img src='img/tf1_17_T1_ss1_md.jpeg'></img>","0","false",""
"","html-keyboard-response","49","202779","0.0-10.0-0.17","A1232","""event"",""trial"",""time""
""fullscreenenter"",""0"",""8638""
","
","
","""event"",""trial"",""time""
""fullscreenenter"",""0"",""8638""
","
","null","<div style=""font-size:60px;"">+</div>","","null","fixation","2021-07-30 15:24:40.606","","","","",""
"","mars-trial","50","208616","0.0-10.0-1.17","A1232","""event"",""trial"",""time""
""fullscreenenter"",""0"",""8638""
","
","
","""event"",""trial"",""time""
""fullscreenenter"",""0"",""8638""
","
","5233","<img style='border: 4px solid darkgrey;' src='img/tf1_18_M_ss2.jpeg'></img>","2","","exp","","0","<img src='img/tf1_18_T1_ss2_md.jpeg'></img>","0","true",""
"","html-keyboard-response","51","209118","0.0-10.0-0.18","A1232","""event"",""trial"",""time""
""fullscreenenter"",""0"",""8638""
","
","
","""event"",""trial"",""time""
""fullscreenenter"",""0"",""8638""
","
","null","<div style=""font-size:60px;"">+</div>","","null","fixation","2021-07-30 15:24:46.945","","","","",""
"","mars-trial","52","217297","0.0-10.0-1.18","A1232","""event"",""trial"",""time""
""fullscreenenter"",""0"",""8638""
","
","
","""event"",""trial"",""time""
""fullscreenenter"",""0"",""8638""
","
","7575.000000000029","<img style='border: 4px solid darkgrey;' src='img/tf1_19_M_ss3.jpeg'></img>","0","","exp","","3","<img src='img/tf1_19_T1_ss3_md.jpeg'></img>","0","false",""
"","html-keyboard-response","53","217799","0.0-10.0-0.19","A1232","""event"",""trial"",""time""
""fullscreenenter"",""0"",""8638""
","
","
","""event"",""trial"",""time""
""fullscreenenter"",""0"",""8638""
","
","null","<div style=""font-size:60px;"">+</div>","","null","fixation","2021-07-30 15:24:55.626","","","","",""
"","mars-trial","54","226040","0.0-10.0-1.19","A1232","""event"",""trial"",""time""
""fullscreenenter"",""0"",""8638""
","
","
","""event"",""trial"",""time""
""fullscreenenter"",""0"",""8638""
","
","7636","<img style='border: 4px solid darkgrey;' src='img/tf1_20_M_ss1.jpeg'></img>","2","","exp","","0","<img src='img/tf1_20_T1_ss1_md.jpeg'></img>","0","true",""
"","html-keyboard-response","55","226542","0.0-10.0-0.20","A1232","""event"",""trial"",""time""
""fullscreenenter"",""0"",""8638""
","
","
","""event"",""trial"",""time""
""fullscreenenter"",""0"",""8638""
","
","null","<div style=""font-size:60px;"">+</div>","","null","fixation","2021-07-30 15:25:04.369","","","","",""
"","mars-trial","56","239043","0.0-10.0-1.20","A1232","""event"",""trial"",""time""
""fullscreenenter"",""0"",""8638""
","
","
","""event"",""trial"",""time""
""fullscreenenter"",""0"",""8638""
","
","11895","<img style='border: 4px solid darkgrey;' src='img/tf1_21_M_ss2.jpeg'></img>","2","","exp","","1","<img src='img/tf1_21_T1_ss2_md.jpeg'></img>","0","false",""
"","html-keyboard-response","57","239546","0.0-10.0-0.21","A1232","""event"",""trial"",""time""
""fullscreenenter"",""0"",""8638""
","
","
","""event"",""trial"",""time""
""fullscreenenter"",""0"",""8638""
","
","null","<div style=""font-size:60px;"">+</div>","","null","fixation","2021-07-30 15:25:17.373","","","","",""
"","mars-trial","58","250267","0.0-10.0-1.21","A1232","""event"",""trial"",""time""
""fullscreenenter"",""0"",""8638""
","
","
","""event"",""trial"",""time""
""fullscreenenter"",""0"",""8638""
","
","10117","<img style='border: 4px solid darkgrey;' src='img/tf1_22_M_ss3.jpeg'></img>","1","","exp","","1","<img src='img/tf1_22_T1_ss3_md.jpeg'></img>","0","false",""
"","html-keyboard-response","59","250770","0.0-10.0-0.22","A1232","""event"",""trial"",""time""
""fullscreenenter"",""0"",""8638""
","
","
","""event"",""trial"",""time""
""fullscreenenter"",""0"",""8638""
","
","null","<div style=""font-size:60px;"">+</div>","","null","fixation","2021-07-30 15:25:28.597","","","","",""
"","mars-trial","60","261869","0.0-10.0-1.22","A1232","""event"",""trial"",""time""
""fullscreenenter"",""0"",""8638""
","
","
","""event"",""trial"",""time""
""fullscreenenter"",""0"",""8638""
","
","10495","<img style='border: 4px solid darkgrey;' src='img/tf1_23_M_ss1.jpeg'></img>","2","","exp","","3","<img src='img/tf1_23_T1_ss1_md.jpeg'></img>","0","false",""
"","html-keyboard-response","61","262371","0.0-10.0-0.23","A1232","""event"",""trial"",""time""
""fullscreenenter"",""0"",""8638""
","
","
","""event"",""trial"",""time""
""fullscreenenter"",""0"",""8638""
","
","null","<div style=""font-size:60px;"">+</div>","","null","fixation","2021-07-30 15:25:40.198","","","","",""
"","mars-trial","62","270690","0.0-10.0-1.23","A1232","""event"",""trial"",""time""
""fullscreenenter"",""0"",""8638""
","
","
","""event"",""trial"",""time""
""fullscreenenter"",""0"",""8638""
","
","7715","<img style='border: 4px solid darkgrey;' src='img/tf1_24_M_ss2.jpeg'></img>","0","","exp","","1","<img src='img/tf1_24_T1_ss2_md.jpeg'></img>","0","false",""
"","html-keyboard-response","63","271192","0.0-10.0-0.24","A1232","""event"",""trial"",""time""
""fullscreenenter"",""0"",""8638""
","
","
","""event"",""trial"",""time""
""fullscreenenter"",""0"",""8638""
","
","null","<div style=""font-size:60px;"">+</div>","","null","fixation","2021-07-30 15:25:49.019","","","","",""
"","mars-trial","64","273813","0.0-10.0-1.24","A1232","""event"",""trial"",""time""
""fullscreenenter"",""0"",""8638""
","
","
","""event"",""trial"",""time""
""fullscreenenter"",""0"",""8638""
","
","2016","<img style='border: 4px solid darkgrey;' src='img/tf1_25_M_ss3.jpeg'></img>","2","","exp","","3","<img src='img/tf1_25_T1_ss3_md.jpeg'></img>","0","false",""
"","html-keyboard-response","65","274315","0.0-10.0-0.25","A1232","""event"",""trial"",""time""
""fullscreenenter"",""0"",""8638""
","
","
","""event"",""trial"",""time""
""fullscreenenter"",""0"",""8638""
","
","null","<div style=""font-size:60px;"">+</div>","","null","fixation","2021-07-30 15:25:52.142","","","","",""
"","mars-trial","66","277159","0.0-10.0-1.25","A1232","""event"",""trial"",""time""
""fullscreenenter"",""0"",""8638""
","
","
","""event"",""trial"",""time""
""fullscreenenter"",""0"",""8638""
","
","2239","<img style='border: 4px solid darkgrey;' src='img/tf1_26_M_ss1.jpeg'></img>","2","","exp","","1","<img src='img/tf1_26_T1_ss1_md.jpeg'></img>","0","false",""
"","html-keyboard-response","67","277661","0.0-10.0-0.26","A1232","""event"",""trial"",""time""
""fullscreenenter"",""0"",""8638""
","
","
","""event"",""trial"",""time""
""fullscreenenter"",""0"",""8638""
","
","null","<div style=""font-size:60px;"">+</div>","","null","fixation","2021-07-30 15:25:55.488","","","","",""
"","mars-trial","68","284479","0.0-10.0-1.26","A1232","""event"",""trial"",""time""
""fullscreenenter"",""0"",""8638""
","
","
","""event"",""trial"",""time""
""fullscreenenter"",""0"",""8638""
","
","6214","<img style='border: 4px solid darkgrey;' src='img/tf1_27_M_ss2.jpeg'></img>","0","","exp","","0","<img src='img/tf1_27_T1_ss2_md.jpeg'></img>","0","true",""
"","html-keyboard-response","69","284981","0.0-10.0-0.27","A1232","""event"",""trial"",""time""
""fullscreenenter"",""0"",""8638""
","
","
","""event"",""trial"",""time""
""fullscreenenter"",""0"",""8638""
","
","null","<div style=""font-size:60px;"">+</div>","","null","fixation","2021-07-30 15:26:02.808","","","","",""
"","mars-trial","70","297758","0.0-10.0-1.27","A1232","""event"",""trial"",""time""
""fullscreenenter"",""0"",""8638""
","
","
","""event"",""trial"",""time""
""fullscreenenter"",""0"",""8638""
","
","12173","<img style='border: 4px solid darkgrey;' src='img/tf1_28_M_ss3.jpeg'></img>","3","","exp","","0","<img src='img/tf1_28_T1_ss3_md.jpeg'></img>","0","true",""
"","html-keyboard-response","71","298261","0.0-10.0-0.28","A1232","""event"",""trial"",""time""
""fullscreenenter"",""0"",""8638""
","
","
","""event"",""trial"",""time""
""fullscreenenter"",""0"",""8638""
","
","null","<div style=""font-size:60px;"">+</div>","","null","fixation","2021-07-30 15:26:16.088","","","","",""
"","mars-trial","72","311476","0.0-10.0-1.28","A1232","""event"",""trial"",""time""
""fullscreenenter"",""0"",""8638""
","
","
","""event"",""trial"",""time""
""fullscreenenter"",""0"",""8638""
","
","12610.999999999942","<img style='border: 4px solid darkgrey;' src='img/tf1_29_M_ss1.jpeg'></img>","2","","exp","","0","<img src='img/tf1_29_T1_ss1_md.jpeg'></img>","0","true",""
"","html-keyboard-response","73","311978","0.0-10.0-0.29","A1232","""event"",""trial"",""time""
""fullscreenenter"",""0"",""8638""
","
","
","""event"",""trial"",""time""
""fullscreenenter"",""0"",""8638""
","
","null","<div style=""font-size:60px;"">+</div>","","null","fixation","2021-07-30 15:26:29.805","","","","",""
"","mars-trial","74","326892","0.0-10.0-1.29","A1232","""event"",""trial"",""time""
""fullscreenenter"",""0"",""8638""
","
","
","""event"",""trial"",""time""
""fullscreenenter"",""0"",""8638""
","
","14309","<img style='border: 4px solid darkgrey;' src='img/tf1_30_M_ss2.jpeg'></img>","2","","exp","","0","<img src='img/tf1_30_T1_ss2_md.jpeg'></img>","0","true",""
"","html-keyboard-response","75","327394","0.0-10.0-0.30","A1232","""event"",""trial"",""time""
""fullscreenenter"",""0"",""8638""
","
","
","""event"",""trial"",""time""
""fullscreenenter"",""0"",""8638""
","
","null","<div style=""font-size:60px;"">+</div>","","null","fixation","2021-07-30 15:26:45.221","","","","",""
"","mars-trial","76","329921","0.0-10.0-1.30","A1232","""event"",""trial"",""time""
""fullscreenenter"",""0"",""8638""
","
","
","""event"",""trial"",""time""
""fullscreenenter"",""0"",""8638""
","
","1923","<img style='border: 4px solid darkgrey;' src='img/tf1_31_M_ss3.jpeg'></img>","1","","exp","","3","<img src='img/tf1_31_T1_ss3_md.jpeg'></img>","0","false",""
"","html-keyboard-response","77","330424","0.0-10.0-0.31","A1232","""event"",""trial"",""time""
""fullscreenenter"",""0"",""8638""
","
","
","""event"",""trial"",""time""
""fullscreenenter"",""0"",""8638""
","
","null","<div style=""font-size:60px;"">+</div>","","null","fixation","2021-07-30 15:26:48.251","","","","",""
"","mars-trial","78","331923","0.0-10.0-1.31","A1232","""event"",""trial"",""time""
""fullscreenenter"",""0"",""8638""
","
","
","""event"",""trial"",""time""
""fullscreenenter"",""0"",""8638""
","
","895","<img style='border: 4px solid darkgrey;' src='img/tf1_32_M_ss1.jpeg'></img>","2","","exp","","2","<img src='img/tf1_32_T1_ss1_md.jpeg'></img>","0","false",""
"","html-keyboard-response","79","332426","0.0-10.0-0.32","A1232","""event"",""trial"",""time""
""fullscreenenter"",""0"",""8638""
","
","
","""event"",""trial"",""time""
""fullscreenenter"",""0"",""8638""
","
","null","<div style=""font-size:60px;"">+</div>","","null","fixation","2021-07-30 15:26:50.253","","","","",""
"","mars-trial","80","338215","0.0-10.0-1.32","A1232","""event"",""trial"",""time""
""fullscreenenter"",""0"",""8638""
","
","
","""event"",""trial"",""time""
""fullscreenenter"",""0"",""8638""
","
","5185.000000000058","<img style='border: 4px solid darkgrey;' src='img/tf1_33_M_ss2.jpeg'></img>","0","","exp","","3","<img src='img/tf1_33_T1_ss2_md.jpeg'></img>","0","false",""
"","html-keyboard-response","81","338718","0.0-10.0-0.33","A1232","""event"",""trial"",""time""
""fullscreenenter"",""0"",""8638""
","
","
","""event"",""trial"",""time""
""fullscreenenter"",""0"",""8638""
","
","null","<div style=""font-size:60px;"">+</div>","","null","fixation","2021-07-30 15:26:56.545","","","","",""
"","mars-trial","82","340372","0.0-10.0-1.33","A1232","""event"",""trial"",""time""
""fullscreenenter"",""0"",""8638""
","
","
","""event"",""trial"",""time""
""fullscreenenter"",""0"",""8638""
","
","1049","<img style='border: 4px solid darkgrey;' src='img/tf1_34_M_ss3.jpeg'></img>","1","","exp","","2","<img src='img/tf1_34_T1_ss3_md.jpeg'></img>","0","false",""
"","html-keyboard-response","83","340874","0.0-10.0-0.34","A1232","""event"",""trial"",""time""
""fullscreenenter"",""0"",""8638""
","
","
","""event"",""trial"",""time""
""fullscreenenter"",""0"",""8638""
","
","null","<div style=""font-size:60px;"">+</div>","","null","fixation","2021-07-30 15:26:58.701","","","","",""
"","mars-trial","84","342481","0.0-10.0-1.34","A1232","""event"",""trial"",""time""
""fullscreenenter"",""0"",""8638""
","
","
","""event"",""trial"",""time""
""fullscreenenter"",""0"",""8638""
","
","1002","<img style='border: 4px solid darkgrey;' src='img/tf1_35_M_ss1.jpeg'></img>","2","","exp","","3","<img src='img/tf1_35_T1_ss1_md.jpeg'></img>","0","false",""
"","html-keyboard-response","85","342982","0.0-10.0-0.35","A1232","""event"",""trial"",""time""
""fullscreenenter"",""0"",""8638""
","
","
","""event"",""trial"",""time""
""fullscreenenter"",""0"",""8638""
","
","null","<div style=""font-size:60px;"">+</div>","","null","fixation","2021-07-30 15:27:00.810","","","","",""
"","mars-trial","86","346547","0.0-10.0-1.35","A1232","""event"",""trial"",""time""
""fullscreenenter"",""0"",""8638""
","
","
","""event"",""trial"",""time""
""fullscreenenter"",""0"",""8638""
","
","2960","<img style='border: 4px solid darkgrey;' src='img/tf1_36_M_ss2.jpeg'></img>","0","","exp","","1","<img src='img/tf1_36_T1_ss2_md.jpeg'></img>","0","false",""
"","html-keyboard-response","87","347049","0.0-10.0-0.36","A1232","""event"",""trial"",""time""
""fullscreenenter"",""0"",""8638""
","
","
","""event"",""trial"",""time""
""fullscreenenter"",""0"",""8638""
","
","null","<div style=""font-size:60px;"">+</div>","","null","fixation","2021-07-30 15:27:04.876","","","","",""
"","mars-trial","88","349701","0.0-10.0-1.36","A1232","""event"",""trial"",""time""
""fullscreenenter"",""0"",""8638""
","
","
","""event"",""trial"",""time""
""fullscreenenter"",""0"",""8638""
","
","2048","<img style='border: 4px solid darkgrey;' src='img/tf1_37_M_ss3.jpeg'></img>","1","","exp","","1","<img src='img/tf1_37_T1_ss3_md.jpeg'></img>","0","false",""
"","html-keyboard-response","89","350203","0.0-10.0-0.37","A1232","""event"",""trial"",""time""
""fullscreenenter"",""0"",""8638""
","
","
","""event"",""trial"",""time""
""fullscreenenter"",""0"",""8638""
","
","null","<div style=""font-size:60px;"">+</div>","","null","fixation","2021-07-30 15:27:08.030","","","","",""
"","mars-trial","90","358429","0.0-10.0-1.37","A1232","""event"",""trial"",""time""
""fullscreenenter"",""0"",""8638""
","
","
","""event"",""trial"",""time""
""fullscreenenter"",""0"",""8638""
","
","7622.000000000058","<img style='border: 4px solid darkgrey;' src='img/tf1_38_M_ss1.jpeg'></img>","0","","exp","","0","<img src='img/tf1_38_T1_ss1_md.jpeg'></img>","0","true",""
"","html-keyboard-response","91","358931","0.0-10.0-0.38","A1232","""event"",""trial"",""time""
""fullscreenenter"",""0"",""8638""
","
","
","""event"",""trial"",""time""
""fullscreenenter"",""0"",""8638""
","
","null","<div style=""font-size:60px;"">+</div>","","null","fixation","2021-07-30 15:27:16.758","","","","",""
"","mars-trial","92","361443","0.0-10.0-1.38","A1232","""event"",""trial"",""time""
""fullscreenenter"",""0"",""8638""
","
","
","""event"",""trial"",""time""
""fullscreenenter"",""0"",""8638""
","
","1908","<img style='border: 4px solid darkgrey;' src='img/tf1_39_M_ss2.jpeg'></img>","1","","exp","","2","<img src='img/tf1_39_T1_ss2_md.jpeg'></img>","0","false",""
"","html-keyboard-response","93","361945","0.0-10.0-0.39","A1232","""event"",""trial"",""time""
""fullscreenenter"",""0"",""8638""
","
","
","""event"",""trial"",""time""
""fullscreenenter"",""0"",""8638""
","
","null","<div style=""font-size:60px;"">+</div>","","null","fixation","2021-07-30 15:27:19.772","","","","",""
"","mars-trial","94","363445","0.0-10.0-1.39","A1232","""event"",""trial"",""time""
""fullscreenenter"",""0"",""8638""
","
","
","""event"",""trial"",""time""
""fullscreenenter"",""0"",""8638""
","
","895.9999999999418","<img style='border: 4px solid darkgrey;' src='img/tf1_40_M_ss3.jpeg'></img>","2","","exp","","0","<img src='img/tf1_40_T1_ss3_md.jpeg'></img>","0","true",""
"","html-keyboard-response","95","363947","0.0-10.0-0.40","A1232","""event"",""trial"",""time""
""fullscreenenter"",""0"",""8638""
","
","
","""event"",""trial"",""time""
""fullscreenenter"",""0"",""8638""
","
","null","<div style=""font-size:60px;"">+</div>","","null","fixation","2021-07-30 15:27:21.776","","","","",""
"","mars-trial","96","369243","0.0-10.0-1.40","A1232","""event"",""trial"",""time""
""fullscreenenter"",""0"",""8638""
","
","
","""event"",""trial"",""time""
""fullscreenenter"",""0"",""8638""
","
","4688","<img style='border: 4px solid darkgrey;' src='img/tf1_41_M_ss1.jpeg'></img>","1","","exp","","0","<img src='img/tf1_41_T1_ss1_md.jpeg'></img>","0","true",""
"","html-keyboard-response","97","369746","0.0-10.0-0.41","A1232","""event"",""trial"",""time""
""fullscreenenter"",""0"",""8638""
","
","
","""event"",""trial"",""time""
""fullscreenenter"",""0"",""8638""
","
","null","<div style=""font-size:60px;"">+</div>","","null","fixation","2021-07-30 15:27:27.573","","","","",""
"","mars-trial","98","381766","0.0-10.0-1.41","A1232","""event"",""trial"",""time""
""fullscreenenter"",""0"",""8638""
","
","
","""event"",""trial"",""time""
""fullscreenenter"",""0"",""8638""
","
","11416","<img style='border: 4px solid darkgrey;' src='img/tf1_42_M_ss2.jpeg'></img>","0","","exp","","0","<img src='img/tf1_42_T1_ss2_md.jpeg'></img>","0","true",""
"","html-keyboard-response","99","382268","0.0-10.0-0.42","A1232","""event"",""trial"",""time""
""fullscreenenter"",""0"",""8638""
","
","
","""event"",""trial"",""time""
""fullscreenenter"",""0"",""8638""
","
","null","<div style=""font-size:60px;"">+</div>","","null","fixation","2021-07-30 15:27:40.095","","","","",""
"","mars-trial","100","384749","0.0-10.0-1.42","A1232","""event"",""trial"",""time""
""fullscreenenter"",""0"",""8638""
","
","
","""event"",""trial"",""time""
""fullscreenenter"",""0"",""8638""
","
","1876","<img style='border: 4px solid darkgrey;' src='img/tf1_43_M_ss3.jpeg'></img>","1","","exp","","0","<img src='img/tf1_43_T1_ss3_md.jpeg'></img>","0","true",""
"","html-keyboard-response","101","385251","0.0-10.0-0.43","A1232","""event"",""trial"",""time""
""fullscreenenter"",""0"",""8638""
","
","
","""event"",""trial"",""time""
""fullscreenenter"",""0"",""8638""
","
","null","<div style=""font-size:60px;"">+</div>","","null","fixation","2021-07-30 15:27:43.078","","","","",""
"","mars-trial","102","390146","0.0-10.0-1.43","A1232","""event"",""trial"",""time""
""fullscreenenter"",""0"",""8638""
","
","
","""event"",""trial"",""time""
""fullscreenenter"",""0"",""8638""
","
","4290","<img style='border: 4px solid darkgrey;' src='img/tf1_44_M_ss1.jpeg'></img>","2","","exp","","3","<img src='img/tf1_44_T1_ss1_md.jpeg'></img>","0","false",""
"","html-keyboard-response","103","390648","0.0-10.0-0.44","A1232","""event"",""trial"",""time""
""fullscreenenter"",""0"",""8638""
","
","
","""event"",""trial"",""time""
""fullscreenenter"",""0"",""8638""
","
","null","<div style=""font-size:60px;"">+</div>","","null","fixation","2021-07-30 15:27:48.475","","","","",""
"","mars-trial","104","399778","0.0-10.0-1.44","A1232","""event"",""trial"",""time""
""fullscreenenter"",""0"",""8638""
","
","
","""event"",""trial"",""time""
""fullscreenenter"",""0"",""8638""
","
","8526","<img style='border: 4px solid darkgrey;' src='img/tf1_45_M_ss2.jpeg'></img>","1","","exp","","0","<img src='img/tf1_45_T1_ss2_md.jpeg'></img>","0","true",""
"","html-keyboard-response","105","400280","0.0-10.0-0.45","A1232","""event"",""trial"",""time""
""fullscreenenter"",""0"",""8638""
","
","
","""event"",""trial"",""time""
""fullscreenenter"",""0"",""8638""
","
","null","<div style=""font-size:60px;"">+</div>","","null","fixation","2021-07-30 15:27:58.107","","","","",""
"","mars-trial","106","410260","0.0-10.0-1.45","A1232","""event"",""trial"",""time""
""fullscreenenter"",""0"",""8638""
","
","
","""event"",""trial"",""time""
""fullscreenenter"",""0"",""8638""
","
","9375","<img style='border: 4px solid darkgrey;' src='img/tf1_46_M_ss3.jpeg'></img>","2","","exp","","0","<img src='img/tf1_46_T1_ss3_md.jpeg'></img>","0","true",""
"","html-keyboard-response","107","410762","0.0-10.0-0.46","A1232","""event"",""trial"",""time""
""fullscreenenter"",""0"",""8638""
","
","
","""event"",""trial"",""time""
""fullscreenenter"",""0"",""8638""
","
","null","<div style=""font-size:60px;"">+</div>","","null","fixation","2021-07-30 15:28:08.589","","","","",""
"","mars-trial","108","419873","0.0-10.0-1.46","A1232","""event"",""trial"",""time""
""fullscreenenter"",""0"",""8638""
","
","
","""event"",""trial"",""time""
""fullscreenenter"",""0"",""8638""
","
","8507","<img style='border: 4px solid darkgrey;' src='img/tf1_47_M_ss1.jpeg'></img>","3","","exp","","3","<img src='img/tf1_47_T1_ss1_md.jpeg'></img>","0","false",""
"","html-keyboard-response","109","420375","0.0-10.0-0.47","A1232","""event"",""trial"",""time""
""fullscreenenter"",""0"",""8638""
","
","
","""event"",""trial"",""time""
""fullscreenenter"",""0"",""8638""
","
","null","<div style=""font-size:60px;"">+</div>","","null","fixation","2021-07-30 15:28:18.202","","","","",""
"","mars-trial","110","421854","0.0-10.0-1.47","A1232","""event"",""trial"",""time""
""fullscreenenter"",""0"",""8638""
","
","
","""event"",""trial"",""time""
""fullscreenenter"",""0"",""8638""
","
","874","<img style='border: 4px solid darkgrey;' src='img/tf1_48_M_ss2.jpeg'></img>","2","","exp","","2","<img src='img/tf1_48_T1_ss2_md.jpeg'></img>","0","false",""
"","html-keyboard-response","111","422356","0.0-10.0-0.48","A1232","""event"",""trial"",""time""
""fullscreenenter"",""0"",""8638""
","
","
","""event"",""trial"",""time""
""fullscreenenter"",""0"",""8638""
","
","null","<div style=""font-size:60px;"">+</div>","","null","fixation","2021-07-30 15:28:20.183","","","","",""
"","mars-trial","112","428194","0.0-10.0-1.48","A1232","""event"",""trial"",""time""
""fullscreenenter"",""0"",""8638""
","
","
","""event"",""trial"",""time""
""fullscreenenter"",""0"",""8638""
","
","5232","<img style='border: 4px solid darkgrey;' src='img/tf1_49_M_ss3.jpeg'></img>","1","","exp","","0","<img src='img/tf1_49_T1_ss3_md.jpeg'></img>","0","true",""
"","html-keyboard-response","113","428696","0.0-10.0-0.49","A1232","""event"",""trial"",""time""
""fullscreenenter"",""0"",""8638""
","
","
","""event"",""trial"",""time""
""fullscreenenter"",""0"",""8638""
","
","null","<div style=""font-size:60px;"">+</div>","","null","fixation","2021-07-30 15:28:26.524","","","","",""
"","mars-trial","114","430434","0.0-10.0-1.49","A1232","""event"",""trial"",""time""
""fullscreenenter"",""0"",""8638""
","
","
","""event"",""trial"",""time""
""fullscreenenter"",""0"",""8638""
","
","1132","<img style='border: 4px solid darkgrey;' src='img/tf1_50_M_ss1.jpeg'></img>","2","","exp","","3","<img src='img/tf1_50_T1_ss1_md.jpeg'></img>","0","false",""
"","html-keyboard-response","115","430936","0.0-10.0-0.50","A1232","""event"",""trial"",""time""
""fullscreenenter"",""0"",""8638""
","
","
","""event"",""trial"",""time""
""fullscreenenter"",""0"",""8638""
","
","null","<div style=""font-size:60px;"">+</div>","","null","fixation","2021-07-30 15:28:28.763","","","","",""
"","mars-trial","116","432335","0.0-10.0-1.50","A1232","""event"",""trial"",""time""
""fullscreenenter"",""0"",""8638""
","
","
","""event"",""trial"",""time""
""fullscreenenter"",""0"",""8638""
","
","795","<img style='border: 4px solid darkgrey;' src='img/tf1_51_M_ss2.jpeg'></img>","1","","exp","","1","<img src='img/tf1_51_T1_ss2_md.jpeg'></img>","0","false",""
"","html-keyboard-response","117","432838","0.0-10.0-0.51","A1232","""event"",""trial"",""time""
""fullscreenenter"",""0"",""8638""
","
","
","""event"",""trial"",""time""
""fullscreenenter"",""0"",""8638""
","
","null","<div style=""font-size:60px;"">+</div>","","null","fixation","2021-07-30 15:28:30.665","","","","",""
"","mars-trial","118","434753","0.0-10.0-1.51","A1232","""event"",""trial"",""time""
""fullscreenenter"",""0"",""8638""
","
","
","""event"",""trial"",""time""
""fullscreenenter"",""0"",""8638""
","
","1311","<img style='border: 4px solid darkgrey;' src='img/tf1_52_M_ss3.jpeg'></img>","0","","exp","","3","<img src='img/tf1_52_T1_ss3_md.jpeg'></img>","0","false",""
"","html-keyboard-response","119","435256","0.0-10.0-0.52","A1232","""event"",""trial"",""time""
""fullscreenenter"",""0"",""8638""
","
","
","""event"",""trial"",""time""
""fullscreenenter"",""0"",""8638""
","
","null","<div style=""font-size:60px;"">+</div>","","null","fixation","2021-07-30 15:28:33.083","","","","",""
"","mars-trial","120","437181","0.0-10.0-1.52","A1232","""event"",""trial"",""time""
""fullscreenenter"",""0"",""8638""
","
","
","""event"",""trial"",""time""
""fullscreenenter"",""0"",""8638""
","
","1322","<img style='border: 4px solid darkgrey;' src='img/tf1_53_M_ss1.jpeg'></img>","1","","exp","","2","<img src='img/tf1_53_T1_ss1_md.jpeg'></img>","0","false",""
"","html-keyboard-response","121","437683","0.0-10.0-0.53","A1232","""event"",""trial"",""time""
""fullscreenenter"",""0"",""8638""
","
","
","""event"",""trial"",""time""
""fullscreenenter"",""0"",""8638""
","
","null","<div style=""font-size:60px;"">+</div>","","null","fixation","2021-07-30 15:28:35.510","","","","",""
"","mars-trial","122","438904","0.0-10.0-1.53","A1232","""event"",""trial"",""time""
""fullscreenenter"",""0"",""8638""
","
","
","""event"",""trial"",""time""
""fullscreenenter"",""0"",""8638""
","
","616","<img style='border: 4px solid darkgrey;' src='img/tf1_54_M_ss2.jpeg'></img>","2","","exp","","0","<img src='img/tf1_54_T1_ss2_md.jpeg'></img>","0","true",""
"","html-keyboard-response","123","439406","0.0-10.0-0.54","A1232","""event"",""trial"",""time""
""fullscreenenter"",""0"",""8638""
","
","
","""event"",""trial"",""time""
""fullscreenenter"",""0"",""8638""
","
","null","<div style=""font-size:60px;"">+</div>","","null","fixation","2021-07-30 15:28:37.233","","","","",""
"","mars-trial","124","440875","0.0-10.0-1.54","A1232","""event"",""trial"",""time""
""fullscreenenter"",""0"",""8638""
","
","
","""event"",""trial"",""time""
""fullscreenenter"",""0"",""8638""
","
","865","<img style='border: 4px solid darkgrey;' src='img/tf1_55_M_ss3.jpeg'></img>","1","","exp","","0","<img src='img/tf1_55_T1_ss3_md.jpeg'></img>","0","true",""
"","html-keyboard-response","125","441377","0.0-10.0-0.55","A1232","""event"",""trial"",""time""
""fullscreenenter"",""0"",""8638""
","
","
","""event"",""trial"",""time""
""fullscreenenter"",""0"",""8638""
","
","null","<div style=""font-size:60px;"">+</div>","","null","fixation","2021-07-30 15:28:39.204","","","","",""
"","mars-trial","126","443023","0.0-10.0-1.55","A1232","""event"",""trial"",""time""
""fullscreenenter"",""0"",""8638""
","
","
","""event"",""trial"",""time""
""fullscreenenter"",""0"",""8638""
","
","1042.0000000000582","<img style='border: 4px solid darkgrey;' src='img/tf1_56_M_ss1.jpeg'></img>","0","","exp","","1","<img src='img/tf1_56_T1_ss1_md.jpeg'></img>","0","false",""
"","html-keyboard-response","127","443525","0.0-10.0-0.56","A1232","""event"",""trial"",""time""
""fullscreenenter"",""0"",""8638""
","
","
","""event"",""trial"",""time""
""fullscreenenter"",""0"",""8638""
","
","null","<div style=""font-size:60px;"">+</div>","","null","fixation","2021-07-30 15:28:41.352","","","","",""
"","mars-trial","128","446649","0.0-10.0-1.56","A1232","""event"",""trial"",""time""
""fullscreenenter"",""0"",""8638""
","
","
","""event"",""trial"",""time""
""fullscreenenter"",""0"",""8638""
","
","2520","<img style='border: 4px solid darkgrey;' src='img/tf1_57_M_ss2.jpeg'></img>","1","","exp","","1","<img src='img/tf1_57_T1_ss2_md.jpeg'></img>","0","false",""
"","html-keyboard-response","129","447151","0.0-10.0-0.57","A1232","""event"",""trial"",""time""
""fullscreenenter"",""0"",""8638""
","
","
","""event"",""trial"",""time""
""fullscreenenter"",""0"",""8638""
","
","null","<div style=""font-size:60px;"">+</div>","","null","fixation","2021-07-30 15:28:44.978","","","","",""
"","mars-trial","130","448505","0.0-10.0-1.57","A1232","""event"",""trial"",""time""
""fullscreenenter"",""0"",""8638""
","
","
","""event"",""trial"",""time""
""fullscreenenter"",""0"",""8638""
","
","750","<img style='border: 4px solid darkgrey;' src='img/tf1_58_M_ss3.jpeg'></img>","2","","exp","","0","<img src='img/tf1_58_T1_ss3_md.jpeg'></img>","0","true",""
"","html-keyboard-response","131","449007","0.0-10.0-0.58","A1232","""event"",""trial"",""time""
""fullscreenenter"",""0"",""8638""
","
","
","""event"",""trial"",""time""
""fullscreenenter"",""0"",""8638""
","
","null","<div style=""font-size:60px;"">+</div>","","null","fixation","2021-07-30 15:28:46.834","","","","",""
"","mars-trial","132","450406","0.0-10.0-1.58","A1232","""event"",""trial"",""time""
""fullscreenenter"",""0"",""8638""
","
","
","""event"",""trial"",""time""
""fullscreenenter"",""0"",""8638""
","
","795","<img style='border: 4px solid darkgrey;' src='img/tf1_59_M_ss1.jpeg'></img>","1","","exp","","3","<img src='img/tf1_59_T1_ss1_md.jpeg'></img>","0","false",""
"","html-keyboard-response","133","450908","0.0-10.0-0.59","A1232","""event"",""trial"",""time""
""fullscreenenter"",""0"",""8638""
","
","
","""event"",""trial"",""time""
""fullscreenenter"",""0"",""8638""
","
","null","<div style=""font-size:60px;"">+</div>","","null","fixation","2021-07-30 15:28:48.735","","","","",""
"","mars-trial","134","452175","0.0-10.0-1.59","A1232","""event"",""trial"",""time""
""fullscreenenter"",""0"",""8638""
","
","
","""event"",""trial"",""time""
""fullscreenenter"",""0"",""8638""
","
","663","<img style='border: 4px solid darkgrey;' src='img/tf1_60_M_ss2.jpeg'></img>","3","","exp","","2","<img src='img/tf1_60_T1_ss2_md.jpeg'></img>","0","false",""
"","html-keyboard-response","135","452677","0.0-10.0-0.60","A1232","""event"",""trial"",""time""
""fullscreenenter"",""0"",""8638""
","
","
","""event"",""trial"",""time""
""fullscreenenter"",""0"",""8638""
","
","null","<div style=""font-size:60px;"">+</div>","","null","fixation","2021-07-30 15:28:50.504","","","","",""
"","mars-trial","136","453745","0.0-10.0-1.60","A1232","""event"",""trial"",""time""
""fullscreenenter"",""0"",""8638""
","
","
","""event"",""trial"",""time""
""fullscreenenter"",""0"",""8638""
","
","465","<img style='border: 4px solid darkgrey;' src='img/tf1_61_M_ss3.jpeg'></img>","2","","exp","","0","<img src='img/tf1_61_T1_ss3_md.jpeg'></img>","0","true",""
"","html-keyboard-response","137","454247","0.0-10.0-0.61","A1232","""event"",""trial"",""time""
""fullscreenenter"",""0"",""8638""
","
","
","""event"",""trial"",""time""
""fullscreenenter"",""0"",""8638""
","
","null","<div style=""font-size:60px;"">+</div>","","null","fixation","2021-07-30 15:28:52.074","","","","",""
"","mars-trial","138","455569","0.0-10.0-1.61","A1232","""event"",""trial"",""time""
""fullscreenenter"",""0"",""8638""
","
","
","""event"",""trial"",""time""
""fullscreenenter"",""0"",""8638""
","
","717","<img style='border: 4px solid darkgrey;' src='img/tf1_62_M_ss1.jpeg'></img>","1","","exp","","2","<img src='img/tf1_62_T1_ss1_md.jpeg'></img>","0","false",""
"","html-keyboard-response","139","456071","0.0-10.0-0.62","A1232","""event"",""trial"",""time""
""fullscreenenter"",""0"",""8638""
","
","
","""event"",""trial"",""time""
""fullscreenenter"",""0"",""8638""
","
","null","<div style=""font-size:60px;"">+</div>","","null","fixation","2021-07-30 15:28:53.899","","","","",""
"","mars-trial","140","457463","0.0-10.0-1.62","A1232","""event"",""trial"",""time""
""fullscreenenter"",""0"",""8638""
","
","
","""event"",""trial"",""time""
""fullscreenenter"",""0"",""8638""
","
","787.0000000000582","<img style='border: 4px solid darkgrey;' src='img/tf1_63_M_ss2.jpeg'></img>","0","","exp","","1","<img src='img/tf1_63_T1_ss2_md.jpeg'></img>","0","false",""
"","html-keyboard-response","141","457965","0.0-10.0-0.63","A1232","""event"",""trial"",""time""
""fullscreenenter"",""0"",""8638""
","
","
","""event"",""trial"",""time""
""fullscreenenter"",""0"",""8638""
","
","null","<div style=""font-size:60px;"">+</div>","","null","fixation","2021-07-30 15:28:55.792","","","","",""
"","mars-trial","142","460801","0.0-10.0-1.63","A1232","""event"",""trial"",""time""
""fullscreenenter"",""0"",""8638""
","
","
","""event"",""trial"",""time""
""fullscreenenter"",""0"",""8638""
","
","2233","<img style='border: 4px solid darkgrey;' src='img/tf1_64_M_ss3.jpeg'></img>","2","","exp","","0","<img src='img/tf1_64_T1_ss3_md.jpeg'></img>","0","true",""
"","html-keyboard-response","143","461303","0.0-10.0-0.64","A1232","""event"",""trial"",""time""
""fullscreenenter"",""0"",""8638""
","
","
","""event"",""trial"",""time""
""fullscreenenter"",""0"",""8638""
","
","null","<div style=""font-size:60px;"">+</div>","","null","fixation","2021-07-30 15:28:59.130","","","","",""
"","mars-trial","144","465827","0.0-10.0-1.64","A1232","""event"",""trial"",""time""
""fullscreenenter"",""0"",""8638""
","
","
","""event"",""trial"",""time""
""fullscreenenter"",""0"",""8638""
","
","3919","<img style='border: 4px solid darkgrey;' src='img/tf1_65_M_ss1.jpeg'></img>","0","","exp","","3","<img src='img/tf1_65_T1_ss1_md.jpeg'></img>","0","false",""
"","html-keyboard-response","145","466329","0.0-10.0-0.65","A1232","""event"",""trial"",""time""
""fullscreenenter"",""0"",""8638""
","
","
","""event"",""trial"",""time""
""fullscreenenter"",""0"",""8638""
","
","null","<div style=""font-size:60px;"">+</div>","","null","fixation","2021-07-30 15:29:04.156","","","","",""
"","mars-trial","146","468849","0.0-10.0-1.65","A1232","""event"",""trial"",""time""
""fullscreenenter"",""0"",""8638""
","
","
","""event"",""trial"",""time""
""fullscreenenter"",""0"",""8638""
","
","1914.9999999999418","<img style='border: 4px solid darkgrey;' src='img/tf1_66_M_ss2.jpeg'></img>","0","","exp","","1","<img src='img/tf1_66_T1_ss2_md.jpeg'></img>","0","false",""
"","html-keyboard-response","147","469351","0.0-10.0-0.66","A1232","""event"",""trial"",""time""
""fullscreenenter"",""0"",""8638""
","
","
","""event"",""trial"",""time""
""fullscreenenter"",""0"",""8638""
","
","null","<div style=""font-size:60px;"">+</div>","","null","fixation","2021-07-30 15:29:07.178","","","","",""
"","mars-trial","148","474684","0.0-10.0-1.66","A1232","""event"",""trial"",""time""
""fullscreenenter"",""0"",""8638""
","
","
","""event"",""trial"",""time""
""fullscreenenter"",""0"",""8638""
","
","4729","<img style='border: 4px solid darkgrey;' src='img/tf1_67_M_ss3.jpeg'></img>","2","","exp","","1","<img src='img/tf1_67_T1_ss3_md.jpeg'></img>","0","false",""
"","html-keyboard-response","149","475186","0.0-10.0-0.67","A1232","""event"",""trial"",""time""
""fullscreenenter"",""0"",""8638""
","
","
","""event"",""trial"",""time""
""fullscreenenter"",""0"",""8638""
","
","null","<div style=""font-size:60px;"">+</div>","","null","fixation","2021-07-30 15:29:13.013","","","","",""
"","mars-trial","150","477199","0.0-10.0-1.67","A1232","""event"",""trial"",""time""
""fullscreenenter"",""0"",""8638""
","
","
","""event"",""trial"",""time""
""fullscreenenter"",""0"",""8638""
","
","1406","<img style='border: 4px solid darkgrey;' src='img/tf1_68_M_ss1.jpeg'></img>","1","","exp","","0","<img src='img/tf1_68_T1_ss1_md.jpeg'></img>","0","true",""
"","html-keyboard-response","151","477701","0.0-10.0-0.68","A1232","""event"",""trial"",""time""
""fullscreenenter"",""0"",""8638""
","
","
","""event"",""trial"",""time""
""fullscreenenter"",""0"",""8638""
","
","null","<div style=""font-size:60px;"">+</div>","","null","fixation","2021-07-30 15:29:15.528","","","","",""
"","mars-trial","152","482847","0.0-10.0-1.68","A1232","""event"",""trial"",""time""
""fullscreenenter"",""0"",""8638""
","
","
","""event"",""trial"",""time""
""fullscreenenter"",""0"",""8638""
","
","4541","<img style='border: 4px solid darkgrey;' src='img/tf1_69_M_ss2.jpeg'></img>","2","","exp","","3","<img src='img/tf1_69_T1_ss2_md.jpeg'></img>","0","false",""
"","html-keyboard-response","153","483349","0.0-10.0-0.69","A1232","""event"",""trial"",""time""
""fullscreenenter"",""0"",""8638""
","
","
","""event"",""trial"",""time""
""fullscreenenter"",""0"",""8638""
","
","null","<div style=""font-size:60px;"">+</div>","","null","fixation","2021-07-30 15:29:21.176","","","","",""
"","mars-trial","154","497962","0.0-10.0-1.69","A1232","""event"",""trial"",""time""
""fullscreenenter"",""0"",""8638""
","
","
","""event"",""trial"",""time""
""fullscreenenter"",""0"",""8638""
","
","14008.000000000058","<img style='border: 4px solid darkgrey;' src='img/tf1_70_M_ss3.jpeg'></img>","1","","exp","","0","<img src='img/tf1_70_T1_ss3_md.jpeg'></img>","0","true",""
"","html-keyboard-response","155","498464","0.0-10.0-0.70","A1232","""event"",""trial"",""time""
""fullscreenenter"",""0"",""8638""
","
","
","""event"",""trial"",""time""
""fullscreenenter"",""0"",""8638""
","
","null","<div style=""font-size:60px;"">+</div>","","null","fixation","2021-07-30 15:29:36.291","","","","",""
"","mars-trial","156","501557","0.0-10.0-1.70","A1232","""event"",""trial"",""time""
""fullscreenenter"",""0"",""8638""
","
","
","""event"",""trial"",""time""
""fullscreenenter"",""0"",""8638""
","
","2489","<img style='border: 4px solid darkgrey;' src='img/tf1_71_M_ss1.jpeg'></img>","1","","exp","","0","<img src='img/tf1_71_T1_ss1_md.jpeg'></img>","0","true",""
"","html-keyboard-response","157","502059","0.0-10.0-0.71","A1232","""event"",""trial"",""time""
""fullscreenenter"",""0"",""8638""
","
","
","""event"",""trial"",""time""
""fullscreenenter"",""0"",""8638""
","
","null","<div style=""font-size:60px;"">+</div>","","null","fixation","2021-07-30 15:29:39.886","","","","",""
"","mars-trial","158","507646","0.0-10.0-1.71","A1232","""event"",""trial"",""time""
""fullscreenenter"",""0"",""8638""
","
","
","""event"",""trial"",""time""
""fullscreenenter"",""0"",""8638""
","
","4983","<img style='border: 4px solid darkgrey;' src='img/tf1_72_M_ss2.jpeg'></img>","1","","exp","","0","<img src='img/tf1_72_T1_ss2_md.jpeg'></img>","0","true",""
"","html-keyboard-response","159","508148","0.0-10.0-0.72","A1232","""event"",""trial"",""time""
""fullscreenenter"",""0"",""8638""
","
","
","""event"",""trial"",""time""
""fullscreenenter"",""0"",""8638""
","
","null","<div style=""font-size:60px;"">+</div>","","null","fixation","2021-07-30 15:29:45.975","","","","",""
"","mars-trial","160","509920","0.0-10.0-1.72","A1232","""event"",""trial"",""time""
""fullscreenenter"",""0"",""8638""
","
","
","""event"",""trial"",""time""
""fullscreenenter"",""0"",""8638""
","
","1167","<img style='border: 4px solid darkgrey;' src='img/tf1_73_M_ss3.jpeg'></img>","0","","exp","","0","<img src='img/tf1_73_T1_ss3_md.jpeg'></img>","0","true",""
"","html-keyboard-response","161","510422","0.0-10.0-0.73","A1232","""event"",""trial"",""time""
""fullscreenenter"",""0"",""8638""
","
","
","""event"",""trial"",""time""
""fullscreenenter"",""0"",""8638""
","
","null","<div style=""font-size:60px;"">+</div>","","null","fixation","2021-07-30 15:29:48.249","","","","",""
"","mars-trial","162","513118","0.0-10.0-1.73","A1232","""event"",""trial"",""time""
""fullscreenenter"",""0"",""8638""
","
","
","""event"",""trial"",""time""
""fullscreenenter"",""0"",""8638""
","
","2091","<img style='border: 4px solid darkgrey;' src='img/tf1_74_M_ss1.jpeg'></img>","0","","exp","","0","<img src='img/tf1_74_T1_ss1_md.jpeg'></img>","0","true",""
"","html-keyboard-response","163","513620","0.0-10.0-0.74","A1232","""event"",""trial"",""time""
""fullscreenenter"",""0"",""8638""
","
","
","""event"",""trial"",""time""
""fullscreenenter"",""0"",""8638""
","
","null","<div style=""font-size:60px;"">+</div>","","null","fixation","2021-07-30 15:29:51.447","","","","",""
"","mars-trial","164","523104","0.0-10.0-1.74","A1232","""event"",""trial"",""time""
""fullscreenenter"",""0"",""8638""
","
","
","""event"",""trial"",""time""
""fullscreenenter"",""0"",""8638""
","
","8880","<img style='border: 4px solid darkgrey;' src='img/tf1_75_M_ss2.jpeg'></img>","1","","exp","","0","<img src='img/tf1_75_T1_ss2_md.jpeg'></img>","0","true",""
"","html-keyboard-response","165","523606","0.0-10.0-0.75","A1232","""event"",""trial"",""time""
""fullscreenenter"",""0"",""8638""
","
","
","""event"",""trial"",""time""
""fullscreenenter"",""0"",""8638""
","
","null","<div style=""font-size:60px;"">+</div>","","null","fixation","2021-07-30 15:30:01.433","","","","",""
"","mars-trial","166","526063","0.0-10.0-1.75","A1232","""event"",""trial"",""time""
""fullscreenenter"",""0"",""8638""
","
","
","""event"",""trial"",""time""
""fullscreenenter"",""0"",""8638""
","
","1854","<img style='border: 4px solid darkgrey;' src='img/tf1_76_M_ss3.jpeg'></img>","2","","exp","","0","<img src='img/tf1_76_T1_ss3_md.jpeg'></img>","0","true",""
"","html-keyboard-response","167","526565","0.0-10.0-0.76","A1232","""event"",""trial"",""time""
""fullscreenenter"",""0"",""8638""
","
","
","""event"",""trial"",""time""
""fullscreenenter"",""0"",""8638""
","
","null","<div style=""font-size:60px;"">+</div>","","null","fixation","2021-07-30 15:30:04.392","","","","",""
"","mars-trial","168","528352","0.0-10.0-1.76","A1232","""event"",""trial"",""time""
""fullscreenenter"",""0"",""8638""
","
","
","""event"",""trial"",""time""
""fullscreenenter"",""0"",""8638""
","
","1183","<img style='border: 4px solid darkgrey;' src='img/tf1_77_M_ss1.jpeg'></img>","1","","exp","","0","<img src='img/tf1_77_T1_ss1_md.jpeg'></img>","0","true",""
"","html-keyboard-response","169","528854","0.0-10.0-0.77","A1232","""event"",""trial"",""time""
""fullscreenenter"",""0"",""8638""
","
","
","""event"",""trial"",""time""
""fullscreenenter"",""0"",""8638""
","
","null","<div style=""font-size:60px;"">+</div>","","null","fixation","2021-07-30 15:30:06.681","","","","",""
"","mars-trial","170","535981","0.0-10.0-1.77","A1232","""event"",""trial"",""time""
""fullscreenenter"",""0"",""8638""
","
","
","""event"",""trial"",""time""
""fullscreenenter"",""0"",""8638""
","
","6521.000000000116","<img style='border: 4px solid darkgrey;' src='img/tf1_78_M_ss2.jpeg'></img>","2","","exp","","0","<img src='img/tf1_78_T1_ss2_md.jpeg'></img>","0","true",""
"","html-keyboard-response","171","536484","0.0-10.0-0.78","A1232","""event"",""trial"",""time""
""fullscreenenter"",""0"",""8638""
","
","
","""event"",""trial"",""time""
""fullscreenenter"",""0"",""8638""
","
","null","<div style=""font-size:60px;"">+</div>","","null","fixation","2021-07-30 15:30:14.311","","","","",""
"","mars-trial","172","538345","0.0-10.0-1.78","A1232","""event"",""trial"",""time""
""fullscreenenter"",""0"",""8638""
","
","
","""event"",""trial"",""time""
""fullscreenenter"",""0"",""8638""
","
","1257","<img style='border: 4px solid darkgrey;' src='img/tf1_79_M_ss3.jpeg'></img>","1","","exp","","3","<img src='img/tf1_79_T1_ss3_md.jpeg'></img>","0","false",""
"","html-keyboard-response","173","538847","0.0-10.0-0.79","A1232","""event"",""trial"",""time""
""fullscreenenter"",""0"",""8638""
","
","
","""event"",""trial"",""time""
""fullscreenenter"",""0"",""8638""
","
","null","<div style=""font-size:60px;"">+</div>","","null","fixation","2021-07-30 15:30:16.674","","","","",""
"","mars-trial","174","545061","0.0-10.0-1.79","A1232","""event"",""trial"",""time""
""fullscreenenter"",""0"",""8638""
","
","
","""event"",""trial"",""time""
""fullscreenenter"",""0"",""8638""
","
","5610","<img style='border: 4px solid darkgrey;' src='img/tf1_80_M_ss1.jpeg'></img>","0","","exp","","1","<img src='img/tf1_80_T1_ss1_md.jpeg'></img>","0","false",""
"","audio-button-response","175","546769","0.0-11.0","A1232","""event"",""trial"",""time""
""fullscreenenter"",""0"",""8638""
","
","
","""event"",""trial"",""time""
""fullscreenenter"",""0"",""8638""
","
","","","","","","","","","","",""
