"success","trial_type","trial_index","time_elapsed","internal_node_id","subject_id","interactions","blur_events","focus_events","fullscreenenter_events","fullscreenexit_events","rt","stimulus","button_pressed","key_press","part","timestamp","unshuffled_button","correct_response","correct_button","correct","value"
"true","fullscreen","0","4553","0.0-0.0","211","""event"",""trial"",""time""
""fullscreenenter"",""0"",""3573""
","
","
","""event"",""trial"",""time""
""fullscreenenter"",""0"",""3573""
","
","","","","","","","","","","",""
"","pavlovia","1","4557","0.0-1.0","211","""event"",""trial"",""time""
""fullscreenenter"",""0"",""3573""
","
","
","""event"",""trial"",""time""
""fullscreenenter"",""0"",""3573""
","
","","","","","","","","","","",""
"","html-button-response","2","6299","0.0-2.0","211","""event"",""trial"",""time""
""fullscreenenter"",""0"",""3573""
","
","
","""event"",""trial"",""time""
""fullscreenenter"",""0"",""3573""
","
","1740.060000000085","<p>Welcome! Press START to begin.</p><br>","0","","","","","","","",""
"","audio-button-response","3","19671","0.0-3.0","211","""event"",""trial"",""time""
""fullscreenenter"",""0"",""3573""
","
","
","""event"",""trial"",""time""
""fullscreenenter"",""0"",""3573""
","
","13369.40499999946","audio/mars_instructions_slide2.wav","0","","","","","","","",""
"","audio-button-response","4","35282","0.0-4.0","211","""event"",""trial"",""time""
""fullscreenenter"",""0"",""3573""
","
","
","""event"",""trial"",""time""
""fullscreenenter"",""0"",""3573""
","
","15608.62999999972","audio/mars_instructions_slide3.wav","0","","","","","","","",""
"","html-keyboard-response","5","35784","0.0-5.0-0.0","211","""event"",""trial"",""time""
""fullscreenenter"",""0"",""3573""
","
","
","""event"",""trial"",""time""
""fullscreenenter"",""0"",""3573""
","
","null","<div style=""font-size:60px;"">+</div>","","null","fixation","2021-06-05 14:30:07.918","","","","",""
"","mars-trial","6","43755","0.0-5.0-1.0","211","""event"",""trial"",""time""
""fullscreenenter"",""0"",""3573""
","
","
","""event"",""trial"",""time""
""fullscreenenter"",""0"",""3573""
","
","5855.329999999412","<img style='border: 4px solid darkgrey;' src='practice/pt1_M1.png'></img>","2","","practice","","0","<img src='practice/pt1_T1.png'></img>","0","true",""
"","html-keyboard-response","7","44260","0.0-6.0-0.0","211","""event"",""trial"",""time""
""fullscreenenter"",""0"",""3573""
","
","
","""event"",""trial"",""time""
""fullscreenenter"",""0"",""3573""
","
","null","<div style=""font-size:60px;"">+</div>","","null","fixation","2021-06-05 14:30:16.395","","","","",""
"","mars-trial","8","51355","0.0-6.0-1.0","211","""event"",""trial"",""time""
""fullscreenenter"",""0"",""3573""
","
","
","""event"",""trial"",""time""
""fullscreenenter"",""0"",""3573""
","
","4981.395000000703","<img style='border: 4px solid darkgrey;' src='practice/pt2_M1.png'></img>","0","","practice","","0","<img src='practice/pt2_T1.png'></img>","0","true",""
"","html-keyboard-response","9","51859","0.0-7.0-0.0","211","""event"",""trial"",""time""
""fullscreenenter"",""0"",""3573""
","
","
","""event"",""trial"",""time""
""fullscreenenter"",""0"",""3573""
","
","null","<div style=""font-size:60px;"">+</div>","","null","fixation","2021-06-05 14:30:23.993","","","","",""
"","mars-trial","10","55530","0.0-7.0-1.0","211","""event"",""trial"",""time""
""fullscreenenter"",""0"",""3573""
","
","
","""event"",""trial"",""time""
""fullscreenenter"",""0"",""3573""
","
","1560.6499999994412","<img style='border: 4px solid darkgrey;' src='practice/pt3_M1.png'></img>","2","","practice","","0","<img src='practice/pt3_T1.png'></img>","0","true",""
"","audio-button-response","11","58821","0.0-8.0","211","""event"",""trial"",""time""
""fullscreenenter"",""0"",""3573""
","
","
","""event"",""trial"",""time""
""fullscreenenter"",""0"",""3573""
","
","3288.4100000001126","audio/mars_instructions_slide4.wav","0","","","","","","","",""
"","call-function","12","58822","0.0-9.0","211","""event"",""trial"",""time""
""fullscreenenter"",""0"",""3573""
","
","
","""event"",""trial"",""time""
""fullscreenenter"",""0"",""3573""
","
","","","","","","","","","","",""
"","html-keyboard-response","13","59323","0.0-10.0-0.0","211","""event"",""trial"",""time""
""fullscreenenter"",""0"",""3573""
","
","
","""event"",""trial"",""time""
""fullscreenenter"",""0"",""3573""
","
","null","<div style=""font-size:60px;"">+</div>","","null","fixation","2021-06-05 14:30:31.457","","","","",""
"","mars-trial","14","61495","0.0-10.0-1.0","211","""event"",""trial"",""time""
""fullscreenenter"",""0"",""3573""
","
","
","""event"",""trial"",""time""
""fullscreenenter"",""0"",""3573""
","
","1567.829999999958","<img style='border: 4px solid darkgrey;' src='img/tf1_1_M_ss3.jpeg'></img>","0","","exp","","0","<img src='img/tf1_1_T1_ss3_md.jpeg'></img>","0","true",""
"","html-keyboard-response","15","61997","0.0-10.0-0.1","211","""event"",""trial"",""time""
""fullscreenenter"",""0"",""3573""
","
","
","""event"",""trial"",""time""
""fullscreenenter"",""0"",""3573""
","
","null","<div style=""font-size:60px;"">+</div>","","null","fixation","2021-06-05 14:30:34.132","","","","",""
"","mars-trial","16","64471","0.0-10.0-1.1","211","""event"",""trial"",""time""
""fullscreenenter"",""0"",""3573""
","
","
","""event"",""trial"",""time""
""fullscreenenter"",""0"",""3573""
","
","1868.575000000419","<img style='border: 4px solid darkgrey;' src='img/tf1_2_M_ss1.jpeg'></img>","0","","exp","","0","<img src='img/tf1_2_T1_ss1_md.jpeg'></img>","0","true",""
"","html-keyboard-response","17","64974","0.0-10.0-0.2","211","""event"",""trial"",""time""
""fullscreenenter"",""0"",""3573""
","
","
","""event"",""trial"",""time""
""fullscreenenter"",""0"",""3573""
","
","null","<div style=""font-size:60px;"">+</div>","","null","fixation","2021-06-05 14:30:37.108","","","","",""
"","mars-trial","18","67694","0.0-10.0-1.2","211","""event"",""trial"",""time""
""fullscreenenter"",""0"",""3573""
","
","
","""event"",""trial"",""time""
""fullscreenenter"",""0"",""3573""
","
","2112.0049999999464","<img style='border: 4px solid darkgrey;' src='img/tf1_3_M_ss2.jpeg'></img>","3","","exp","","0","<img src='img/tf1_3_T1_ss2_md.jpeg'></img>","0","true",""
"","html-keyboard-response","19","68195","0.0-10.0-0.3","211","""event"",""trial"",""time""
""fullscreenenter"",""0"",""3573""
","
","
","""event"",""trial"",""time""
""fullscreenenter"",""0"",""3573""
","
","null","<div style=""font-size:60px;"">+</div>","","null","fixation","2021-06-05 14:30:40.329","","","","",""
"","mars-trial","20","71069","0.0-10.0-1.3","211","""event"",""trial"",""time""
""fullscreenenter"",""0"",""3573""
","
","
","""event"",""trial"",""time""
""fullscreenenter"",""0"",""3573""
","
","2264.4749999999476","<img style='border: 4px solid darkgrey;' src='img/tf1_4_M_ss3.jpeg'></img>","1","","exp","","0","<img src='img/tf1_4_T1_ss3_md.jpeg'></img>","0","true",""
"","html-keyboard-response","21","71570","0.0-10.0-0.4","211","""event"",""trial"",""time""
""fullscreenenter"",""0"",""3573""
","
","
","""event"",""trial"",""time""
""fullscreenenter"",""0"",""3573""
","
","null","<div style=""font-size:60px;"">+</div>","","null","fixation","2021-06-05 14:30:43.704","","","","",""
"","mars-trial","22","74860","0.0-10.0-1.4","211","""event"",""trial"",""time""
""fullscreenenter"",""0"",""3573""
","
","
","""event"",""trial"",""time""
""fullscreenenter"",""0"",""3573""
","
","2682.389999999941","<img style='border: 4px solid darkgrey;' src='img/tf1_5_M_ss1.jpeg'></img>","1","","exp","","0","<img src='img/tf1_5_T1_ss1_md.jpeg'></img>","0","true",""
"","html-keyboard-response","23","75362","0.0-10.0-0.5","211","""event"",""trial"",""time""
""fullscreenenter"",""0"",""3573""
","
","
","""event"",""trial"",""time""
""fullscreenenter"",""0"",""3573""
","
","null","<div style=""font-size:60px;"">+</div>","","null","fixation","2021-06-05 14:30:47.496","","","","",""
"","mars-trial","24","86151","0.0-10.0-1.5","211","""event"",""trial"",""time""
""fullscreenenter"",""0"",""3573""
","
","
","""event"",""trial"",""time""
""fullscreenenter"",""0"",""3573""
","
","10182.885000000184","<img style='border: 4px solid darkgrey;' src='img/tf1_6_M_ss2.jpeg'></img>","1","","exp","","2","<img src='img/tf1_6_T1_ss2_md.jpeg'></img>","0","false",""
"","html-keyboard-response","25","86653","0.0-10.0-0.6","211","""event"",""trial"",""time""
""fullscreenenter"",""0"",""3573""
","
","
","""event"",""trial"",""time""
""fullscreenenter"",""0"",""3573""
","
","null","<div style=""font-size:60px;"">+</div>","","null","fixation","2021-06-05 14:30:58.787","","","","",""
"","mars-trial","26","91524","0.0-10.0-1.6","211","""event"",""trial"",""time""
""fullscreenenter"",""0"",""3573""
","
","
","""event"",""trial"",""time""
""fullscreenenter"",""0"",""3573""
","
","4265.240000000631","<img style='border: 4px solid darkgrey;' src='img/tf1_7_M_ss3.jpeg'></img>","1","","exp","","0","<img src='img/tf1_7_T1_ss3_md.jpeg'></img>","0","true",""
"","html-keyboard-response","27","92027","0.0-10.0-0.7","211","""event"",""trial"",""time""
""fullscreenenter"",""0"",""3573""
","
","
","""event"",""trial"",""time""
""fullscreenenter"",""0"",""3573""
","
","null","<div style=""font-size:60px;"">+</div>","","null","fixation","2021-06-05 14:31:04.161","","","","",""
"","mars-trial","28","99805","0.0-10.0-1.7","211","""event"",""trial"",""time""
""fullscreenenter"",""0"",""3573""
","
","
","""event"",""trial"",""time""
""fullscreenenter"",""0"",""3573""
","
","7169.114999999685","<img style='border: 4px solid darkgrey;' src='img/tf1_8_M_ss1.jpeg'></img>","1","","exp","","0","<img src='img/tf1_8_T1_ss1_md.jpeg'></img>","0","true",""
"","html-keyboard-response","29","100307","0.0-10.0-0.8","211","""event"",""trial"",""time""
""fullscreenenter"",""0"",""3573""
","
","
","""event"",""trial"",""time""
""fullscreenenter"",""0"",""3573""
","
","null","<div style=""font-size:60px;"">+</div>","","null","fixation","2021-06-05 14:31:12.442","","","","",""
"","mars-trial","30","105785","0.0-10.0-1.8","211","""event"",""trial"",""time""
""fullscreenenter"",""0"",""3573""
","
","
","""event"",""trial"",""time""
""fullscreenenter"",""0"",""3573""
","
","4870.99000000034","<img style='border: 4px solid darkgrey;' src='img/tf1_9_M_ss2.jpeg'></img>","0","","exp","","0","<img src='img/tf1_9_T1_ss2_md.jpeg'></img>","0","true",""
"","html-keyboard-response","31","106287","0.0-10.0-0.9","211","""event"",""trial"",""time""
""fullscreenenter"",""0"",""3573""
","
","
","""event"",""trial"",""time""
""fullscreenenter"",""0"",""3573""
","
","null","<div style=""font-size:60px;"">+</div>","","null","fixation","2021-06-05 14:31:18.421","","","","",""
"","mars-trial","32","116373","0.0-10.0-1.9","211","""event"",""trial"",""time""
""fullscreenenter"",""0"",""3573""
","
","
","""event"",""trial"",""time""
""fullscreenenter"",""0"",""3573""
","
","9480.395000000499","<img style='border: 4px solid darkgrey;' src='img/tf1_10_M_ss3.jpeg'></img>","1","","exp","","0","<img src='img/tf1_10_T1_ss3_md.jpeg'></img>","0","true",""
"","html-keyboard-response","33","116876","0.0-10.0-0.10","211","""event"",""trial"",""time""
""fullscreenenter"",""0"",""3573""
","
","
","""event"",""trial"",""time""
""fullscreenenter"",""0"",""3573""
","
","null","<div style=""font-size:60px;"">+</div>","","null","fixation","2021-06-05 14:31:29.010","","","","",""
"","mars-trial","34","124246","0.0-10.0-1.10","211","""event"",""trial"",""time""
""fullscreenenter"",""0"",""3573""
","
","
","""event"",""trial"",""time""
""fullscreenenter"",""0"",""3573""
","
","6764.375000000655","<img style='border: 4px solid darkgrey;' src='img/tf1_11_M_ss1.jpeg'></img>","1","","exp","","1","<img src='img/tf1_11_T1_ss1_md.jpeg'></img>","0","false",""
"","html-keyboard-response","35","124749","0.0-10.0-0.11","211","""event"",""trial"",""time""
""fullscreenenter"",""0"",""3573""
","
","
","""event"",""trial"",""time""
""fullscreenenter"",""0"",""3573""
","
","null","<div style=""font-size:60px;"">+</div>","","null","fixation","2021-06-05 14:31:36.883","","","","",""
"","mars-trial","36","134081","0.0-10.0-1.11","211","""event"",""trial"",""time""
""fullscreenenter"",""0"",""3573""
","
","
","""event"",""trial"",""time""
""fullscreenenter"",""0"",""3573""
","
","8722.150000000518","<img style='border: 4px solid darkgrey;' src='img/tf1_12_M_ss2.jpeg'></img>","1","","exp","","3","<img src='img/tf1_12_T1_ss2_md.jpeg'></img>","0","false",""
"","html-keyboard-response","37","134584","0.0-10.0-0.12","211","""event"",""trial"",""time""
""fullscreenenter"",""0"",""3573""
","
","
","""event"",""trial"",""time""
""fullscreenenter"",""0"",""3573""
","
","null","<div style=""font-size:60px;"">+</div>","","null","fixation","2021-06-05 14:31:46.718","","","","",""
"","mars-trial","38","141655","0.0-10.0-1.12","211","""event"",""trial"",""time""
""fullscreenenter"",""0"",""3573""
","
","
","""event"",""trial"",""time""
""fullscreenenter"",""0"",""3573""
","
","6461.830000000191","<img style='border: 4px solid darkgrey;' src='img/tf1_13_M_ss3.jpeg'></img>","1","","exp","","1","<img src='img/tf1_13_T1_ss3_md.jpeg'></img>","0","false",""
"","html-keyboard-response","39","142158","0.0-10.0-0.13","211","""event"",""trial"",""time""
""fullscreenenter"",""0"",""3573""
","
","
","""event"",""trial"",""time""
""fullscreenenter"",""0"",""3573""
","
","null","<div style=""font-size:60px;"">+</div>","","null","fixation","2021-06-05 14:31:54.292","","","","",""
"","mars-trial","40","159208","0.0-10.0-1.13","211","""event"",""trial"",""time""
""fullscreenenter"",""0"",""3573""
","
","
","""event"",""trial"",""time""
""fullscreenenter"",""0"",""3573""
","
","16443.975000000122","<img style='border: 4px solid darkgrey;' src='img/tf1_14_M_ss1.jpeg'></img>","0","","exp","","1","<img src='img/tf1_14_T1_ss1_md.jpeg'></img>","0","false",""
"","html-keyboard-response","41","159709","0.0-10.0-0.14","211","""event"",""trial"",""time""
""fullscreenenter"",""0"",""3573""
","
","
","""event"",""trial"",""time""
""fullscreenenter"",""0"",""3573""
","
","null","<div style=""font-size:60px;"">+</div>","","null","fixation","2021-06-05 14:32:11.843","","","","",""
"","mars-trial","42","176511","0.0-10.0-1.14","211","""event"",""trial"",""time""
""fullscreenenter"",""0"",""3573""
","
","
","""event"",""trial"",""time""
""fullscreenenter"",""0"",""3573""
","
","16192.825000000099","<img style='border: 4px solid darkgrey;' src='img/tf1_15_M_ss2.jpeg'></img>","1","","exp","","0","<img src='img/tf1_15_T1_ss2_md.jpeg'></img>","0","true",""
"","html-keyboard-response","43","177014","0.0-10.0-0.15","211","""event"",""trial"",""time""
""fullscreenenter"",""0"",""3573""
","
","
","""event"",""trial"",""time""
""fullscreenenter"",""0"",""3573""
","
","null","<div style=""font-size:60px;"">+</div>","","null","fixation","2021-06-05 14:32:29.148","","","","",""
"","mars-trial","44","185211","0.0-10.0-1.15","211","""event"",""trial"",""time""
""fullscreenenter"",""0"",""3573""
","
","
","""event"",""trial"",""time""
""fullscreenenter"",""0"",""3573""
","
","7587.545000000333","<img style='border: 4px solid darkgrey;' src='img/tf1_16_M_ss3.jpeg'></img>","3","","exp","","1","<img src='img/tf1_16_T1_ss3_md.jpeg'></img>","0","false",""
"","html-keyboard-response","45","185714","0.0-10.0-0.16","211","""event"",""trial"",""time""
""fullscreenenter"",""0"",""3573""
","
","
","""event"",""trial"",""time""
""fullscreenenter"",""0"",""3573""
","
","null","<div style=""font-size:60px;"">+</div>","","null","fixation","2021-06-05 14:32:37.848","","","","",""
"","mars-trial","46","205745","0.0-10.0-1.16","211","""event"",""trial"",""time""
""fullscreenenter"",""0"",""3573""
","
","
","""event"",""trial"",""time""
""fullscreenenter"",""0"",""3573""
","
","19425.470000000147","<img style='border: 4px solid darkgrey;' src='img/tf1_17_M_ss1.jpeg'></img>","1","","exp","","3","<img src='img/tf1_17_T1_ss1_md.jpeg'></img>","0","false",""
"","html-keyboard-response","47","206248","0.0-10.0-0.17","211","""event"",""trial"",""time""
""fullscreenenter"",""0"",""3573""
","
","
","""event"",""trial"",""time""
""fullscreenenter"",""0"",""3573""
","
","null","<div style=""font-size:60px;"">+</div>","","null","fixation","2021-06-05 14:32:58.382","","","","",""
"","mars-trial","48","225435","0.0-10.0-1.17","211","""event"",""trial"",""time""
""fullscreenenter"",""0"",""3573""
","
","
","""event"",""trial"",""time""
""fullscreenenter"",""0"",""3573""
","
","18577.184999999183","<img style='border: 4px solid darkgrey;' src='img/tf1_18_M_ss2.jpeg'></img>","0","","exp","","2","<img src='img/tf1_18_T1_ss2_md.jpeg'></img>","0","false",""
"","html-keyboard-response","49","225938","0.0-10.0-0.18","211","""event"",""trial"",""time""
""fullscreenenter"",""0"",""3573""
","
","
","""event"",""trial"",""time""
""fullscreenenter"",""0"",""3573""
","
","null","<div style=""font-size:60px;"">+</div>","","null","fixation","2021-06-05 14:33:18.072","","","","",""
"","mars-trial","50","237300","0.0-10.0-1.18","211","""event"",""trial"",""time""
""fullscreenenter"",""0"",""3573""
","
","
","""event"",""trial"",""time""
""fullscreenenter"",""0"",""3573""
","
","10755.839999999822","<img style='border: 4px solid darkgrey;' src='img/tf1_19_M_ss3.jpeg'></img>","2","","exp","","2","<img src='img/tf1_19_T1_ss3_md.jpeg'></img>","0","false",""
"","html-keyboard-response","51","237802","0.0-10.0-0.19","211","""event"",""trial"",""time""
""fullscreenenter"",""0"",""3573""
","
","
","""event"",""trial"",""time""
""fullscreenenter"",""0"",""3573""
","
","null","<div style=""font-size:60px;"">+</div>","","null","fixation","2021-06-05 14:33:29.936","","","","",""
"","mars-trial","52","254894","0.0-10.0-1.19","211","""event"",""trial"",""time""
""fullscreenenter"",""0"",""3573""
","
","
","""event"",""trial"",""time""
""fullscreenenter"",""0"",""3573""
","
","16484.2350000008","<img style='border: 4px solid darkgrey;' src='img/tf1_20_M_ss1.jpeg'></img>","2","","exp","","0","<img src='img/tf1_20_T1_ss1_md.jpeg'></img>","0","true",""
"","html-keyboard-response","53","255395","0.0-10.0-0.20","211","""event"",""trial"",""time""
""fullscreenenter"",""0"",""3573""
","
","
","""event"",""trial"",""time""
""fullscreenenter"",""0"",""3573""
","
","null","<div style=""font-size:60px;"">+</div>","","null","fixation","2021-06-05 14:33:47.530","","","","",""
"","mars-trial","54","279974","0.0-10.0-1.20","211","""event"",""trial"",""time""
""fullscreenenter"",""0"",""3573""
","
","
","""event"",""trial"",""time""
""fullscreenenter"",""0"",""3573""
","
","23970.459999999555","<img style='border: 4px solid darkgrey;' src='img/tf1_21_M_ss2.jpeg'></img>","2","","exp","","2","<img src='img/tf1_21_T1_ss2_md.jpeg'></img>","0","false",""
"","html-keyboard-response","55","280477","0.0-10.0-0.21","211","""event"",""trial"",""time""
""fullscreenenter"",""0"",""3573""
","
","
","""event"",""trial"",""time""
""fullscreenenter"",""0"",""3573""
","
","null","<div style=""font-size:60px;"">+</div>","","null","fixation","2021-06-05 14:34:12.611","","","","",""
"","mars-trial","56","285947","0.0-10.0-1.21","211","""event"",""trial"",""time""
""fullscreenenter"",""0"",""3573""
","
","
","""event"",""trial"",""time""
""fullscreenenter"",""0"",""3573""
","
","4864.36000000051","<img style='border: 4px solid darkgrey;' src='img/tf1_22_M_ss3.jpeg'></img>","2","","exp","","3","<img src='img/tf1_22_T1_ss3_md.jpeg'></img>","0","false",""
"","html-keyboard-response","57","286450","0.0-10.0-0.22","211","""event"",""trial"",""time""
""fullscreenenter"",""0"",""3573""
","
","
","""event"",""trial"",""time""
""fullscreenenter"",""0"",""3573""
","
","null","<div style=""font-size:60px;"">+</div>","","null","fixation","2021-06-05 14:34:18.584","","","","",""
"","mars-trial","58","306597","0.0-10.0-1.22","211","""event"",""trial"",""time""
""fullscreenenter"",""0"",""3573""
","
","
","""event"",""trial"",""time""
""fullscreenenter"",""0"",""3573""
","
","19540.135000000184","<img style='border: 4px solid darkgrey;' src='img/tf1_23_M_ss1.jpeg'></img>","1","","exp","","1","<img src='img/tf1_23_T1_ss1_md.jpeg'></img>","0","false",""
"","html-keyboard-response","59","307099","0.0-10.0-0.23","211","""event"",""trial"",""time""
""fullscreenenter"",""0"",""3573""
","
","
","""event"",""trial"",""time""
""fullscreenenter"",""0"",""3573""
","
","null","<div style=""font-size:60px;"">+</div>","","null","fixation","2021-06-05 14:34:39.233","","","","",""
"","mars-trial","60","331106","0.0-10.0-1.23","211","""event"",""trial"",""time""
""fullscreenenter"",""0"",""3573""
","
","
","""event"",""trial"",""time""
""fullscreenenter"",""0"",""3573""
","
","23390.29500000016","<img style='border: 4px solid darkgrey;' src='img/tf1_24_M_ss2.jpeg'></img>","3","","exp","","2","<img src='img/tf1_24_T1_ss2_md.jpeg'></img>","0","false",""
"","html-keyboard-response","61","331609","0.0-10.0-0.24","211","""event"",""trial"",""time""
""fullscreenenter"",""0"",""3573""
","
","
","""event"",""trial"",""time""
""fullscreenenter"",""0"",""3573""
","
","null","<div style=""font-size:60px;"">+</div>","","null","fixation","2021-06-05 14:35:03.743","","","","",""
"","mars-trial","62","344769","0.0-10.0-1.24","211","""event"",""trial"",""time""
""fullscreenenter"",""0"",""3573""
","
","
","""event"",""trial"",""time""
""fullscreenenter"",""0"",""3573""
","
","12548.27999999997","<img style='border: 4px solid darkgrey;' src='img/tf1_25_M_ss3.jpeg'></img>","3","","exp","","1","<img src='img/tf1_25_T1_ss3_md.jpeg'></img>","0","false",""
"","html-keyboard-response","63","345273","0.0-10.0-0.25","211","""event"",""trial"",""time""
""fullscreenenter"",""0"",""3573""
","
","
","""event"",""trial"",""time""
""fullscreenenter"",""0"",""3573""
","
","null","<div style=""font-size:60px;"">+</div>","","null","fixation","2021-06-05 14:35:17.407","","","","",""
"","mars-trial","64","352076","0.0-10.0-1.25","211","""event"",""trial"",""time""
""fullscreenenter"",""0"",""3573""
","
","
","""event"",""trial"",""time""
""fullscreenenter"",""0"",""3573""
","
","6196.504999999888","<img style='border: 4px solid darkgrey;' src='img/tf1_26_M_ss1.jpeg'></img>","0","","exp","","2","<img src='img/tf1_26_T1_ss1_md.jpeg'></img>","0","false",""
"","html-keyboard-response","65","352578","0.0-10.0-0.26","211","""event"",""trial"",""time""
""fullscreenenter"",""0"",""3573""
","
","
","""event"",""trial"",""time""
""fullscreenenter"",""0"",""3573""
","
","null","<div style=""font-size:60px;"">+</div>","","null","fixation","2021-06-05 14:35:24.712","","","","",""
"","mars-trial","66","380877","0.0-10.0-1.26","211","""event"",""trial"",""time""
""fullscreenenter"",""0"",""3573""
","
","
","""event"",""trial"",""time""
""fullscreenenter"",""0"",""3573""
","
","27690.570000000647","<img style='border: 4px solid darkgrey;' src='img/tf1_27_M_ss2.jpeg'></img>","1","","exp","","0","<img src='img/tf1_27_T1_ss2_md.jpeg'></img>","0","true",""
"","html-keyboard-response","67","381379","0.0-10.0-0.27","211","""event"",""trial"",""time""
""fullscreenenter"",""0"",""3573""
","
","
","""event"",""trial"",""time""
""fullscreenenter"",""0"",""3573""
","
","null","<div style=""font-size:60px;"">+</div>","","null","fixation","2021-06-05 14:35:53.513","","","","",""
"","mars-trial","68","411487","0.0-10.0-1.27","211","""event"",""trial"",""time""
""fullscreenenter"",""0"",""3573""
","
","
","""event"",""trial"",""time""
""fullscreenenter"",""0"",""3573""
","
","null","<img style='border: 4px solid darkgrey;' src='img/tf1_28_M_ss3.jpeg'></img>","null","","exp","","null","<img src='img/tf1_28_T1_ss3_md.jpeg'></img>","0","false",""
"","html-keyboard-response","69","411992","0.0-10.0-0.28","211","""event"",""trial"",""time""
""fullscreenenter"",""0"",""3573""
","
","
","""event"",""trial"",""time""
""fullscreenenter"",""0"",""3573""
","
","null","<div style=""font-size:60px;"">+</div>","","null","fixation","2021-06-05 14:36:24.126","","","","",""
"","mars-trial","70","423674","0.0-10.0-1.28","211","""event"",""trial"",""time""
""fullscreenenter"",""0"",""3573""
","
","
","""event"",""trial"",""time""
""fullscreenenter"",""0"",""3573""
","
","11072.664999999688","<img style='border: 4px solid darkgrey;' src='img/tf1_29_M_ss1.jpeg'></img>","2","","exp","","0","<img src='img/tf1_29_T1_ss1_md.jpeg'></img>","0","true",""
"","html-keyboard-response","71","424176","0.0-10.0-0.29","211","""event"",""trial"",""time""
""fullscreenenter"",""0"",""3573""
","
","
","""event"",""trial"",""time""
""fullscreenenter"",""0"",""3573""
","
","null","<div style=""font-size:60px;"">+</div>","","null","fixation","2021-06-05 14:36:36.310","","","","",""
"","mars-trial","72","435633","0.0-10.0-1.29","211","""event"",""trial"",""time""
""fullscreenenter"",""0"",""3573""
","
","
","""event"",""trial"",""time""
""fullscreenenter"",""0"",""3573""
","
","10845.45000000071","<img style='border: 4px solid darkgrey;' src='img/tf1_30_M_ss2.jpeg'></img>","1","","exp","","1","<img src='img/tf1_30_T1_ss2_md.jpeg'></img>","0","false",""
"","html-keyboard-response","73","436135","0.0-10.0-0.30","211","""event"",""trial"",""time""
""fullscreenenter"",""0"",""3573""
","
","
","""event"",""trial"",""time""
""fullscreenenter"",""0"",""3573""
","
","null","<div style=""font-size:60px;"">+</div>","","null","fixation","2021-06-05 14:36:48.269","","","","",""
"","mars-trial","74","449983","0.0-10.0-1.30","211","""event"",""trial"",""time""
""fullscreenenter"",""0"",""3573""
","
","
","""event"",""trial"",""time""
""fullscreenenter"",""0"",""3573""
","
","13238.370000000054","<img style='border: 4px solid darkgrey;' src='img/tf1_31_M_ss3.jpeg'></img>","3","","exp","","1","<img src='img/tf1_31_T1_ss3_md.jpeg'></img>","0","false",""
"","html-keyboard-response","75","450486","0.0-10.0-0.31","211","""event"",""trial"",""time""
""fullscreenenter"",""0"",""3573""
","
","
","""event"",""trial"",""time""
""fullscreenenter"",""0"",""3573""
","
","null","<div style=""font-size:60px;"">+</div>","","null","fixation","2021-06-05 14:37:02.620","","","","",""
"","mars-trial","76","459792","0.0-10.0-1.31","211","""event"",""trial"",""time""
""fullscreenenter"",""0"",""3573""
","
","
","""event"",""trial"",""time""
""fullscreenenter"",""0"",""3573""
","
","8696.865000000806","<img style='border: 4px solid darkgrey;' src='img/tf1_32_M_ss1.jpeg'></img>","2","","exp","","0","<img src='img/tf1_32_T1_ss1_md.jpeg'></img>","0","true",""
"","html-keyboard-response","77","460294","0.0-10.0-0.32","211","""event"",""trial"",""time""
""fullscreenenter"",""0"",""3573""
","
","
","""event"",""trial"",""time""
""fullscreenenter"",""0"",""3573""
","
","null","<div style=""font-size:60px;"">+</div>","","null","fixation","2021-06-05 14:37:12.428","","","","",""
"","mars-trial","78","478373","0.0-10.0-1.32","211","""event"",""trial"",""time""
""fullscreenenter"",""0"",""3573""
","
","
","""event"",""trial"",""time""
""fullscreenenter"",""0"",""3573""
","
","17472.21999999968","<img style='border: 4px solid darkgrey;' src='img/tf1_33_M_ss2.jpeg'></img>","3","","exp","","3","<img src='img/tf1_33_T1_ss2_md.jpeg'></img>","0","false",""
"","html-keyboard-response","79","478875","0.0-10.0-0.33","211","""event"",""trial"",""time""
""fullscreenenter"",""0"",""3573""
","
","
","""event"",""trial"",""time""
""fullscreenenter"",""0"",""3573""
","
","null","<div style=""font-size:60px;"">+</div>","","null","fixation","2021-06-05 14:37:31.009","","","","",""
"","mars-trial","80","497725","0.0-10.0-1.33","211","""event"",""trial"",""time""
""fullscreenenter"",""0"",""3573""
","
","
","""event"",""trial"",""time""
""fullscreenenter"",""0"",""3573""
","
","18242.105000000272","<img style='border: 4px solid darkgrey;' src='img/tf1_34_M_ss3.jpeg'></img>","2","","exp","","3","<img src='img/tf1_34_T1_ss3_md.jpeg'></img>","0","false",""
"","html-keyboard-response","81","498227","0.0-10.0-0.34","211","""event"",""trial"",""time""
""fullscreenenter"",""0"",""3573""
","
","
","""event"",""trial"",""time""
""fullscreenenter"",""0"",""3573""
","
","null","<div style=""font-size:60px;"">+</div>","","null","fixation","2021-06-05 14:37:50.361","","","","",""
"","mars-trial","82","525343","0.0-10.0-1.34","211","""event"",""trial"",""time""
""fullscreenenter"",""0"",""3573""
","
","
","""event"",""trial"",""time""
""fullscreenenter"",""0"",""3573""
","
","26505.489999999525","<img style='border: 4px solid darkgrey;' src='img/tf1_35_M_ss1.jpeg'></img>","3","","exp","","2","<img src='img/tf1_35_T1_ss1_md.jpeg'></img>","0","false",""
"","html-keyboard-response","83","525846","0.0-10.0-0.35","211","""event"",""trial"",""time""
""fullscreenenter"",""0"",""3573""
","
","
","""event"",""trial"",""time""
""fullscreenenter"",""0"",""3573""
","
","null","<div style=""font-size:60px;"">+</div>","","null","fixation","2021-06-05 14:38:17.980","","","","",""
"","mars-trial","84","538852","0.0-10.0-1.35","211","""event"",""trial"",""time""
""fullscreenenter"",""0"",""3573""
","
","
","""event"",""trial"",""time""
""fullscreenenter"",""0"",""3573""
","
","","","","","exp","","","<img src='img/tf1_36_T1_ss2_md.jpeg'></img>","0","false",""
"","html-keyboard-response","85","539357","0.0-10.0-0.36","211","""event"",""trial"",""time""
""fullscreenenter"",""0"",""3573""
","
","
","""event"",""trial"",""time""
""fullscreenenter"",""0"",""3573""
","
","null","<div style=""font-size:60px;"">+</div>","","null","fixation","2021-06-05 14:38:31.491","","","","",""
"","audio-button-response","86","543076","0.0-11.0","211","""event"",""trial"",""time""
""fullscreenenter"",""0"",""3573""
","
","
","""event"",""trial"",""time""
""fullscreenenter"",""0"",""3573""
","
","3614.0150000001304","audio/mars_instructions_slide5.wav","0","","","","","","","",""
