"success","trial_type","trial_index","time_elapsed","internal_node_id","subject_id","interactions","blur_events","focus_events","fullscreenenter_events","fullscreenexit_events","rt","stimulus","button_pressed","key_press","part","timestamp","unshuffled_button","correct_response","correct_button","correct","value"
"true","fullscreen","0","8507","0.0-0.0","570","""event"",""trial"",""time""
""fullscreenenter"",""0"",""7532""
","
","
","""event"",""trial"",""time""
""fullscreenenter"",""0"",""7532""
","
","","","","","","","","","","",""
"","pavlovia","1","8513","0.0-1.0","570","""event"",""trial"",""time""
""fullscreenenter"",""0"",""7532""
","
","
","""event"",""trial"",""time""
""fullscreenenter"",""0"",""7532""
","
","","","","","","","","","","",""
"","html-button-response","2","10583","0.0-2.0","570","""event"",""trial"",""time""
""fullscreenenter"",""0"",""7532""
","
","
","""event"",""trial"",""time""
""fullscreenenter"",""0"",""7532""
","
","2068.199999809265","<p>Welcome! Press START to begin.</p><br>","0","","","","","","","",""
"","audio-button-response","3","27529","0.0-3.0","570","""event"",""trial"",""time""
""fullscreenenter"",""0"",""7532""
","
","
","""event"",""trial"",""time""
""fullscreenenter"",""0"",""7532""
","
","16943.5","audio/mars_instructions_slide2.wav","0","","","","","","","",""
"","audio-button-response","4","44287","0.0-4.0","570","""event"",""trial"",""time""
""fullscreenenter"",""0"",""7532""
","
","
","""event"",""trial"",""time""
""fullscreenenter"",""0"",""7532""
","
","16756.299999713898","audio/mars_instructions_slide3.wav","0","","","","","","","",""
"","html-keyboard-response","5","44801","0.0-5.0-0.0","570","""event"",""trial"",""time""
""fullscreenenter"",""0"",""7532""
","
","
","""event"",""trial"",""time""
""fullscreenenter"",""0"",""7532""
","
","null","<div style=""font-size:60px;"">+</div>","","null","fixation","2021-06-23 18:25:57.238","","","","",""
"","mars-trial","6","61257","0.0-5.0-1.0","570","""event"",""trial"",""time""
""fullscreenenter"",""0"",""7532""
","
","
","""event"",""trial"",""time""
""fullscreenenter"",""0"",""7532""
","
","14339","<img style='border: 4px solid darkgrey;' src='practice/pt1_M1.png'></img>","0","","practice","","0","<img src='practice/pt1_T1.png'></img>","0","true",""
"","html-keyboard-response","7","61771","0.0-6.0-0.0","570","""event"",""trial"",""time""
""fullscreenenter"",""0"",""7532""
","
","
","""event"",""trial"",""time""
""fullscreenenter"",""0"",""7532""
","
","null","<div style=""font-size:60px;"">+</div>","","null","fixation","2021-06-23 18:26:14.208","","","","",""
"","mars-trial","8","67147","0.0-6.0-1.0","570","""event"",""trial"",""time""
""fullscreenenter"",""0"",""7532""
","
","
","""event"",""trial"",""time""
""fullscreenenter"",""0"",""7532""
","
","3268.7000002861023","<img style='border: 4px solid darkgrey;' src='practice/pt2_M1.png'></img>","0","","practice","","0","<img src='practice/pt2_T1.png'></img>","0","true",""
"","html-keyboard-response","9","67653","0.0-7.0-0.0","570","""event"",""trial"",""time""
""fullscreenenter"",""0"",""7532""
","
","
","""event"",""trial"",""time""
""fullscreenenter"",""0"",""7532""
","
","null","<div style=""font-size:60px;"">+</div>","","null","fixation","2021-06-23 18:26:20.090","","","","",""
"","mars-trial","10","72205","0.0-7.0-1.0","570","""event"",""trial"",""time""
""fullscreenenter"",""0"",""7532""
","
","
","""event"",""trial"",""time""
""fullscreenenter"",""0"",""7532""
","
","2442.2000002861023","<img style='border: 4px solid darkgrey;' src='practice/pt3_M1.png'></img>","3","","practice","","0","<img src='practice/pt3_T1.png'></img>","0","true",""
"","audio-button-response","11","76746","0.0-8.0","570","""event"",""trial"",""time""
""fullscreenenter"",""0"",""7532""
","
","
","""event"",""trial"",""time""
""fullscreenenter"",""0"",""7532""
","
","4539.5","audio/mars_instructions_slide4.wav","0","","","","","","","",""
"","call-function","12","76747","0.0-9.0","570","""event"",""trial"",""time""
""fullscreenenter"",""0"",""7532""
","
","
","""event"",""trial"",""time""
""fullscreenenter"",""0"",""7532""
","
","","","","","","","","","","",""
"","html-keyboard-response","13","77250","0.0-10.0-0.0","570","""event"",""trial"",""time""
""fullscreenenter"",""0"",""7532""
","
","
","""event"",""trial"",""time""
""fullscreenenter"",""0"",""7532""
","
","null","<div style=""font-size:60px;"">+</div>","","null","fixation","2021-06-23 18:26:29.687","","","","",""
"","mars-trial","14","79484","0.0-10.0-1.0","570","""event"",""trial"",""time""
""fullscreenenter"",""0"",""7532""
","
","
","""event"",""trial"",""time""
""fullscreenenter"",""0"",""7532""
","
","1625.6999998092651","<img style='border: 4px solid darkgrey;' src='img/tf1_1_M_ss3.jpeg'></img>","2","","exp","","0","<img src='img/tf1_1_T1_ss3_md.jpeg'></img>","0","true",""
"","html-keyboard-response","15","79988","0.0-10.0-0.1","570","""event"",""trial"",""time""
""fullscreenenter"",""0"",""7532""
","
","
","""event"",""trial"",""time""
""fullscreenenter"",""0"",""7532""
","
","null","<div style=""font-size:60px;"">+</div>","","null","fixation","2021-06-23 18:26:32.425","","","","",""
"","mars-trial","16","82432","0.0-10.0-1.1","570","""event"",""trial"",""time""
""fullscreenenter"",""0"",""7532""
","
","
","""event"",""trial"",""time""
""fullscreenenter"",""0"",""7532""
","
","1833.2999997138977","<img style='border: 4px solid darkgrey;' src='img/tf1_2_M_ss1.jpeg'></img>","3","","exp","","0","<img src='img/tf1_2_T1_ss1_md.jpeg'></img>","0","true",""
"","html-keyboard-response","17","82938","0.0-10.0-0.2","570","""event"",""trial"",""time""
""fullscreenenter"",""0"",""7532""
","
","
","""event"",""trial"",""time""
""fullscreenenter"",""0"",""7532""
","
","null","<div style=""font-size:60px;"">+</div>","","null","fixation","2021-06-23 18:26:35.375","","","","",""
"","mars-trial","18","86796","0.0-10.0-1.2","570","""event"",""trial"",""time""
""fullscreenenter"",""0"",""7532""
","
","
","""event"",""trial"",""time""
""fullscreenenter"",""0"",""7532""
","
","3251.5999999046326","<img style='border: 4px solid darkgrey;' src='img/tf1_3_M_ss2.jpeg'></img>","1","","exp","","0","<img src='img/tf1_3_T1_ss2_md.jpeg'></img>","0","true",""
"","html-keyboard-response","19","87299","0.0-10.0-0.3","570","""event"",""trial"",""time""
""fullscreenenter"",""0"",""7532""
","
","
","""event"",""trial"",""time""
""fullscreenenter"",""0"",""7532""
","
","null","<div style=""font-size:60px;"">+</div>","","null","fixation","2021-06-23 18:26:39.736","","","","",""
"","mars-trial","20","90826","0.0-10.0-1.3","570","""event"",""trial"",""time""
""fullscreenenter"",""0"",""7532""
","
","
","""event"",""trial"",""time""
""fullscreenenter"",""0"",""7532""
","
","2918.8999996185303","<img style='border: 4px solid darkgrey;' src='img/tf1_4_M_ss3.jpeg'></img>","1","","exp","","0","<img src='img/tf1_4_T1_ss3_md.jpeg'></img>","0","true",""
"","html-keyboard-response","21","91329","0.0-10.0-0.4","570","""event"",""trial"",""time""
""fullscreenenter"",""0"",""7532""
","
","
","""event"",""trial"",""time""
""fullscreenenter"",""0"",""7532""
","
","null","<div style=""font-size:60px;"">+</div>","","null","fixation","2021-06-23 18:26:43.766","","","","",""
"","mars-trial","22","94563","0.0-10.0-1.4","570","""event"",""trial"",""time""
""fullscreenenter"",""0"",""7532""
","
","
","""event"",""trial"",""time""
""fullscreenenter"",""0"",""7532""
","
","2615.2999997138977","<img style='border: 4px solid darkgrey;' src='img/tf1_5_M_ss1.jpeg'></img>","0","","exp","","0","<img src='img/tf1_5_T1_ss1_md.jpeg'></img>","0","true",""
"","html-keyboard-response","23","95066","0.0-10.0-0.5","570","""event"",""trial"",""time""
""fullscreenenter"",""0"",""7532""
","
","
","""event"",""trial"",""time""
""fullscreenenter"",""0"",""7532""
","
","null","<div style=""font-size:60px;"">+</div>","","null","fixation","2021-06-23 18:26:47.503","","","","",""
"","mars-trial","24","101189","0.0-10.0-1.5","570","""event"",""trial"",""time""
""fullscreenenter"",""0"",""7532""
","
","
","""event"",""trial"",""time""
""fullscreenenter"",""0"",""7532""
","
","5515.599999904633","<img style='border: 4px solid darkgrey;' src='img/tf1_6_M_ss2.jpeg'></img>","0","","exp","","2","<img src='img/tf1_6_T1_ss2_md.jpeg'></img>","0","false",""
"","html-keyboard-response","25","101693","0.0-10.0-0.6","570","""event"",""trial"",""time""
""fullscreenenter"",""0"",""7532""
","
","
","""event"",""trial"",""time""
""fullscreenenter"",""0"",""7532""
","
","null","<div style=""font-size:60px;"">+</div>","","null","fixation","2021-06-23 18:26:54.130","","","","",""
"","mars-trial","26","107094","0.0-10.0-1.6","570","""event"",""trial"",""time""
""fullscreenenter"",""0"",""7532""
","
","
","""event"",""trial"",""time""
""fullscreenenter"",""0"",""7532""
","
","4795.599999904633","<img style='border: 4px solid darkgrey;' src='img/tf1_7_M_ss3.jpeg'></img>","1","","exp","","0","<img src='img/tf1_7_T1_ss3_md.jpeg'></img>","0","true",""
"","html-keyboard-response","27","107596","0.0-10.0-0.7","570","""event"",""trial"",""time""
""fullscreenenter"",""0"",""7532""
","
","
","""event"",""trial"",""time""
""fullscreenenter"",""0"",""7532""
","
","null","<div style=""font-size:60px;"">+</div>","","null","fixation","2021-06-23 18:27:00.033","","","","",""
"","mars-trial","28","109939","0.0-10.0-1.7","570","""event"",""trial"",""time""
""fullscreenenter"",""0"",""7532""
","
","
","""event"",""trial"",""time""
""fullscreenenter"",""0"",""7532""
","
","1726.3000001907349","<img style='border: 4px solid darkgrey;' src='img/tf1_8_M_ss1.jpeg'></img>","3","","exp","","2","<img src='img/tf1_8_T1_ss1_md.jpeg'></img>","0","false",""
"","html-keyboard-response","29","110442","0.0-10.0-0.8","570","""event"",""trial"",""time""
""fullscreenenter"",""0"",""7532""
","
","
","""event"",""trial"",""time""
""fullscreenenter"",""0"",""7532""
","
","null","<div style=""font-size:60px;"">+</div>","","null","fixation","2021-06-23 18:27:02.879","","","","",""
"","mars-trial","30","117091","0.0-10.0-1.8","570","""event"",""trial"",""time""
""fullscreenenter"",""0"",""7532""
","
","
","""event"",""trial"",""time""
""fullscreenenter"",""0"",""7532""
","
","6045.599999904633","<img style='border: 4px solid darkgrey;' src='img/tf1_9_M_ss2.jpeg'></img>","1","","exp","","2","<img src='img/tf1_9_T1_ss2_md.jpeg'></img>","0","false",""
"","html-keyboard-response","31","117597","0.0-10.0-0.9","570","""event"",""trial"",""time""
""fullscreenenter"",""0"",""7532""
","
","
","""event"",""trial"",""time""
""fullscreenenter"",""0"",""7532""
","
","null","<div style=""font-size:60px;"">+</div>","","null","fixation","2021-06-23 18:27:10.034","","","","",""
"","mars-trial","32","125194","0.0-10.0-1.9","570","""event"",""trial"",""time""
""fullscreenenter"",""0"",""7532""
","
","
","""event"",""trial"",""time""
""fullscreenenter"",""0"",""7532""
","
","6988","<img style='border: 4px solid darkgrey;' src='img/tf1_10_M_ss3.jpeg'></img>","0","","exp","","0","<img src='img/tf1_10_T1_ss3_md.jpeg'></img>","0","true",""
"","html-keyboard-response","33","125698","0.0-10.0-0.10","570","""event"",""trial"",""time""
""fullscreenenter"",""0"",""7532""
","
","
","""event"",""trial"",""time""
""fullscreenenter"",""0"",""7532""
","
","null","<div style=""font-size:60px;"">+</div>","","null","fixation","2021-06-23 18:27:18.135","","","","",""
"","mars-trial","34","129302","0.0-10.0-1.10","570","""event"",""trial"",""time""
""fullscreenenter"",""0"",""7532""
","
","
","""event"",""trial"",""time""
""fullscreenenter"",""0"",""7532""
","
","2997.5","<img style='border: 4px solid darkgrey;' src='img/tf1_11_M_ss1.jpeg'></img>","3","","exp","","2","<img src='img/tf1_11_T1_ss1_md.jpeg'></img>","0","false",""
"","html-keyboard-response","35","129811","0.0-10.0-0.11","570","""event"",""trial"",""time""
""fullscreenenter"",""0"",""7532""
","
","
","""event"",""trial"",""time""
""fullscreenenter"",""0"",""7532""
","
","null","<div style=""font-size:60px;"">+</div>","","null","fixation","2021-06-23 18:27:22.248","","","","",""
"","mars-trial","36","134799","0.0-10.0-1.11","570","""event"",""trial"",""time""
""fullscreenenter"",""0"",""7532""
","
","
","""event"",""trial"",""time""
""fullscreenenter"",""0"",""7532""
","
","4375","<img style='border: 4px solid darkgrey;' src='img/tf1_12_M_ss2.jpeg'></img>","1","","exp","","1","<img src='img/tf1_12_T1_ss2_md.jpeg'></img>","0","false",""
"","html-keyboard-response","37","135304","0.0-10.0-0.12","570","""event"",""trial"",""time""
""fullscreenenter"",""0"",""7532""
","
","
","""event"",""trial"",""time""
""fullscreenenter"",""0"",""7532""
","
","null","<div style=""font-size:60px;"">+</div>","","null","fixation","2021-06-23 18:27:27.741","","","","",""
"","mars-trial","38","138578","0.0-10.0-1.12","570","""event"",""trial"",""time""
""fullscreenenter"",""0"",""7532""
","
","
","""event"",""trial"",""time""
""fullscreenenter"",""0"",""7532""
","
","2666","<img style='border: 4px solid darkgrey;' src='img/tf1_13_M_ss3.jpeg'></img>","2","","exp","","0","<img src='img/tf1_13_T1_ss3_md.jpeg'></img>","0","true",""
"","html-keyboard-response","39","139087","0.0-10.0-0.13","570","""event"",""trial"",""time""
""fullscreenenter"",""0"",""7532""
","
","
","""event"",""trial"",""time""
""fullscreenenter"",""0"",""7532""
","
","null","<div style=""font-size:60px;"">+</div>","","null","fixation","2021-06-23 18:27:31.525","","","","",""
"","mars-trial","40","141967","0.0-10.0-1.13","570","""event"",""trial"",""time""
""fullscreenenter"",""0"",""7532""
","
","
","""event"",""trial"",""time""
""fullscreenenter"",""0"",""7532""
","
","2273.4000000953674","<img style='border: 4px solid darkgrey;' src='img/tf1_14_M_ss1.jpeg'></img>","0","","exp","","0","<img src='img/tf1_14_T1_ss1_md.jpeg'></img>","0","true",""
"","html-keyboard-response","41","142483","0.0-10.0-0.14","570","""event"",""trial"",""time""
""fullscreenenter"",""0"",""7532""
","
","
","""event"",""trial"",""time""
""fullscreenenter"",""0"",""7532""
","
","null","<div style=""font-size:60px;"">+</div>","","null","fixation","2021-06-23 18:27:34.920","","","","",""
"","mars-trial","42","148200","0.0-10.0-1.14","570","""event"",""trial"",""time""
""fullscreenenter"",""0"",""7532""
","
","
","""event"",""trial"",""time""
""fullscreenenter"",""0"",""7532""
","
","5109.39999961853","<img style='border: 4px solid darkgrey;' src='img/tf1_15_M_ss2.jpeg'></img>","2","","exp","","3","<img src='img/tf1_15_T1_ss2_md.jpeg'></img>","0","false",""
"","html-keyboard-response","43","148702","0.0-10.0-0.15","570","""event"",""trial"",""time""
""fullscreenenter"",""0"",""7532""
","
","
","""event"",""trial"",""time""
""fullscreenenter"",""0"",""7532""
","
","null","<div style=""font-size:60px;"">+</div>","","null","fixation","2021-06-23 18:27:41.139","","","","",""
"","mars-trial","44","152855","0.0-10.0-1.15","570","""event"",""trial"",""time""
""fullscreenenter"",""0"",""7532""
","
","
","""event"",""trial"",""time""
""fullscreenenter"",""0"",""7532""
","
","3546.9000000953674","<img style='border: 4px solid darkgrey;' src='img/tf1_16_M_ss3.jpeg'></img>","3","","exp","","2","<img src='img/tf1_16_T1_ss3_md.jpeg'></img>","0","false",""
"","html-keyboard-response","45","153357","0.0-10.0-0.16","570","""event"",""trial"",""time""
""fullscreenenter"",""0"",""7532""
","
","
","""event"",""trial"",""time""
""fullscreenenter"",""0"",""7532""
","
","null","<div style=""font-size:60px;"">+</div>","","null","fixation","2021-06-23 18:27:45.794","","","","",""
"","mars-trial","46","157154","0.0-10.0-1.16","570","""event"",""trial"",""time""
""fullscreenenter"",""0"",""7532""
","
","
","""event"",""trial"",""time""
""fullscreenenter"",""0"",""7532""
","
","3191.0999999046326","<img style='border: 4px solid darkgrey;' src='img/tf1_17_M_ss1.jpeg'></img>","2","","exp","","0","<img src='img/tf1_17_T1_ss1_md.jpeg'></img>","0","true",""
"","html-keyboard-response","47","157656","0.0-10.0-0.17","570","""event"",""trial"",""time""
""fullscreenenter"",""0"",""7532""
","
","
","""event"",""trial"",""time""
""fullscreenenter"",""0"",""7532""
","
","null","<div style=""font-size:60px;"">+</div>","","null","fixation","2021-06-23 18:27:50.093","","","","",""
"","mars-trial","48","162014","0.0-10.0-1.17","570","""event"",""trial"",""time""
""fullscreenenter"",""0"",""7532""
","
","
","""event"",""trial"",""time""
""fullscreenenter"",""0"",""7532""
","
","3739.5999999046326","<img style='border: 4px solid darkgrey;' src='img/tf1_18_M_ss2.jpeg'></img>","2","","exp","","2","<img src='img/tf1_18_T1_ss2_md.jpeg'></img>","0","false",""
"","html-keyboard-response","49","162518","0.0-10.0-0.18","570","""event"",""trial"",""time""
""fullscreenenter"",""0"",""7532""
","
","
","""event"",""trial"",""time""
""fullscreenenter"",""0"",""7532""
","
","null","<div style=""font-size:60px;"">+</div>","","null","fixation","2021-06-23 18:27:54.955","","","","",""
"","mars-trial","50","166068","0.0-10.0-1.18","570","""event"",""trial"",""time""
""fullscreenenter"",""0"",""7532""
","
","
","""event"",""trial"",""time""
""fullscreenenter"",""0"",""7532""
","
","2944.800000190735","<img style='border: 4px solid darkgrey;' src='img/tf1_19_M_ss3.jpeg'></img>","0","","exp","","3","<img src='img/tf1_19_T1_ss3_md.jpeg'></img>","0","false",""
"","html-keyboard-response","51","166570","0.0-10.0-0.19","570","""event"",""trial"",""time""
""fullscreenenter"",""0"",""7532""
","
","
","""event"",""trial"",""time""
""fullscreenenter"",""0"",""7532""
","
","null","<div style=""font-size:60px;"">+</div>","","null","fixation","2021-06-23 18:27:59.007","","","","",""
"","mars-trial","52","169662","0.0-10.0-1.19","570","""event"",""trial"",""time""
""fullscreenenter"",""0"",""7532""
","
","
","""event"",""trial"",""time""
""fullscreenenter"",""0"",""7532""
","
","2481.5","<img style='border: 4px solid darkgrey;' src='img/tf1_20_M_ss1.jpeg'></img>","3","","exp","","2","<img src='img/tf1_20_T1_ss1_md.jpeg'></img>","0","false",""
"","html-keyboard-response","53","170164","0.0-10.0-0.20","570","""event"",""trial"",""time""
""fullscreenenter"",""0"",""7532""
","
","
","""event"",""trial"",""time""
""fullscreenenter"",""0"",""7532""
","
","null","<div style=""font-size:60px;"">+</div>","","null","fixation","2021-06-23 18:28:02.601","","","","",""
"","mars-trial","54","172695","0.0-10.0-1.20","570","""event"",""trial"",""time""
""fullscreenenter"",""0"",""7532""
","
","
","""event"",""trial"",""time""
""fullscreenenter"",""0"",""7532""
","
","1922.4000000953674","<img style='border: 4px solid darkgrey;' src='img/tf1_21_M_ss2.jpeg'></img>","2","","exp","","0","<img src='img/tf1_21_T1_ss2_md.jpeg'></img>","0","true",""
"","html-keyboard-response","55","173200","0.0-10.0-0.21","570","""event"",""trial"",""time""
""fullscreenenter"",""0"",""7532""
","
","
","""event"",""trial"",""time""
""fullscreenenter"",""0"",""7532""
","
","null","<div style=""font-size:60px;"">+</div>","","null","fixation","2021-06-23 18:28:05.637","","","","",""
"","mars-trial","56","176163","0.0-10.0-1.21","570","""event"",""trial"",""time""
""fullscreenenter"",""0"",""7532""
","
","
","""event"",""trial"",""time""
""fullscreenenter"",""0"",""7532""
","
","2354.8999996185303","<img style='border: 4px solid darkgrey;' src='img/tf1_22_M_ss3.jpeg'></img>","1","","exp","","0","<img src='img/tf1_22_T1_ss3_md.jpeg'></img>","0","true",""
"","html-keyboard-response","57","176668","0.0-10.0-0.22","570","""event"",""trial"",""time""
""fullscreenenter"",""0"",""7532""
","
","
","""event"",""trial"",""time""
""fullscreenenter"",""0"",""7532""
","
","null","<div style=""font-size:60px;"">+</div>","","null","fixation","2021-06-23 18:28:09.105","","","","",""
"","mars-trial","58","188757","0.0-10.0-1.22","570","""event"",""trial"",""time""
""fullscreenenter"",""0"",""7532""
","
","
","""event"",""trial"",""time""
""fullscreenenter"",""0"",""7532""
","
","11478.10000038147","<img style='border: 4px solid darkgrey;' src='img/tf1_23_M_ss1.jpeg'></img>","0","","exp","","1","<img src='img/tf1_23_T1_ss1_md.jpeg'></img>","0","false",""
"","html-keyboard-response","59","189265","0.0-10.0-0.23","570","""event"",""trial"",""time""
""fullscreenenter"",""0"",""7532""
","
","
","""event"",""trial"",""time""
""fullscreenenter"",""0"",""7532""
","
","null","<div style=""font-size:60px;"">+</div>","","null","fixation","2021-06-23 18:28:21.702","","","","",""
"","mars-trial","60","191413","0.0-10.0-1.23","570","""event"",""trial"",""time""
""fullscreenenter"",""0"",""7532""
","
","
","""event"",""trial"",""time""
""fullscreenenter"",""0"",""7532""
","
","1540.3000001907349","<img style='border: 4px solid darkgrey;' src='img/tf1_24_M_ss2.jpeg'></img>","2","","exp","","3","<img src='img/tf1_24_T1_ss2_md.jpeg'></img>","0","false",""
"","html-keyboard-response","61","191917","0.0-10.0-0.24","570","""event"",""trial"",""time""
""fullscreenenter"",""0"",""7532""
","
","
","""event"",""trial"",""time""
""fullscreenenter"",""0"",""7532""
","
","null","<div style=""font-size:60px;"">+</div>","","null","fixation","2021-06-23 18:28:24.354","","","","",""
"","mars-trial","62","194928","0.0-10.0-1.24","570","""event"",""trial"",""time""
""fullscreenenter"",""0"",""7532""
","
","
","""event"",""trial"",""time""
""fullscreenenter"",""0"",""7532""
","
","2405.3999996185303","<img style='border: 4px solid darkgrey;' src='img/tf1_25_M_ss3.jpeg'></img>","1","","exp","","3","<img src='img/tf1_25_T1_ss3_md.jpeg'></img>","0","false",""
"","html-keyboard-response","63","195438","0.0-10.0-0.25","570","""event"",""trial"",""time""
""fullscreenenter"",""0"",""7532""
","
","
","""event"",""trial"",""time""
""fullscreenenter"",""0"",""7532""
","
","null","<div style=""font-size:60px;"">+</div>","","null","fixation","2021-06-23 18:28:27.875","","","","",""
"","mars-trial","64","202232","0.0-10.0-1.25","570","""event"",""trial"",""time""
""fullscreenenter"",""0"",""7532""
","
","
","""event"",""trial"",""time""
""fullscreenenter"",""0"",""7532""
","
","6185.599999904633","<img style='border: 4px solid darkgrey;' src='img/tf1_26_M_ss1.jpeg'></img>","3","","exp","","3","<img src='img/tf1_26_T1_ss1_md.jpeg'></img>","0","false",""
"","html-keyboard-response","65","202736","0.0-10.0-0.26","570","""event"",""trial"",""time""
""fullscreenenter"",""0"",""7532""
","
","
","""event"",""trial"",""time""
""fullscreenenter"",""0"",""7532""
","
","null","<div style=""font-size:60px;"">+</div>","","null","fixation","2021-06-23 18:28:35.173","","","","",""
"","mars-trial","66","213873","0.0-10.0-1.26","570","""event"",""trial"",""time""
""fullscreenenter"",""0"",""7532""
","
","
","""event"",""trial"",""time""
""fullscreenenter"",""0"",""7532""
","
","10527.5","<img style='border: 4px solid darkgrey;' src='img/tf1_27_M_ss2.jpeg'></img>","3","","exp","","2","<img src='img/tf1_27_T1_ss2_md.jpeg'></img>","0","false",""
"","html-keyboard-response","67","214376","0.0-10.0-0.27","570","""event"",""trial"",""time""
""fullscreenenter"",""0"",""7532""
","
","
","""event"",""trial"",""time""
""fullscreenenter"",""0"",""7532""
","
","null","<div style=""font-size:60px;"">+</div>","","null","fixation","2021-06-23 18:28:46.813","","","","",""
"","mars-trial","68","216679","0.0-10.0-1.27","570","""event"",""trial"",""time""
""fullscreenenter"",""0"",""7532""
","
","
","""event"",""trial"",""time""
""fullscreenenter"",""0"",""7532""
","
","1695.6999998092651","<img style='border: 4px solid darkgrey;' src='img/tf1_28_M_ss3.jpeg'></img>","2","","exp","","0","<img src='img/tf1_28_T1_ss3_md.jpeg'></img>","0","true",""
"","html-keyboard-response","69","217187","0.0-10.0-0.28","570","""event"",""trial"",""time""
""fullscreenenter"",""0"",""7532""
","
","
","""event"",""trial"",""time""
""fullscreenenter"",""0"",""7532""
","
","null","<div style=""font-size:60px;"">+</div>","","null","fixation","2021-06-23 18:28:49.624","","","","",""
"","mars-trial","70","220153","0.0-10.0-1.28","570","""event"",""trial"",""time""
""fullscreenenter"",""0"",""7532""
","
","
","""event"",""trial"",""time""
""fullscreenenter"",""0"",""7532""
","
","2359.5","<img style='border: 4px solid darkgrey;' src='img/tf1_29_M_ss1.jpeg'></img>","0","","exp","","3","<img src='img/tf1_29_T1_ss1_md.jpeg'></img>","0","false",""
"","html-keyboard-response","71","220655","0.0-10.0-0.29","570","""event"",""trial"",""time""
""fullscreenenter"",""0"",""7532""
","
","
","""event"",""trial"",""time""
""fullscreenenter"",""0"",""7532""
","
","null","<div style=""font-size:60px;"">+</div>","","null","fixation","2021-06-23 18:28:53.092","","","","",""
"","mars-trial","72","222067","0.0-10.0-1.29","570","""event"",""trial"",""time""
""fullscreenenter"",""0"",""7532""
","
","
","""event"",""trial"",""time""
""fullscreenenter"",""0"",""7532""
","
","805.4000000953674","<img style='border: 4px solid darkgrey;' src='img/tf1_30_M_ss2.jpeg'></img>","1","","exp","","0","<img src='img/tf1_30_T1_ss2_md.jpeg'></img>","0","true",""
"","html-keyboard-response","73","222568","0.0-10.0-0.30","570","""event"",""trial"",""time""
""fullscreenenter"",""0"",""7532""
","
","
","""event"",""trial"",""time""
""fullscreenenter"",""0"",""7532""
","
","null","<div style=""font-size:60px;"">+</div>","","null","fixation","2021-06-23 18:28:55.005","","","","",""
"","mars-trial","74","223943","0.0-10.0-1.30","570","""event"",""trial"",""time""
""fullscreenenter"",""0"",""7532""
","
","
","""event"",""trial"",""time""
""fullscreenenter"",""0"",""7532""
","
","757.1999998092651","<img style='border: 4px solid darkgrey;' src='img/tf1_31_M_ss3.jpeg'></img>","1","","exp","","0","<img src='img/tf1_31_T1_ss3_md.jpeg'></img>","0","true",""
"","html-keyboard-response","75","224447","0.0-10.0-0.31","570","""event"",""trial"",""time""
""fullscreenenter"",""0"",""7532""
","
","
","""event"",""trial"",""time""
""fullscreenenter"",""0"",""7532""
","
","null","<div style=""font-size:60px;"">+</div>","","null","fixation","2021-06-23 18:28:56.884","","","","",""
"","mars-trial","76","226500","0.0-10.0-1.31","570","""event"",""trial"",""time""
""fullscreenenter"",""0"",""7532""
","
","
","""event"",""trial"",""time""
""fullscreenenter"",""0"",""7532""
","
","1445.0999999046326","<img style='border: 4px solid darkgrey;' src='img/tf1_32_M_ss1.jpeg'></img>","2","","exp","","1","<img src='img/tf1_32_T1_ss1_md.jpeg'></img>","0","false",""
"","html-keyboard-response","77","227002","0.0-10.0-0.32","570","""event"",""trial"",""time""
""fullscreenenter"",""0"",""7532""
","
","
","""event"",""trial"",""time""
""fullscreenenter"",""0"",""7532""
","
","null","<div style=""font-size:60px;"">+</div>","","null","fixation","2021-06-23 18:28:59.439","","","","",""
"","mars-trial","78","228594","0.0-10.0-1.32","570","""event"",""trial"",""time""
""fullscreenenter"",""0"",""7532""
","
","
","""event"",""trial"",""time""
""fullscreenenter"",""0"",""7532""
","
","981.2000002861023","<img style='border: 4px solid darkgrey;' src='img/tf1_33_M_ss2.jpeg'></img>","0","","exp","","0","<img src='img/tf1_33_T1_ss2_md.jpeg'></img>","0","true",""
"","html-keyboard-response","79","229096","0.0-10.0-0.33","570","""event"",""trial"",""time""
""fullscreenenter"",""0"",""7532""
","
","
","""event"",""trial"",""time""
""fullscreenenter"",""0"",""7532""
","
","null","<div style=""font-size:60px;"">+</div>","","null","fixation","2021-06-23 18:29:01.533","","","","",""
"","mars-trial","80","230285","0.0-10.0-1.33","570","""event"",""trial"",""time""
""fullscreenenter"",""0"",""7532""
","
","
","""event"",""trial"",""time""
""fullscreenenter"",""0"",""7532""
","
","584.2999997138977","<img style='border: 4px solid darkgrey;' src='img/tf1_34_M_ss3.jpeg'></img>","3","","exp","","3","<img src='img/tf1_34_T1_ss3_md.jpeg'></img>","0","false",""
"","html-keyboard-response","81","230786","0.0-10.0-0.34","570","""event"",""trial"",""time""
""fullscreenenter"",""0"",""7532""
","
","
","""event"",""trial"",""time""
""fullscreenenter"",""0"",""7532""
","
","null","<div style=""font-size:60px;"">+</div>","","null","fixation","2021-06-23 18:29:03.223","","","","",""
"","mars-trial","82","232864","0.0-10.0-1.34","570","""event"",""trial"",""time""
""fullscreenenter"",""0"",""7532""
","
","
","""event"",""trial"",""time""
""fullscreenenter"",""0"",""7532""
","
","1472.2999997138977","<img style='border: 4px solid darkgrey;' src='img/tf1_35_M_ss1.jpeg'></img>","1","","exp","","3","<img src='img/tf1_35_T1_ss1_md.jpeg'></img>","0","false",""
"","html-keyboard-response","83","233368","0.0-10.0-0.35","570","""event"",""trial"",""time""
""fullscreenenter"",""0"",""7532""
","
","
","""event"",""trial"",""time""
""fullscreenenter"",""0"",""7532""
","
","null","<div style=""font-size:60px;"">+</div>","","null","fixation","2021-06-23 18:29:05.805","","","","",""
"","mars-trial","84","234998","0.0-10.0-1.35","570","""event"",""trial"",""time""
""fullscreenenter"",""0"",""7532""
","
","
","""event"",""trial"",""time""
""fullscreenenter"",""0"",""7532""
","
","1023.4000000953674","<img style='border: 4px solid darkgrey;' src='img/tf1_36_M_ss2.jpeg'></img>","0","","exp","","2","<img src='img/tf1_36_T1_ss2_md.jpeg'></img>","0","false",""
"","html-keyboard-response","85","235501","0.0-10.0-0.36","570","""event"",""trial"",""time""
""fullscreenenter"",""0"",""7532""
","
","
","""event"",""trial"",""time""
""fullscreenenter"",""0"",""7532""
","
","null","<div style=""font-size:60px;"">+</div>","","null","fixation","2021-06-23 18:29:07.938","","","","",""
"","mars-trial","86","236558","0.0-10.0-1.36","570","""event"",""trial"",""time""
""fullscreenenter"",""0"",""7532""
","
","
","""event"",""trial"",""time""
""fullscreenenter"",""0"",""7532""
","
","451.09999990463257","<img style='border: 4px solid darkgrey;' src='img/tf1_37_M_ss3.jpeg'></img>","2","","exp","","3","<img src='img/tf1_37_T1_ss3_md.jpeg'></img>","0","false",""
"","html-keyboard-response","87","237061","0.0-10.0-0.37","570","""event"",""trial"",""time""
""fullscreenenter"",""0"",""7532""
","
","
","""event"",""trial"",""time""
""fullscreenenter"",""0"",""7532""
","
","null","<div style=""font-size:60px;"">+</div>","","null","fixation","2021-06-23 18:29:09.498","","","","",""
"","mars-trial","88","238224","0.0-10.0-1.37","570","""event"",""trial"",""time""
""fullscreenenter"",""0"",""7532""
","
","
","""event"",""trial"",""time""
""fullscreenenter"",""0"",""7532""
","
","555.2999997138977","<img style='border: 4px solid darkgrey;' src='img/tf1_38_M_ss1.jpeg'></img>","0","","exp","","3","<img src='img/tf1_38_T1_ss1_md.jpeg'></img>","0","false",""
"","html-keyboard-response","89","238725","0.0-10.0-0.38","570","""event"",""trial"",""time""
""fullscreenenter"",""0"",""7532""
","
","
","""event"",""trial"",""time""
""fullscreenenter"",""0"",""7532""
","
","null","<div style=""font-size:60px;"">+</div>","","null","fixation","2021-06-23 18:29:11.162","","","","",""
"","mars-trial","90","239864","0.0-10.0-1.38","570","""event"",""trial"",""time""
""fullscreenenter"",""0"",""7532""
","
","
","""event"",""trial"",""time""
""fullscreenenter"",""0"",""7532""
","
","530.4000000953674","<img style='border: 4px solid darkgrey;' src='img/tf1_39_M_ss2.jpeg'></img>","2","","exp","","1","<img src='img/tf1_39_T1_ss2_md.jpeg'></img>","0","false",""
"","html-keyboard-response","91","240368","0.0-10.0-0.39","570","""event"",""trial"",""time""
""fullscreenenter"",""0"",""7532""
","
","
","""event"",""trial"",""time""
""fullscreenenter"",""0"",""7532""
","
","null","<div style=""font-size:60px;"">+</div>","","null","fixation","2021-06-23 18:29:12.805","","","","",""
"","mars-trial","92","241472","0.0-10.0-1.39","570","""event"",""trial"",""time""
""fullscreenenter"",""0"",""7532""
","
","
","""event"",""trial"",""time""
""fullscreenenter"",""0"",""7532""
","
","499.7999997138977","<img style='border: 4px solid darkgrey;' src='img/tf1_40_M_ss3.jpeg'></img>","3","","exp","","2","<img src='img/tf1_40_T1_ss3_md.jpeg'></img>","0","false",""
"","html-keyboard-response","93","241981","0.0-10.0-0.40","570","""event"",""trial"",""time""
""fullscreenenter"",""0"",""7532""
","
","
","""event"",""trial"",""time""
""fullscreenenter"",""0"",""7532""
","
","null","<div style=""font-size:60px;"">+</div>","","null","fixation","2021-06-23 18:29:14.418","","","","",""
"","mars-trial","94","243113","0.0-10.0-1.40","570","""event"",""trial"",""time""
""fullscreenenter"",""0"",""7532""
","
","
","""event"",""trial"",""time""
""fullscreenenter"",""0"",""7532""
","
","526.6999998092651","<img style='border: 4px solid darkgrey;' src='img/tf1_41_M_ss1.jpeg'></img>","1","","exp","","0","<img src='img/tf1_41_T1_ss1_md.jpeg'></img>","0","true",""
"","html-keyboard-response","95","243617","0.0-10.0-0.41","570","""event"",""trial"",""time""
""fullscreenenter"",""0"",""7532""
","
","
","""event"",""trial"",""time""
""fullscreenenter"",""0"",""7532""
","
","null","<div style=""font-size:60px;"">+</div>","","null","fixation","2021-06-23 18:29:16.054","","","","",""
"","mars-trial","96","245206","0.0-10.0-1.41","570","""event"",""trial"",""time""
""fullscreenenter"",""0"",""7532""
","
","
","""event"",""trial"",""time""
""fullscreenenter"",""0"",""7532""
","
","983.5","<img style='border: 4px solid darkgrey;' src='img/tf1_42_M_ss2.jpeg'></img>","2","","exp","","2","<img src='img/tf1_42_T1_ss2_md.jpeg'></img>","0","false",""
"","html-keyboard-response","97","245710","0.0-10.0-0.42","570","""event"",""trial"",""time""
""fullscreenenter"",""0"",""7532""
","
","
","""event"",""trial"",""time""
""fullscreenenter"",""0"",""7532""
","
","null","<div style=""font-size:60px;"">+</div>","","null","fixation","2021-06-23 18:29:18.147","","","","",""
"","mars-trial","98","247265","0.0-10.0-1.42","570","""event"",""trial"",""time""
""fullscreenenter"",""0"",""7532""
","
","
","""event"",""trial"",""time""
""fullscreenenter"",""0"",""7532""
","
","945.6999998092651","<img style='border: 4px solid darkgrey;' src='img/tf1_43_M_ss3.jpeg'></img>","3","","exp","","2","<img src='img/tf1_43_T1_ss3_md.jpeg'></img>","0","false",""
"","html-keyboard-response","99","247771","0.0-10.0-0.43","570","""event"",""trial"",""time""
""fullscreenenter"",""0"",""7532""
","
","
","""event"",""trial"",""time""
""fullscreenenter"",""0"",""7532""
","
","null","<div style=""font-size:60px;"">+</div>","","null","fixation","2021-06-23 18:29:20.208","","","","",""
"","mars-trial","100","249864","0.0-10.0-1.43","570","""event"",""trial"",""time""
""fullscreenenter"",""0"",""7532""
","
","
","""event"",""trial"",""time""
""fullscreenenter"",""0"",""7532""
","
","1487.5999999046326","<img style='border: 4px solid darkgrey;' src='img/tf1_44_M_ss1.jpeg'></img>","1","","exp","","0","<img src='img/tf1_44_T1_ss1_md.jpeg'></img>","0","true",""
"","html-keyboard-response","101","250367","0.0-10.0-0.44","570","""event"",""trial"",""time""
""fullscreenenter"",""0"",""7532""
","
","
","""event"",""trial"",""time""
""fullscreenenter"",""0"",""7532""
","
","null","<div style=""font-size:60px;"">+</div>","","null","fixation","2021-06-23 18:29:22.805","","","","",""
"","mars-trial","102","251558","0.0-10.0-1.44","570","""event"",""trial"",""time""
""fullscreenenter"",""0"",""7532""
","
","
","""event"",""trial"",""time""
""fullscreenenter"",""0"",""7532""
","
","580.2999997138977","<img style='border: 4px solid darkgrey;' src='img/tf1_45_M_ss2.jpeg'></img>","1","","exp","","3","<img src='img/tf1_45_T1_ss2_md.jpeg'></img>","0","false",""
"","html-keyboard-response","103","252060","0.0-10.0-0.45","570","""event"",""trial"",""time""
""fullscreenenter"",""0"",""7532""
","
","
","""event"",""trial"",""time""
""fullscreenenter"",""0"",""7532""
","
","null","<div style=""font-size:60px;"">+</div>","","null","fixation","2021-06-23 18:29:24.497","","","","",""
"","mars-trial","104","253119","0.0-10.0-1.45","570","""event"",""trial"",""time""
""fullscreenenter"",""0"",""7532""
","
","
","""event"",""trial"",""time""
""fullscreenenter"",""0"",""7532""
","
","451.5","<img style='border: 4px solid darkgrey;' src='img/tf1_46_M_ss3.jpeg'></img>","1","","exp","","3","<img src='img/tf1_46_T1_ss3_md.jpeg'></img>","0","false",""
"","html-keyboard-response","105","253623","0.0-10.0-0.46","570","""event"",""trial"",""time""
""fullscreenenter"",""0"",""7532""
","
","
","""event"",""trial"",""time""
""fullscreenenter"",""0"",""7532""
","
","null","<div style=""font-size:60px;"">+</div>","","null","fixation","2021-06-23 18:29:26.060","","","","",""
"","mars-trial","106","254662","0.0-10.0-1.46","570","""event"",""trial"",""time""
""fullscreenenter"",""0"",""7532""
","
","
","""event"",""trial"",""time""
""fullscreenenter"",""0"",""7532""
","
","431.40000009536743","<img style='border: 4px solid darkgrey;' src='img/tf1_47_M_ss1.jpeg'></img>","2","","exp","","1","<img src='img/tf1_47_T1_ss1_md.jpeg'></img>","0","false",""
"","html-keyboard-response","107","255163","0.0-10.0-0.47","570","""event"",""trial"",""time""
""fullscreenenter"",""0"",""7532""
","
","
","""event"",""trial"",""time""
""fullscreenenter"",""0"",""7532""
","
","null","<div style=""font-size:60px;"">+</div>","","null","fixation","2021-06-23 18:29:27.601","","","","",""
"","mars-trial","108","258012","0.0-10.0-1.47","570","""event"",""trial"",""time""
""fullscreenenter"",""0"",""7532""
","
","
","""event"",""trial"",""time""
""fullscreenenter"",""0"",""7532""
","
","2240","<img style='border: 4px solid darkgrey;' src='img/tf1_48_M_ss2.jpeg'></img>","0","","exp","","2","<img src='img/tf1_48_T1_ss2_md.jpeg'></img>","0","false",""
"","html-keyboard-response","109","258524","0.0-10.0-0.48","570","""event"",""trial"",""time""
""fullscreenenter"",""0"",""7532""
","
","
","""event"",""trial"",""time""
""fullscreenenter"",""0"",""7532""
","
","null","<div style=""font-size:60px;"">+</div>","","null","fixation","2021-06-23 18:29:30.961","","","","",""
"","mars-trial","110","259544","0.0-10.0-1.48","570","""event"",""trial"",""time""
""fullscreenenter"",""0"",""7532""
","
","
","""event"",""trial"",""time""
""fullscreenenter"",""0"",""7532""
","
","410.40000009536743","<img style='border: 4px solid darkgrey;' src='img/tf1_49_M_ss3.jpeg'></img>","3","","exp","","0","<img src='img/tf1_49_T1_ss3_md.jpeg'></img>","0","true",""
"","html-keyboard-response","111","260046","0.0-10.0-0.49","570","""event"",""trial"",""time""
""fullscreenenter"",""0"",""7532""
","
","
","""event"",""trial"",""time""
""fullscreenenter"",""0"",""7532""
","
","null","<div style=""font-size:60px;"">+</div>","","null","fixation","2021-06-23 18:29:32.483","","","","",""
"","mars-trial","112","260972","0.0-10.0-1.49","570","""event"",""trial"",""time""
""fullscreenenter"",""0"",""7532""
","
","
","""event"",""trial"",""time""
""fullscreenenter"",""0"",""7532""
","
","318.6000003814697","<img style='border: 4px solid darkgrey;' src='img/tf1_50_M_ss1.jpeg'></img>","2","","exp","","0","<img src='img/tf1_50_T1_ss1_md.jpeg'></img>","0","true",""
"","html-keyboard-response","113","261476","0.0-10.0-0.50","570","""event"",""trial"",""time""
""fullscreenenter"",""0"",""7532""
","
","
","""event"",""trial"",""time""
""fullscreenenter"",""0"",""7532""
","
","null","<div style=""font-size:60px;"">+</div>","","null","fixation","2021-06-23 18:29:33.913","","","","",""
"","mars-trial","114","263332","0.0-10.0-1.50","570","""event"",""trial"",""time""
""fullscreenenter"",""0"",""7532""
","
","
","""event"",""trial"",""time""
""fullscreenenter"",""0"",""7532""
","
","1248.5","<img style='border: 4px solid darkgrey;' src='img/tf1_51_M_ss2.jpeg'></img>","0","","exp","","2","<img src='img/tf1_51_T1_ss2_md.jpeg'></img>","0","false",""
"","html-keyboard-response","115","263847","0.0-10.0-0.51","570","""event"",""trial"",""time""
""fullscreenenter"",""0"",""7532""
","
","
","""event"",""trial"",""time""
""fullscreenenter"",""0"",""7532""
","
","null","<div style=""font-size:60px;"">+</div>","","null","fixation","2021-06-23 18:29:36.284","","","","",""
"","mars-trial","116","264931","0.0-10.0-1.51","570","""event"",""trial"",""time""
""fullscreenenter"",""0"",""7532""
","
","
","""event"",""trial"",""time""
""fullscreenenter"",""0"",""7532""
","
","474.90000009536743","<img style='border: 4px solid darkgrey;' src='img/tf1_52_M_ss3.jpeg'></img>","1","","exp","","0","<img src='img/tf1_52_T1_ss3_md.jpeg'></img>","0","true",""
"","html-keyboard-response","117","265433","0.0-10.0-0.52","570","""event"",""trial"",""time""
""fullscreenenter"",""0"",""7532""
","
","
","""event"",""trial"",""time""
""fullscreenenter"",""0"",""7532""
","
","null","<div style=""font-size:60px;"">+</div>","","null","fixation","2021-06-23 18:29:37.870","","","","",""
"","mars-trial","118","266582","0.0-10.0-1.52","570","""event"",""trial"",""time""
""fullscreenenter"",""0"",""7532""
","
","
","""event"",""trial"",""time""
""fullscreenenter"",""0"",""7532""
","
","539.2999997138977","<img style='border: 4px solid darkgrey;' src='img/tf1_53_M_ss1.jpeg'></img>","2","","exp","","0","<img src='img/tf1_53_T1_ss1_md.jpeg'></img>","0","true",""
"","html-keyboard-response","119","267087","0.0-10.0-0.53","570","""event"",""trial"",""time""
""fullscreenenter"",""0"",""7532""
","
","
","""event"",""trial"",""time""
""fullscreenenter"",""0"",""7532""
","
","null","<div style=""font-size:60px;"">+</div>","","null","fixation","2021-06-23 18:29:39.524","","","","",""
"","mars-trial","120","268136","0.0-10.0-1.53","570","""event"",""trial"",""time""
""fullscreenenter"",""0"",""7532""
","
","
","""event"",""trial"",""time""
""fullscreenenter"",""0"",""7532""
","
","443.7000002861023","<img style='border: 4px solid darkgrey;' src='img/tf1_54_M_ss2.jpeg'></img>","1","","exp","","0","<img src='img/tf1_54_T1_ss2_md.jpeg'></img>","0","true",""
"","html-keyboard-response","121","268638","0.0-10.0-0.54","570","""event"",""trial"",""time""
""fullscreenenter"",""0"",""7532""
","
","
","""event"",""trial"",""time""
""fullscreenenter"",""0"",""7532""
","
","null","<div style=""font-size:60px;"">+</div>","","null","fixation","2021-06-23 18:29:41.075","","","","",""
"","mars-trial","122","269766","0.0-10.0-1.54","570","""event"",""trial"",""time""
""fullscreenenter"",""0"",""7532""
","
","
","""event"",""trial"",""time""
""fullscreenenter"",""0"",""7532""
","
","523","<img style='border: 4px solid darkgrey;' src='img/tf1_55_M_ss3.jpeg'></img>","3","","exp","","3","<img src='img/tf1_55_T1_ss3_md.jpeg'></img>","0","false",""
"","html-keyboard-response","123","270267","0.0-10.0-0.55","570","""event"",""trial"",""time""
""fullscreenenter"",""0"",""7532""
","
","
","""event"",""trial"",""time""
""fullscreenenter"",""0"",""7532""
","
","null","<div style=""font-size:60px;"">+</div>","","null","fixation","2021-06-23 18:29:42.704","","","","",""
"","mars-trial","124","271605","0.0-10.0-1.55","570","""event"",""trial"",""time""
""fullscreenenter"",""0"",""7532""
","
","
","""event"",""trial"",""time""
""fullscreenenter"",""0"",""7532""
","
","731.3999996185303","<img style='border: 4px solid darkgrey;' src='img/tf1_56_M_ss1.jpeg'></img>","0","","exp","","0","<img src='img/tf1_56_T1_ss1_md.jpeg'></img>","0","true",""
"","html-keyboard-response","125","272105","0.0-10.0-0.56","570","""event"",""trial"",""time""
""fullscreenenter"",""0"",""7532""
","
","
","""event"",""trial"",""time""
""fullscreenenter"",""0"",""7532""
","
","null","<div style=""font-size:60px;"">+</div>","","null","fixation","2021-06-23 18:29:44.542","","","","",""
"","mars-trial","126","273176","0.0-10.0-1.56","570","""event"",""trial"",""time""
""fullscreenenter"",""0"",""7532""
","
","
","""event"",""trial"",""time""
""fullscreenenter"",""0"",""7532""
","
","462.80000019073486","<img style='border: 4px solid darkgrey;' src='img/tf1_57_M_ss2.jpeg'></img>","1","","exp","","1","<img src='img/tf1_57_T1_ss2_md.jpeg'></img>","0","false",""
"","html-keyboard-response","127","273678","0.0-10.0-0.57","570","""event"",""trial"",""time""
""fullscreenenter"",""0"",""7532""
","
","
","""event"",""trial"",""time""
""fullscreenenter"",""0"",""7532""
","
","null","<div style=""font-size:60px;"">+</div>","","null","fixation","2021-06-23 18:29:46.115","","","","",""
"","mars-trial","128","274699","0.0-10.0-1.57","570","""event"",""trial"",""time""
""fullscreenenter"",""0"",""7532""
","
","
","""event"",""trial"",""time""
""fullscreenenter"",""0"",""7532""
","
","413.59999990463257","<img style='border: 4px solid darkgrey;' src='img/tf1_58_M_ss3.jpeg'></img>","1","","exp","","3","<img src='img/tf1_58_T1_ss3_md.jpeg'></img>","0","false",""
"","html-keyboard-response","129","275203","0.0-10.0-0.58","570","""event"",""trial"",""time""
""fullscreenenter"",""0"",""7532""
","
","
","""event"",""trial"",""time""
""fullscreenenter"",""0"",""7532""
","
","null","<div style=""font-size:60px;"">+</div>","","null","fixation","2021-06-23 18:29:47.641","","","","",""
"","mars-trial","130","276087","0.0-10.0-1.58","570","""event"",""trial"",""time""
""fullscreenenter"",""0"",""7532""
","
","
","""event"",""trial"",""time""
""fullscreenenter"",""0"",""7532""
","
","276.19999980926514","<img style='border: 4px solid darkgrey;' src='img/tf1_59_M_ss1.jpeg'></img>","1","","exp","","1","<img src='img/tf1_59_T1_ss1_md.jpeg'></img>","0","false",""
"","html-keyboard-response","131","276591","0.0-10.0-0.59","570","""event"",""trial"",""time""
""fullscreenenter"",""0"",""7532""
","
","
","""event"",""trial"",""time""
""fullscreenenter"",""0"",""7532""
","
","null","<div style=""font-size:60px;"">+</div>","","null","fixation","2021-06-23 18:29:49.028","","","","",""
"","mars-trial","132","277419","0.0-10.0-1.59","570","""event"",""trial"",""time""
""fullscreenenter"",""0"",""7532""
","
","
","""event"",""trial"",""time""
""fullscreenenter"",""0"",""7532""
","
","216.2999997138977","<img style='border: 4px solid darkgrey;' src='img/tf1_60_M_ss2.jpeg'></img>","1","","exp","","0","<img src='img/tf1_60_T1_ss2_md.jpeg'></img>","0","true",""
"","html-keyboard-response","133","277921","0.0-10.0-0.60","570","""event"",""trial"",""time""
""fullscreenenter"",""0"",""7532""
","
","
","""event"",""trial"",""time""
""fullscreenenter"",""0"",""7532""
","
","null","<div style=""font-size:60px;"">+</div>","","null","fixation","2021-06-23 18:29:50.358","","","","",""
"","mars-trial","134","279285","0.0-10.0-1.60","570","""event"",""trial"",""time""
""fullscreenenter"",""0"",""7532""
","
","
","""event"",""trial"",""time""
""fullscreenenter"",""0"",""7532""
","
","756.7999997138977","<img style='border: 4px solid darkgrey;' src='img/tf1_61_M_ss3.jpeg'></img>","2","","exp","","0","<img src='img/tf1_61_T1_ss3_md.jpeg'></img>","0","true",""
"","html-keyboard-response","135","279787","0.0-10.0-0.61","570","""event"",""trial"",""time""
""fullscreenenter"",""0"",""7532""
","
","
","""event"",""trial"",""time""
""fullscreenenter"",""0"",""7532""
","
","null","<div style=""font-size:60px;"">+</div>","","null","fixation","2021-06-23 18:29:52.224","","","","",""
"","mars-trial","136","280774","0.0-10.0-1.61","570","""event"",""trial"",""time""
""fullscreenenter"",""0"",""7532""
","
","
","""event"",""trial"",""time""
""fullscreenenter"",""0"",""7532""
","
","380.90000009536743","<img style='border: 4px solid darkgrey;' src='img/tf1_62_M_ss1.jpeg'></img>","1","","exp","","3","<img src='img/tf1_62_T1_ss1_md.jpeg'></img>","0","false",""
"","html-keyboard-response","137","281278","0.0-10.0-0.62","570","""event"",""trial"",""time""
""fullscreenenter"",""0"",""7532""
","
","
","""event"",""trial"",""time""
""fullscreenenter"",""0"",""7532""
","
","null","<div style=""font-size:60px;"">+</div>","","null","fixation","2021-06-23 18:29:53.715","","","","",""
"","mars-trial","138","282416","0.0-10.0-1.62","570","""event"",""trial"",""time""
""fullscreenenter"",""0"",""7532""
","
","
","""event"",""trial"",""time""
""fullscreenenter"",""0"",""7532""
","
","532.7999997138977","<img style='border: 4px solid darkgrey;' src='img/tf1_63_M_ss2.jpeg'></img>","1","","exp","","3","<img src='img/tf1_63_T1_ss2_md.jpeg'></img>","0","false",""
"","html-keyboard-response","139","282920","0.0-10.0-0.63","570","""event"",""trial"",""time""
""fullscreenenter"",""0"",""7532""
","
","
","""event"",""trial"",""time""
""fullscreenenter"",""0"",""7532""
","
","null","<div style=""font-size:60px;"">+</div>","","null","fixation","2021-06-23 18:29:55.357","","","","",""
"","mars-trial","140","283989","0.0-10.0-1.63","570","""event"",""trial"",""time""
""fullscreenenter"",""0"",""7532""
","
","
","""event"",""trial"",""time""
""fullscreenenter"",""0"",""7532""
","
","459.40000009536743","<img style='border: 4px solid darkgrey;' src='img/tf1_64_M_ss3.jpeg'></img>","1","","exp","","0","<img src='img/tf1_64_T1_ss3_md.jpeg'></img>","0","true",""
"","html-keyboard-response","141","284491","0.0-10.0-0.64","570","""event"",""trial"",""time""
""fullscreenenter"",""0"",""7532""
","
","
","""event"",""trial"",""time""
""fullscreenenter"",""0"",""7532""
","
","null","<div style=""font-size:60px;"">+</div>","","null","fixation","2021-06-23 18:29:56.928","","","","",""
"","mars-trial","142","285533","0.0-10.0-1.64","570","""event"",""trial"",""time""
""fullscreenenter"",""0"",""7532""
","
","
","""event"",""trial"",""time""
""fullscreenenter"",""0"",""7532""
","
","434.5","<img style='border: 4px solid darkgrey;' src='img/tf1_65_M_ss1.jpeg'></img>","2","","exp","","0","<img src='img/tf1_65_T1_ss1_md.jpeg'></img>","0","true",""
"","html-keyboard-response","143","286036","0.0-10.0-0.65","570","""event"",""trial"",""time""
""fullscreenenter"",""0"",""7532""
","
","
","""event"",""trial"",""time""
""fullscreenenter"",""0"",""7532""
","
","null","<div style=""font-size:60px;"">+</div>","","null","fixation","2021-06-23 18:29:58.473","","","","",""
"","mars-trial","144","287129","0.0-10.0-1.65","570","""event"",""trial"",""time""
""fullscreenenter"",""0"",""7532""
","
","
","""event"",""trial"",""time""
""fullscreenenter"",""0"",""7532""
","
","486.5","<img style='border: 4px solid darkgrey;' src='img/tf1_66_M_ss2.jpeg'></img>","1","","exp","","3","<img src='img/tf1_66_T1_ss2_md.jpeg'></img>","0","false",""
"","html-keyboard-response","145","287632","0.0-10.0-0.66","570","""event"",""trial"",""time""
""fullscreenenter"",""0"",""7532""
","
","
","""event"",""trial"",""time""
""fullscreenenter"",""0"",""7532""
","
","null","<div style=""font-size:60px;"">+</div>","","null","fixation","2021-06-23 18:30:00.069","","","","",""
"","mars-trial","146","290550","0.0-10.0-1.66","570","""event"",""trial"",""time""
""fullscreenenter"",""0"",""7532""
","
","
","""event"",""trial"",""time""
""fullscreenenter"",""0"",""7532""
","
","2312.699999809265","<img style='border: 4px solid darkgrey;' src='img/tf1_67_M_ss3.jpeg'></img>","3","","exp","","3","<img src='img/tf1_67_T1_ss3_md.jpeg'></img>","0","false",""
"","html-keyboard-response","147","291052","0.0-10.0-0.67","570","""event"",""trial"",""time""
""fullscreenenter"",""0"",""7532""
","
","
","""event"",""trial"",""time""
""fullscreenenter"",""0"",""7532""
","
","null","<div style=""font-size:60px;"">+</div>","","null","fixation","2021-06-23 18:30:03.489","","","","",""
"","mars-trial","148","291970","0.0-10.0-1.67","570","""event"",""trial"",""time""
""fullscreenenter"",""0"",""7532""
","
","
","""event"",""trial"",""time""
""fullscreenenter"",""0"",""7532""
","
","313.5","<img style='border: 4px solid darkgrey;' src='img/tf1_68_M_ss1.jpeg'></img>","1","","exp","","2","<img src='img/tf1_68_T1_ss1_md.jpeg'></img>","0","false",""
"","html-keyboard-response","149","292471","0.0-10.0-0.68","570","""event"",""trial"",""time""
""fullscreenenter"",""0"",""7532""
","
","
","""event"",""trial"",""time""
""fullscreenenter"",""0"",""7532""
","
","null","<div style=""font-size:60px;"">+</div>","","null","fixation","2021-06-23 18:30:04.908","","","","",""
"","mars-trial","150","294214","0.0-10.0-1.68","570","""event"",""trial"",""time""
""fullscreenenter"",""0"",""7532""
","
","
","""event"",""trial"",""time""
""fullscreenenter"",""0"",""7532""
","
","1134.1999998092651","<img style='border: 4px solid darkgrey;' src='img/tf1_69_M_ss2.jpeg'></img>","0","","exp","","0","<img src='img/tf1_69_T1_ss2_md.jpeg'></img>","0","true",""
"","html-keyboard-response","151","294716","0.0-10.0-0.69","570","""event"",""trial"",""time""
""fullscreenenter"",""0"",""7532""
","
","
","""event"",""trial"",""time""
""fullscreenenter"",""0"",""7532""
","
","null","<div style=""font-size:60px;"">+</div>","","null","fixation","2021-06-23 18:30:07.153","","","","",""
"","mars-trial","152","295722","0.0-10.0-1.69","570","""event"",""trial"",""time""
""fullscreenenter"",""0"",""7532""
","
","
","""event"",""trial"",""time""
""fullscreenenter"",""0"",""7532""
","
","400.40000009536743","<img style='border: 4px solid darkgrey;' src='img/tf1_70_M_ss3.jpeg'></img>","2","","exp","","0","<img src='img/tf1_70_T1_ss3_md.jpeg'></img>","0","true",""
"","html-keyboard-response","153","296224","0.0-10.0-0.70","570","""event"",""trial"",""time""
""fullscreenenter"",""0"",""7532""
","
","
","""event"",""trial"",""time""
""fullscreenenter"",""0"",""7532""
","
","null","<div style=""font-size:60px;"">+</div>","","null","fixation","2021-06-23 18:30:08.661","","","","",""
"","mars-trial","154","298813","0.0-10.0-1.70","570","""event"",""trial"",""time""
""fullscreenenter"",""0"",""7532""
","
","
","""event"",""trial"",""time""
""fullscreenenter"",""0"",""7532""
","
","1983","<img style='border: 4px solid darkgrey;' src='img/tf1_71_M_ss1.jpeg'></img>","3","","exp","","3","<img src='img/tf1_71_T1_ss1_md.jpeg'></img>","0","false",""
"","html-keyboard-response","155","299314","0.0-10.0-0.71","570","""event"",""trial"",""time""
""fullscreenenter"",""0"",""7532""
","
","
","""event"",""trial"",""time""
""fullscreenenter"",""0"",""7532""
","
","null","<div style=""font-size:60px;"">+</div>","","null","fixation","2021-06-23 18:30:11.751","","","","",""
"","mars-trial","156","304050","0.0-10.0-1.71","570","""event"",""trial"",""time""
""fullscreenenter"",""0"",""7532""
","
","
","""event"",""trial"",""time""
""fullscreenenter"",""0"",""7532""
","
","4129","<img style='border: 4px solid darkgrey;' src='img/tf1_72_M_ss2.jpeg'></img>","3","","exp","","1","<img src='img/tf1_72_T1_ss2_md.jpeg'></img>","0","false",""
"","html-keyboard-response","157","304553","0.0-10.0-0.72","570","""event"",""trial"",""time""
""fullscreenenter"",""0"",""7532""
","
","
","""event"",""trial"",""time""
""fullscreenenter"",""0"",""7532""
","
","null","<div style=""font-size:60px;"">+</div>","","null","fixation","2021-06-23 18:30:16.990","","","","",""
"","mars-trial","158","313530","0.0-10.0-1.72","570","""event"",""trial"",""time""
""fullscreenenter"",""0"",""7532""
","
","
","""event"",""trial"",""time""
""fullscreenenter"",""0"",""7532""
","
","8364.60000038147","<img style='border: 4px solid darkgrey;' src='img/tf1_73_M_ss3.jpeg'></img>","1","","exp","","0","<img src='img/tf1_73_T1_ss3_md.jpeg'></img>","0","true",""
"","html-keyboard-response","159","314032","0.0-10.0-0.73","570","""event"",""trial"",""time""
""fullscreenenter"",""0"",""7532""
","
","
","""event"",""trial"",""time""
""fullscreenenter"",""0"",""7532""
","
","null","<div style=""font-size:60px;"">+</div>","","null","fixation","2021-06-23 18:30:26.469","","","","",""
"","mars-trial","160","321230","0.0-10.0-1.73","570","""event"",""trial"",""time""
""fullscreenenter"",""0"",""7532""
","
","
","""event"",""trial"",""time""
""fullscreenenter"",""0"",""7532""
","
","6589","<img style='border: 4px solid darkgrey;' src='img/tf1_74_M_ss1.jpeg'></img>","0","","exp","","3","<img src='img/tf1_74_T1_ss1_md.jpeg'></img>","0","false",""
"","html-keyboard-response","161","321733","0.0-10.0-0.74","570","""event"",""trial"",""time""
""fullscreenenter"",""0"",""7532""
","
","
","""event"",""trial"",""time""
""fullscreenenter"",""0"",""7532""
","
","null","<div style=""font-size:60px;"">+</div>","","null","fixation","2021-06-23 18:30:34.171","","","","",""
"","mars-trial","162","330479","0.0-10.0-1.74","570","""event"",""trial"",""time""
""fullscreenenter"",""0"",""7532""
","
","
","""event"",""trial"",""time""
""fullscreenenter"",""0"",""7532""
","
","8137.89999961853","<img style='border: 4px solid darkgrey;' src='img/tf1_75_M_ss2.jpeg'></img>","1","","exp","","1","<img src='img/tf1_75_T1_ss2_md.jpeg'></img>","0","false",""
"","html-keyboard-response","163","330982","0.0-10.0-0.75","570","""event"",""trial"",""time""
""fullscreenenter"",""0"",""7532""
","
","
","""event"",""trial"",""time""
""fullscreenenter"",""0"",""7532""
","
","null","<div style=""font-size:60px;"">+</div>","","null","fixation","2021-06-23 18:30:43.419","","","","",""
"","mars-trial","164","332910","0.0-10.0-1.75","570","""event"",""trial"",""time""
""fullscreenenter"",""0"",""7532""
","
","
","""event"",""trial"",""time""
""fullscreenenter"",""0"",""7532""
","
","1320.0999999046326","<img style='border: 4px solid darkgrey;' src='img/tf1_76_M_ss3.jpeg'></img>","2","","exp","","3","<img src='img/tf1_76_T1_ss3_md.jpeg'></img>","0","false",""
"","html-keyboard-response","165","333415","0.0-10.0-0.76","570","""event"",""trial"",""time""
""fullscreenenter"",""0"",""7532""
","
","
","""event"",""trial"",""time""
""fullscreenenter"",""0"",""7532""
","
","null","<div style=""font-size:60px;"">+</div>","","null","fixation","2021-06-23 18:30:45.852","","","","",""
"","mars-trial","166","339799","0.0-10.0-1.76","570","""event"",""trial"",""time""
""fullscreenenter"",""0"",""7532""
","
","
","""event"",""trial"",""time""
""fullscreenenter"",""0"",""7532""
","
","5775.699999809265","<img style='border: 4px solid darkgrey;' src='img/tf1_77_M_ss1.jpeg'></img>","0","","exp","","2","<img src='img/tf1_77_T1_ss1_md.jpeg'></img>","0","false",""
"","html-keyboard-response","167","340302","0.0-10.0-0.77","570","""event"",""trial"",""time""
""fullscreenenter"",""0"",""7532""
","
","
","""event"",""trial"",""time""
""fullscreenenter"",""0"",""7532""
","
","null","<div style=""font-size:60px;"">+</div>","","null","fixation","2021-06-23 18:30:52.739","","","","",""
"","mars-trial","168","342753","0.0-10.0-1.77","570","""event"",""trial"",""time""
""fullscreenenter"",""0"",""7532""
","
","
","""event"",""trial"",""time""
""fullscreenenter"",""0"",""7532""
","
","1834.5","<img style='border: 4px solid darkgrey;' src='img/tf1_78_M_ss2.jpeg'></img>","3","","exp","","1","<img src='img/tf1_78_T1_ss2_md.jpeg'></img>","0","false",""
"","html-keyboard-response","169","343270","0.0-10.0-0.78","570","""event"",""trial"",""time""
""fullscreenenter"",""0"",""7532""
","
","
","""event"",""trial"",""time""
""fullscreenenter"",""0"",""7532""
","
","null","<div style=""font-size:60px;"">+</div>","","null","fixation","2021-06-23 18:30:55.707","","","","",""
"","mars-trial","170","344388","0.0-10.0-1.78","570","""event"",""trial"",""time""
""fullscreenenter"",""0"",""7532""
","
","
","""event"",""trial"",""time""
""fullscreenenter"",""0"",""7532""
","
","505.59999990463257","<img style='border: 4px solid darkgrey;' src='img/tf1_79_M_ss3.jpeg'></img>","1","","exp","","1","<img src='img/tf1_79_T1_ss3_md.jpeg'></img>","0","false",""
"","html-keyboard-response","171","344890","0.0-10.0-0.79","570","""event"",""trial"",""time""
""fullscreenenter"",""0"",""7532""
","
","
","""event"",""trial"",""time""
""fullscreenenter"",""0"",""7532""
","
","null","<div style=""font-size:60px;"">+</div>","","null","fixation","2021-06-23 18:30:57.327","","","","",""
"","mars-trial","172","345818","0.0-10.0-1.79","570","""event"",""trial"",""time""
""fullscreenenter"",""0"",""7532""
","
","
","""event"",""trial"",""time""
""fullscreenenter"",""0"",""7532""
","
","315.7000002861023","<img style='border: 4px solid darkgrey;' src='img/tf1_80_M_ss1.jpeg'></img>","2","","exp","","2","<img src='img/tf1_80_T1_ss1_md.jpeg'></img>","0","false",""
"","audio-button-response","173","351366","0.0-11.0","570","""event"",""trial"",""time""
""fullscreenenter"",""0"",""7532""
","
","
","""event"",""trial"",""time""
""fullscreenenter"",""0"",""7532""
","
","5546.200000286102","audio/mars_instructions_slide5.wav","0","","","","","","","",""
