"success","trial_type","trial_index","time_elapsed","internal_node_id","subject_id","interactions","blur_events","focus_events","fullscreenenter_events","fullscreenexit_events","rt","stimulus","button_pressed","key_press","part","timestamp","unshuffled_button","correct_response","correct_button","correct","value"
"true","fullscreen","0","3146","0.0-0.0","147","""event"",""trial"",""time""
""fullscreenenter"",""0"",""2156""
","
","
","""event"",""trial"",""time""
""fullscreenenter"",""0"",""2156""
","
","","","","","","","","","","",""
"","pavlovia","1","3156","0.0-1.0","147","""event"",""trial"",""time""
""fullscreenenter"",""0"",""2156""
","
","
","""event"",""trial"",""time""
""fullscreenenter"",""0"",""2156""
","
","","","","","","","","","","",""
"","html-button-response","2","7153","0.0-2.0","147","""event"",""trial"",""time""
""fullscreenenter"",""0"",""2156""
","
","
","""event"",""trial"",""time""
""fullscreenenter"",""0"",""2156""
","
","3995.66000001505","<p>Welcome! Press START to begin.</p><br>","0","","","","","","","",""
"","audio-button-response","3","21320","0.0-3.0","147","""event"",""trial"",""time""
""fullscreenenter"",""0"",""2156""
","
","
","""event"",""trial"",""time""
""fullscreenenter"",""0"",""2156""
","
","14165.29500001343","audio/mars_instructions_slide2.wav","0","","","","","","","",""
"","audio-button-response","4","37572","0.0-4.0","147","""event"",""trial"",""time""
""fullscreenenter"",""0"",""2156""
","
","
","""event"",""trial"",""time""
""fullscreenenter"",""0"",""2156""
","
","16250.914999982342","audio/mars_instructions_slide3.wav","0","","","","","","","",""
"","html-keyboard-response","5","38075","0.0-5.0-0.0","147","""event"",""trial"",""time""
""fullscreenenter"",""0"",""2156""
","
","
","""event"",""trial"",""time""
""fullscreenenter"",""0"",""2156""
","
","null","<div style=""font-size:60px;"">+</div>","","null","fixation","2021-04-20 22:33:29.363","","","","",""
"","mars-trial","6","55971","0.0-5.0-1.0","147","""event"",""trial"",""time""
""fullscreenenter"",""0"",""2156""
","
","
","""event"",""trial"",""time""
""fullscreenenter"",""0"",""2156""
","
","15787.579999945592","<img style='border: 4px solid darkgrey;' src='practice/pt1_M1.png'></img>","3","","practice","","0","<img src='practice/pt1_T1.png'></img>","0","true",""
"","html-keyboard-response","7","56476","0.0-6.0-0.0","147","""event"",""trial"",""time""
""fullscreenenter"",""0"",""2156""
","
","
","""event"",""trial"",""time""
""fullscreenenter"",""0"",""2156""
","
","null","<div style=""font-size:60px;"">+</div>","","null","fixation","2021-04-20 22:33:47.764","","","","",""
"","mars-trial","8","61313","0.0-6.0-1.0","147","""event"",""trial"",""time""
""fullscreenenter"",""0"",""2156""
","
","
","""event"",""trial"",""time""
""fullscreenenter"",""0"",""2156""
","
","2730.180000013206","<img style='border: 4px solid darkgrey;' src='practice/pt2_M1.png'></img>","0","","practice","","3","<img src='practice/pt2_T1.png'></img>","0","false",""
"","html-keyboard-response","9","61816","0.0-6.1-0.1","147","""event"",""trial"",""time""
""fullscreenenter"",""0"",""2156""
","
","
","""event"",""trial"",""time""
""fullscreenenter"",""0"",""2156""
","
","null","<div style=""font-size:60px;"">+</div>","","null","fixation","2021-04-20 22:33:53.104","","","","",""
"","mars-trial","10","66964","0.0-6.1-1.1","147","""event"",""trial"",""time""
""fullscreenenter"",""0"",""2156""
","
","
","""event"",""trial"",""time""
""fullscreenenter"",""0"",""2156""
","
","3041.1949999979697","<img style='border: 4px solid darkgrey;' src='practice/pt2_M1.png'></img>","1","","practice","","0","<img src='practice/pt2_T1.png'></img>","0","true",""
"","html-keyboard-response","11","67467","0.0-7.0-0.0","147","""event"",""trial"",""time""
""fullscreenenter"",""0"",""2156""
","
","
","""event"",""trial"",""time""
""fullscreenenter"",""0"",""2156""
","
","null","<div style=""font-size:60px;"">+</div>","","null","fixation","2021-04-20 22:33:58.755","","","","",""
"","mars-trial","12","70655","0.0-7.0-1.0","147","""event"",""trial"",""time""
""fullscreenenter"",""0"",""2156""
","
","
","""event"",""trial"",""time""
""fullscreenenter"",""0"",""2156""
","
","1081.1249999678694","<img style='border: 4px solid darkgrey;' src='practice/pt3_M1.png'></img>","2","","practice","","0","<img src='practice/pt3_T1.png'></img>","0","true",""
"","audio-button-response","13","71672","0.0-8.0","147","""event"",""trial"",""time""
""fullscreenenter"",""0"",""2156""
","
","
","""event"",""trial"",""time""
""fullscreenenter"",""0"",""2156""
","
","1014.690000039991","audio/mars_instructions_slide4.wav","0","","","","","","","",""
"","call-function","14","71673","0.0-9.0","147","""event"",""trial"",""time""
""fullscreenenter"",""0"",""2156""
","
","
","""event"",""trial"",""time""
""fullscreenenter"",""0"",""2156""
","
","","","","","","","","","","",""
"","html-keyboard-response","15","72173","0.0-10.0-0.0","147","""event"",""trial"",""time""
""fullscreenenter"",""0"",""2156""
","
","
","""event"",""trial"",""time""
""fullscreenenter"",""0"",""2156""
","
","null","<div style=""font-size:60px;"">+</div>","","null","fixation","2021-04-20 22:34:03.461","","","","",""
"","mars-trial","16","74632","0.0-10.0-1.0","147","""event"",""trial"",""time""
""fullscreenenter"",""0"",""2156""
","
","
","""event"",""trial"",""time""
""fullscreenenter"",""0"",""2156""
","
","1853.2000000122935","<img style='border: 4px solid darkgrey;' src='img/tf1_1_M_ss3.jpeg'></img>","0","","exp","","0","<img src='img/tf1_1_T1_ss3_md.jpeg'></img>","0","true",""
"","html-keyboard-response","17","75134","0.0-10.0-0.1","147","""event"",""trial"",""time""
""fullscreenenter"",""0"",""2156""
","
","
","""event"",""trial"",""time""
""fullscreenenter"",""0"",""2156""
","
","null","<div style=""font-size:60px;"">+</div>","","null","fixation","2021-04-20 22:34:06.422","","","","",""
"","mars-trial","18","77986","0.0-10.0-1.1","147","""event"",""trial"",""time""
""fullscreenenter"",""0"",""2156""
","
","
","""event"",""trial"",""time""
""fullscreenenter"",""0"",""2156""
","
","2245.1400000136346","<img style='border: 4px solid darkgrey;' src='img/tf1_2_M_ss1.jpeg'></img>","2","","exp","","0","<img src='img/tf1_2_T1_ss1_md.jpeg'></img>","0","true",""
"","html-keyboard-response","19","78496","0.0-10.0-0.2","147","""event"",""trial"",""time""
""fullscreenenter"",""0"",""2156""
","
","
","""event"",""trial"",""time""
""fullscreenenter"",""0"",""2156""
","
","null","<div style=""font-size:60px;"">+</div>","","null","fixation","2021-04-20 22:34:09.784","","","","",""
"","mars-trial","20","81115","0.0-10.0-1.2","147","""event"",""trial"",""time""
""fullscreenenter"",""0"",""2156""
","
","
","""event"",""trial"",""time""
""fullscreenenter"",""0"",""2156""
","
","2011.2599999993108","<img style='border: 4px solid darkgrey;' src='img/tf1_3_M_ss2.jpeg'></img>","0","","exp","","0","<img src='img/tf1_3_T1_ss2_md.jpeg'></img>","0","true",""
"","html-keyboard-response","21","81618","0.0-10.0-0.3","147","""event"",""trial"",""time""
""fullscreenenter"",""0"",""2156""
","
","
","""event"",""trial"",""time""
""fullscreenenter"",""0"",""2156""
","
","null","<div style=""font-size:60px;"">+</div>","","null","fixation","2021-04-20 22:34:12.906","","","","",""
"","mars-trial","22","85701","0.0-10.0-1.3","147","""event"",""trial"",""time""
""fullscreenenter"",""0"",""2156""
","
","
","""event"",""trial"",""time""
""fullscreenenter"",""0"",""2156""
","
","3477.119999995921","<img style='border: 4px solid darkgrey;' src='img/tf1_4_M_ss3.jpeg'></img>","3","","exp","","0","<img src='img/tf1_4_T1_ss3_md.jpeg'></img>","0","true",""
"","html-keyboard-response","23","86203","0.0-10.0-0.4","147","""event"",""trial"",""time""
""fullscreenenter"",""0"",""2156""
","
","
","""event"",""trial"",""time""
""fullscreenenter"",""0"",""2156""
","
","null","<div style=""font-size:60px;"">+</div>","","null","fixation","2021-04-20 22:34:17.491","","","","",""
"","mars-trial","24","88507","0.0-10.0-1.4","147","""event"",""trial"",""time""
""fullscreenenter"",""0"",""2156""
","
","
","""event"",""trial"",""time""
""fullscreenenter"",""0"",""2156""
","
","1697.9699999792501","<img style='border: 4px solid darkgrey;' src='img/tf1_5_M_ss1.jpeg'></img>","0","","exp","","0","<img src='img/tf1_5_T1_ss1_md.jpeg'></img>","0","true",""
"","html-keyboard-response","25","89010","0.0-10.0-0.5","147","""event"",""trial"",""time""
""fullscreenenter"",""0"",""2156""
","
","
","""event"",""trial"",""time""
""fullscreenenter"",""0"",""2156""
","
","null","<div style=""font-size:60px;"">+</div>","","null","fixation","2021-04-20 22:34:20.298","","","","",""
"","mars-trial","26","92290","0.0-10.0-1.5","147","""event"",""trial"",""time""
""fullscreenenter"",""0"",""2156""
","
","
","""event"",""trial"",""time""
""fullscreenenter"",""0"",""2156""
","
","2674.5949999894947","<img style='border: 4px solid darkgrey;' src='img/tf1_6_M_ss2.jpeg'></img>","3","","exp","","2","<img src='img/tf1_6_T1_ss2_md.jpeg'></img>","0","false",""
"","html-keyboard-response","27","92793","0.0-10.0-0.6","147","""event"",""trial"",""time""
""fullscreenenter"",""0"",""2156""
","
","
","""event"",""trial"",""time""
""fullscreenenter"",""0"",""2156""
","
","null","<div style=""font-size:60px;"">+</div>","","null","fixation","2021-04-20 22:34:24.081","","","","",""
"","mars-trial","28","97895","0.0-10.0-1.6","147","""event"",""trial"",""time""
""fullscreenenter"",""0"",""2156""
","
","
","""event"",""trial"",""time""
""fullscreenenter"",""0"",""2156""
","
","4493.434999953024","<img style='border: 4px solid darkgrey;' src='img/tf1_7_M_ss3.jpeg'></img>","2","","exp","","0","<img src='img/tf1_7_T1_ss3_md.jpeg'></img>","0","true",""
"","html-keyboard-response","29","98397","0.0-10.0-0.7","147","""event"",""trial"",""time""
""fullscreenenter"",""0"",""2156""
","
","
","""event"",""trial"",""time""
""fullscreenenter"",""0"",""2156""
","
","null","<div style=""font-size:60px;"">+</div>","","null","fixation","2021-04-20 22:34:29.685","","","","",""
"","mars-trial","30","106402","0.0-10.0-1.7","147","""event"",""trial"",""time""
""fullscreenenter"",""0"",""2156""
","
","
","""event"",""trial"",""time""
""fullscreenenter"",""0"",""2156""
","
","7399.075000023004","<img style='border: 4px solid darkgrey;' src='img/tf1_8_M_ss1.jpeg'></img>","0","","exp","","0","<img src='img/tf1_8_T1_ss1_md.jpeg'></img>","0","true",""
"","html-keyboard-response","31","106905","0.0-10.0-0.8","147","""event"",""trial"",""time""
""fullscreenenter"",""0"",""2156""
","
","
","""event"",""trial"",""time""
""fullscreenenter"",""0"",""2156""
","
","null","<div style=""font-size:60px;"">+</div>","","null","fixation","2021-04-20 22:34:38.193","","","","",""
"","mars-trial","32","113704","0.0-10.0-1.8","147","""event"",""trial"",""time""
""fullscreenenter"",""0"",""2156""
","
","
","""event"",""trial"",""time""
""fullscreenenter"",""0"",""2156""
","
","6191.48999999743","<img style='border: 4px solid darkgrey;' src='img/tf1_9_M_ss2.jpeg'></img>","2","","exp","","0","<img src='img/tf1_9_T1_ss2_md.jpeg'></img>","0","true",""
"","html-keyboard-response","33","114207","0.0-10.0-0.9","147","""event"",""trial"",""time""
""fullscreenenter"",""0"",""2156""
","
","
","""event"",""trial"",""time""
""fullscreenenter"",""0"",""2156""
","
","null","<div style=""font-size:60px;"">+</div>","","null","fixation","2021-04-20 22:34:45.495","","","","",""
"","mars-trial","34","121264","0.0-10.0-1.9","147","""event"",""trial"",""time""
""fullscreenenter"",""0"",""2156""
","
","
","""event"",""trial"",""time""
""fullscreenenter"",""0"",""2156""
","
","6450.40999999037","<img style='border: 4px solid darkgrey;' src='img/tf1_10_M_ss3.jpeg'></img>","3","","exp","","0","<img src='img/tf1_10_T1_ss3_md.jpeg'></img>","0","true",""
"","html-keyboard-response","35","121767","0.0-10.0-0.10","147","""event"",""trial"",""time""
""fullscreenenter"",""0"",""2156""
","
","
","""event"",""trial"",""time""
""fullscreenenter"",""0"",""2156""
","
","null","<div style=""font-size:60px;"">+</div>","","null","fixation","2021-04-20 22:34:53.055","","","","",""
"","mars-trial","36","131599","0.0-10.0-1.10","147","""event"",""trial"",""time""
""fullscreenenter"",""0"",""2156""
","
","
","""event"",""trial"",""time""
""fullscreenenter"",""0"",""2156""
","
","9224.035000021104","<img style='border: 4px solid darkgrey;' src='img/tf1_11_M_ss1.jpeg'></img>","1","","exp","","1","<img src='img/tf1_11_T1_ss1_md.jpeg'></img>","0","false",""
"","html-keyboard-response","37","132102","0.0-10.0-0.11","147","""event"",""trial"",""time""
""fullscreenenter"",""0"",""2156""
","
","
","""event"",""trial"",""time""
""fullscreenenter"",""0"",""2156""
","
","null","<div style=""font-size:60px;"">+</div>","","null","fixation","2021-04-20 22:35:03.390","","","","",""
"","mars-trial","38","141190","0.0-10.0-1.11","147","""event"",""trial"",""time""
""fullscreenenter"",""0"",""2156""
","
","
","""event"",""trial"",""time""
""fullscreenenter"",""0"",""2156""
","
","8480.265000020154","<img style='border: 4px solid darkgrey;' src='img/tf1_12_M_ss2.jpeg'></img>","2","","exp","","1","<img src='img/tf1_12_T1_ss2_md.jpeg'></img>","0","false",""
"","html-keyboard-response","39","141693","0.0-10.0-0.12","147","""event"",""trial"",""time""
""fullscreenenter"",""0"",""2156""
","
","
","""event"",""trial"",""time""
""fullscreenenter"",""0"",""2156""
","
","null","<div style=""font-size:60px;"">+</div>","","null","fixation","2021-04-20 22:35:12.981","","","","",""
"","mars-trial","40","153367","0.0-10.0-1.12","147","""event"",""trial"",""time""
""fullscreenenter"",""0"",""2156""
","
","
","""event"",""trial"",""time""
""fullscreenenter"",""0"",""2156""
","
","11066.959999967366","<img style='border: 4px solid darkgrey;' src='img/tf1_13_M_ss3.jpeg'></img>","0","","exp","","1","<img src='img/tf1_13_T1_ss3_md.jpeg'></img>","0","false",""
"","html-keyboard-response","41","153871","0.0-10.0-0.13","147","""event"",""trial"",""time""
""fullscreenenter"",""0"",""2156""
","
","
","""event"",""trial"",""time""
""fullscreenenter"",""0"",""2156""
","
","null","<div style=""font-size:60px;"">+</div>","","null","fixation","2021-04-20 22:35:25.159","","","","",""
"","mars-trial","42","175507","0.0-10.0-1.13","147","""event"",""trial"",""time""
""fullscreenenter"",""0"",""2156""
","
","
","""event"",""trial"",""time""
""fullscreenenter"",""0"",""2156""
","
","21031.620000023395","<img style='border: 4px solid darkgrey;' src='img/tf1_14_M_ss1.jpeg'></img>","3","","exp","","1","<img src='img/tf1_14_T1_ss1_md.jpeg'></img>","0","false",""
"","html-keyboard-response","43","176011","0.0-10.0-0.14","147","""event"",""trial"",""time""
""fullscreenenter"",""0"",""2156""
","
","
","""event"",""trial"",""time""
""fullscreenenter"",""0"",""2156""
","
","null","<div style=""font-size:60px;"">+</div>","","null","fixation","2021-04-20 22:35:47.299","","","","",""
"","mars-trial","44","195185","0.0-10.0-1.14","147","""event"",""trial"",""time""
""fullscreenenter"",""0"",""2156""
","
","
","""event"",""trial"",""time""
""fullscreenenter"",""0"",""2156""
","
","18567.750000045635","<img style='border: 4px solid darkgrey;' src='img/tf1_15_M_ss2.jpeg'></img>","0","","exp","","0","<img src='img/tf1_15_T1_ss2_md.jpeg'></img>","0","true",""
"","html-keyboard-response","45","195691","0.0-10.0-0.15","147","""event"",""trial"",""time""
""fullscreenenter"",""0"",""2156""
","
","
","""event"",""trial"",""time""
""fullscreenenter"",""0"",""2156""
","
","null","<div style=""font-size:60px;"">+</div>","","null","fixation","2021-04-20 22:36:06.979","","","","",""
"","mars-trial","46","213580","0.0-10.0-1.15","147","""event"",""trial"",""time""
""fullscreenenter"",""0"",""2156""
","
","
","""event"",""trial"",""time""
""fullscreenenter"",""0"",""2156""
","
","17283.294999971986","<img style='border: 4px solid darkgrey;' src='img/tf1_16_M_ss3.jpeg'></img>","0","","exp","","3","<img src='img/tf1_16_T1_ss3_md.jpeg'></img>","0","false",""
"","html-keyboard-response","47","214083","0.0-10.0-0.16","147","""event"",""trial"",""time""
""fullscreenenter"",""0"",""2156""
","
","
","""event"",""trial"",""time""
""fullscreenenter"",""0"",""2156""
","
","null","<div style=""font-size:60px;"">+</div>","","null","fixation","2021-04-20 22:36:25.371","","","","",""
"","mars-trial","48","242310","0.0-10.0-1.16","147","""event"",""trial"",""time""
""fullscreenenter"",""0"",""2156""
","
","
","""event"",""trial"",""time""
""fullscreenenter"",""0"",""2156""
","
","27619.590000016615","<img style='border: 4px solid darkgrey;' src='img/tf1_17_M_ss1.jpeg'></img>","2","","exp","","3","<img src='img/tf1_17_T1_ss1_md.jpeg'></img>","0","false",""
"","html-keyboard-response","49","242813","0.0-10.0-0.17","147","""event"",""trial"",""time""
""fullscreenenter"",""0"",""2156""
","
","
","""event"",""trial"",""time""
""fullscreenenter"",""0"",""2156""
","
","null","<div style=""font-size:60px;"">+</div>","","null","fixation","2021-04-20 22:36:54.101","","","","",""
"","mars-trial","50","259841","0.0-10.0-1.17","147","""event"",""trial"",""time""
""fullscreenenter"",""0"",""2156""
","
","
","""event"",""trial"",""time""
""fullscreenenter"",""0"",""2156""
","
","16420.180000015534","<img style='border: 4px solid darkgrey;' src='img/tf1_18_M_ss2.jpeg'></img>","1","","exp","","1","<img src='img/tf1_18_T1_ss2_md.jpeg'></img>","0","false",""
"","html-keyboard-response","51","260344","0.0-10.0-0.18","147","""event"",""trial"",""time""
""fullscreenenter"",""0"",""2156""
","
","
","""event"",""trial"",""time""
""fullscreenenter"",""0"",""2156""
","
","null","<div style=""font-size:60px;"">+</div>","","null","fixation","2021-04-20 22:37:11.632","","","","",""
"","mars-trial","52","266537","0.0-10.0-1.18","147","""event"",""trial"",""time""
""fullscreenenter"",""0"",""2156""
","
","
","""event"",""trial"",""time""
""fullscreenenter"",""0"",""2156""
","
","5586.130000010598","<img style='border: 4px solid darkgrey;' src='img/tf1_19_M_ss3.jpeg'></img>","2","","exp","","2","<img src='img/tf1_19_T1_ss3_md.jpeg'></img>","0","false",""
"","html-keyboard-response","53","267040","0.0-10.0-0.19","147","""event"",""trial"",""time""
""fullscreenenter"",""0"",""2156""
","
","
","""event"",""trial"",""time""
""fullscreenenter"",""0"",""2156""
","
","null","<div style=""font-size:60px;"">+</div>","","null","fixation","2021-04-20 22:37:18.328","","","","",""
"","mars-trial","54","284820","0.0-10.0-1.19","147","""event"",""trial"",""time""
""fullscreenenter"",""0"",""2156""
","
","
","""event"",""trial"",""time""
""fullscreenenter"",""0"",""2156""
","
","17172.770000004675","<img style='border: 4px solid darkgrey;' src='img/tf1_20_M_ss1.jpeg'></img>","2","","exp","","1","<img src='img/tf1_20_T1_ss1_md.jpeg'></img>","0","false",""
"","html-keyboard-response","55","285322","0.0-10.0-0.20","147","""event"",""trial"",""time""
""fullscreenenter"",""0"",""2156""
","
","
","""event"",""trial"",""time""
""fullscreenenter"",""0"",""2156""
","
","null","<div style=""font-size:60px;"">+</div>","","null","fixation","2021-04-20 22:37:36.610","","","","",""
"","mars-trial","56","309260","0.0-10.0-1.20","147","""event"",""trial"",""time""
""fullscreenenter"",""0"",""2156""
","
","
","""event"",""trial"",""time""
""fullscreenenter"",""0"",""2156""
","
","23330.469999986235","<img style='border: 4px solid darkgrey;' src='img/tf1_21_M_ss2.jpeg'></img>","1","","exp","","0","<img src='img/tf1_21_T1_ss2_md.jpeg'></img>","0","true",""
"","html-keyboard-response","57","309763","0.0-10.0-0.21","147","""event"",""trial"",""time""
""fullscreenenter"",""0"",""2156""
","
","
","""event"",""trial"",""time""
""fullscreenenter"",""0"",""2156""
","
","null","<div style=""font-size:60px;"">+</div>","","null","fixation","2021-04-20 22:38:01.051","","","","",""
"","mars-trial","58","319058","0.0-10.0-1.21","147","""event"",""trial"",""time""
""fullscreenenter"",""0"",""2156""
","
","
","""event"",""trial"",""time""
""fullscreenenter"",""0"",""2156""
","
","8687.760000000708","<img style='border: 4px solid darkgrey;' src='img/tf1_22_M_ss3.jpeg'></img>","2","","exp","","0","<img src='img/tf1_22_T1_ss3_md.jpeg'></img>","0","true",""
"","html-keyboard-response","59","319561","0.0-10.0-0.22","147","""event"",""trial"",""time""
""fullscreenenter"",""0"",""2156""
","
","
","""event"",""trial"",""time""
""fullscreenenter"",""0"",""2156""
","
","null","<div style=""font-size:60px;"">+</div>","","null","fixation","2021-04-20 22:38:10.849","","","","",""
"","mars-trial","60","346607","0.0-10.0-1.22","147","""event"",""trial"",""time""
""fullscreenenter"",""0"",""2156""
","
","
","""event"",""trial"",""time""
""fullscreenenter"",""0"",""2156""
","
","26439.835000026505","<img style='border: 4px solid darkgrey;' src='img/tf1_23_M_ss1.jpeg'></img>","3","","exp","","3","<img src='img/tf1_23_T1_ss1_md.jpeg'></img>","0","false",""
"","html-keyboard-response","61","347110","0.0-10.0-0.23","147","""event"",""trial"",""time""
""fullscreenenter"",""0"",""2156""
","
","
","""event"",""trial"",""time""
""fullscreenenter"",""0"",""2156""
","
","null","<div style=""font-size:60px;"">+</div>","","null","fixation","2021-04-20 22:38:38.398","","","","",""
"","mars-trial","62","366730","0.0-10.0-1.23","147","""event"",""trial"",""time""
""fullscreenenter"",""0"",""2156""
","
","
","""event"",""trial"",""time""
""fullscreenenter"",""0"",""2156""
","
","19014.48499999242","<img style='border: 4px solid darkgrey;' src='img/tf1_24_M_ss2.jpeg'></img>","3","","exp","","1","<img src='img/tf1_24_T1_ss2_md.jpeg'></img>","0","false",""
"","html-keyboard-response","63","367235","0.0-10.0-0.24","147","""event"",""trial"",""time""
""fullscreenenter"",""0"",""2156""
","
","
","""event"",""trial"",""time""
""fullscreenenter"",""0"",""2156""
","
","null","<div style=""font-size:60px;"">+</div>","","null","fixation","2021-04-20 22:38:58.524","","","","",""
"","mars-trial","64","383353","0.0-10.0-1.24","147","""event"",""trial"",""time""
""fullscreenenter"",""0"",""2156""
","
","
","""event"",""trial"",""time""
""fullscreenenter"",""0"",""2156""
","
","15511.340000026394","<img style='border: 4px solid darkgrey;' src='img/tf1_25_M_ss3.jpeg'></img>","0","","exp","","0","<img src='img/tf1_25_T1_ss3_md.jpeg'></img>","0","true",""
"","html-keyboard-response","65","383856","0.0-10.0-0.25","147","""event"",""trial"",""time""
""fullscreenenter"",""0"",""2156""
","
","
","""event"",""trial"",""time""
""fullscreenenter"",""0"",""2156""
","
","null","<div style=""font-size:60px;"">+</div>","","null","fixation","2021-04-20 22:39:15.144","","","","",""
"","mars-trial","66","412162","0.0-10.0-1.25","147","""event"",""trial"",""time""
""fullscreenenter"",""0"",""2156""
","
","
","""event"",""trial"",""time""
""fullscreenenter"",""0"",""2156""
","
","27698.139999993145","<img style='border: 4px solid darkgrey;' src='img/tf1_26_M_ss1.jpeg'></img>","2","","exp","","2","<img src='img/tf1_26_T1_ss1_md.jpeg'></img>","0","false",""
"","html-keyboard-response","67","412665","0.0-10.0-0.26","147","""event"",""trial"",""time""
""fullscreenenter"",""0"",""2156""
","
","
","""event"",""trial"",""time""
""fullscreenenter"",""0"",""2156""
","
","null","<div style=""font-size:60px;"">+</div>","","null","fixation","2021-04-20 22:39:43.953","","","","",""
"","mars-trial","68","443221","0.0-10.0-1.26","147","""event"",""trial"",""time""
""fullscreenenter"",""0"",""2156""
","
","
","""event"",""trial"",""time""
""fullscreenenter"",""0"",""2156""
","
","29948.11999995727","<img style='border: 4px solid darkgrey;' src='img/tf1_27_M_ss2.jpeg'></img>","2","","exp","","2","<img src='img/tf1_27_T1_ss2_md.jpeg'></img>","0","false",""
"","html-keyboard-response","69","443724","0.0-10.0-0.27","147","""event"",""trial"",""time""
""fullscreenenter"",""0"",""2156""
","
","
","""event"",""trial"",""time""
""fullscreenenter"",""0"",""2156""
","
","null","<div style=""font-size:60px;"">+</div>","","null","fixation","2021-04-20 22:40:15.012","","","","",""
"","mars-trial","70","473691","0.0-10.0-1.27","147","""event"",""trial"",""time""
""fullscreenenter"",""0"",""2156""
","
","
","""event"",""trial"",""time""
""fullscreenenter"",""0"",""2156""
","
","29360.21499999333","<img style='border: 4px solid darkgrey;' src='img/tf1_28_M_ss3.jpeg'></img>","2","","exp","","3","<img src='img/tf1_28_T1_ss3_md.jpeg'></img>","0","false",""
"","html-keyboard-response","71","474193","0.0-10.0-0.28","147","""event"",""trial"",""time""
""fullscreenenter"",""0"",""2156""
","
","
","""event"",""trial"",""time""
""fullscreenenter"",""0"",""2156""
","
","null","<div style=""font-size:60px;"">+</div>","","null","fixation","2021-04-20 22:40:45.481","","","","",""
"","mars-trial","72","504298","0.0-10.0-1.28","147","""event"",""trial"",""time""
""fullscreenenter"",""0"",""2156""
","
","
","""event"",""trial"",""time""
""fullscreenenter"",""0"",""2156""
","
","null","<img style='border: 4px solid darkgrey;' src='img/tf1_29_M_ss1.jpeg'></img>","null","","exp","","null","<img src='img/tf1_29_T1_ss1_md.jpeg'></img>","0","false",""
"","html-keyboard-response","73","504802","0.0-10.0-0.29","147","""event"",""trial"",""time""
""fullscreenenter"",""0"",""2156""
","
","
","""event"",""trial"",""time""
""fullscreenenter"",""0"",""2156""
","
","null","<div style=""font-size:60px;"">+</div>","","null","fixation","2021-04-20 22:41:16.090","","","","",""
"","mars-trial","74","524037","0.0-10.0-1.29","147","""event"",""trial"",""time""
""fullscreenenter"",""0"",""2156""
","
","
","""event"",""trial"",""time""
""fullscreenenter"",""0"",""2156""
","
","18628.599999996368","<img style='border: 4px solid darkgrey;' src='img/tf1_30_M_ss2.jpeg'></img>","2","","exp","","0","<img src='img/tf1_30_T1_ss2_md.jpeg'></img>","0","true",""
"","html-keyboard-response","75","524540","0.0-10.0-0.30","147","""event"",""trial"",""time""
""fullscreenenter"",""0"",""2156""
","
","
","""event"",""trial"",""time""
""fullscreenenter"",""0"",""2156""
","
","null","<div style=""font-size:60px;"">+</div>","","null","fixation","2021-04-20 22:41:35.828","","","","",""
"","mars-trial","76","551674","0.0-10.0-1.30","147","""event"",""trial"",""time""
""fullscreenenter"",""0"",""2156""
","
","
","""event"",""trial"",""time""
""fullscreenenter"",""0"",""2156""
","
","","","","","exp","","","<img src='img/tf1_31_T1_ss3_md.jpeg'></img>","0","false",""
"","html-keyboard-response","77","552176","0.0-10.0-0.31","147","""event"",""trial"",""time""
""fullscreenenter"",""0"",""2156""
","
","
","""event"",""trial"",""time""
""fullscreenenter"",""0"",""2156""
","
","null","<div style=""font-size:60px;"">+</div>","","null","fixation","2021-04-20 22:42:03.464","","","","",""
"","audio-button-response","78","556078","0.0-11.0","147","""event"",""trial"",""time""
""fullscreenenter"",""0"",""2156""
","
","
","""event"",""trial"",""time""
""fullscreenenter"",""0"",""2156""
","
","3799.924999999348","audio/mars_instructions_slide5.wav","0","","","","","","","",""
