"success","trial_type","trial_index","time_elapsed","internal_node_id","subject_id","interactions","blur_events","focus_events","fullscreenenter_events","fullscreenexit_events","rt","stimulus","button_pressed","key_press","part","timestamp","unshuffled_button","correct_response","correct_button","correct","value"
"true","fullscreen","0","4024","0.0-0.0","A1107","""event"",""trial"",""time""
""fullscreenenter"",""0"",""3108""
","
","
","""event"",""trial"",""time""
""fullscreenenter"",""0"",""3108""
","
","","","","","","","","","","",""
"","pavlovia","1","4041","0.0-1.0","A1107","""event"",""trial"",""time""
""fullscreenenter"",""0"",""3108""
","
","
","""event"",""trial"",""time""
""fullscreenenter"",""0"",""3108""
","
","","","","","","","","","","",""
"","html-button-response","2","5483","0.0-2.0","A1107","""event"",""trial"",""time""
""fullscreenenter"",""0"",""3108""
","
","
","""event"",""trial"",""time""
""fullscreenenter"",""0"",""3108""
","
","1436.6999999983818","<p>Welcome! Press START to begin.</p><br>","0","","","","","","","",""
"","audio-button-response","3","28308","0.0-3.0","A1107","""event"",""trial"",""time""
""fullscreenenter"",""0"",""3108""
","
","
","""event"",""trial"",""time""
""fullscreenenter"",""0"",""3108""
","
","22817.439999998896","audio/mars_instructions_slide2.wav","0","","","","","","","",""
"","audio-button-response","4","34109","0.0-4.0","A1107","""event"",""trial"",""time""
""fullscreenenter"",""0"",""3108""
","
","
","""event"",""trial"",""time""
""fullscreenenter"",""0"",""3108""
","
","5795.650000000023","audio/mars_instructions_slide3.wav","0","","","","","","","",""
"","html-keyboard-response","5","34621","0.0-5.0-0.0","A1107","""event"",""trial"",""time""
""fullscreenenter"",""0"",""3108""
","
","
","""event"",""trial"",""time""
""fullscreenenter"",""0"",""3108""
","
","null","<div style=""font-size:60px;"">+</div>","","null","fixation","2021-04-01 01:56:19.034","","","","",""
"","mars-trial","6","39455","0.0-5.0-1.0","A1107","""event"",""trial"",""time""
""fullscreenenter"",""0"",""3108""
","
","
","""event"",""trial"",""time""
""fullscreenenter"",""0"",""3108""
","
","2683.484999994107","<img style='border: 4px solid darkgrey;' src='practice/pt1_M1.png'></img>","2","","practice","","0","<img src='practice/pt1_T1.png'></img>","0","true",""
"","html-keyboard-response","7","39969","0.0-6.0-0.0","A1107","""event"",""trial"",""time""
""fullscreenenter"",""0"",""3108""
","
","
","""event"",""trial"",""time""
""fullscreenenter"",""0"",""3108""
","
","null","<div style=""font-size:60px;"">+</div>","","null","fixation","2021-04-01 01:56:24.382","","","","",""
"","mars-trial","8","44645","0.0-6.0-1.0","A1107","""event"",""trial"",""time""
""fullscreenenter"",""0"",""3108""
","
","
","""event"",""trial"",""time""
""fullscreenenter"",""0"",""3108""
","
","2551.785000003292","<img style='border: 4px solid darkgrey;' src='practice/pt2_M1.png'></img>","3","","practice","","0","<img src='practice/pt2_T1.png'></img>","0","true",""
"","html-keyboard-response","9","45164","0.0-7.0-0.0","A1107","""event"",""trial"",""time""
""fullscreenenter"",""0"",""3108""
","
","
","""event"",""trial"",""time""
""fullscreenenter"",""0"",""3108""
","
","null","<div style=""font-size:60px;"">+</div>","","null","fixation","2021-04-01 01:56:29.577","","","","",""
"","mars-trial","10","51167","0.0-7.0-1.0","A1107","""event"",""trial"",""time""
""fullscreenenter"",""0"",""3108""
","
","
","""event"",""trial"",""time""
""fullscreenenter"",""0"",""3108""
","
","3879.8549999992247","<img style='border: 4px solid darkgrey;' src='practice/pt3_M1.png'></img>","1","","practice","","2","<img src='practice/pt3_T1.png'></img>","0","false",""
"","html-keyboard-response","11","51682","0.0-7.1-0.1","A1107","""event"",""trial"",""time""
""fullscreenenter"",""0"",""3108""
","
","
","""event"",""trial"",""time""
""fullscreenenter"",""0"",""3108""
","
","null","<div style=""font-size:60px;"">+</div>","","null","fixation","2021-04-01 01:56:36.096","","","","",""
"","mars-trial","12","56444","0.0-7.1-1.1","A1107","""event"",""trial"",""time""
""fullscreenenter"",""0"",""3108""
","
","
","""event"",""trial"",""time""
""fullscreenenter"",""0"",""3108""
","
","2625.0100000033854","<img style='border: 4px solid darkgrey;' src='practice/pt3_M1.png'></img>","2","","practice","","1","<img src='practice/pt3_T1.png'></img>","0","false",""
"","html-keyboard-response","13","56965","0.0-7.2-0.2","A1107","""event"",""trial"",""time""
""fullscreenenter"",""0"",""3108""
","
","
","""event"",""trial"",""time""
""fullscreenenter"",""0"",""3108""
","
","null","<div style=""font-size:60px;"">+</div>","","null","fixation","2021-04-01 01:56:41.378","","","","",""
"","mars-trial","14","61419","0.0-7.2-1.2","A1107","""event"",""trial"",""time""
""fullscreenenter"",""0"",""3108""
","
","
","""event"",""trial"",""time""
""fullscreenenter"",""0"",""3108""
","
","2309.434999995574","<img style='border: 4px solid darkgrey;' src='practice/pt3_M1.png'></img>","0","","practice","","0","<img src='practice/pt3_T1.png'></img>","0","true",""
"","audio-button-response","15","63567","0.0-8.0","A1107","""event"",""trial"",""time""
""fullscreenenter"",""0"",""3108""
","
","
","""event"",""trial"",""time""
""fullscreenenter"",""0"",""3108""
","
","2142.29499999783","audio/mars_instructions_slide4.wav","0","","","","","","","",""
"","call-function","16","63570","0.0-9.0","A1107","""event"",""trial"",""time""
""fullscreenenter"",""0"",""3108""
","
","
","""event"",""trial"",""time""
""fullscreenenter"",""0"",""3108""
","
","","","","","","","","","","",""
"","html-keyboard-response","17","64076","0.0-10.0-0.0","A1107","""event"",""trial"",""time""
""fullscreenenter"",""0"",""3108""
","
","
","""event"",""trial"",""time""
""fullscreenenter"",""0"",""3108""
","
","null","<div style=""font-size:60px;"">+</div>","","null","fixation","2021-04-01 01:56:48.490","","","","",""
"","mars-trial","18","67076","0.0-10.0-1.0","A1107","""event"",""trial"",""time""
""fullscreenenter"",""0"",""3108""
","
","
","""event"",""trial"",""time""
""fullscreenenter"",""0"",""3108""
","
","2368.660000000091","<img style='border: 4px solid darkgrey;' src='img/tf1_1_M_ss3.jpeg'></img>","1","","exp","","0","<img src='img/tf1_1_T1_ss3_md.jpeg'></img>","0","true",""
"","html-keyboard-response","19","67603","0.0-10.0-0.1","A1107","""event"",""trial"",""time""
""fullscreenenter"",""0"",""3108""
","
","
","""event"",""trial"",""time""
""fullscreenenter"",""0"",""3108""
","
","null","<div style=""font-size:60px;"">+</div>","","null","fixation","2021-04-01 01:56:52.017","","","","",""
"","mars-trial","20","70634","0.0-10.0-1.1","A1107","""event"",""trial"",""time""
""fullscreenenter"",""0"",""3108""
","
","
","""event"",""trial"",""time""
""fullscreenenter"",""0"",""3108""
","
","2398.444999998901","<img style='border: 4px solid darkgrey;' src='img/tf1_2_M_ss1.jpeg'></img>","2","","exp","","1","<img src='img/tf1_2_T1_ss1_md.jpeg'></img>","0","false",""
"","html-keyboard-response","21","71139","0.0-10.0-0.2","A1107","""event"",""trial"",""time""
""fullscreenenter"",""0"",""3108""
","
","
","""event"",""trial"",""time""
""fullscreenenter"",""0"",""3108""
","
","null","<div style=""font-size:60px;"">+</div>","","null","fixation","2021-04-01 01:56:55.552","","","","",""
"","mars-trial","22","74469","0.0-10.0-1.2","A1107","""event"",""trial"",""time""
""fullscreenenter"",""0"",""3108""
","
","
","""event"",""trial"",""time""
""fullscreenenter"",""0"",""3108""
","
","2693.9500000007683","<img style='border: 4px solid darkgrey;' src='img/tf1_3_M_ss2.jpeg'></img>","0","","exp","","0","<img src='img/tf1_3_T1_ss2_md.jpeg'></img>","0","true",""
"","html-keyboard-response","23","74974","0.0-10.0-0.3","A1107","""event"",""trial"",""time""
""fullscreenenter"",""0"",""3108""
","
","
","""event"",""trial"",""time""
""fullscreenenter"",""0"",""3108""
","
","null","<div style=""font-size:60px;"">+</div>","","null","fixation","2021-04-01 01:56:59.387","","","","",""
"","mars-trial","24","79336","0.0-10.0-1.3","A1107","""event"",""trial"",""time""
""fullscreenenter"",""0"",""3108""
","
","
","""event"",""trial"",""time""
""fullscreenenter"",""0"",""3108""
","
","3732.239999997546","<img style='border: 4px solid darkgrey;' src='img/tf1_4_M_ss3.jpeg'></img>","1","","exp","","0","<img src='img/tf1_4_T1_ss3_md.jpeg'></img>","0","true",""
"","html-keyboard-response","25","79854","0.0-10.0-0.4","A1107","""event"",""trial"",""time""
""fullscreenenter"",""0"",""3108""
","
","
","""event"",""trial"",""time""
""fullscreenenter"",""0"",""3108""
","
","null","<div style=""font-size:60px;"">+</div>","","null","fixation","2021-04-01 01:57:04.268","","","","",""
"","mars-trial","26","82536","0.0-10.0-1.4","A1107","""event"",""trial"",""time""
""fullscreenenter"",""0"",""3108""
","
","
","""event"",""trial"",""time""
""fullscreenenter"",""0"",""3108""
","
","2040.4750000016065","<img style='border: 4px solid darkgrey;' src='img/tf1_5_M_ss1.jpeg'></img>","1","","exp","","0","<img src='img/tf1_5_T1_ss1_md.jpeg'></img>","0","true",""
"","html-keyboard-response","27","83043","0.0-10.0-0.5","A1107","""event"",""trial"",""time""
""fullscreenenter"",""0"",""3108""
","
","
","""event"",""trial"",""time""
""fullscreenenter"",""0"",""3108""
","
","null","<div style=""font-size:60px;"">+</div>","","null","fixation","2021-04-01 01:57:07.457","","","","",""
"","mars-trial","28","87890","0.0-10.0-1.5","A1107","""event"",""trial"",""time""
""fullscreenenter"",""0"",""3108""
","
","
","""event"",""trial"",""time""
""fullscreenenter"",""0"",""3108""
","
","4210.6150000036","<img style='border: 4px solid darkgrey;' src='img/tf1_6_M_ss2.jpeg'></img>","1","","exp","","3","<img src='img/tf1_6_T1_ss2_md.jpeg'></img>","0","false",""
"","html-keyboard-response","29","88412","0.0-10.0-0.6","A1107","""event"",""trial"",""time""
""fullscreenenter"",""0"",""3108""
","
","
","""event"",""trial"",""time""
""fullscreenenter"",""0"",""3108""
","
","null","<div style=""font-size:60px;"">+</div>","","null","fixation","2021-04-01 01:57:12.826","","","","",""
"","mars-trial","30","92404","0.0-10.0-1.6","A1107","""event"",""trial"",""time""
""fullscreenenter"",""0"",""3108""
","
","
","""event"",""trial"",""time""
""fullscreenenter"",""0"",""3108""
","
","3361.0499999995227","<img style='border: 4px solid darkgrey;' src='img/tf1_7_M_ss3.jpeg'></img>","2","","exp","","0","<img src='img/tf1_7_T1_ss3_md.jpeg'></img>","0","true",""
"","html-keyboard-response","31","92923","0.0-10.0-0.7","A1107","""event"",""trial"",""time""
""fullscreenenter"",""0"",""3108""
","
","
","""event"",""trial"",""time""
""fullscreenenter"",""0"",""3108""
","
","null","<div style=""font-size:60px;"">+</div>","","null","fixation","2021-04-01 01:57:17.337","","","","",""
"","mars-trial","32","98847","0.0-10.0-1.7","A1107","""event"",""trial"",""time""
""fullscreenenter"",""0"",""3108""
","
","
","""event"",""trial"",""time""
""fullscreenenter"",""0"",""3108""
","
","5291.384999996808","<img style='border: 4px solid darkgrey;' src='img/tf1_8_M_ss1.jpeg'></img>","3","","exp","","0","<img src='img/tf1_8_T1_ss1_md.jpeg'></img>","0","true",""
"","html-keyboard-response","33","99353","0.0-10.0-0.8","A1107","""event"",""trial"",""time""
""fullscreenenter"",""0"",""3108""
","
","
","""event"",""trial"",""time""
""fullscreenenter"",""0"",""3108""
","
","null","<div style=""font-size:60px;"">+</div>","","null","fixation","2021-04-01 01:57:23.766","","","","",""
"","mars-trial","34","101835","0.0-10.0-1.8","A1107","""event"",""trial"",""time""
""fullscreenenter"",""0"",""3108""
","
","
","""event"",""trial"",""time""
""fullscreenenter"",""0"",""3108""
","
","1866.8050000051153","<img style='border: 4px solid darkgrey;' src='img/tf1_9_M_ss2.jpeg'></img>","2","","exp","","1","<img src='img/tf1_9_T1_ss2_md.jpeg'></img>","0","false",""
"","html-keyboard-response","35","102341","0.0-10.0-0.9","A1107","""event"",""trial"",""time""
""fullscreenenter"",""0"",""3108""
","
","
","""event"",""trial"",""time""
""fullscreenenter"",""0"",""3108""
","
","null","<div style=""font-size:60px;"">+</div>","","null","fixation","2021-04-01 01:57:26.754","","","","",""
"","mars-trial","36","104457","0.0-10.0-1.9","A1107","""event"",""trial"",""time""
""fullscreenenter"",""0"",""3108""
","
","
","""event"",""trial"",""time""
""fullscreenenter"",""0"",""3108""
","
","1501.2449999994715","<img style='border: 4px solid darkgrey;' src='img/tf1_10_M_ss3.jpeg'></img>","2","","exp","","0","<img src='img/tf1_10_T1_ss3_md.jpeg'></img>","0","true",""
"","html-keyboard-response","37","104963","0.0-10.0-0.10","A1107","""event"",""trial"",""time""
""fullscreenenter"",""0"",""3108""
","
","
","""event"",""trial"",""time""
""fullscreenenter"",""0"",""3108""
","
","null","<div style=""font-size:60px;"">+</div>","","null","fixation","2021-04-01 01:57:29.376","","","","",""
"","mars-trial","38","110399","0.0-10.0-1.10","A1107","""event"",""trial"",""time""
""fullscreenenter"",""0"",""3108""
","
","
","""event"",""trial"",""time""
""fullscreenenter"",""0"",""3108""
","
","4823.210000002291","<img style='border: 4px solid darkgrey;' src='img/tf1_11_M_ss1.jpeg'></img>","2","","exp","","2","<img src='img/tf1_11_T1_ss1_md.jpeg'></img>","0","false",""
"","html-keyboard-response","39","110902","0.0-10.0-0.11","A1107","""event"",""trial"",""time""
""fullscreenenter"",""0"",""3108""
","
","
","""event"",""trial"",""time""
""fullscreenenter"",""0"",""3108""
","
","null","<div style=""font-size:60px;"">+</div>","","null","fixation","2021-04-01 01:57:35.316","","","","",""
"","mars-trial","40","114414","0.0-10.0-1.11","A1107","""event"",""trial"",""time""
""fullscreenenter"",""0"",""3108""
","
","
","""event"",""trial"",""time""
""fullscreenenter"",""0"",""3108""
","
","2894.995000002382","<img style='border: 4px solid darkgrey;' src='img/tf1_12_M_ss2.jpeg'></img>","0","","exp","","1","<img src='img/tf1_12_T1_ss2_md.jpeg'></img>","0","false",""
"","html-keyboard-response","41","114917","0.0-10.0-0.12","A1107","""event"",""trial"",""time""
""fullscreenenter"",""0"",""3108""
","
","
","""event"",""trial"",""time""
""fullscreenenter"",""0"",""3108""
","
","null","<div style=""font-size:60px;"">+</div>","","null","fixation","2021-04-01 01:57:39.330","","","","",""
"","mars-trial","42","116687","0.0-10.0-1.12","A1107","""event"",""trial"",""time""
""fullscreenenter"",""0"",""3108""
","
","
","""event"",""trial"",""time""
""fullscreenenter"",""0"",""3108""
","
","1157.020000006014","<img style='border: 4px solid darkgrey;' src='img/tf1_13_M_ss3.jpeg'></img>","2","","exp","","1","<img src='img/tf1_13_T1_ss3_md.jpeg'></img>","0","false",""
"","html-keyboard-response","43","117191","0.0-10.0-0.13","A1107","""event"",""trial"",""time""
""fullscreenenter"",""0"",""3108""
","
","
","""event"",""trial"",""time""
""fullscreenenter"",""0"",""3108""
","
","null","<div style=""font-size:60px;"">+</div>","","null","fixation","2021-04-01 01:57:41.605","","","","",""
"","mars-trial","44","118796","0.0-10.0-1.13","A1107","""event"",""trial"",""time""
""fullscreenenter"",""0"",""3108""
","
","
","""event"",""trial"",""time""
""fullscreenenter"",""0"",""3108""
","
","990.7250000032946","<img style='border: 4px solid darkgrey;' src='img/tf1_14_M_ss1.jpeg'></img>","0","","exp","","2","<img src='img/tf1_14_T1_ss1_md.jpeg'></img>","0","false",""
"","html-keyboard-response","45","119299","0.0-10.0-0.14","A1107","""event"",""trial"",""time""
""fullscreenenter"",""0"",""3108""
","
","
","""event"",""trial"",""time""
""fullscreenenter"",""0"",""3108""
","
","null","<div style=""font-size:60px;"">+</div>","","null","fixation","2021-04-01 01:57:43.712","","","","",""
"","mars-trial","46","121863","0.0-10.0-1.14","A1107","""event"",""trial"",""time""
""fullscreenenter"",""0"",""3108""
","
","
","""event"",""trial"",""time""
""fullscreenenter"",""0"",""3108""
","
","1949.895000005199","<img style='border: 4px solid darkgrey;' src='img/tf1_15_M_ss2.jpeg'></img>","3","","exp","","1","<img src='img/tf1_15_T1_ss2_md.jpeg'></img>","0","false",""
"","html-keyboard-response","47","122366","0.0-10.0-0.15","A1107","""event"",""trial"",""time""
""fullscreenenter"",""0"",""3108""
","
","
","""event"",""trial"",""time""
""fullscreenenter"",""0"",""3108""
","
","null","<div style=""font-size:60px;"">+</div>","","null","fixation","2021-04-01 01:57:46.779","","","","",""
"","mars-trial","48","126401","0.0-10.0-1.15","A1107","""event"",""trial"",""time""
""fullscreenenter"",""0"",""3108""
","
","
","""event"",""trial"",""time""
""fullscreenenter"",""0"",""3108""
","
","3421.2599999955273","<img style='border: 4px solid darkgrey;' src='img/tf1_16_M_ss3.jpeg'></img>","3","","exp","","3","<img src='img/tf1_16_T1_ss3_md.jpeg'></img>","0","false",""
"","html-keyboard-response","49","126905","0.0-10.0-0.16","A1107","""event"",""trial"",""time""
""fullscreenenter"",""0"",""3108""
","
","
","""event"",""trial"",""time""
""fullscreenenter"",""0"",""3108""
","
","null","<div style=""font-size:60px;"">+</div>","","null","fixation","2021-04-01 01:57:51.318","","","","",""
"","mars-trial","50","129506","0.0-10.0-1.16","A1107","""event"",""trial"",""time""
""fullscreenenter"",""0"",""3108""
","
","
","""event"",""trial"",""time""
""fullscreenenter"",""0"",""3108""
","
","1984.8300000012387","<img style='border: 4px solid darkgrey;' src='img/tf1_17_M_ss1.jpeg'></img>","2","","exp","","2","<img src='img/tf1_17_T1_ss1_md.jpeg'></img>","0","false",""
"","html-keyboard-response","51","130011","0.0-10.0-0.17","A1107","""event"",""trial"",""time""
""fullscreenenter"",""0"",""3108""
","
","
","""event"",""trial"",""time""
""fullscreenenter"",""0"",""3108""
","
","null","<div style=""font-size:60px;"">+</div>","","null","fixation","2021-04-01 01:57:54.424","","","","",""
"","mars-trial","52","132123","0.0-10.0-1.17","A1107","""event"",""trial"",""time""
""fullscreenenter"",""0"",""3108""
","
","
","""event"",""trial"",""time""
""fullscreenenter"",""0"",""3108""
","
","1496.7099999994389","<img style='border: 4px solid darkgrey;' src='img/tf1_18_M_ss2.jpeg'></img>","2","","exp","","0","<img src='img/tf1_18_T1_ss2_md.jpeg'></img>","0","true",""
"","html-keyboard-response","53","132626","0.0-10.0-0.18","A1107","""event"",""trial"",""time""
""fullscreenenter"",""0"",""3108""
","
","
","""event"",""trial"",""time""
""fullscreenenter"",""0"",""3108""
","
","null","<div style=""font-size:60px;"">+</div>","","null","fixation","2021-04-01 01:57:57.040","","","","",""
"","mars-trial","54","135918","0.0-10.0-1.18","A1107","""event"",""trial"",""time""
""fullscreenenter"",""0"",""3108""
","
","
","""event"",""trial"",""time""
""fullscreenenter"",""0"",""3108""
","
","2674.0799999970477","<img style='border: 4px solid darkgrey;' src='img/tf1_19_M_ss3.jpeg'></img>","0","","exp","","3","<img src='img/tf1_19_T1_ss3_md.jpeg'></img>","0","false",""
"","html-keyboard-response","55","136424","0.0-10.0-0.19","A1107","""event"",""trial"",""time""
""fullscreenenter"",""0"",""3108""
","
","
","""event"",""trial"",""time""
""fullscreenenter"",""0"",""3108""
","
","null","<div style=""font-size:60px;"">+</div>","","null","fixation","2021-04-01 01:58:00.837","","","","",""
"","mars-trial","56","138856","0.0-10.0-1.19","A1107","""event"",""trial"",""time""
""fullscreenenter"",""0"",""3108""
","
","
","""event"",""trial"",""time""
""fullscreenenter"",""0"",""3108""
","
","1815.8049999983632","<img style='border: 4px solid darkgrey;' src='img/tf1_20_M_ss1.jpeg'></img>","1","","exp","","1","<img src='img/tf1_20_T1_ss1_md.jpeg'></img>","0","false",""
"","html-keyboard-response","57","139361","0.0-10.0-0.20","A1107","""event"",""trial"",""time""
""fullscreenenter"",""0"",""3108""
","
","
","""event"",""trial"",""time""
""fullscreenenter"",""0"",""3108""
","
","null","<div style=""font-size:60px;"">+</div>","","null","fixation","2021-04-01 01:58:03.775","","","","",""
"","mars-trial","58","143740","0.0-10.0-1.20","A1107","""event"",""trial"",""time""
""fullscreenenter"",""0"",""3108""
","
","
","""event"",""trial"",""time""
""fullscreenenter"",""0"",""3108""
","
","3761.109999999462","<img style='border: 4px solid darkgrey;' src='img/tf1_21_M_ss2.jpeg'></img>","0","","exp","","2","<img src='img/tf1_21_T1_ss2_md.jpeg'></img>","0","false",""
"","html-keyboard-response","59","144243","0.0-10.0-0.21","A1107","""event"",""trial"",""time""
""fullscreenenter"",""0"",""3108""
","
","
","""event"",""trial"",""time""
""fullscreenenter"",""0"",""3108""
","
","null","<div style=""font-size:60px;"">+</div>","","null","fixation","2021-04-01 01:58:08.656","","","","",""
"","mars-trial","60","147928","0.0-10.0-1.21","A1107","""event"",""trial"",""time""
""fullscreenenter"",""0"",""3108""
","
","
","""event"",""trial"",""time""
""fullscreenenter"",""0"",""3108""
","
","3067.1999999976833","<img style='border: 4px solid darkgrey;' src='img/tf1_22_M_ss3.jpeg'></img>","3","","exp","","2","<img src='img/tf1_22_T1_ss3_md.jpeg'></img>","0","false",""
"","html-keyboard-response","61","148434","0.0-10.0-0.22","A1107","""event"",""trial"",""time""
""fullscreenenter"",""0"",""3108""
","
","
","""event"",""trial"",""time""
""fullscreenenter"",""0"",""3108""
","
","null","<div style=""font-size:60px;"">+</div>","","null","fixation","2021-04-01 01:58:12.848","","","","",""
"","mars-trial","62","153105","0.0-10.0-1.22","A1107","""event"",""trial"",""time""
""fullscreenenter"",""0"",""3108""
","
","
","""event"",""trial"",""time""
""fullscreenenter"",""0"",""3108""
","
","4043.5550000038347","<img style='border: 4px solid darkgrey;' src='img/tf1_23_M_ss1.jpeg'></img>","3","","exp","","2","<img src='img/tf1_23_T1_ss1_md.jpeg'></img>","0","false",""
"","html-keyboard-response","63","153609","0.0-10.0-0.23","A1107","""event"",""trial"",""time""
""fullscreenenter"",""0"",""3108""
","
","
","""event"",""trial"",""time""
""fullscreenenter"",""0"",""3108""
","
","null","<div style=""font-size:60px;"">+</div>","","null","fixation","2021-04-01 01:58:18.024","","","","",""
"","mars-trial","64","155618","0.0-10.0-1.23","A1107","""event"",""trial"",""time""
""fullscreenenter"",""0"",""3108""
","
","
","""event"",""trial"",""time""
""fullscreenenter"",""0"",""3108""
","
","1391.380000000936","<img style='border: 4px solid darkgrey;' src='img/tf1_24_M_ss2.jpeg'></img>","0","","exp","","0","<img src='img/tf1_24_T1_ss2_md.jpeg'></img>","0","true",""
"","html-keyboard-response","65","156122","0.0-10.0-0.24","A1107","""event"",""trial"",""time""
""fullscreenenter"",""0"",""3108""
","
","
","""event"",""trial"",""time""
""fullscreenenter"",""0"",""3108""
","
","null","<div style=""font-size:60px;"">+</div>","","null","fixation","2021-04-01 01:58:20.535","","","","",""
"","mars-trial","66","160235","0.0-10.0-1.24","A1107","""event"",""trial"",""time""
""fullscreenenter"",""0"",""3108""
","
","
","""event"",""trial"",""time""
""fullscreenenter"",""0"",""3108""
","
","3498.7999999939348","<img style='border: 4px solid darkgrey;' src='img/tf1_25_M_ss3.jpeg'></img>","1","","exp","","2","<img src='img/tf1_25_T1_ss3_md.jpeg'></img>","0","false",""
"","html-keyboard-response","67","160741","0.0-10.0-0.25","A1107","""event"",""trial"",""time""
""fullscreenenter"",""0"",""3108""
","
","
","""event"",""trial"",""time""
""fullscreenenter"",""0"",""3108""
","
","null","<div style=""font-size:60px;"">+</div>","","null","fixation","2021-04-01 01:58:25.154","","","","",""
"","mars-trial","68","162853","0.0-10.0-1.25","A1107","""event"",""trial"",""time""
""fullscreenenter"",""0"",""3108""
","
","
","""event"",""trial"",""time""
""fullscreenenter"",""0"",""3108""
","
","1496.2850000010803","<img style='border: 4px solid darkgrey;' src='img/tf1_26_M_ss1.jpeg'></img>","1","","exp","","0","<img src='img/tf1_26_T1_ss1_md.jpeg'></img>","0","true",""
"","html-keyboard-response","69","163356","0.0-10.0-0.26","A1107","""event"",""trial"",""time""
""fullscreenenter"",""0"",""3108""
","
","
","""event"",""trial"",""time""
""fullscreenenter"",""0"",""3108""
","
","null","<div style=""font-size:60px;"">+</div>","","null","fixation","2021-04-01 01:58:27.769","","","","",""
"","mars-trial","70","166841","0.0-10.0-1.26","A1107","""event"",""trial"",""time""
""fullscreenenter"",""0"",""3108""
","
","
","""event"",""trial"",""time""
""fullscreenenter"",""0"",""3108""
","
","2870.070000004489","<img style='border: 4px solid darkgrey;' src='img/tf1_27_M_ss2.jpeg'></img>","2","","exp","","0","<img src='img/tf1_27_T1_ss2_md.jpeg'></img>","0","true",""
"","html-keyboard-response","71","167344","0.0-10.0-0.27","A1107","""event"",""trial"",""time""
""fullscreenenter"",""0"",""3108""
","
","
","""event"",""trial"",""time""
""fullscreenenter"",""0"",""3108""
","
","null","<div style=""font-size:60px;"">+</div>","","null","fixation","2021-04-01 01:58:31.757","","","","",""
"","mars-trial","72","169317","0.0-10.0-1.27","A1107","""event"",""trial"",""time""
""fullscreenenter"",""0"",""3108""
","
","
","""event"",""trial"",""time""
""fullscreenenter"",""0"",""3108""
","
","1355.6200000020908","<img style='border: 4px solid darkgrey;' src='img/tf1_28_M_ss3.jpeg'></img>","2","","exp","","2","<img src='img/tf1_28_T1_ss3_md.jpeg'></img>","0","false",""
"","html-keyboard-response","73","169823","0.0-10.0-0.28","A1107","""event"",""trial"",""time""
""fullscreenenter"",""0"",""3108""
","
","
","""event"",""trial"",""time""
""fullscreenenter"",""0"",""3108""
","
","null","<div style=""font-size:60px;"">+</div>","","null","fixation","2021-04-01 01:58:34.236","","","","",""
"","mars-trial","74","172795","0.0-10.0-1.28","A1107","""event"",""trial"",""time""
""fullscreenenter"",""0"",""3108""
","
","
","""event"",""trial"",""time""
""fullscreenenter"",""0"",""3108""
","
","2355.970000004163","<img style='border: 4px solid darkgrey;' src='img/tf1_29_M_ss1.jpeg'></img>","1","","exp","","0","<img src='img/tf1_29_T1_ss1_md.jpeg'></img>","0","true",""
"","html-keyboard-response","75","173300","0.0-10.0-0.29","A1107","""event"",""trial"",""time""
""fullscreenenter"",""0"",""3108""
","
","
","""event"",""trial"",""time""
""fullscreenenter"",""0"",""3108""
","
","null","<div style=""font-size:60px;"">+</div>","","null","fixation","2021-04-01 01:58:37.713","","","","",""
"","mars-trial","76","176235","0.0-10.0-1.29","A1107","""event"",""trial"",""time""
""fullscreenenter"",""0"",""3108""
","
","
","""event"",""trial"",""time""
""fullscreenenter"",""0"",""3108""
","
","2319.4100000036997","<img style='border: 4px solid darkgrey;' src='img/tf1_30_M_ss2.jpeg'></img>","2","","exp","","0","<img src='img/tf1_30_T1_ss2_md.jpeg'></img>","0","true",""
"","html-keyboard-response","77","176741","0.0-10.0-0.30","A1107","""event"",""trial"",""time""
""fullscreenenter"",""0"",""3108""
","
","
","""event"",""trial"",""time""
""fullscreenenter"",""0"",""3108""
","
","null","<div style=""font-size:60px;"">+</div>","","null","fixation","2021-04-01 01:58:41.154","","","","",""
"","mars-trial","78","179499","0.0-10.0-1.30","A1107","""event"",""trial"",""time""
""fullscreenenter"",""0"",""3108""
","
","
","""event"",""trial"",""time""
""fullscreenenter"",""0"",""3108""
","
","2143.579999996291","<img style='border: 4px solid darkgrey;' src='img/tf1_31_M_ss3.jpeg'></img>","0","","exp","","1","<img src='img/tf1_31_T1_ss3_md.jpeg'></img>","0","false",""
"","html-keyboard-response","79","180006","0.0-10.0-0.31","A1107","""event"",""trial"",""time""
""fullscreenenter"",""0"",""3108""
","
","
","""event"",""trial"",""time""
""fullscreenenter"",""0"",""3108""
","
","null","<div style=""font-size:60px;"">+</div>","","null","fixation","2021-04-01 01:58:44.419","","","","",""
"","mars-trial","80","182732","0.0-10.0-1.31","A1107","""event"",""trial"",""time""
""fullscreenenter"",""0"",""3108""
","
","
","""event"",""trial"",""time""
""fullscreenenter"",""0"",""3108""
","
","2111.064999997325","<img style='border: 4px solid darkgrey;' src='img/tf1_32_M_ss1.jpeg'></img>","2","","exp","","3","<img src='img/tf1_32_T1_ss1_md.jpeg'></img>","0","false",""
"","html-keyboard-response","81","183237","0.0-10.0-0.32","A1107","""event"",""trial"",""time""
""fullscreenenter"",""0"",""3108""
","
","
","""event"",""trial"",""time""
""fullscreenenter"",""0"",""3108""
","
","null","<div style=""font-size:60px;"">+</div>","","null","fixation","2021-04-01 01:58:47.650","","","","",""
"","mars-trial","82","186519","0.0-10.0-1.32","A1107","""event"",""trial"",""time""
""fullscreenenter"",""0"",""3108""
","
","
","""event"",""trial"",""time""
""fullscreenenter"",""0"",""3108""
","
","2659.830000004149","<img style='border: 4px solid darkgrey;' src='img/tf1_33_M_ss2.jpeg'></img>","2","","exp","","2","<img src='img/tf1_33_T1_ss2_md.jpeg'></img>","0","false",""
"","html-keyboard-response","83","187024","0.0-10.0-0.33","A1107","""event"",""trial"",""time""
""fullscreenenter"",""0"",""3108""
","
","
","""event"",""trial"",""time""
""fullscreenenter"",""0"",""3108""
","
","null","<div style=""font-size:60px;"">+</div>","","null","fixation","2021-04-01 01:58:51.437","","","","",""
"","mars-trial","84","190172","0.0-10.0-1.33","A1107","""event"",""trial"",""time""
""fullscreenenter"",""0"",""3108""
","
","
","""event"",""trial"",""time""
""fullscreenenter"",""0"",""3108""
","
","2527.0200000013574","<img style='border: 4px solid darkgrey;' src='img/tf1_34_M_ss3.jpeg'></img>","3","","exp","","0","<img src='img/tf1_34_T1_ss3_md.jpeg'></img>","0","true",""
"","html-keyboard-response","85","190683","0.0-10.0-0.34","A1107","""event"",""trial"",""time""
""fullscreenenter"",""0"",""3108""
","
","
","""event"",""trial"",""time""
""fullscreenenter"",""0"",""3108""
","
","null","<div style=""font-size:60px;"">+</div>","","null","fixation","2021-04-01 01:58:55.097","","","","",""
"","mars-trial","86","193185","0.0-10.0-1.34","A1107","""event"",""trial"",""time""
""fullscreenenter"",""0"",""3108""
","
","
","""event"",""trial"",""time""
""fullscreenenter"",""0"",""3108""
","
","1885.8199999958742","<img style='border: 4px solid darkgrey;' src='img/tf1_35_M_ss1.jpeg'></img>","2","","exp","","3","<img src='img/tf1_35_T1_ss1_md.jpeg'></img>","0","false",""
"","html-keyboard-response","87","193688","0.0-10.0-0.35","A1107","""event"",""trial"",""time""
""fullscreenenter"",""0"",""3108""
","
","
","""event"",""trial"",""time""
""fullscreenenter"",""0"",""3108""
","
","null","<div style=""font-size:60px;"">+</div>","","null","fixation","2021-04-01 01:58:58.102","","","","",""
"","mars-trial","88","196983","0.0-10.0-1.35","A1107","""event"",""trial"",""time""
""fullscreenenter"",""0"",""3108""
","
","
","""event"",""trial"",""time""
""fullscreenenter"",""0"",""3108""
","
","2676.4600000024075","<img style='border: 4px solid darkgrey;' src='img/tf1_36_M_ss2.jpeg'></img>","2","","exp","","1","<img src='img/tf1_36_T1_ss2_md.jpeg'></img>","0","false",""
"","html-keyboard-response","89","197486","0.0-10.0-0.36","A1107","""event"",""trial"",""time""
""fullscreenenter"",""0"",""3108""
","
","
","""event"",""trial"",""time""
""fullscreenenter"",""0"",""3108""
","
","null","<div style=""font-size:60px;"">+</div>","","null","fixation","2021-04-01 01:59:01.899","","","","",""
"","mars-trial","90","199830","0.0-10.0-1.36","A1107","""event"",""trial"",""time""
""fullscreenenter"",""0"",""3108""
","
","
","""event"",""trial"",""time""
""fullscreenenter"",""0"",""3108""
","
","1725.25499999756","<img style='border: 4px solid darkgrey;' src='img/tf1_37_M_ss3.jpeg'></img>","1","","exp","","1","<img src='img/tf1_37_T1_ss3_md.jpeg'></img>","0","false",""
"","html-keyboard-response","91","200334","0.0-10.0-0.37","A1107","""event"",""trial"",""time""
""fullscreenenter"",""0"",""3108""
","
","
","""event"",""trial"",""time""
""fullscreenenter"",""0"",""3108""
","
","null","<div style=""font-size:60px;"">+</div>","","null","fixation","2021-04-01 01:59:04.747","","","","",""
"","mars-trial","92","204686","0.0-10.0-1.37","A1107","""event"",""trial"",""time""
""fullscreenenter"",""0"",""3108""
","
","
","""event"",""trial"",""time""
""fullscreenenter"",""0"",""3108""
","
","3733.4999999948195","<img style='border: 4px solid darkgrey;' src='img/tf1_38_M_ss1.jpeg'></img>","3","","exp","","1","<img src='img/tf1_38_T1_ss1_md.jpeg'></img>","0","false",""
"","html-keyboard-response","93","205191","0.0-10.0-0.38","A1107","""event"",""trial"",""time""
""fullscreenenter"",""0"",""3108""
","
","
","""event"",""trial"",""time""
""fullscreenenter"",""0"",""3108""
","
","null","<div style=""font-size:60px;"">+</div>","","null","fixation","2021-04-01 01:59:09.605","","","","",""
"","mars-trial","94","207306","0.0-10.0-1.38","A1107","""event"",""trial"",""time""
""fullscreenenter"",""0"",""3108""
","
","
","""event"",""trial"",""time""
""fullscreenenter"",""0"",""3108""
","
","1497.0549999998184","<img style='border: 4px solid darkgrey;' src='img/tf1_39_M_ss2.jpeg'></img>","3","","exp","","3","<img src='img/tf1_39_T1_ss2_md.jpeg'></img>","0","false",""
"","html-keyboard-response","95","207810","0.0-10.0-0.39","A1107","""event"",""trial"",""time""
""fullscreenenter"",""0"",""3108""
","
","
","""event"",""trial"",""time""
""fullscreenenter"",""0"",""3108""
","
","null","<div style=""font-size:60px;"">+</div>","","null","fixation","2021-04-01 01:59:12.224","","","","",""
"","mars-trial","96","209450","0.0-10.0-1.39","A1107","""event"",""trial"",""time""
""fullscreenenter"",""0"",""3108""
","
","
","""event"",""trial"",""time""
""fullscreenenter"",""0"",""3108""
","
","1022.7699999959441","<img style='border: 4px solid darkgrey;' src='img/tf1_40_M_ss3.jpeg'></img>","2","","exp","","3","<img src='img/tf1_40_T1_ss3_md.jpeg'></img>","0","false",""
"","html-keyboard-response","97","209955","0.0-10.0-0.40","A1107","""event"",""trial"",""time""
""fullscreenenter"",""0"",""3108""
","
","
","""event"",""trial"",""time""
""fullscreenenter"",""0"",""3108""
","
","null","<div style=""font-size:60px;"">+</div>","","null","fixation","2021-04-01 01:59:14.370","","","","",""
"","mars-trial","98","211907","0.0-10.0-1.40","A1107","""event"",""trial"",""time""
""fullscreenenter"",""0"",""3108""
","
","
","""event"",""trial"",""time""
""fullscreenenter"",""0"",""3108""
","
","1336.2600000036764","<img style='border: 4px solid darkgrey;' src='img/tf1_41_M_ss1.jpeg'></img>","0","","exp","","3","<img src='img/tf1_41_T1_ss1_md.jpeg'></img>","0","false",""
"","html-keyboard-response","99","212413","0.0-10.0-0.41","A1107","""event"",""trial"",""time""
""fullscreenenter"",""0"",""3108""
","
","
","""event"",""trial"",""time""
""fullscreenenter"",""0"",""3108""
","
","null","<div style=""font-size:60px;"">+</div>","","null","fixation","2021-04-01 01:59:16.826","","","","",""
"","mars-trial","100","216225","0.0-10.0-1.41","A1107","""event"",""trial"",""time""
""fullscreenenter"",""0"",""3108""
","
","
","""event"",""trial"",""time""
""fullscreenenter"",""0"",""3108""
","
","3195.6049999935203","<img style='border: 4px solid darkgrey;' src='img/tf1_42_M_ss2.jpeg'></img>","0","","exp","","1","<img src='img/tf1_42_T1_ss2_md.jpeg'></img>","0","false",""
"","html-keyboard-response","101","216731","0.0-10.0-0.42","A1107","""event"",""trial"",""time""
""fullscreenenter"",""0"",""3108""
","
","
","""event"",""trial"",""time""
""fullscreenenter"",""0"",""3108""
","
","null","<div style=""font-size:60px;"">+</div>","","null","fixation","2021-04-01 01:59:21.144","","","","",""
"","mars-trial","102","219116","0.0-10.0-1.42","A1107","""event"",""trial"",""time""
""fullscreenenter"",""0"",""3108""
","
","
","""event"",""trial"",""time""
""fullscreenenter"",""0"",""3108""
","
","1754.0549999976065","<img style='border: 4px solid darkgrey;' src='img/tf1_43_M_ss3.jpeg'></img>","2","","exp","","1","<img src='img/tf1_43_T1_ss3_md.jpeg'></img>","0","false",""
"","html-keyboard-response","103","219621","0.0-10.0-0.43","A1107","""event"",""trial"",""time""
""fullscreenenter"",""0"",""3108""
","
","
","""event"",""trial"",""time""
""fullscreenenter"",""0"",""3108""
","
","null","<div style=""font-size:60px;"">+</div>","","null","fixation","2021-04-01 01:59:24.034","","","","",""
"","mars-trial","104","221072","0.0-10.0-1.43","A1107","""event"",""trial"",""time""
""fullscreenenter"",""0"",""3108""
","
","
","""event"",""trial"",""time""
""fullscreenenter"",""0"",""3108""
","
","833.1099999995786","<img style='border: 4px solid darkgrey;' src='img/tf1_44_M_ss1.jpeg'></img>","1","","exp","","3","<img src='img/tf1_44_T1_ss1_md.jpeg'></img>","0","false",""
"","html-keyboard-response","105","221577","0.0-10.0-0.44","A1107","""event"",""trial"",""time""
""fullscreenenter"",""0"",""3108""
","
","
","""event"",""trial"",""time""
""fullscreenenter"",""0"",""3108""
","
","null","<div style=""font-size:60px;"">+</div>","","null","fixation","2021-04-01 01:59:25.990","","","","",""
"","mars-trial","106","223423","0.0-10.0-1.44","A1107","""event"",""trial"",""time""
""fullscreenenter"",""0"",""3108""
","
","
","""event"",""trial"",""time""
""fullscreenenter"",""0"",""3108""
","
","1222.6550000050338","<img style='border: 4px solid darkgrey;' src='img/tf1_45_M_ss2.jpeg'></img>","3","","exp","","0","<img src='img/tf1_45_T1_ss2_md.jpeg'></img>","0","true",""
"","html-keyboard-response","107","223927","0.0-10.0-0.45","A1107","""event"",""trial"",""time""
""fullscreenenter"",""0"",""3108""
","
","
","""event"",""trial"",""time""
""fullscreenenter"",""0"",""3108""
","
","null","<div style=""font-size:60px;"">+</div>","","null","fixation","2021-04-01 01:59:28.341","","","","",""
"","mars-trial","108","225492","0.0-10.0-1.45","A1107","""event"",""trial"",""time""
""fullscreenenter"",""0"",""3108""
","
","
","""event"",""trial"",""time""
""fullscreenenter"",""0"",""3108""
","
","946.0650000037276","<img style='border: 4px solid darkgrey;' src='img/tf1_46_M_ss3.jpeg'></img>","3","","exp","","0","<img src='img/tf1_46_T1_ss3_md.jpeg'></img>","0","true",""
"","html-keyboard-response","109","225995","0.0-10.0-0.46","A1107","""event"",""trial"",""time""
""fullscreenenter"",""0"",""3108""
","
","
","""event"",""trial"",""time""
""fullscreenenter"",""0"",""3108""
","
","null","<div style=""font-size:60px;"">+</div>","","null","fixation","2021-04-01 01:59:30.409","","","","",""
"","mars-trial","110","227575","0.0-10.0-1.46","A1107","""event"",""trial"",""time""
""fullscreenenter"",""0"",""3108""
","
","
","""event"",""trial"",""time""
""fullscreenenter"",""0"",""3108""
","
","961.3549999994575","<img style='border: 4px solid darkgrey;' src='img/tf1_47_M_ss1.jpeg'></img>","3","","exp","","0","<img src='img/tf1_47_T1_ss1_md.jpeg'></img>","0","true",""
"","html-keyboard-response","111","228081","0.0-10.0-0.47","A1107","""event"",""trial"",""time""
""fullscreenenter"",""0"",""3108""
","
","
","""event"",""trial"",""time""
""fullscreenenter"",""0"",""3108""
","
","null","<div style=""font-size:60px;"">+</div>","","null","fixation","2021-04-01 01:59:32.494","","","","",""
"","mars-trial","112","229610","0.0-10.0-1.47","A1107","""event"",""trial"",""time""
""fullscreenenter"",""0"",""3108""
","
","
","""event"",""trial"",""time""
""fullscreenenter"",""0"",""3108""
","
","908.7599999984377","<img style='border: 4px solid darkgrey;' src='img/tf1_48_M_ss2.jpeg'></img>","3","","exp","","1","<img src='img/tf1_48_T1_ss2_md.jpeg'></img>","0","false",""
"","html-keyboard-response","113","230115","0.0-10.0-0.48","A1107","""event"",""trial"",""time""
""fullscreenenter"",""0"",""3108""
","
","
","""event"",""trial"",""time""
""fullscreenenter"",""0"",""3108""
","
","null","<div style=""font-size:60px;"">+</div>","","null","fixation","2021-04-01 01:59:34.529","","","","",""
"","mars-trial","114","232636","0.0-10.0-1.48","A1107","""event"",""trial"",""time""
""fullscreenenter"",""0"",""3108""
","
","
","""event"",""trial"",""time""
""fullscreenenter"",""0"",""3108""
","
","1901.6300000002957","<img style='border: 4px solid darkgrey;' src='img/tf1_49_M_ss3.jpeg'></img>","3","","exp","","0","<img src='img/tf1_49_T1_ss3_md.jpeg'></img>","0","true",""
"","html-keyboard-response","115","233141","0.0-10.0-0.49","A1107","""event"",""trial"",""time""
""fullscreenenter"",""0"",""3108""
","
","
","""event"",""trial"",""time""
""fullscreenenter"",""0"",""3108""
","
","null","<div style=""font-size:60px;"">+</div>","","null","fixation","2021-04-01 01:59:37.555","","","","",""
"","mars-trial","116","236090","0.0-10.0-1.49","A1107","""event"",""trial"",""time""
""fullscreenenter"",""0"",""3108""
","
","
","""event"",""trial"",""time""
""fullscreenenter"",""0"",""3108""
","
","2326.614999998128","<img style='border: 4px solid darkgrey;' src='img/tf1_50_M_ss1.jpeg'></img>","3","","exp","","0","<img src='img/tf1_50_T1_ss1_md.jpeg'></img>","0","true",""
"","html-keyboard-response","117","236594","0.0-10.0-0.50","A1107","""event"",""trial"",""time""
""fullscreenenter"",""0"",""3108""
","
","
","""event"",""trial"",""time""
""fullscreenenter"",""0"",""3108""
","
","null","<div style=""font-size:60px;"">+</div>","","null","fixation","2021-04-01 01:59:41.007","","","","",""
"","mars-trial","118","238500","0.0-10.0-1.50","A1107","""event"",""trial"",""time""
""fullscreenenter"",""0"",""3108""
","
","
","""event"",""trial"",""time""
""fullscreenenter"",""0"",""3108""
","
","1290.4599999965285","<img style='border: 4px solid darkgrey;' src='img/tf1_51_M_ss2.jpeg'></img>","3","","exp","","3","<img src='img/tf1_51_T1_ss2_md.jpeg'></img>","0","false",""
"","html-keyboard-response","119","239011","0.0-10.0-0.51","A1107","""event"",""trial"",""time""
""fullscreenenter"",""0"",""3108""
","
","
","""event"",""trial"",""time""
""fullscreenenter"",""0"",""3108""
","
","null","<div style=""font-size:60px;"">+</div>","","null","fixation","2021-04-01 01:59:43.424","","","","",""
"","mars-trial","120","242681","0.0-10.0-1.51","A1107","""event"",""trial"",""time""
""fullscreenenter"",""0"",""3108""
","
","
","""event"",""trial"",""time""
""fullscreenenter"",""0"",""3108""
","
","3056.5950000018347","<img style='border: 4px solid darkgrey;' src='img/tf1_52_M_ss3.jpeg'></img>","2","","exp","","2","<img src='img/tf1_52_T1_ss3_md.jpeg'></img>","0","false",""
"","html-keyboard-response","121","243184","0.0-10.0-0.52","A1107","""event"",""trial"",""time""
""fullscreenenter"",""0"",""3108""
","
","
","""event"",""trial"",""time""
""fullscreenenter"",""0"",""3108""
","
","null","<div style=""font-size:60px;"">+</div>","","null","fixation","2021-04-01 01:59:47.598","","","","",""
"","mars-trial","122","245099","0.0-10.0-1.52","A1107","""event"",""trial"",""time""
""fullscreenenter"",""0"",""3108""
","
","
","""event"",""trial"",""time""
""fullscreenenter"",""0"",""3108""
","
","1297.950000000128","<img style='border: 4px solid darkgrey;' src='img/tf1_53_M_ss1.jpeg'></img>","3","","exp","","1","<img src='img/tf1_53_T1_ss1_md.jpeg'></img>","0","false",""
"","html-keyboard-response","123","245603","0.0-10.0-0.53","A1107","""event"",""trial"",""time""
""fullscreenenter"",""0"",""3108""
","
","
","""event"",""trial"",""time""
""fullscreenenter"",""0"",""3108""
","
","null","<div style=""font-size:60px;"">+</div>","","null","fixation","2021-04-01 01:59:50.016","","","","",""
"","mars-trial","124","250360","0.0-10.0-1.53","A1107","""event"",""trial"",""time""
""fullscreenenter"",""0"",""3108""
","
","
","""event"",""trial"",""time""
""fullscreenenter"",""0"",""3108""
","
","4139.920000001439","<img style='border: 4px solid darkgrey;' src='img/tf1_54_M_ss2.jpeg'></img>","2","","exp","","1","<img src='img/tf1_54_T1_ss2_md.jpeg'></img>","0","false",""
"","html-keyboard-response","125","250867","0.0-10.0-0.54","A1107","""event"",""trial"",""time""
""fullscreenenter"",""0"",""3108""
","
","
","""event"",""trial"",""time""
""fullscreenenter"",""0"",""3108""
","
","null","<div style=""font-size:60px;"">+</div>","","null","fixation","2021-04-01 01:59:55.280","","","","",""
"","mars-trial","126","255016","0.0-10.0-1.54","A1107","""event"",""trial"",""time""
""fullscreenenter"",""0"",""3108""
","
","
","""event"",""trial"",""time""
""fullscreenenter"",""0"",""3108""
","
","3527.2150000018883","<img style='border: 4px solid darkgrey;' src='img/tf1_55_M_ss3.jpeg'></img>","3","","exp","","0","<img src='img/tf1_55_T1_ss3_md.jpeg'></img>","0","true",""
"","html-keyboard-response","127","255522","0.0-10.0-0.55","A1107","""event"",""trial"",""time""
""fullscreenenter"",""0"",""3108""
","
","
","""event"",""trial"",""time""
""fullscreenenter"",""0"",""3108""
","
","null","<div style=""font-size:60px;"">+</div>","","null","fixation","2021-04-01 01:59:59.935","","","","",""
"","mars-trial","128","259428","0.0-10.0-1.55","A1107","""event"",""trial"",""time""
""fullscreenenter"",""0"",""3108""
","
","
","""event"",""trial"",""time""
""fullscreenenter"",""0"",""3108""
","
","3281.054999999469","<img style='border: 4px solid darkgrey;' src='img/tf1_56_M_ss1.jpeg'></img>","2","","exp","","0","<img src='img/tf1_56_T1_ss1_md.jpeg'></img>","0","true",""
"","html-keyboard-response","129","259933","0.0-10.0-0.56","A1107","""event"",""trial"",""time""
""fullscreenenter"",""0"",""3108""
","
","
","""event"",""trial"",""time""
""fullscreenenter"",""0"",""3108""
","
","null","<div style=""font-size:60px;"">+</div>","","null","fixation","2021-04-01 02:00:04.346","","","","",""
"","mars-trial","130","263015","0.0-10.0-1.56","A1107","""event"",""trial"",""time""
""fullscreenenter"",""0"",""3108""
","
","
","""event"",""trial"",""time""
""fullscreenenter"",""0"",""3108""
","
","2462.9249999998137","<img style='border: 4px solid darkgrey;' src='img/tf1_57_M_ss2.jpeg'></img>","2","","exp","","0","<img src='img/tf1_57_T1_ss2_md.jpeg'></img>","0","true",""
"","html-keyboard-response","131","263520","0.0-10.0-0.57","A1107","""event"",""trial"",""time""
""fullscreenenter"",""0"",""3108""
","
","
","""event"",""trial"",""time""
""fullscreenenter"",""0"",""3108""
","
","null","<div style=""font-size:60px;"">+</div>","","null","fixation","2021-04-01 02:00:07.933","","","","",""
"","mars-trial","132","265274","0.0-10.0-1.57","A1107","""event"",""trial"",""time""
""fullscreenenter"",""0"",""3108""
","
","
","""event"",""trial"",""time""
""fullscreenenter"",""0"",""3108""
","
","1137.395000005199","<img style='border: 4px solid darkgrey;' src='img/tf1_58_M_ss3.jpeg'></img>","2","","exp","","2","<img src='img/tf1_58_T1_ss3_md.jpeg'></img>","0","false",""
"","html-keyboard-response","133","265778","0.0-10.0-0.58","A1107","""event"",""trial"",""time""
""fullscreenenter"",""0"",""3108""
","
","
","""event"",""trial"",""time""
""fullscreenenter"",""0"",""3108""
","
","null","<div style=""font-size:60px;"">+</div>","","null","fixation","2021-04-01 02:00:10.192","","","","",""
"","mars-trial","134","267386","0.0-10.0-1.58","A1107","""event"",""trial"",""time""
""fullscreenenter"",""0"",""3108""
","
","
","""event"",""trial"",""time""
""fullscreenenter"",""0"",""3108""
","
","989.4799999965471","<img style='border: 4px solid darkgrey;' src='img/tf1_59_M_ss1.jpeg'></img>","3","","exp","","1","<img src='img/tf1_59_T1_ss1_md.jpeg'></img>","0","false",""
"","html-keyboard-response","135","267894","0.0-10.0-0.59","A1107","""event"",""trial"",""time""
""fullscreenenter"",""0"",""3108""
","
","
","""event"",""trial"",""time""
""fullscreenenter"",""0"",""3108""
","
","null","<div style=""font-size:60px;"">+</div>","","null","fixation","2021-04-01 02:00:12.308","","","","",""
"","mars-trial","136","269769","0.0-10.0-1.59","A1107","""event"",""trial"",""time""
""fullscreenenter"",""0"",""3108""
","
","
","""event"",""trial"",""time""
""fullscreenenter"",""0"",""3108""
","
","1256.4350000029663","<img style='border: 4px solid darkgrey;' src='img/tf1_60_M_ss2.jpeg'></img>","2","","exp","","1","<img src='img/tf1_60_T1_ss2_md.jpeg'></img>","0","false",""
"","html-keyboard-response","137","270277","0.0-10.0-0.60","A1107","""event"",""trial"",""time""
""fullscreenenter"",""0"",""3108""
","
","
","""event"",""trial"",""time""
""fullscreenenter"",""0"",""3108""
","
","null","<div style=""font-size:60px;"">+</div>","","null","fixation","2021-04-01 02:00:14.690","","","","",""
"","mars-trial","138","272603","0.0-10.0-1.60","A1107","""event"",""trial"",""time""
""fullscreenenter"",""0"",""3108""
","
","
","""event"",""trial"",""time""
""fullscreenenter"",""0"",""3108""
","
","1709.0850000022328","<img style='border: 4px solid darkgrey;' src='img/tf1_61_M_ss3.jpeg'></img>","2","","exp","","3","<img src='img/tf1_61_T1_ss3_md.jpeg'></img>","0","false",""
"","html-keyboard-response","139","273107","0.0-10.0-0.61","A1107","""event"",""trial"",""time""
""fullscreenenter"",""0"",""3108""
","
","
","""event"",""trial"",""time""
""fullscreenenter"",""0"",""3108""
","
","null","<div style=""font-size:60px;"">+</div>","","null","fixation","2021-04-01 02:00:17.521","","","","",""
"","mars-trial","140","275476","0.0-10.0-1.61","A1107","""event"",""trial"",""time""
""fullscreenenter"",""0"",""3108""
","
","
","""event"",""trial"",""time""
""fullscreenenter"",""0"",""3108""
","
","1738.3000000045286","<img style='border: 4px solid darkgrey;' src='img/tf1_62_M_ss1.jpeg'></img>","2","","exp","","3","<img src='img/tf1_62_T1_ss1_md.jpeg'></img>","0","false",""
"","html-keyboard-response","141","275982","0.0-10.0-0.62","A1107","""event"",""trial"",""time""
""fullscreenenter"",""0"",""3108""
","
","
","""event"",""trial"",""time""
""fullscreenenter"",""0"",""3108""
","
","null","<div style=""font-size:60px;"">+</div>","","null","fixation","2021-04-01 02:00:20.396","","","","",""
"","mars-trial","142","279752","0.0-10.0-1.62","A1107","""event"",""trial"",""time""
""fullscreenenter"",""0"",""3108""
","
","
","""event"",""trial"",""time""
""fullscreenenter"",""0"",""3108""
","
","3152.284999996482","<img style='border: 4px solid darkgrey;' src='img/tf1_63_M_ss2.jpeg'></img>","0","","exp","","2","<img src='img/tf1_63_T1_ss2_md.jpeg'></img>","0","false",""
"","html-keyboard-response","143","280256","0.0-10.0-0.63","A1107","""event"",""trial"",""time""
""fullscreenenter"",""0"",""3108""
","
","
","""event"",""trial"",""time""
""fullscreenenter"",""0"",""3108""
","
","null","<div style=""font-size:60px;"">+</div>","","null","fixation","2021-04-01 02:00:24.669","","","","",""
"","mars-trial","144","284991","0.0-10.0-1.63","A1107","""event"",""trial"",""time""
""fullscreenenter"",""0"",""3108""
","
","
","""event"",""trial"",""time""
""fullscreenenter"",""0"",""3108""
","
","4117.81499999779","<img style='border: 4px solid darkgrey;' src='img/tf1_64_M_ss3.jpeg'></img>","2","","exp","","1","<img src='img/tf1_64_T1_ss3_md.jpeg'></img>","0","false",""
"","html-keyboard-response","145","285498","0.0-10.0-0.64","A1107","""event"",""trial"",""time""
""fullscreenenter"",""0"",""3108""
","
","
","""event"",""trial"",""time""
""fullscreenenter"",""0"",""3108""
","
","null","<div style=""font-size:60px;"">+</div>","","null","fixation","2021-04-01 02:00:29.911","","","","",""
"","mars-trial","146","293084","0.0-10.0-1.64","A1107","""event"",""trial"",""time""
""fullscreenenter"",""0"",""3108""
","
","
","""event"",""trial"",""time""
""fullscreenenter"",""0"",""3108""
","
","6968.410000001313","<img style='border: 4px solid darkgrey;' src='img/tf1_65_M_ss1.jpeg'></img>","3","","exp","","0","<img src='img/tf1_65_T1_ss1_md.jpeg'></img>","0","true",""
"","html-keyboard-response","147","293590","0.0-10.0-0.65","A1107","""event"",""trial"",""time""
""fullscreenenter"",""0"",""3108""
","
","
","""event"",""trial"",""time""
""fullscreenenter"",""0"",""3108""
","
","null","<div style=""font-size:60px;"">+</div>","","null","fixation","2021-04-01 02:00:38.003","","","","",""
"","mars-trial","148","301964","0.0-10.0-1.65","A1107","""event"",""trial"",""time""
""fullscreenenter"",""0"",""3108""
","
","
","""event"",""trial"",""time""
""fullscreenenter"",""0"",""3108""
","
","7760.594999999739","<img style='border: 4px solid darkgrey;' src='img/tf1_66_M_ss2.jpeg'></img>","1","","exp","","3","<img src='img/tf1_66_T1_ss2_md.jpeg'></img>","0","false",""
"","html-keyboard-response","149","302471","0.0-10.0-0.66","A1107","""event"",""trial"",""time""
""fullscreenenter"",""0"",""3108""
","
","
","""event"",""trial"",""time""
""fullscreenenter"",""0"",""3108""
","
","null","<div style=""font-size:60px;"">+</div>","","null","fixation","2021-04-01 02:00:46.884","","","","",""
"","mars-trial","150","310809","0.0-10.0-1.66","A1107","""event"",""trial"",""time""
""fullscreenenter"",""0"",""3108""
","
","
","""event"",""trial"",""time""
""fullscreenenter"",""0"",""3108""
","
","7721.6800000023795","<img style='border: 4px solid darkgrey;' src='img/tf1_67_M_ss3.jpeg'></img>","3","","exp","","2","<img src='img/tf1_67_T1_ss3_md.jpeg'></img>","0","false",""
"","html-keyboard-response","151","311314","0.0-10.0-0.67","A1107","""event"",""trial"",""time""
""fullscreenenter"",""0"",""3108""
","
","
","""event"",""trial"",""time""
""fullscreenenter"",""0"",""3108""
","
","null","<div style=""font-size:60px;"">+</div>","","null","fixation","2021-04-01 02:00:55.727","","","","",""
"","mars-trial","152","314631","0.0-10.0-1.67","A1107","""event"",""trial"",""time""
""fullscreenenter"",""0"",""3108""
","
","
","""event"",""trial"",""time""
""fullscreenenter"",""0"",""3108""
","
","2699.820000001637","<img style='border: 4px solid darkgrey;' src='img/tf1_68_M_ss1.jpeg'></img>","2","","exp","","0","<img src='img/tf1_68_T1_ss1_md.jpeg'></img>","0","true",""
"","html-keyboard-response","153","315134","0.0-10.0-0.68","A1107","""event"",""trial"",""time""
""fullscreenenter"",""0"",""3108""
","
","
","""event"",""trial"",""time""
""fullscreenenter"",""0"",""3108""
","
","null","<div style=""font-size:60px;"">+</div>","","null","fixation","2021-04-01 02:00:59.547","","","","",""
"","mars-trial","154","318017","0.0-10.0-1.68","A1107","""event"",""trial"",""time""
""fullscreenenter"",""0"",""3108""
","
","
","""event"",""trial"",""time""
""fullscreenenter"",""0"",""3108""
","
","2266.299999995681","<img style='border: 4px solid darkgrey;' src='img/tf1_69_M_ss2.jpeg'></img>","3","","exp","","3","<img src='img/tf1_69_T1_ss2_md.jpeg'></img>","0","false",""
"","html-keyboard-response","155","318522","0.0-10.0-0.69","A1107","""event"",""trial"",""time""
""fullscreenenter"",""0"",""3108""
","
","
","""event"",""trial"",""time""
""fullscreenenter"",""0"",""3108""
","
","null","<div style=""font-size:60px;"">+</div>","","null","fixation","2021-04-01 02:01:02.935","","","","",""
"","mars-trial","156","324068","0.0-10.0-1.69","A1107","""event"",""trial"",""time""
""fullscreenenter"",""0"",""3108""
","
","
","""event"",""trial"",""time""
""fullscreenenter"",""0"",""3108""
","
","4930.974999995669","<img style='border: 4px solid darkgrey;' src='img/tf1_70_M_ss3.jpeg'></img>","0","","exp","","2","<img src='img/tf1_70_T1_ss3_md.jpeg'></img>","0","false",""
"","html-keyboard-response","157","324574","0.0-10.0-0.70","A1107","""event"",""trial"",""time""
""fullscreenenter"",""0"",""3108""
","
","
","""event"",""trial"",""time""
""fullscreenenter"",""0"",""3108""
","
","null","<div style=""font-size:60px;"">+</div>","","null","fixation","2021-04-01 02:01:08.987","","","","",""
"","mars-trial","158","327220","0.0-10.0-1.70","A1107","""event"",""trial"",""time""
""fullscreenenter"",""0"",""3108""
","
","
","""event"",""trial"",""time""
""fullscreenenter"",""0"",""3108""
","
","2030.4099999993923","<img style='border: 4px solid darkgrey;' src='img/tf1_71_M_ss1.jpeg'></img>","2","","exp","","1","<img src='img/tf1_71_T1_ss1_md.jpeg'></img>","0","false",""
"","html-keyboard-response","159","327724","0.0-10.0-0.71","A1107","""event"",""trial"",""time""
""fullscreenenter"",""0"",""3108""
","
","
","""event"",""trial"",""time""
""fullscreenenter"",""0"",""3108""
","
","null","<div style=""font-size:60px;"">+</div>","","null","fixation","2021-04-01 02:01:12.138","","","","",""
"","mars-trial","160","334615","0.0-10.0-1.71","A1107","""event"",""trial"",""time""
""fullscreenenter"",""0"",""3108""
","
","
","""event"",""trial"",""time""
""fullscreenenter"",""0"",""3108""
","
","6269.545000002836","<img style='border: 4px solid darkgrey;' src='img/tf1_72_M_ss2.jpeg'></img>","2","","exp","","0","<img src='img/tf1_72_T1_ss2_md.jpeg'></img>","0","true",""
"","html-keyboard-response","161","335121","0.0-10.0-0.72","A1107","""event"",""trial"",""time""
""fullscreenenter"",""0"",""3108""
","
","
","""event"",""trial"",""time""
""fullscreenenter"",""0"",""3108""
","
","null","<div style=""font-size:60px;"">+</div>","","null","fixation","2021-04-01 02:01:19.534","","","","",""
"","mars-trial","162","339719","0.0-10.0-1.72","A1107","""event"",""trial"",""time""
""fullscreenenter"",""0"",""3108""
","
","
","""event"",""trial"",""time""
""fullscreenenter"",""0"",""3108""
","
","3980.15000000305","<img style='border: 4px solid darkgrey;' src='img/tf1_73_M_ss3.jpeg'></img>","2","","exp","","0","<img src='img/tf1_73_T1_ss3_md.jpeg'></img>","0","true",""
"","html-keyboard-response","163","340234","0.0-10.0-0.73","A1107","""event"",""trial"",""time""
""fullscreenenter"",""0"",""3108""
","
","
","""event"",""trial"",""time""
""fullscreenenter"",""0"",""3108""
","
","null","<div style=""font-size:60px;"">+</div>","","null","fixation","2021-04-01 02:01:24.647","","","","",""
"","mars-trial","164","348092","0.0-10.0-1.73","A1107","""event"",""trial"",""time""
""fullscreenenter"",""0"",""3108""
","
","
","""event"",""trial"",""time""
""fullscreenenter"",""0"",""3108""
","
","7240.67500000092","<img style='border: 4px solid darkgrey;' src='img/tf1_74_M_ss1.jpeg'></img>","2","","exp","","1","<img src='img/tf1_74_T1_ss1_md.jpeg'></img>","0","false",""
"","html-keyboard-response","165","348596","0.0-10.0-0.74","A1107","""event"",""trial"",""time""
""fullscreenenter"",""0"",""3108""
","
","
","""event"",""trial"",""time""
""fullscreenenter"",""0"",""3108""
","
","null","<div style=""font-size:60px;"">+</div>","","null","fixation","2021-04-01 02:01:33.010","","","","",""
"","mars-trial","166","353125","0.0-10.0-1.74","A1107","""event"",""trial"",""time""
""fullscreenenter"",""0"",""3108""
","
","
","""event"",""trial"",""time""
""fullscreenenter"",""0"",""3108""
","
","3907.6399999976275","<img style='border: 4px solid darkgrey;' src='img/tf1_75_M_ss2.jpeg'></img>","3","","exp","","3","<img src='img/tf1_75_T1_ss2_md.jpeg'></img>","0","false",""
"","html-keyboard-response","167","353629","0.0-10.0-0.75","A1107","""event"",""trial"",""time""
""fullscreenenter"",""0"",""3108""
","
","
","""event"",""trial"",""time""
""fullscreenenter"",""0"",""3108""
","
","null","<div style=""font-size:60px;"">+</div>","","null","fixation","2021-04-01 02:01:38.042","","","","",""
"","mars-trial","168","356033","0.0-10.0-1.75","A1107","""event"",""trial"",""time""
""fullscreenenter"",""0"",""3108""
","
","
","""event"",""trial"",""time""
""fullscreenenter"",""0"",""3108""
","
","1786.3849999994272","<img style='border: 4px solid darkgrey;' src='img/tf1_76_M_ss3.jpeg'></img>","2","","exp","","1","<img src='img/tf1_76_T1_ss3_md.jpeg'></img>","0","false",""
"","html-keyboard-response","169","356536","0.0-10.0-0.76","A1107","""event"",""trial"",""time""
""fullscreenenter"",""0"",""3108""
","
","
","""event"",""trial"",""time""
""fullscreenenter"",""0"",""3108""
","
","null","<div style=""font-size:60px;"">+</div>","","null","fixation","2021-04-01 02:01:40.949","","","","",""
"","mars-trial","170","359266","0.0-10.0-1.76","A1107","""event"",""trial"",""time""
""fullscreenenter"",""0"",""3108""
","
","
","""event"",""trial"",""time""
""fullscreenenter"",""0"",""3108""
","
","2115.285000007134","<img style='border: 4px solid darkgrey;' src='img/tf1_77_M_ss1.jpeg'></img>","3","","exp","","2","<img src='img/tf1_77_T1_ss1_md.jpeg'></img>","0","false",""
"","html-keyboard-response","171","359771","0.0-10.0-0.77","A1107","""event"",""trial"",""time""
""fullscreenenter"",""0"",""3108""
","
","
","""event"",""trial"",""time""
""fullscreenenter"",""0"",""3108""
","
","null","<div style=""font-size:60px;"">+</div>","","null","fixation","2021-04-01 02:01:44.184","","","","",""
"","mars-trial","172","361668","0.0-10.0-1.77","A1107","""event"",""trial"",""time""
""fullscreenenter"",""0"",""3108""
","
","
","""event"",""trial"",""time""
""fullscreenenter"",""0"",""3108""
","
","1283.9600000006612","<img style='border: 4px solid darkgrey;' src='img/tf1_78_M_ss2.jpeg'></img>","3","","exp","","0","<img src='img/tf1_78_T1_ss2_md.jpeg'></img>","0","true",""
"","html-keyboard-response","173","362171","0.0-10.0-0.78","A1107","""event"",""trial"",""time""
""fullscreenenter"",""0"",""3108""
","
","
","""event"",""trial"",""time""
""fullscreenenter"",""0"",""3108""
","
","null","<div style=""font-size:60px;"">+</div>","","null","fixation","2021-04-01 02:01:46.584","","","","",""
"","mars-trial","174","364034","0.0-10.0-1.78","A1107","""event"",""trial"",""time""
""fullscreenenter"",""0"",""3108""
","
","
","""event"",""trial"",""time""
""fullscreenenter"",""0"",""3108""
","
","1244.9599999963539","<img style='border: 4px solid darkgrey;' src='img/tf1_79_M_ss3.jpeg'></img>","3","","exp","","3","<img src='img/tf1_79_T1_ss3_md.jpeg'></img>","0","false",""
"","html-keyboard-response","175","364539","0.0-10.0-0.79","A1107","""event"",""trial"",""time""
""fullscreenenter"",""0"",""3108""
","
","
","""event"",""trial"",""time""
""fullscreenenter"",""0"",""3108""
","
","null","<div style=""font-size:60px;"">+</div>","","null","fixation","2021-04-01 02:01:48.952","","","","",""
"","mars-trial","176","373047","0.0-10.0-1.79","A1107","""event"",""trial"",""time""
""fullscreenenter"",""0"",""3108""
","
","
","""event"",""trial"",""time""
""fullscreenenter"",""0"",""3108""
","
","7895.789999995031","<img style='border: 4px solid darkgrey;' src='img/tf1_80_M_ss1.jpeg'></img>","3","","exp","","3","<img src='img/tf1_80_T1_ss1_md.jpeg'></img>","0","false",""
"","audio-button-response","177","375762","0.0-11.0","A1107","""event"",""trial"",""time""
""fullscreenenter"",""0"",""3108""
","
","
","""event"",""trial"",""time""
""fullscreenenter"",""0"",""3108""
","
","2708.394999994198","audio/mars_instructions_slide5.wav","0","","","","","","","",""
