"success","trial_type","trial_index","time_elapsed","internal_node_id","subject_id","interactions","blur_events","focus_events","fullscreenenter_events","fullscreenexit_events","rt","stimulus","button_pressed","key_press","part","timestamp","unshuffled_button","correct_response","correct_button","correct","value"
"true","fullscreen","0","3331","0.0-0.0","A557","""event"",""trial"",""time""
""fullscreenenter"",""0"",""2344""
","
","
","""event"",""trial"",""time""
""fullscreenenter"",""0"",""2344""
","
","","","","","","","","","","",""
"","pavlovia","1","3334","0.0-1.0","A557","""event"",""trial"",""time""
""fullscreenenter"",""0"",""2344""
","
","
","""event"",""trial"",""time""
""fullscreenenter"",""0"",""2344""
","
","","","","","","","","","","",""
"","html-button-response","2","5123","0.0-2.0","A557","""event"",""trial"",""time""
""fullscreenenter"",""0"",""2344""
","
","
","""event"",""trial"",""time""
""fullscreenenter"",""0"",""2344""
","
","1788.09000000183","<p>Welcome! Press START to begin.</p><br>","0","","","","","","","",""
"","audio-button-response","3","13603","0.0-3.0","A557","""event"",""trial"",""time""
""fullscreenenter"",""0"",""2344""
","
","
","""event"",""trial"",""time""
""fullscreenenter"",""0"",""2344""
","
","8477.319999998144","audio/mars_instructions_slide2.wav","0","","","","","","","",""
"","audio-button-response","4","89884","0.0-4.0","A557","""event"",""trial"",""time""
""fullscreenenter"",""0"",""2344""
","
","
","""event"",""trial"",""time""
""fullscreenenter"",""0"",""2344""
","
","76278.53999999934","audio/mars_instructions_slide3.wav","0","","","","","","","",""
"","html-keyboard-response","5","90390","0.0-5.0-0.0","A557","""event"",""trial"",""time""
""fullscreenenter"",""0"",""2344""
","
","
","""event"",""trial"",""time""
""fullscreenenter"",""0"",""2344""
","
","null","<div style=""font-size:60px;"">+</div>","","null","fixation","2021-04-02 18:43:56.973","","","","",""
"","mars-trial","6","106466","0.0-5.0-1.0","A557","""event"",""trial"",""time""
""fullscreenenter"",""0"",""2344""
","
","
","""event"",""trial"",""time""
""fullscreenenter"",""0"",""2344""
","
","13961.810000000696","<img style='border: 4px solid darkgrey;' src='practice/pt1_M1.png'></img>","1","","practice","","0","<img src='practice/pt1_T1.png'></img>","0","true",""
"","html-keyboard-response","7","106974","0.0-6.0-0.0","A557","""event"",""trial"",""time""
""fullscreenenter"",""0"",""2344""
","
","
","""event"",""trial"",""time""
""fullscreenenter"",""0"",""2344""
","
","null","<div style=""font-size:60px;"">+</div>","","null","fixation","2021-04-02 18:44:13.556","","","","",""
"","mars-trial","8","113367","0.0-6.0-1.0","A557","""event"",""trial"",""time""
""fullscreenenter"",""0"",""2344""
","
","
","""event"",""trial"",""time""
""fullscreenenter"",""0"",""2344""
","
","4282.925000006799","<img style='border: 4px solid darkgrey;' src='practice/pt2_M1.png'></img>","1","","practice","","0","<img src='practice/pt2_T1.png'></img>","0","true",""
"","html-keyboard-response","9","113871","0.0-7.0-0.0","A557","""event"",""trial"",""time""
""fullscreenenter"",""0"",""2344""
","
","
","""event"",""trial"",""time""
""fullscreenenter"",""0"",""2344""
","
","null","<div style=""font-size:60px;"">+</div>","","null","fixation","2021-04-02 18:44:20.453","","","","",""
"","mars-trial","10","117500","0.0-7.0-1.0","A557","""event"",""trial"",""time""
""fullscreenenter"",""0"",""2344""
","
","
","""event"",""trial"",""time""
""fullscreenenter"",""0"",""2344""
","
","1517.8000000014435","<img style='border: 4px solid darkgrey;' src='practice/pt3_M1.png'></img>","1","","practice","","0","<img src='practice/pt3_T1.png'></img>","0","true",""
"","audio-button-response","11","118596","0.0-8.0","A557","""event"",""trial"",""time""
""fullscreenenter"",""0"",""2344""
","
","
","""event"",""trial"",""time""
""fullscreenenter"",""0"",""2344""
","
","1093.7799999956042","audio/mars_instructions_slide4.wav","0","","","","","","","",""
"","call-function","12","118597","0.0-9.0","A557","""event"",""trial"",""time""
""fullscreenenter"",""0"",""2344""
","
","
","""event"",""trial"",""time""
""fullscreenenter"",""0"",""2344""
","
","","","","","","","","","","",""
"","html-keyboard-response","13","119101","0.0-10.0-0.0","A557","""event"",""trial"",""time""
""fullscreenenter"",""0"",""2344""
","
","
","""event"",""trial"",""time""
""fullscreenenter"",""0"",""2344""
","
","null","<div style=""font-size:60px;"">+</div>","","null","fixation","2021-04-02 18:44:25.683","","","","",""
"","mars-trial","14","121894","0.0-10.0-1.0","A557","""event"",""trial"",""time""
""fullscreenenter"",""0"",""2344""
","
","
","""event"",""trial"",""time""
""fullscreenenter"",""0"",""2344""
","
","2187.7000000022235","<img style='border: 4px solid darkgrey;' src='img/tf1_1_M_ss3.jpeg'></img>","3","","exp","","0","<img src='img/tf1_1_T1_ss3_md.jpeg'></img>","0","true",""
"","html-keyboard-response","15","122395","0.0-10.0-0.1","A557","""event"",""trial"",""time""
""fullscreenenter"",""0"",""2344""
","
","
","""event"",""trial"",""time""
""fullscreenenter"",""0"",""2344""
","
","null","<div style=""font-size:60px;"">+</div>","","null","fixation","2021-04-02 18:44:28.977","","","","",""
"","mars-trial","16","126353","0.0-10.0-1.1","A557","""event"",""trial"",""time""
""fullscreenenter"",""0"",""2344""
","
","
","""event"",""trial"",""time""
""fullscreenenter"",""0"",""2344""
","
","3349.0549999987707","<img style='border: 4px solid darkgrey;' src='img/tf1_2_M_ss1.jpeg'></img>","3","","exp","","0","<img src='img/tf1_2_T1_ss1_md.jpeg'></img>","0","true",""
"","html-keyboard-response","17","126854","0.0-10.0-0.2","A557","""event"",""trial"",""time""
""fullscreenenter"",""0"",""2344""
","
","
","""event"",""trial"",""time""
""fullscreenenter"",""0"",""2344""
","
","null","<div style=""font-size:60px;"">+</div>","","null","fixation","2021-04-02 18:44:33.436","","","","",""
"","mars-trial","18","129195","0.0-10.0-1.2","A557","""event"",""trial"",""time""
""fullscreenenter"",""0"",""2344""
","
","
","""event"",""trial"",""time""
""fullscreenenter"",""0"",""2344""
","
","1733.860000000277","<img style='border: 4px solid darkgrey;' src='img/tf1_3_M_ss2.jpeg'></img>","2","","exp","","0","<img src='img/tf1_3_T1_ss2_md.jpeg'></img>","0","true",""
"","html-keyboard-response","19","129697","0.0-10.0-0.3","A557","""event"",""trial"",""time""
""fullscreenenter"",""0"",""2344""
","
","
","""event"",""trial"",""time""
""fullscreenenter"",""0"",""2344""
","
","null","<div style=""font-size:60px;"">+</div>","","null","fixation","2021-04-02 18:44:36.279","","","","",""
"","mars-trial","20","134422","0.0-10.0-1.3","A557","""event"",""trial"",""time""
""fullscreenenter"",""0"",""2344""
","
","
","""event"",""trial"",""time""
""fullscreenenter"",""0"",""2344""
","
","4116.405000000668","<img style='border: 4px solid darkgrey;' src='img/tf1_4_M_ss3.jpeg'></img>","3","","exp","","0","<img src='img/tf1_4_T1_ss3_md.jpeg'></img>","0","true",""
"","html-keyboard-response","21","134924","0.0-10.0-0.4","A557","""event"",""trial"",""time""
""fullscreenenter"",""0"",""2344""
","
","
","""event"",""trial"",""time""
""fullscreenenter"",""0"",""2344""
","
","null","<div style=""font-size:60px;"">+</div>","","null","fixation","2021-04-02 18:44:41.506","","","","",""
"","mars-trial","22","137521","0.0-10.0-1.4","A557","""event"",""trial"",""time""
""fullscreenenter"",""0"",""2344""
","
","
","""event"",""trial"",""time""
""fullscreenenter"",""0"",""2344""
","
","1991.9749999971827","<img style='border: 4px solid darkgrey;' src='img/tf1_5_M_ss1.jpeg'></img>","1","","exp","","0","<img src='img/tf1_5_T1_ss1_md.jpeg'></img>","0","true",""
"","html-keyboard-response","23","138022","0.0-10.0-0.5","A557","""event"",""trial"",""time""
""fullscreenenter"",""0"",""2344""
","
","
","""event"",""trial"",""time""
""fullscreenenter"",""0"",""2344""
","
","null","<div style=""font-size:60px;"">+</div>","","null","fixation","2021-04-02 18:44:44.604","","","","",""
"","mars-trial","24","151825","0.0-10.0-1.5","A557","""event"",""trial"",""time""
""fullscreenenter"",""0"",""2344""
","
","
","""event"",""trial"",""time""
""fullscreenenter"",""0"",""2344""
","
","13196.825000006356","<img style='border: 4px solid darkgrey;' src='img/tf1_6_M_ss2.jpeg'></img>","1","","exp","","0","<img src='img/tf1_6_T1_ss2_md.jpeg'></img>","0","true",""
"","html-keyboard-response","25","152329","0.0-10.0-0.6","A557","""event"",""trial"",""time""
""fullscreenenter"",""0"",""2344""
","
","
","""event"",""trial"",""time""
""fullscreenenter"",""0"",""2344""
","
","null","<div style=""font-size:60px;"">+</div>","","null","fixation","2021-04-02 18:44:58.911","","","","",""
"","mars-trial","26","159355","0.0-10.0-1.6","A557","""event"",""trial"",""time""
""fullscreenenter"",""0"",""2344""
","
","
","""event"",""trial"",""time""
""fullscreenenter"",""0"",""2344""
","
","6416.334999994433","<img style='border: 4px solid darkgrey;' src='img/tf1_7_M_ss3.jpeg'></img>","2","","exp","","0","<img src='img/tf1_7_T1_ss3_md.jpeg'></img>","0","true",""
"","html-keyboard-response","27","159861","0.0-10.0-0.7","A557","""event"",""trial"",""time""
""fullscreenenter"",""0"",""2344""
","
","
","""event"",""trial"",""time""
""fullscreenenter"",""0"",""2344""
","
","null","<div style=""font-size:60px;"">+</div>","","null","fixation","2021-04-02 18:45:06.444","","","","",""
"","mars-trial","28","165105","0.0-10.0-1.7","A557","""event"",""trial"",""time""
""fullscreenenter"",""0"",""2344""
","
","
","""event"",""trial"",""time""
""fullscreenenter"",""0"",""2344""
","
","4635.119999999006","<img style='border: 4px solid darkgrey;' src='img/tf1_8_M_ss1.jpeg'></img>","1","","exp","","0","<img src='img/tf1_8_T1_ss1_md.jpeg'></img>","0","true",""
"","html-keyboard-response","29","165608","0.0-10.0-0.8","A557","""event"",""trial"",""time""
""fullscreenenter"",""0"",""2344""
","
","
","""event"",""trial"",""time""
""fullscreenenter"",""0"",""2344""
","
","null","<div style=""font-size:60px;"">+</div>","","null","fixation","2021-04-02 18:45:12.190","","","","",""
"","mars-trial","30","171158","0.0-10.0-1.8","A557","""event"",""trial"",""time""
""fullscreenenter"",""0"",""2344""
","
","
","""event"",""trial"",""time""
""fullscreenenter"",""0"",""2344""
","
","4938.575000000128","<img style='border: 4px solid darkgrey;' src='img/tf1_9_M_ss2.jpeg'></img>","1","","exp","","0","<img src='img/tf1_9_T1_ss2_md.jpeg'></img>","0","true",""
"","html-keyboard-response","31","171664","0.0-10.0-0.9","A557","""event"",""trial"",""time""
""fullscreenenter"",""0"",""2344""
","
","
","""event"",""trial"",""time""
""fullscreenenter"",""0"",""2344""
","
","null","<div style=""font-size:60px;"">+</div>","","null","fixation","2021-04-02 18:45:18.246","","","","",""
"","mars-trial","32","189732","0.0-10.0-1.9","A557","""event"",""trial"",""time""
""fullscreenenter"",""0"",""2344""
","
","
","""event"",""trial"",""time""
""fullscreenenter"",""0"",""2344""
","
","17461.730000002717","<img style='border: 4px solid darkgrey;' src='img/tf1_10_M_ss3.jpeg'></img>","0","","exp","","1","<img src='img/tf1_10_T1_ss3_md.jpeg'></img>","0","false",""
"","html-keyboard-response","33","190234","0.0-10.0-0.10","A557","""event"",""trial"",""time""
""fullscreenenter"",""0"",""2344""
","
","
","""event"",""trial"",""time""
""fullscreenenter"",""0"",""2344""
","
","null","<div style=""font-size:60px;"">+</div>","","null","fixation","2021-04-02 18:45:36.816","","","","",""
"","mars-trial","34","199662","0.0-10.0-1.10","A557","""event"",""trial"",""time""
""fullscreenenter"",""0"",""2344""
","
","
","""event"",""trial"",""time""
""fullscreenenter"",""0"",""2344""
","
","8820.099999997183","<img style='border: 4px solid darkgrey;' src='img/tf1_11_M_ss1.jpeg'></img>","0","","exp","","1","<img src='img/tf1_11_T1_ss1_md.jpeg'></img>","0","false",""
"","html-keyboard-response","35","200169","0.0-10.0-0.11","A557","""event"",""trial"",""time""
""fullscreenenter"",""0"",""2344""
","
","
","""event"",""trial"",""time""
""fullscreenenter"",""0"",""2344""
","
","null","<div style=""font-size:60px;"">+</div>","","null","fixation","2021-04-02 18:45:46.751","","","","",""
"","mars-trial","36","204617","0.0-10.0-1.11","A557","""event"",""trial"",""time""
""fullscreenenter"",""0"",""2344""
","
","
","""event"",""trial"",""time""
""fullscreenenter"",""0"",""2344""
","
","3838.91500000027","<img style='border: 4px solid darkgrey;' src='img/tf1_12_M_ss2.jpeg'></img>","0","","exp","","1","<img src='img/tf1_12_T1_ss2_md.jpeg'></img>","0","false",""
"","html-keyboard-response","37","205123","0.0-10.0-0.12","A557","""event"",""trial"",""time""
""fullscreenenter"",""0"",""2344""
","
","
","""event"",""trial"",""time""
""fullscreenenter"",""0"",""2344""
","
","null","<div style=""font-size:60px;"">+</div>","","null","fixation","2021-04-02 18:45:51.705","","","","",""
"","mars-trial","38","219599","0.0-10.0-1.12","A557","""event"",""trial"",""time""
""fullscreenenter"",""0"",""2344""
","
","
","""event"",""trial"",""time""
""fullscreenenter"",""0"",""2344""
","
","13867.27499999688","<img style='border: 4px solid darkgrey;' src='img/tf1_13_M_ss3.jpeg'></img>","1","","exp","","2","<img src='img/tf1_13_T1_ss3_md.jpeg'></img>","0","false",""
"","html-keyboard-response","39","220105","0.0-10.0-0.13","A557","""event"",""trial"",""time""
""fullscreenenter"",""0"",""2344""
","
","
","""event"",""trial"",""time""
""fullscreenenter"",""0"",""2344""
","
","null","<div style=""font-size:60px;"">+</div>","","null","fixation","2021-04-02 18:46:06.687","","","","",""
"","mars-trial","40","222178","0.0-10.0-1.13","A557","""event"",""trial"",""time""
""fullscreenenter"",""0"",""2344""
","
","
","""event"",""trial"",""time""
""fullscreenenter"",""0"",""2344""
","
","1461.7450000005192","<img style='border: 4px solid darkgrey;' src='img/tf1_14_M_ss1.jpeg'></img>","2","","exp","","3","<img src='img/tf1_14_T1_ss1_md.jpeg'></img>","0","false",""
"","html-keyboard-response","41","222683","0.0-10.0-0.14","A557","""event"",""trial"",""time""
""fullscreenenter"",""0"",""2344""
","
","
","""event"",""trial"",""time""
""fullscreenenter"",""0"",""2344""
","
","null","<div style=""font-size:60px;"">+</div>","","null","fixation","2021-04-02 18:46:09.265","","","","",""
"","mars-trial","42","223745","0.0-10.0-1.14","A557","""event"",""trial"",""time""
""fullscreenenter"",""0"",""2344""
","
","
","""event"",""trial"",""time""
""fullscreenenter"",""0"",""2344""
","
","452.2849999993923","<img style='border: 4px solid darkgrey;' src='img/tf1_15_M_ss2.jpeg'></img>","1","","exp","","1","<img src='img/tf1_15_T1_ss2_md.jpeg'></img>","0","false",""
"","html-keyboard-response","43","224247","0.0-10.0-0.15","A557","""event"",""trial"",""time""
""fullscreenenter"",""0"",""2344""
","
","
","""event"",""trial"",""time""
""fullscreenenter"",""0"",""2344""
","
","null","<div style=""font-size:60px;"">+</div>","","null","fixation","2021-04-02 18:46:10.829","","","","",""
"","mars-trial","44","224964","0.0-10.0-1.15","A557","""event"",""trial"",""time""
""fullscreenenter"",""0"",""2344""
","
","
","""event"",""trial"",""time""
""fullscreenenter"",""0"",""2344""
","
","104.19999999430729","<img style='border: 4px solid darkgrey;' src='img/tf1_16_M_ss3.jpeg'></img>","2","","exp","","0","<img src='img/tf1_16_T1_ss3_md.jpeg'></img>","0","true",""
"","html-keyboard-response","45","225466","0.0-10.0-0.16","A557","""event"",""trial"",""time""
""fullscreenenter"",""0"",""2344""
","
","
","""event"",""trial"",""time""
""fullscreenenter"",""0"",""2344""
","
","null","<div style=""font-size:60px;"">+</div>","","null","fixation","2021-04-02 18:46:12.048","","","","",""
"","mars-trial","46","227876","0.0-10.0-1.16","A557","""event"",""trial"",""time""
""fullscreenenter"",""0"",""2344""
","
","
","""event"",""trial"",""time""
""fullscreenenter"",""0"",""2344""
","
","1804.5950000014273","<img style='border: 4px solid darkgrey;' src='img/tf1_17_M_ss1.jpeg'></img>","0","","exp","","1","<img src='img/tf1_17_T1_ss1_md.jpeg'></img>","0","false",""
"","html-keyboard-response","47","228383","0.0-10.0-0.17","A557","""event"",""trial"",""time""
""fullscreenenter"",""0"",""2344""
","
","
","""event"",""trial"",""time""
""fullscreenenter"",""0"",""2344""
","
","null","<div style=""font-size:60px;"">+</div>","","null","fixation","2021-04-02 18:46:14.965","","","","",""
"","mars-trial","48","229399","0.0-10.0-1.17","A557","""event"",""trial"",""time""
""fullscreenenter"",""0"",""2344""
","
","
","""event"",""trial"",""time""
""fullscreenenter"",""0"",""2344""
","
","410.4399999996531","<img style='border: 4px solid darkgrey;' src='img/tf1_18_M_ss2.jpeg'></img>","2","","exp","","1","<img src='img/tf1_18_T1_ss2_md.jpeg'></img>","0","false",""
"","html-keyboard-response","49","229900","0.0-10.0-0.18","A557","""event"",""trial"",""time""
""fullscreenenter"",""0"",""2344""
","
","
","""event"",""trial"",""time""
""fullscreenenter"",""0"",""2344""
","
","null","<div style=""font-size:60px;"">+</div>","","null","fixation","2021-04-02 18:46:16.483","","","","",""
"","mars-trial","50","230752","0.0-10.0-1.18","A557","""event"",""trial"",""time""
""fullscreenenter"",""0"",""2344""
","
","
","""event"",""trial"",""time""
""fullscreenenter"",""0"",""2344""
","
","242.17499999940628","<img style='border: 4px solid darkgrey;' src='img/tf1_19_M_ss3.jpeg'></img>","0","","exp","","1","<img src='img/tf1_19_T1_ss3_md.jpeg'></img>","0","false",""
"","html-keyboard-response","51","231255","0.0-10.0-0.19","A557","""event"",""trial"",""time""
""fullscreenenter"",""0"",""2344""
","
","
","""event"",""trial"",""time""
""fullscreenenter"",""0"",""2344""
","
","null","<div style=""font-size:60px;"">+</div>","","null","fixation","2021-04-02 18:46:17.838","","","","",""
"","mars-trial","52","231999","0.0-10.0-1.19","A557","""event"",""trial"",""time""
""fullscreenenter"",""0"",""2344""
","
","
","""event"",""trial"",""time""
""fullscreenenter"",""0"",""2344""
","
","136.0899999999674","<img style='border: 4px solid darkgrey;' src='img/tf1_20_M_ss1.jpeg'></img>","2","","exp","","3","<img src='img/tf1_20_T1_ss1_md.jpeg'></img>","0","false",""
"","html-keyboard-response","53","232502","0.0-10.0-0.20","A557","""event"",""trial"",""time""
""fullscreenenter"",""0"",""2344""
","
","
","""event"",""trial"",""time""
""fullscreenenter"",""0"",""2344""
","
","null","<div style=""font-size:60px;"">+</div>","","null","fixation","2021-04-02 18:46:19.084","","","","",""
"","mars-trial","54","233583","0.0-10.0-1.20","A557","""event"",""trial"",""time""
""fullscreenenter"",""0"",""2344""
","
","
","""event"",""trial"",""time""
""fullscreenenter"",""0"",""2344""
","
","468.20000000298023","<img style='border: 4px solid darkgrey;' src='img/tf1_21_M_ss2.jpeg'></img>","1","","exp","","0","<img src='img/tf1_21_T1_ss2_md.jpeg'></img>","0","true",""
"","html-keyboard-response","55","234089","0.0-10.0-0.21","A557","""event"",""trial"",""time""
""fullscreenenter"",""0"",""2344""
","
","
","""event"",""trial"",""time""
""fullscreenenter"",""0"",""2344""
","
","null","<div style=""font-size:60px;"">+</div>","","null","fixation","2021-04-02 18:46:20.671","","","","",""
"","mars-trial","56","235253","0.0-10.0-1.21","A557","""event"",""trial"",""time""
""fullscreenenter"",""0"",""2344""
","
","
","""event"",""trial"",""time""
""fullscreenenter"",""0"",""2344""
","
","552.7300000030664","<img style='border: 4px solid darkgrey;' src='img/tf1_22_M_ss3.jpeg'></img>","2","","exp","","2","<img src='img/tf1_22_T1_ss3_md.jpeg'></img>","0","false",""
"","html-keyboard-response","57","235759","0.0-10.0-0.22","A557","""event"",""trial"",""time""
""fullscreenenter"",""0"",""2344""
","
","
","""event"",""trial"",""time""
""fullscreenenter"",""0"",""2344""
","
","null","<div style=""font-size:60px;"">+</div>","","null","fixation","2021-04-02 18:46:22.341","","","","",""
"","mars-trial","58","239567","0.0-10.0-1.22","A557","""event"",""trial"",""time""
""fullscreenenter"",""0"",""2344""
","
","
","""event"",""trial"",""time""
""fullscreenenter"",""0"",""2344""
","
","3200.475000005099","<img style='border: 4px solid darkgrey;' src='img/tf1_23_M_ss1.jpeg'></img>","3","","exp","","0","<img src='img/tf1_23_T1_ss1_md.jpeg'></img>","0","true",""
"","html-keyboard-response","59","240074","0.0-10.0-0.23","A557","""event"",""trial"",""time""
""fullscreenenter"",""0"",""2344""
","
","
","""event"",""trial"",""time""
""fullscreenenter"",""0"",""2344""
","
","null","<div style=""font-size:60px;"">+</div>","","null","fixation","2021-04-02 18:46:26.656","","","","",""
"","mars-trial","60","244281","0.0-10.0-1.23","A557","""event"",""trial"",""time""
""fullscreenenter"",""0"",""2344""
","
","
","""event"",""trial"",""time""
""fullscreenenter"",""0"",""2344""
","
","3600.7900000040536","<img style='border: 4px solid darkgrey;' src='img/tf1_24_M_ss2.jpeg'></img>","0","","exp","","1","<img src='img/tf1_24_T1_ss2_md.jpeg'></img>","0","false",""
"","html-keyboard-response","61","244783","0.0-10.0-0.24","A557","""event"",""trial"",""time""
""fullscreenenter"",""0"",""2344""
","
","
","""event"",""trial"",""time""
""fullscreenenter"",""0"",""2344""
","
","null","<div style=""font-size:60px;"">+</div>","","null","fixation","2021-04-02 18:46:31.365","","","","",""
"","mars-trial","62","251143","0.0-10.0-1.24","A557","""event"",""trial"",""time""
""fullscreenenter"",""0"",""2344""
","
","
","""event"",""trial"",""time""
""fullscreenenter"",""0"",""2344""
","
","5748.480000002019","<img style='border: 4px solid darkgrey;' src='img/tf1_25_M_ss3.jpeg'></img>","0","","exp","","0","<img src='img/tf1_25_T1_ss3_md.jpeg'></img>","0","true",""
"","html-keyboard-response","63","251647","0.0-10.0-0.25","A557","""event"",""trial"",""time""
""fullscreenenter"",""0"",""2344""
","
","
","""event"",""trial"",""time""
""fullscreenenter"",""0"",""2344""
","
","null","<div style=""font-size:60px;"">+</div>","","null","fixation","2021-04-02 18:46:38.230","","","","",""
"","mars-trial","64","256110","0.0-10.0-1.25","A557","""event"",""trial"",""time""
""fullscreenenter"",""0"",""2344""
","
","
","""event"",""trial"",""time""
""fullscreenenter"",""0"",""2344""
","
","3856.2050000036834","<img style='border: 4px solid darkgrey;' src='img/tf1_26_M_ss1.jpeg'></img>","3","","exp","","2","<img src='img/tf1_26_T1_ss1_md.jpeg'></img>","0","false",""
"","html-keyboard-response","65","256617","0.0-10.0-0.26","A557","""event"",""trial"",""time""
""fullscreenenter"",""0"",""2344""
","
","
","""event"",""trial"",""time""
""fullscreenenter"",""0"",""2344""
","
","null","<div style=""font-size:60px;"">+</div>","","null","fixation","2021-04-02 18:46:43.199","","","","",""
"","mars-trial","66","261221","0.0-10.0-1.26","A557","""event"",""trial"",""time""
""fullscreenenter"",""0"",""2344""
","
","
","""event"",""trial"",""time""
""fullscreenenter"",""0"",""2344""
","
","3999.309999999241","<img style='border: 4px solid darkgrey;' src='img/tf1_27_M_ss2.jpeg'></img>","3","","exp","","2","<img src='img/tf1_27_T1_ss2_md.jpeg'></img>","0","false",""
"","html-keyboard-response","67","261728","0.0-10.0-0.27","A557","""event"",""trial"",""time""
""fullscreenenter"",""0"",""2344""
","
","
","""event"",""trial"",""time""
""fullscreenenter"",""0"",""2344""
","
","null","<div style=""font-size:60px;"">+</div>","","null","fixation","2021-04-02 18:46:48.310","","","","",""
"","mars-trial","68","263368","0.0-10.0-1.27","A557","""event"",""trial"",""time""
""fullscreenenter"",""0"",""2344""
","
","
","""event"",""trial"",""time""
""fullscreenenter"",""0"",""2344""
","
","1034.590000002936","<img style='border: 4px solid darkgrey;' src='img/tf1_28_M_ss3.jpeg'></img>","2","","exp","","1","<img src='img/tf1_28_T1_ss3_md.jpeg'></img>","0","false",""
"","html-keyboard-response","69","263870","0.0-10.0-0.28","A557","""event"",""trial"",""time""
""fullscreenenter"",""0"",""2344""
","
","
","""event"",""trial"",""time""
""fullscreenenter"",""0"",""2344""
","
","null","<div style=""font-size:60px;"">+</div>","","null","fixation","2021-04-02 18:46:50.452","","","","",""
"","mars-trial","70","265061","0.0-10.0-1.28","A557","""event"",""trial"",""time""
""fullscreenenter"",""0"",""2344""
","
","
","""event"",""trial"",""time""
""fullscreenenter"",""0"",""2344""
","
","586.2400000041816","<img style='border: 4px solid darkgrey;' src='img/tf1_29_M_ss1.jpeg'></img>","1","","exp","","0","<img src='img/tf1_29_T1_ss1_md.jpeg'></img>","0","true",""
"","html-keyboard-response","71","265567","0.0-10.0-0.29","A557","""event"",""trial"",""time""
""fullscreenenter"",""0"",""2344""
","
","
","""event"",""trial"",""time""
""fullscreenenter"",""0"",""2344""
","
","null","<div style=""font-size:60px;"">+</div>","","null","fixation","2021-04-02 18:46:52.149","","","","",""
"","mars-trial","72","266992","0.0-10.0-1.29","A557","""event"",""trial"",""time""
""fullscreenenter"",""0"",""2344""
","
","
","""event"",""trial"",""time""
""fullscreenenter"",""0"",""2344""
","
","815.2100000006612","<img style='border: 4px solid darkgrey;' src='img/tf1_30_M_ss2.jpeg'></img>","2","","exp","","1","<img src='img/tf1_30_T1_ss2_md.jpeg'></img>","0","false",""
"","html-keyboard-response","73","267498","0.0-10.0-0.30","A557","""event"",""trial"",""time""
""fullscreenenter"",""0"",""2344""
","
","
","""event"",""trial"",""time""
""fullscreenenter"",""0"",""2344""
","
","null","<div style=""font-size:60px;"">+</div>","","null","fixation","2021-04-02 18:46:54.080","","","","",""
"","mars-trial","74","269264","0.0-10.0-1.30","A557","""event"",""trial"",""time""
""fullscreenenter"",""0"",""2344""
","
","
","""event"",""trial"",""time""
""fullscreenenter"",""0"",""2344""
","
","1160.6300000057672","<img style='border: 4px solid darkgrey;' src='img/tf1_31_M_ss3.jpeg'></img>","1","","exp","","0","<img src='img/tf1_31_T1_ss3_md.jpeg'></img>","0","true",""
"","html-keyboard-response","75","269767","0.0-10.0-0.31","A557","""event"",""trial"",""time""
""fullscreenenter"",""0"",""2344""
","
","
","""event"",""trial"",""time""
""fullscreenenter"",""0"",""2344""
","
","null","<div style=""font-size:60px;"">+</div>","","null","fixation","2021-04-02 18:46:56.349","","","","",""
"","mars-trial","76","271211","0.0-10.0-1.31","A557","""event"",""trial"",""time""
""fullscreenenter"",""0"",""2344""
","
","
","""event"",""trial"",""time""
""fullscreenenter"",""0"",""2344""
","
","832.2249999982887","<img style='border: 4px solid darkgrey;' src='img/tf1_32_M_ss1.jpeg'></img>","2","","exp","","0","<img src='img/tf1_32_T1_ss1_md.jpeg'></img>","0","true",""
"","html-keyboard-response","77","271717","0.0-10.0-0.32","A557","""event"",""trial"",""time""
""fullscreenenter"",""0"",""2344""
","
","
","""event"",""trial"",""time""
""fullscreenenter"",""0"",""2344""
","
","null","<div style=""font-size:60px;"">+</div>","","null","fixation","2021-04-02 18:46:58.299","","","","",""
"","mars-trial","78","273024","0.0-10.0-1.32","A557","""event"",""trial"",""time""
""fullscreenenter"",""0"",""2344""
","
","
","""event"",""trial"",""time""
""fullscreenenter"",""0"",""2344""
","
","700.6599999949685","<img style='border: 4px solid darkgrey;' src='img/tf1_33_M_ss2.jpeg'></img>","1","","exp","","0","<img src='img/tf1_33_T1_ss2_md.jpeg'></img>","0","true",""
"","html-keyboard-response","79","273531","0.0-10.0-0.33","A557","""event"",""trial"",""time""
""fullscreenenter"",""0"",""2344""
","
","
","""event"",""trial"",""time""
""fullscreenenter"",""0"",""2344""
","
","null","<div style=""font-size:60px;"">+</div>","","null","fixation","2021-04-02 18:47:00.113","","","","",""
"","mars-trial","80","274752","0.0-10.0-1.33","A557","""event"",""trial"",""time""
""fullscreenenter"",""0"",""2344""
","
","
","""event"",""trial"",""time""
""fullscreenenter"",""0"",""2344""
","
","613.4899999960908","<img style='border: 4px solid darkgrey;' src='img/tf1_34_M_ss3.jpeg'></img>","2","","exp","","2","<img src='img/tf1_34_T1_ss3_md.jpeg'></img>","0","false",""
"","html-keyboard-response","81","275254","0.0-10.0-0.34","A557","""event"",""trial"",""time""
""fullscreenenter"",""0"",""2344""
","
","
","""event"",""trial"",""time""
""fullscreenenter"",""0"",""2344""
","
","null","<div style=""font-size:60px;"">+</div>","","null","fixation","2021-04-02 18:47:01.836","","","","",""
"","mars-trial","82","276379","0.0-10.0-1.34","A557","""event"",""trial"",""time""
""fullscreenenter"",""0"",""2344""
","
","
","""event"",""trial"",""time""
""fullscreenenter"",""0"",""2344""
","
","516.3099999990663","<img style='border: 4px solid darkgrey;' src='img/tf1_35_M_ss1.jpeg'></img>","0","","exp","","1","<img src='img/tf1_35_T1_ss1_md.jpeg'></img>","0","false",""
"","html-keyboard-response","83","276885","0.0-10.0-0.35","A557","""event"",""trial"",""time""
""fullscreenenter"",""0"",""2344""
","
","
","""event"",""trial"",""time""
""fullscreenenter"",""0"",""2344""
","
","null","<div style=""font-size:60px;"">+</div>","","null","fixation","2021-04-02 18:47:03.468","","","","",""
"","mars-trial","84","277903","0.0-10.0-1.35","A557","""event"",""trial"",""time""
""fullscreenenter"",""0"",""2344""
","
","
","""event"",""trial"",""time""
""fullscreenenter"",""0"",""2344""
","
","409.52000000106636","<img style='border: 4px solid darkgrey;' src='img/tf1_36_M_ss2.jpeg'></img>","2","","exp","","1","<img src='img/tf1_36_T1_ss2_md.jpeg'></img>","0","false",""
"","html-keyboard-response","85","278405","0.0-10.0-0.36","A557","""event"",""trial"",""time""
""fullscreenenter"",""0"",""2344""
","
","
","""event"",""trial"",""time""
""fullscreenenter"",""0"",""2344""
","
","null","<div style=""font-size:60px;"">+</div>","","null","fixation","2021-04-02 18:47:04.987","","","","",""
"","mars-trial","86","279629","0.0-10.0-1.36","A557","""event"",""trial"",""time""
""fullscreenenter"",""0"",""2344""
","
","
","""event"",""trial"",""time""
""fullscreenenter"",""0"",""2344""
","
","616.3100000048871","<img style='border: 4px solid darkgrey;' src='img/tf1_37_M_ss3.jpeg'></img>","1","","exp","","0","<img src='img/tf1_37_T1_ss3_md.jpeg'></img>","0","true",""
"","html-keyboard-response","87","280134","0.0-10.0-0.37","A557","""event"",""trial"",""time""
""fullscreenenter"",""0"",""2344""
","
","
","""event"",""trial"",""time""
""fullscreenenter"",""0"",""2344""
","
","null","<div style=""font-size:60px;"">+</div>","","null","fixation","2021-04-02 18:47:06.716","","","","",""
"","mars-trial","88","281217","0.0-10.0-1.37","A557","""event"",""trial"",""time""
""fullscreenenter"",""0"",""2344""
","
","
","""event"",""trial"",""time""
""fullscreenenter"",""0"",""2344""
","
","474.3850000013481","<img style='border: 4px solid darkgrey;' src='img/tf1_38_M_ss1.jpeg'></img>","2","","exp","","3","<img src='img/tf1_38_T1_ss1_md.jpeg'></img>","0","false",""
"","html-keyboard-response","89","281719","0.0-10.0-0.38","A557","""event"",""trial"",""time""
""fullscreenenter"",""0"",""2344""
","
","
","""event"",""trial"",""time""
""fullscreenenter"",""0"",""2344""
","
","null","<div style=""font-size:60px;"">+</div>","","null","fixation","2021-04-02 18:47:08.301","","","","",""
"","mars-trial","90","282951","0.0-10.0-1.38","A557","""event"",""trial"",""time""
""fullscreenenter"",""0"",""2344""
","
","
","""event"",""trial"",""time""
""fullscreenenter"",""0"",""2344""
","
","618.4900000007474","<img style='border: 4px solid darkgrey;' src='img/tf1_39_M_ss2.jpeg'></img>","1","","exp","","3","<img src='img/tf1_39_T1_ss2_md.jpeg'></img>","0","false",""
"","html-keyboard-response","91","283457","0.0-10.0-0.39","A557","""event"",""trial"",""time""
""fullscreenenter"",""0"",""2344""
","
","
","""event"",""trial"",""time""
""fullscreenenter"",""0"",""2344""
","
","null","<div style=""font-size:60px;"">+</div>","","null","fixation","2021-04-02 18:47:10.039","","","","",""
"","mars-trial","92","284368","0.0-10.0-1.39","A557","""event"",""trial"",""time""
""fullscreenenter"",""0"",""2344""
","
","
","""event"",""trial"",""time""
""fullscreenenter"",""0"",""2344""
","
","303.1249999985448","<img style='border: 4px solid darkgrey;' src='img/tf1_40_M_ss3.jpeg'></img>","0","","exp","","0","<img src='img/tf1_40_T1_ss3_md.jpeg'></img>","0","true",""
"","html-keyboard-response","93","284870","0.0-10.0-0.40","A557","""event"",""trial"",""time""
""fullscreenenter"",""0"",""2344""
","
","
","""event"",""trial"",""time""
""fullscreenenter"",""0"",""2344""
","
","null","<div style=""font-size:60px;"">+</div>","","null","fixation","2021-04-02 18:47:11.452","","","","",""
"","mars-trial","94","288050","0.0-10.0-1.40","A557","""event"",""trial"",""time""
""fullscreenenter"",""0"",""2344""
","
","
","""event"",""trial"",""time""
""fullscreenenter"",""0"",""2344""
","
","2574.400000004971","<img style='border: 4px solid darkgrey;' src='img/tf1_41_M_ss1.jpeg'></img>","3","","exp","","0","<img src='img/tf1_41_T1_ss1_md.jpeg'></img>","0","true",""
"","html-keyboard-response","95","288555","0.0-10.0-0.41","A557","""event"",""trial"",""time""
""fullscreenenter"",""0"",""2344""
","
","
","""event"",""trial"",""time""
""fullscreenenter"",""0"",""2344""
","
","null","<div style=""font-size:60px;"">+</div>","","null","fixation","2021-04-02 18:47:15.137","","","","",""
"","mars-trial","96","290411","0.0-10.0-1.41","A557","""event"",""trial"",""time""
""fullscreenenter"",""0"",""2344""
","
","
","""event"",""trial"",""time""
""fullscreenenter"",""0"",""2344""
","
","1246.1599999951432","<img style='border: 4px solid darkgrey;' src='img/tf1_42_M_ss2.jpeg'></img>","3","","exp","","2","<img src='img/tf1_42_T1_ss2_md.jpeg'></img>","0","false",""
"","html-keyboard-response","97","290913","0.0-10.0-0.42","A557","""event"",""trial"",""time""
""fullscreenenter"",""0"",""2344""
","
","
","""event"",""trial"",""time""
""fullscreenenter"",""0"",""2344""
","
","null","<div style=""font-size:60px;"">+</div>","","null","fixation","2021-04-02 18:47:17.495","","","","",""
"","mars-trial","98","291857","0.0-10.0-1.42","A557","""event"",""trial"",""time""
""fullscreenenter"",""0"",""2344""
","
","
","""event"",""trial"",""time""
""fullscreenenter"",""0"",""2344""
","
","335.0250000003143","<img style='border: 4px solid darkgrey;' src='img/tf1_43_M_ss3.jpeg'></img>","2","","exp","","2","<img src='img/tf1_43_T1_ss3_md.jpeg'></img>","0","false",""
"","html-keyboard-response","99","292359","0.0-10.0-0.43","A557","""event"",""trial"",""time""
""fullscreenenter"",""0"",""2344""
","
","
","""event"",""trial"",""time""
""fullscreenenter"",""0"",""2344""
","
","null","<div style=""font-size:60px;"">+</div>","","null","fixation","2021-04-02 18:47:18.941","","","","",""
"","mars-trial","100","293574","0.0-10.0-1.43","A557","""event"",""trial"",""time""
""fullscreenenter"",""0"",""2344""
","
","
","""event"",""trial"",""time""
""fullscreenenter"",""0"",""2344""
","
","608.4649999975227","<img style='border: 4px solid darkgrey;' src='img/tf1_44_M_ss1.jpeg'></img>","1","","exp","","2","<img src='img/tf1_44_T1_ss1_md.jpeg'></img>","0","false",""
"","html-keyboard-response","101","294076","0.0-10.0-0.44","A557","""event"",""trial"",""time""
""fullscreenenter"",""0"",""2344""
","
","
","""event"",""trial"",""time""
""fullscreenenter"",""0"",""2344""
","
","null","<div style=""font-size:60px;"">+</div>","","null","fixation","2021-04-02 18:47:20.658","","","","",""
"","mars-trial","102","294870","0.0-10.0-1.44","A557","""event"",""trial"",""time""
""fullscreenenter"",""0"",""2344""
","
","
","""event"",""trial"",""time""
""fullscreenenter"",""0"",""2344""
","
","187.35999999626074","<img style='border: 4px solid darkgrey;' src='img/tf1_45_M_ss2.jpeg'></img>","2","","exp","","1","<img src='img/tf1_45_T1_ss2_md.jpeg'></img>","0","false",""
"","html-keyboard-response","103","295373","0.0-10.0-0.45","A557","""event"",""trial"",""time""
""fullscreenenter"",""0"",""2344""
","
","
","""event"",""trial"",""time""
""fullscreenenter"",""0"",""2344""
","
","null","<div style=""font-size:60px;"">+</div>","","null","fixation","2021-04-02 18:47:21.955","","","","",""
"","mars-trial","104","296401","0.0-10.0-1.45","A557","""event"",""trial"",""time""
""fullscreenenter"",""0"",""2344""
","
","
","""event"",""trial"",""time""
""fullscreenenter"",""0"",""2344""
","
","422.3649999985355","<img style='border: 4px solid darkgrey;' src='img/tf1_46_M_ss3.jpeg'></img>","2","","exp","","0","<img src='img/tf1_46_T1_ss3_md.jpeg'></img>","0","true",""
"","html-keyboard-response","105","296902","0.0-10.0-0.46","A557","""event"",""trial"",""time""
""fullscreenenter"",""0"",""2344""
","
","
","""event"",""trial"",""time""
""fullscreenenter"",""0"",""2344""
","
","null","<div style=""font-size:60px;"">+</div>","","null","fixation","2021-04-02 18:47:23.485","","","","",""
"","mars-trial","106","298086","0.0-10.0-1.46","A557","""event"",""trial"",""time""
""fullscreenenter"",""0"",""2344""
","
","
","""event"",""trial"",""time""
""fullscreenenter"",""0"",""2344""
","
","578.73500000278","<img style='border: 4px solid darkgrey;' src='img/tf1_47_M_ss1.jpeg'></img>","3","","exp","","2","<img src='img/tf1_47_T1_ss1_md.jpeg'></img>","0","false",""
"","html-keyboard-response","107","298593","0.0-10.0-0.47","A557","""event"",""trial"",""time""
""fullscreenenter"",""0"",""2344""
","
","
","""event"",""trial"",""time""
""fullscreenenter"",""0"",""2344""
","
","null","<div style=""font-size:60px;"">+</div>","","null","fixation","2021-04-02 18:47:25.175","","","","",""
"","mars-trial","108","299708","0.0-10.0-1.47","A557","""event"",""trial"",""time""
""fullscreenenter"",""0"",""2344""
","
","
","""event"",""trial"",""time""
""fullscreenenter"",""0"",""2344""
","
","508.82499999715947","<img style='border: 4px solid darkgrey;' src='img/tf1_48_M_ss2.jpeg'></img>","2","","exp","","3","<img src='img/tf1_48_T1_ss2_md.jpeg'></img>","0","false",""
"","html-keyboard-response","109","300210","0.0-10.0-0.48","A557","""event"",""trial"",""time""
""fullscreenenter"",""0"",""2344""
","
","
","""event"",""trial"",""time""
""fullscreenenter"",""0"",""2344""
","
","null","<div style=""font-size:60px;"">+</div>","","null","fixation","2021-04-02 18:47:26.792","","","","",""
"","mars-trial","110","300998","0.0-10.0-1.48","A557","""event"",""trial"",""time""
""fullscreenenter"",""0"",""2344""
","
","
","""event"",""trial"",""time""
""fullscreenenter"",""0"",""2344""
","
","174.53999999997905","<img style='border: 4px solid darkgrey;' src='img/tf1_49_M_ss3.jpeg'></img>","1","","exp","","3","<img src='img/tf1_49_T1_ss3_md.jpeg'></img>","0","false",""
"","html-keyboard-response","111","301500","0.0-10.0-0.49","A557","""event"",""trial"",""time""
""fullscreenenter"",""0"",""2344""
","
","
","""event"",""trial"",""time""
""fullscreenenter"",""0"",""2344""
","
","null","<div style=""font-size:60px;"">+</div>","","null","fixation","2021-04-02 18:47:28.082","","","","",""
"","mars-trial","112","302641","0.0-10.0-1.49","A557","""event"",""trial"",""time""
""fullscreenenter"",""0"",""2344""
","
","
","""event"",""trial"",""time""
""fullscreenenter"",""0"",""2344""
","
","533.3400000017718","<img style='border: 4px solid darkgrey;' src='img/tf1_50_M_ss1.jpeg'></img>","2","","exp","","2","<img src='img/tf1_50_T1_ss1_md.jpeg'></img>","0","false",""
"","html-keyboard-response","113","303148","0.0-10.0-0.50","A557","""event"",""trial"",""time""
""fullscreenenter"",""0"",""2344""
","
","
","""event"",""trial"",""time""
""fullscreenenter"",""0"",""2344""
","
","null","<div style=""font-size:60px;"">+</div>","","null","fixation","2021-04-02 18:47:29.730","","","","",""
"","mars-trial","114","303964","0.0-10.0-1.50","A557","""event"",""trial"",""time""
""fullscreenenter"",""0"",""2344""
","
","
","""event"",""trial"",""time""
""fullscreenenter"",""0"",""2344""
","
","206.65500000177417","<img style='border: 4px solid darkgrey;' src='img/tf1_51_M_ss2.jpeg'></img>","2","","exp","","2","<img src='img/tf1_51_T1_ss2_md.jpeg'></img>","0","false",""
"","html-keyboard-response","115","304468","0.0-10.0-0.51","A557","""event"",""trial"",""time""
""fullscreenenter"",""0"",""2344""
","
","
","""event"",""trial"",""time""
""fullscreenenter"",""0"",""2344""
","
","null","<div style=""font-size:60px;"">+</div>","","null","fixation","2021-04-02 18:47:31.050","","","","",""
"","mars-trial","116","305342","0.0-10.0-1.51","A557","""event"",""trial"",""time""
""fullscreenenter"",""0"",""2344""
","
","
","""event"",""trial"",""time""
""fullscreenenter"",""0"",""2344""
","
","269.7299999999814","<img style='border: 4px solid darkgrey;' src='img/tf1_52_M_ss3.jpeg'></img>","2","","exp","","0","<img src='img/tf1_52_T1_ss3_md.jpeg'></img>","0","true",""
"","html-keyboard-response","117","305844","0.0-10.0-0.52","A557","""event"",""trial"",""time""
""fullscreenenter"",""0"",""2344""
","
","
","""event"",""trial"",""time""
""fullscreenenter"",""0"",""2344""
","
","null","<div style=""font-size:60px;"">+</div>","","null","fixation","2021-04-02 18:47:32.426","","","","",""
"","mars-trial","118","306674","0.0-10.0-1.52","A557","""event"",""trial"",""time""
""fullscreenenter"",""0"",""2344""
","
","
","""event"",""trial"",""time""
""fullscreenenter"",""0"",""2344""
","
","222.0000000015716","<img style='border: 4px solid darkgrey;' src='img/tf1_53_M_ss1.jpeg'></img>","2","","exp","","3","<img src='img/tf1_53_T1_ss1_md.jpeg'></img>","0","false",""
"","html-keyboard-response","119","307175","0.0-10.0-0.53","A557","""event"",""trial"",""time""
""fullscreenenter"",""0"",""2344""
","
","
","""event"",""trial"",""time""
""fullscreenenter"",""0"",""2344""
","
","null","<div style=""font-size:60px;"">+</div>","","null","fixation","2021-04-02 18:47:33.757","","","","",""
"","mars-trial","120","307942","0.0-10.0-1.53","A557","""event"",""trial"",""time""
""fullscreenenter"",""0"",""2344""
","
","
","""event"",""trial"",""time""
""fullscreenenter"",""0"",""2344""
","
","160.71999999985565","<img style='border: 4px solid darkgrey;' src='img/tf1_54_M_ss2.jpeg'></img>","2","","exp","","0","<img src='img/tf1_54_T1_ss2_md.jpeg'></img>","0","true",""
"","html-keyboard-response","121","308444","0.0-10.0-0.54","A557","""event"",""trial"",""time""
""fullscreenenter"",""0"",""2344""
","
","
","""event"",""trial"",""time""
""fullscreenenter"",""0"",""2344""
","
","null","<div style=""font-size:60px;"">+</div>","","null","fixation","2021-04-02 18:47:35.026","","","","",""
"","mars-trial","122","309508","0.0-10.0-1.54","A557","""event"",""trial"",""time""
""fullscreenenter"",""0"",""2344""
","
","
","""event"",""trial"",""time""
""fullscreenenter"",""0"",""2344""
","
","456.8650000001071","<img style='border: 4px solid darkgrey;' src='img/tf1_55_M_ss3.jpeg'></img>","2","","exp","","1","<img src='img/tf1_55_T1_ss3_md.jpeg'></img>","0","false",""
"","html-keyboard-response","123","310009","0.0-10.0-0.55","A557","""event"",""trial"",""time""
""fullscreenenter"",""0"",""2344""
","
","
","""event"",""trial"",""time""
""fullscreenenter"",""0"",""2344""
","
","null","<div style=""font-size:60px;"">+</div>","","null","fixation","2021-04-02 18:47:36.591","","","","",""
"","mars-trial","124","311112","0.0-10.0-1.55","A557","""event"",""trial"",""time""
""fullscreenenter"",""0"",""2344""
","
","
","""event"",""trial"",""time""
""fullscreenenter"",""0"",""2344""
","
","498.4550000008312","<img style='border: 4px solid darkgrey;' src='img/tf1_56_M_ss1.jpeg'></img>","1","","exp","","0","<img src='img/tf1_56_T1_ss1_md.jpeg'></img>","0","true",""
"","html-keyboard-response","125","311613","0.0-10.0-0.56","A557","""event"",""trial"",""time""
""fullscreenenter"",""0"",""2344""
","
","
","""event"",""trial"",""time""
""fullscreenenter"",""0"",""2344""
","
","null","<div style=""font-size:60px;"">+</div>","","null","fixation","2021-04-02 18:47:38.195","","","","",""
"","mars-trial","126","312481","0.0-10.0-1.56","A557","""event"",""trial"",""time""
""fullscreenenter"",""0"",""2344""
","
","
","""event"",""trial"",""time""
""fullscreenenter"",""0"",""2344""
","
","261.91000000108033","<img style='border: 4px solid darkgrey;' src='img/tf1_57_M_ss2.jpeg'></img>","0","","exp","","3","<img src='img/tf1_57_T1_ss2_md.jpeg'></img>","0","false",""
"","html-keyboard-response","127","312987","0.0-10.0-0.57","A557","""event"",""trial"",""time""
""fullscreenenter"",""0"",""2344""
","
","
","""event"",""trial"",""time""
""fullscreenenter"",""0"",""2344""
","
","null","<div style=""font-size:60px;"">+</div>","","null","fixation","2021-04-02 18:47:39.569","","","","",""
"","mars-trial","128","313733","0.0-10.0-1.57","A557","""event"",""trial"",""time""
""fullscreenenter"",""0"",""2344""
","
","
","""event"",""trial"",""time""
""fullscreenenter"",""0"",""2344""
","
","141.0150000010617","<img style='border: 4px solid darkgrey;' src='img/tf1_58_M_ss3.jpeg'></img>","0","","exp","","2","<img src='img/tf1_58_T1_ss3_md.jpeg'></img>","0","false",""
"","html-keyboard-response","129","314234","0.0-10.0-0.58","A557","""event"",""trial"",""time""
""fullscreenenter"",""0"",""2344""
","
","
","""event"",""trial"",""time""
""fullscreenenter"",""0"",""2344""
","
","null","<div style=""font-size:60px;"">+</div>","","null","fixation","2021-04-02 18:47:40.816","","","","",""
"","mars-trial","130","315028","0.0-10.0-1.58","A557","""event"",""trial"",""time""
""fullscreenenter"",""0"",""2344""
","
","
","""event"",""trial"",""time""
""fullscreenenter"",""0"",""2344""
","
","189.73499999992782","<img style='border: 4px solid darkgrey;' src='img/tf1_59_M_ss1.jpeg'></img>","0","","exp","","0","<img src='img/tf1_59_T1_ss1_md.jpeg'></img>","0","true",""
"","html-keyboard-response","131","315530","0.0-10.0-0.59","A557","""event"",""trial"",""time""
""fullscreenenter"",""0"",""2344""
","
","
","""event"",""trial"",""time""
""fullscreenenter"",""0"",""2344""
","
","null","<div style=""font-size:60px;"">+</div>","","null","fixation","2021-04-02 18:47:42.112","","","","",""
"","mars-trial","132","316430","0.0-10.0-1.59","A557","""event"",""trial"",""time""
""fullscreenenter"",""0"",""2344""
","
","
","""event"",""trial"",""time""
""fullscreenenter"",""0"",""2344""
","
","293.7999999994645","<img style='border: 4px solid darkgrey;' src='img/tf1_60_M_ss2.jpeg'></img>","0","","exp","","1","<img src='img/tf1_60_T1_ss2_md.jpeg'></img>","0","false",""
"","html-keyboard-response","133","316936","0.0-10.0-0.60","A557","""event"",""trial"",""time""
""fullscreenenter"",""0"",""2344""
","
","
","""event"",""trial"",""time""
""fullscreenenter"",""0"",""2344""
","
","null","<div style=""font-size:60px;"">+</div>","","null","fixation","2021-04-02 18:47:43.518","","","","",""
"","mars-trial","134","317744","0.0-10.0-1.60","A557","""event"",""trial"",""time""
""fullscreenenter"",""0"",""2344""
","
","
","""event"",""trial"",""time""
""fullscreenenter"",""0"",""2344""
","
","198.93999999476364","<img style='border: 4px solid darkgrey;' src='img/tf1_61_M_ss3.jpeg'></img>","0","","exp","","3","<img src='img/tf1_61_T1_ss3_md.jpeg'></img>","0","false",""
"","html-keyboard-response","135","318247","0.0-10.0-0.61","A557","""event"",""trial"",""time""
""fullscreenenter"",""0"",""2344""
","
","
","""event"",""trial"",""time""
""fullscreenenter"",""0"",""2344""
","
","null","<div style=""font-size:60px;"">+</div>","","null","fixation","2021-04-02 18:47:44.829","","","","",""
"","mars-trial","136","319062","0.0-10.0-1.61","A557","""event"",""trial"",""time""
""fullscreenenter"",""0"",""2344""
","
","
","""event"",""trial"",""time""
""fullscreenenter"",""0"",""2344""
","
","201.73999999678927","<img style='border: 4px solid darkgrey;' src='img/tf1_62_M_ss1.jpeg'></img>","0","","exp","","0","<img src='img/tf1_62_T1_ss1_md.jpeg'></img>","0","true",""
"","html-keyboard-response","137","319563","0.0-10.0-0.62","A557","""event"",""trial"",""time""
""fullscreenenter"",""0"",""2344""
","
","
","""event"",""trial"",""time""
""fullscreenenter"",""0"",""2344""
","
","null","<div style=""font-size:60px;"">+</div>","","null","fixation","2021-04-02 18:47:46.146","","","","",""
"","mars-trial","138","320662","0.0-10.0-1.62","A557","""event"",""trial"",""time""
""fullscreenenter"",""0"",""2344""
","
","
","""event"",""trial"",""time""
""fullscreenenter"",""0"",""2344""
","
","493.0800000001909","<img style='border: 4px solid darkgrey;' src='img/tf1_63_M_ss2.jpeg'></img>","1","","exp","","3","<img src='img/tf1_63_T1_ss2_md.jpeg'></img>","0","false",""
"","html-keyboard-response","139","321163","0.0-10.0-0.63","A557","""event"",""trial"",""time""
""fullscreenenter"",""0"",""2344""
","
","
","""event"",""trial"",""time""
""fullscreenenter"",""0"",""2344""
","
","null","<div style=""font-size:60px;"">+</div>","","null","fixation","2021-04-02 18:47:47.746","","","","",""
"","mars-trial","140","322332","0.0-10.0-1.63","A557","""event"",""trial"",""time""
""fullscreenenter"",""0"",""2344""
","
","
","""event"",""trial"",""time""
""fullscreenenter"",""0"",""2344""
","
","560.4500000044936","<img style='border: 4px solid darkgrey;' src='img/tf1_64_M_ss3.jpeg'></img>","1","","exp","","2","<img src='img/tf1_64_T1_ss3_md.jpeg'></img>","0","false",""
"","html-keyboard-response","141","322836","0.0-10.0-0.64","A557","""event"",""trial"",""time""
""fullscreenenter"",""0"",""2344""
","
","
","""event"",""trial"",""time""
""fullscreenenter"",""0"",""2344""
","
","null","<div style=""font-size:60px;"">+</div>","","null","fixation","2021-04-02 18:47:49.418","","","","",""
"","mars-trial","142","323700","0.0-10.0-1.64","A557","""event"",""trial"",""time""
""fullscreenenter"",""0"",""2344""
","
","
","""event"",""trial"",""time""
""fullscreenenter"",""0"",""2344""
","
","256.8549999996321","<img style='border: 4px solid darkgrey;' src='img/tf1_65_M_ss1.jpeg'></img>","1","","exp","","3","<img src='img/tf1_65_T1_ss1_md.jpeg'></img>","0","false",""
"","html-keyboard-response","143","324201","0.0-10.0-0.65","A557","""event"",""trial"",""time""
""fullscreenenter"",""0"",""2344""
","
","
","""event"",""trial"",""time""
""fullscreenenter"",""0"",""2344""
","
","null","<div style=""font-size:60px;"">+</div>","","null","fixation","2021-04-02 18:47:50.783","","","","",""
"","mars-trial","144","325054","0.0-10.0-1.65","A557","""event"",""trial"",""time""
""fullscreenenter"",""0"",""2344""
","
","
","""event"",""trial"",""time""
""fullscreenenter"",""0"",""2344""
","
","243.88500000350177","<img style='border: 4px solid darkgrey;' src='img/tf1_66_M_ss2.jpeg'></img>","1","","exp","","3","<img src='img/tf1_66_T1_ss2_md.jpeg'></img>","0","false",""
"","html-keyboard-response","145","325559","0.0-10.0-0.66","A557","""event"",""trial"",""time""
""fullscreenenter"",""0"",""2344""
","
","
","""event"",""trial"",""time""
""fullscreenenter"",""0"",""2344""
","
","null","<div style=""font-size:60px;"">+</div>","","null","fixation","2021-04-02 18:47:52.141","","","","",""
"","mars-trial","146","326305","0.0-10.0-1.66","A557","""event"",""trial"",""time""
""fullscreenenter"",""0"",""2344""
","
","
","""event"",""trial"",""time""
""fullscreenenter"",""0"",""2344""
","
","136.6699999998673","<img style='border: 4px solid darkgrey;' src='img/tf1_67_M_ss3.jpeg'></img>","1","","exp","","3","<img src='img/tf1_67_T1_ss3_md.jpeg'></img>","0","false",""
"","html-keyboard-response","147","326810","0.0-10.0-0.67","A557","""event"",""trial"",""time""
""fullscreenenter"",""0"",""2344""
","
","
","""event"",""trial"",""time""
""fullscreenenter"",""0"",""2344""
","
","null","<div style=""font-size:60px;"">+</div>","","null","fixation","2021-04-02 18:47:53.392","","","","",""
"","mars-trial","148","327666","0.0-10.0-1.67","A557","""event"",""trial"",""time""
""fullscreenenter"",""0"",""2344""
","
","
","""event"",""trial"",""time""
""fullscreenenter"",""0"",""2344""
","
","249.92999999813037","<img style='border: 4px solid darkgrey;' src='img/tf1_68_M_ss1.jpeg'></img>","1","","exp","","2","<img src='img/tf1_68_T1_ss1_md.jpeg'></img>","0","false",""
"","html-keyboard-response","149","328168","0.0-10.0-0.68","A557","""event"",""trial"",""time""
""fullscreenenter"",""0"",""2344""
","
","
","""event"",""trial"",""time""
""fullscreenenter"",""0"",""2344""
","
","null","<div style=""font-size:60px;"">+</div>","","null","fixation","2021-04-02 18:47:54.750","","","","",""
"","mars-trial","150","328998","0.0-10.0-1.68","A557","""event"",""trial"",""time""
""fullscreenenter"",""0"",""2344""
","
","
","""event"",""trial"",""time""
""fullscreenenter"",""0"",""2344""
","
","221.80500000104075","<img style='border: 4px solid darkgrey;' src='img/tf1_69_M_ss2.jpeg'></img>","1","","exp","","3","<img src='img/tf1_69_T1_ss2_md.jpeg'></img>","0","false",""
"","html-keyboard-response","151","329503","0.0-10.0-0.69","A557","""event"",""trial"",""time""
""fullscreenenter"",""0"",""2344""
","
","
","""event"",""trial"",""time""
""fullscreenenter"",""0"",""2344""
","
","null","<div style=""font-size:60px;"">+</div>","","null","fixation","2021-04-02 18:47:56.085","","","","",""
"","mars-trial","152","330364","0.0-10.0-1.69","A557","""event"",""trial"",""time""
""fullscreenenter"",""0"",""2344""
","
","
","""event"",""trial"",""time""
""fullscreenenter"",""0"",""2344""
","
","251.4599999994971","<img style='border: 4px solid darkgrey;' src='img/tf1_70_M_ss3.jpeg'></img>","1","","exp","","0","<img src='img/tf1_70_T1_ss3_md.jpeg'></img>","0","true",""
"","html-keyboard-response","153","330871","0.0-10.0-0.70","A557","""event"",""trial"",""time""
""fullscreenenter"",""0"",""2344""
","
","
","""event"",""trial"",""time""
""fullscreenenter"",""0"",""2344""
","
","null","<div style=""font-size:60px;"">+</div>","","null","fixation","2021-04-02 18:47:57.453","","","","",""
"","mars-trial","154","331655","0.0-10.0-1.70","A557","""event"",""trial"",""time""
""fullscreenenter"",""0"",""2344""
","
","
","""event"",""trial"",""time""
""fullscreenenter"",""0"",""2344""
","
","174.6999999959371","<img style='border: 4px solid darkgrey;' src='img/tf1_71_M_ss1.jpeg'></img>","1","","exp","","0","<img src='img/tf1_71_T1_ss1_md.jpeg'></img>","0","true",""
"","html-keyboard-response","155","332161","0.0-10.0-0.71","A557","""event"",""trial"",""time""
""fullscreenenter"",""0"",""2344""
","
","
","""event"",""trial"",""time""
""fullscreenenter"",""0"",""2344""
","
","null","<div style=""font-size:60px;"">+</div>","","null","fixation","2021-04-02 18:47:58.743","","","","",""
"","mars-trial","156","332972","0.0-10.0-1.71","A557","""event"",""trial"",""time""
""fullscreenenter"",""0"",""2344""
","
","
","""event"",""trial"",""time""
""fullscreenenter"",""0"",""2344""
","
","204.78500000172062","<img style='border: 4px solid darkgrey;' src='img/tf1_72_M_ss2.jpeg'></img>","1","","exp","","3","<img src='img/tf1_72_T1_ss2_md.jpeg'></img>","0","false",""
"","html-keyboard-response","157","333473","0.0-10.0-0.72","A557","""event"",""trial"",""time""
""fullscreenenter"",""0"",""2344""
","
","
","""event"",""trial"",""time""
""fullscreenenter"",""0"",""2344""
","
","null","<div style=""font-size:60px;"">+</div>","","null","fixation","2021-04-02 18:48:00.055","","","","",""
"","mars-trial","158","335148","0.0-10.0-1.72","A557","""event"",""trial"",""time""
""fullscreenenter"",""0"",""2344""
","
","
","""event"",""trial"",""time""
""fullscreenenter"",""0"",""2344""
","
","1071.219999997993","<img style='border: 4px solid darkgrey;' src='img/tf1_73_M_ss3.jpeg'></img>","0","","exp","","0","<img src='img/tf1_73_T1_ss3_md.jpeg'></img>","0","true",""
"","html-keyboard-response","159","335654","0.0-10.0-0.73","A557","""event"",""trial"",""time""
""fullscreenenter"",""0"",""2344""
","
","
","""event"",""trial"",""time""
""fullscreenenter"",""0"",""2344""
","
","null","<div style=""font-size:60px;"">+</div>","","null","fixation","2021-04-02 18:48:02.236","","","","",""
"","mars-trial","160","336599","0.0-10.0-1.73","A557","""event"",""trial"",""time""
""fullscreenenter"",""0"",""2344""
","
","
","""event"",""trial"",""time""
""fullscreenenter"",""0"",""2344""
","
","337.840000000142","<img style='border: 4px solid darkgrey;' src='img/tf1_74_M_ss1.jpeg'></img>","2","","exp","","2","<img src='img/tf1_74_T1_ss1_md.jpeg'></img>","0","false",""
"","html-keyboard-response","161","337100","0.0-10.0-0.74","A557","""event"",""trial"",""time""
""fullscreenenter"",""0"",""2344""
","
","
","""event"",""trial"",""time""
""fullscreenenter"",""0"",""2344""
","
","null","<div style=""font-size:60px;"">+</div>","","null","fixation","2021-04-02 18:48:03.683","","","","",""
"","mars-trial","162","338251","0.0-10.0-1.74","A557","""event"",""trial"",""time""
""fullscreenenter"",""0"",""2344""
","
","
","""event"",""trial"",""time""
""fullscreenenter"",""0"",""2344""
","
","540.8400000014808","<img style='border: 4px solid darkgrey;' src='img/tf1_75_M_ss2.jpeg'></img>","3","","exp","","1","<img src='img/tf1_75_T1_ss2_md.jpeg'></img>","0","false",""
"","html-keyboard-response","163","338753","0.0-10.0-0.75","A557","""event"",""trial"",""time""
""fullscreenenter"",""0"",""2344""
","
","
","""event"",""trial"",""time""
""fullscreenenter"",""0"",""2344""
","
","null","<div style=""font-size:60px;"">+</div>","","null","fixation","2021-04-02 18:48:05.335","","","","",""
"","mars-trial","164","339486","0.0-10.0-1.75","A557","""event"",""trial"",""time""
""fullscreenenter"",""0"",""2344""
","
","
","""event"",""trial"",""time""
""fullscreenenter"",""0"",""2344""
","
","119.74500000360422","<img style='border: 4px solid darkgrey;' src='img/tf1_76_M_ss3.jpeg'></img>","2","","exp","","0","<img src='img/tf1_76_T1_ss3_md.jpeg'></img>","0","true",""
"","html-keyboard-response","165","339987","0.0-10.0-0.76","A557","""event"",""trial"",""time""
""fullscreenenter"",""0"",""2344""
","
","
","""event"",""trial"",""time""
""fullscreenenter"",""0"",""2344""
","
","null","<div style=""font-size:60px;"">+</div>","","null","fixation","2021-04-02 18:48:06.569","","","","",""
"","mars-trial","166","340810","0.0-10.0-1.76","A557","""event"",""trial"",""time""
""fullscreenenter"",""0"",""2344""
","
","
","""event"",""trial"",""time""
""fullscreenenter"",""0"",""2344""
","
","218.4800000031828","<img style='border: 4px solid darkgrey;' src='img/tf1_77_M_ss1.jpeg'></img>","3","","exp","","1","<img src='img/tf1_77_T1_ss1_md.jpeg'></img>","0","false",""
"","html-keyboard-response","167","341317","0.0-10.0-0.77","A557","""event"",""trial"",""time""
""fullscreenenter"",""0"",""2344""
","
","
","""event"",""trial"",""time""
""fullscreenenter"",""0"",""2344""
","
","null","<div style=""font-size:60px;"">+</div>","","null","fixation","2021-04-02 18:48:07.899","","","","",""
"","mars-trial","168","342063","0.0-10.0-1.77","A557","""event"",""trial"",""time""
""fullscreenenter"",""0"",""2344""
","
","
","""event"",""trial"",""time""
""fullscreenenter"",""0"",""2344""
","
","141.63999999436783","<img style='border: 4px solid darkgrey;' src='img/tf1_78_M_ss2.jpeg'></img>","3","","exp","","0","<img src='img/tf1_78_T1_ss2_md.jpeg'></img>","0","true",""
"","html-keyboard-response","169","342564","0.0-10.0-0.78","A557","""event"",""trial"",""time""
""fullscreenenter"",""0"",""2344""
","
","
","""event"",""trial"",""time""
""fullscreenenter"",""0"",""2344""
","
","null","<div style=""font-size:60px;"">+</div>","","null","fixation","2021-04-02 18:48:09.146","","","","",""
"","mars-trial","170","343418","0.0-10.0-1.78","A557","""event"",""trial"",""time""
""fullscreenenter"",""0"",""2344""
","
","
","""event"",""trial"",""time""
""fullscreenenter"",""0"",""2344""
","
","247.21499999577645","<img style='border: 4px solid darkgrey;' src='img/tf1_79_M_ss3.jpeg'></img>","1","","exp","","0","<img src='img/tf1_79_T1_ss3_md.jpeg'></img>","0","true",""
"","html-keyboard-response","171","343919","0.0-10.0-0.79","A557","""event"",""trial"",""time""
""fullscreenenter"",""0"",""2344""
","
","
","""event"",""trial"",""time""
""fullscreenenter"",""0"",""2344""
","
","null","<div style=""font-size:60px;"">+</div>","","null","fixation","2021-04-02 18:48:10.502","","","","",""
"","mars-trial","172","344687","0.0-10.0-1.79","A557","""event"",""trial"",""time""
""fullscreenenter"",""0"",""2344""
","
","
","""event"",""trial"",""time""
""fullscreenenter"",""0"",""2344""
","
","163.8600000005681","<img style='border: 4px solid darkgrey;' src='img/tf1_80_M_ss1.jpeg'></img>","3","","exp","","3","<img src='img/tf1_80_T1_ss1_md.jpeg'></img>","0","false",""
"","audio-button-response","173","347465","0.0-11.0","A557","""event"",""trial"",""time""
""fullscreenenter"",""0"",""2344""
","
","
","""event"",""trial"",""time""
""fullscreenenter"",""0"",""2344""
","
","2776.724999996077","audio/mars_instructions_slide5.wav","0","","","","","","","",""
