"success","trial_type","trial_index","time_elapsed","internal_node_id","subject_id","interactions","blur_events","focus_events","fullscreenenter_events","fullscreenexit_events","rt","stimulus","button_pressed","key_press","part","timestamp","unshuffled_button","correct_response","correct_button","correct","value"
"true","fullscreen","0","4333","0.0-0.0","842","""event"",""trial"",""time""
""fullscreenenter"",""0"",""3337""
","
","
","""event"",""trial"",""time""
""fullscreenenter"",""0"",""3337""
","
","","","","","","","","","","",""
"","pavlovia","1","4343","0.0-1.0","842","""event"",""trial"",""time""
""fullscreenenter"",""0"",""3337""
","
","
","""event"",""trial"",""time""
""fullscreenenter"",""0"",""3337""
","
","","","","","","","","","","",""
"","html-button-response","2","5749","0.0-2.0","842","""event"",""trial"",""time""
""fullscreenenter"",""0"",""3337""
","
","
","""event"",""trial"",""time""
""fullscreenenter"",""0"",""3337""
","
","1403.7999999970198","<p>Welcome! Press START to begin.</p><br>","0","","","","","","","",""
"","audio-button-response","3","19597","0.0-3.0","842","""event"",""trial"",""time""
""fullscreenenter"",""0"",""3337""
","
","
","""event"",""trial"",""time""
""fullscreenenter"",""0"",""3337""
","
","13846.70000000298","audio/mars_instructions_slide2.wav","0","","","","","","","",""
"","audio-button-response","4","28716","0.0-4.0","842","""event"",""trial"",""time""
""fullscreenenter"",""0"",""3337""
","
","
","""event"",""trial"",""time""
""fullscreenenter"",""0"",""3337""
","
","9118.699999988079","audio/mars_instructions_slide3.wav","0","","","","","","","",""
"","html-keyboard-response","5","29230","0.0-5.0-0.0","842","""event"",""trial"",""time""
""fullscreenenter"",""0"",""3337""
","
","
","""event"",""trial"",""time""
""fullscreenenter"",""0"",""3337""
","
","null","<div style=""font-size:60px;"">+</div>","","null","fixation","2021-07-16 01:26:08.571","","","","",""
"","mars-trial","6","36455","0.0-5.0-1.0","842","""event"",""trial"",""time""
""fullscreenenter"",""0"",""3337""
","
","
","""event"",""trial"",""time""
""fullscreenenter"",""0"",""3337""
","
","5115.4000000059605","<img style='border: 4px solid darkgrey;' src='practice/pt1_M1.png'></img>","2","","practice","","0","<img src='practice/pt1_T1.png'></img>","0","true",""
"","html-keyboard-response","7","36960","0.0-6.0-0.0","842","""event"",""trial"",""time""
""fullscreenenter"",""0"",""3337""
","
","
","""event"",""trial"",""time""
""fullscreenenter"",""0"",""3337""
","
","null","<div style=""font-size:60px;"">+</div>","","null","fixation","2021-07-16 01:26:16.301","","","","",""
"","mars-trial","8","40631","0.0-6.0-1.0","842","""event"",""trial"",""time""
""fullscreenenter"",""0"",""3337""
","
","
","""event"",""trial"",""time""
""fullscreenenter"",""0"",""3337""
","
","1564.9000000059605","<img style='border: 4px solid darkgrey;' src='practice/pt2_M1.png'></img>","3","","practice","","0","<img src='practice/pt2_T1.png'></img>","0","true",""
"","html-keyboard-response","9","41141","0.0-7.0-0.0","842","""event"",""trial"",""time""
""fullscreenenter"",""0"",""3337""
","
","
","""event"",""trial"",""time""
""fullscreenenter"",""0"",""3337""
","
","null","<div style=""font-size:60px;"">+</div>","","null","fixation","2021-07-16 01:26:20.483","","","","",""
"","mars-trial","10","44538","0.0-7.0-1.0","842","""event"",""trial"",""time""
""fullscreenenter"",""0"",""3337""
","
","
","""event"",""trial"",""time""
""fullscreenenter"",""0"",""3337""
","
","1286.9000000059605","<img style='border: 4px solid darkgrey;' src='practice/pt3_M1.png'></img>","0","","practice","","0","<img src='practice/pt3_T1.png'></img>","0","true",""
"","audio-button-response","11","48196","0.0-8.0","842","""event"",""trial"",""time""
""fullscreenenter"",""0"",""3337""
","
","
","""event"",""trial"",""time""
""fullscreenenter"",""0"",""3337""
","
","3656.7000000029802","audio/mars_instructions_slide4.wav","0","","","","","","","",""
"","call-function","12","48197","0.0-9.0","842","""event"",""trial"",""time""
""fullscreenenter"",""0"",""3337""
","
","
","""event"",""trial"",""time""
""fullscreenenter"",""0"",""3337""
","
","","","","","","","","","","",""
"","html-keyboard-response","13","48703","0.0-10.0-0.0","842","""event"",""trial"",""time""
""fullscreenenter"",""0"",""3337""
","
","
","""event"",""trial"",""time""
""fullscreenenter"",""0"",""3337""
","
","null","<div style=""font-size:60px;"">+</div>","","null","fixation","2021-07-16 01:26:28.045","","","","",""
"","mars-trial","14","50732","0.0-10.0-1.0","842","""event"",""trial"",""time""
""fullscreenenter"",""0"",""3337""
","
","
","""event"",""trial"",""time""
""fullscreenenter"",""0"",""3337""
","
","1405.2999999970198","<img style='border: 4px solid darkgrey;' src='img/tf1_1_M_ss3.jpeg'></img>","2","","exp","","0","<img src='img/tf1_1_T1_ss3_md.jpeg'></img>","0","true",""
"","html-keyboard-response","15","51246","0.0-10.0-0.1","842","""event"",""trial"",""time""
""fullscreenenter"",""0"",""3337""
","
","
","""event"",""trial"",""time""
""fullscreenenter"",""0"",""3337""
","
","null","<div style=""font-size:60px;"">+</div>","","null","fixation","2021-07-16 01:26:30.587","","","","",""
"","mars-trial","16","54547","0.0-10.0-1.1","842","""event"",""trial"",""time""
""fullscreenenter"",""0"",""3337""
","
","
","""event"",""trial"",""time""
""fullscreenenter"",""0"",""3337""
","
","2677.2999999970198","<img style='border: 4px solid darkgrey;' src='img/tf1_2_M_ss1.jpeg'></img>","1","","exp","","0","<img src='img/tf1_2_T1_ss1_md.jpeg'></img>","0","true",""
"","html-keyboard-response","17","55061","0.0-10.0-0.2","842","""event"",""trial"",""time""
""fullscreenenter"",""0"",""3337""
","
","
","""event"",""trial"",""time""
""fullscreenenter"",""0"",""3337""
","
","null","<div style=""font-size:60px;"">+</div>","","null","fixation","2021-07-16 01:26:34.402","","","","",""
"","mars-trial","18","57484","0.0-10.0-1.2","842","""event"",""trial"",""time""
""fullscreenenter"",""0"",""3337""
","
","
","""event"",""trial"",""time""
""fullscreenenter"",""0"",""3337""
","
","1815.2000000029802","<img style='border: 4px solid darkgrey;' src='img/tf1_3_M_ss2.jpeg'></img>","3","","exp","","0","<img src='img/tf1_3_T1_ss2_md.jpeg'></img>","0","true",""
"","html-keyboard-response","19","57986","0.0-10.0-0.3","842","""event"",""trial"",""time""
""fullscreenenter"",""0"",""3337""
","
","
","""event"",""trial"",""time""
""fullscreenenter"",""0"",""3337""
","
","null","<div style=""font-size:60px;"">+</div>","","null","fixation","2021-07-16 01:26:37.328","","","","",""
"","mars-trial","20","62554","0.0-10.0-1.3","842","""event"",""trial"",""time""
""fullscreenenter"",""0"",""3337""
","
","
","""event"",""trial"",""time""
""fullscreenenter"",""0"",""3337""
","
","3962.2999999970198","<img style='border: 4px solid darkgrey;' src='img/tf1_4_M_ss3.jpeg'></img>","3","","exp","","0","<img src='img/tf1_4_T1_ss3_md.jpeg'></img>","0","true",""
"","html-keyboard-response","21","63057","0.0-10.0-0.4","842","""event"",""trial"",""time""
""fullscreenenter"",""0"",""3337""
","
","
","""event"",""trial"",""time""
""fullscreenenter"",""0"",""3337""
","
","null","<div style=""font-size:60px;"">+</div>","","null","fixation","2021-07-16 01:26:42.398","","","","",""
"","mars-trial","22","64944","0.0-10.0-1.4","842","""event"",""trial"",""time""
""fullscreenenter"",""0"",""3337""
","
","
","""event"",""trial"",""time""
""fullscreenenter"",""0"",""3337""
","
","1275.7000000029802","<img style='border: 4px solid darkgrey;' src='img/tf1_5_M_ss1.jpeg'></img>","1","","exp","","0","<img src='img/tf1_5_T1_ss1_md.jpeg'></img>","0","true",""
"","html-keyboard-response","23","65456","0.0-10.0-0.5","842","""event"",""trial"",""time""
""fullscreenenter"",""0"",""3337""
","
","
","""event"",""trial"",""time""
""fullscreenenter"",""0"",""3337""
","
","null","<div style=""font-size:60px;"">+</div>","","null","fixation","2021-07-16 01:26:44.798","","","","",""
"","mars-trial","24","70075","0.0-10.0-1.5","842","""event"",""trial"",""time""
""fullscreenenter"",""0"",""3337""
","
","
","""event"",""trial"",""time""
""fullscreenenter"",""0"",""3337""
","
","4004.4000000059605","<img style='border: 4px solid darkgrey;' src='img/tf1_6_M_ss2.jpeg'></img>","3","","exp","","3","<img src='img/tf1_6_T1_ss2_md.jpeg'></img>","0","false",""
"","html-keyboard-response","25","70583","0.0-10.0-0.6","842","""event"",""trial"",""time""
""fullscreenenter"",""0"",""3337""
","
","
","""event"",""trial"",""time""
""fullscreenenter"",""0"",""3337""
","
","null","<div style=""font-size:60px;"">+</div>","","null","fixation","2021-07-16 01:26:49.924","","","","",""
"","mars-trial","26","77253","0.0-10.0-1.6","842","""event"",""trial"",""time""
""fullscreenenter"",""0"",""3337""
","
","
","""event"",""trial"",""time""
""fullscreenenter"",""0"",""3337""
","
","6062.5","<img style='border: 4px solid darkgrey;' src='img/tf1_7_M_ss3.jpeg'></img>","2","","exp","","0","<img src='img/tf1_7_T1_ss3_md.jpeg'></img>","0","true",""
"","html-keyboard-response","27","77756","0.0-10.0-0.7","842","""event"",""trial"",""time""
""fullscreenenter"",""0"",""3337""
","
","
","""event"",""trial"",""time""
""fullscreenenter"",""0"",""3337""
","
","null","<div style=""font-size:60px;"">+</div>","","null","fixation","2021-07-16 01:26:57.097","","","","",""
"","mars-trial","28","81796","0.0-10.0-1.7","842","""event"",""trial"",""time""
""fullscreenenter"",""0"",""3337""
","
","
","""event"",""trial"",""time""
""fullscreenenter"",""0"",""3337""
","
","3425.5999999940395","<img style='border: 4px solid darkgrey;' src='img/tf1_8_M_ss1.jpeg'></img>","2","","exp","","0","<img src='img/tf1_8_T1_ss1_md.jpeg'></img>","0","true",""
"","html-keyboard-response","29","82299","0.0-10.0-0.8","842","""event"",""trial"",""time""
""fullscreenenter"",""0"",""3337""
","
","
","""event"",""trial"",""time""
""fullscreenenter"",""0"",""3337""
","
","null","<div style=""font-size:60px;"">+</div>","","null","fixation","2021-07-16 01:27:01.640","","","","",""
"","mars-trial","30","90252","0.0-10.0-1.8","842","""event"",""trial"",""time""
""fullscreenenter"",""0"",""3337""
","
","
","""event"",""trial"",""time""
""fullscreenenter"",""0"",""3337""
","
","7345.29999999702","<img style='border: 4px solid darkgrey;' src='img/tf1_9_M_ss2.jpeg'></img>","2","","exp","","1","<img src='img/tf1_9_T1_ss2_md.jpeg'></img>","0","false",""
"","html-keyboard-response","31","90754","0.0-10.0-0.9","842","""event"",""trial"",""time""
""fullscreenenter"",""0"",""3337""
","
","
","""event"",""trial"",""time""
""fullscreenenter"",""0"",""3337""
","
","null","<div style=""font-size:60px;"">+</div>","","null","fixation","2021-07-16 01:27:10.095","","","","",""
"","mars-trial","32","94347","0.0-10.0-1.9","842","""event"",""trial"",""time""
""fullscreenenter"",""0"",""3337""
","
","
","""event"",""trial"",""time""
""fullscreenenter"",""0"",""3337""
","
","2986.4000000059605","<img style='border: 4px solid darkgrey;' src='img/tf1_10_M_ss3.jpeg'></img>","2","","exp","","0","<img src='img/tf1_10_T1_ss3_md.jpeg'></img>","0","true",""
"","html-keyboard-response","33","94851","0.0-10.0-0.10","842","""event"",""trial"",""time""
""fullscreenenter"",""0"",""3337""
","
","
","""event"",""trial"",""time""
""fullscreenenter"",""0"",""3337""
","
","null","<div style=""font-size:60px;"">+</div>","","null","fixation","2021-07-16 01:27:14.192","","","","",""
"","mars-trial","34","100052","0.0-10.0-1.10","842","""event"",""trial"",""time""
""fullscreenenter"",""0"",""3337""
","
","
","""event"",""trial"",""time""
""fullscreenenter"",""0"",""3337""
","
","4594.600000008941","<img style='border: 4px solid darkgrey;' src='img/tf1_11_M_ss1.jpeg'></img>","0","","exp","","0","<img src='img/tf1_11_T1_ss1_md.jpeg'></img>","0","true",""
"","html-keyboard-response","35","100554","0.0-10.0-0.11","842","""event"",""trial"",""time""
""fullscreenenter"",""0"",""3337""
","
","
","""event"",""trial"",""time""
""fullscreenenter"",""0"",""3337""
","
","null","<div style=""font-size:60px;"">+</div>","","null","fixation","2021-07-16 01:27:19.895","","","","",""
"","mars-trial","36","106525","0.0-10.0-1.11","842","""event"",""trial"",""time""
""fullscreenenter"",""0"",""3337""
","
","
","""event"",""trial"",""time""
""fullscreenenter"",""0"",""3337""
","
","5362.70000000298","<img style='border: 4px solid darkgrey;' src='img/tf1_12_M_ss2.jpeg'></img>","2","","exp","","2","<img src='img/tf1_12_T1_ss2_md.jpeg'></img>","0","false",""
"","html-keyboard-response","37","107028","0.0-10.0-0.12","842","""event"",""trial"",""time""
""fullscreenenter"",""0"",""3337""
","
","
","""event"",""trial"",""time""
""fullscreenenter"",""0"",""3337""
","
","null","<div style=""font-size:60px;"">+</div>","","null","fixation","2021-07-16 01:27:26.369","","","","",""
"","mars-trial","38","117075","0.0-10.0-1.12","842","""event"",""trial"",""time""
""fullscreenenter"",""0"",""3337""
","
","
","""event"",""trial"",""time""
""fullscreenenter"",""0"",""3337""
","
","9440.59999999404","<img style='border: 4px solid darkgrey;' src='img/tf1_13_M_ss3.jpeg'></img>","2","","exp","","0","<img src='img/tf1_13_T1_ss3_md.jpeg'></img>","0","true",""
"","html-keyboard-response","39","117585","0.0-10.0-0.13","842","""event"",""trial"",""time""
""fullscreenenter"",""0"",""3337""
","
","
","""event"",""trial"",""time""
""fullscreenenter"",""0"",""3337""
","
","null","<div style=""font-size:60px;"">+</div>","","null","fixation","2021-07-16 01:27:36.926","","","","",""
"","mars-trial","40","127663","0.0-10.0-1.13","842","""event"",""trial"",""time""
""fullscreenenter"",""0"",""3337""
","
","
","""event"",""trial"",""time""
""fullscreenenter"",""0"",""3337""
","
","9460","<img style='border: 4px solid darkgrey;' src='img/tf1_14_M_ss1.jpeg'></img>","0","","exp","","3","<img src='img/tf1_14_T1_ss1_md.jpeg'></img>","0","false",""
"","html-keyboard-response","41","128177","0.0-10.0-0.14","842","""event"",""trial"",""time""
""fullscreenenter"",""0"",""3337""
","
","
","""event"",""trial"",""time""
""fullscreenenter"",""0"",""3337""
","
","null","<div style=""font-size:60px;"">+</div>","","null","fixation","2021-07-16 01:27:47.518","","","","",""
"","mars-trial","42","138258","0.0-10.0-1.14","842","""event"",""trial"",""time""
""fullscreenenter"",""0"",""3337""
","
","
","""event"",""trial"",""time""
""fullscreenenter"",""0"",""3337""
","
","9475.20000000298","<img style='border: 4px solid darkgrey;' src='img/tf1_15_M_ss2.jpeg'></img>","2","","exp","","0","<img src='img/tf1_15_T1_ss2_md.jpeg'></img>","0","true",""
"","html-keyboard-response","43","138770","0.0-10.0-0.15","842","""event"",""trial"",""time""
""fullscreenenter"",""0"",""3337""
","
","
","""event"",""trial"",""time""
""fullscreenenter"",""0"",""3337""
","
","null","<div style=""font-size:60px;"">+</div>","","null","fixation","2021-07-16 01:27:58.111","","","","",""
"","mars-trial","44","150115","0.0-10.0-1.15","842","""event"",""trial"",""time""
""fullscreenenter"",""0"",""3337""
","
","
","""event"",""trial"",""time""
""fullscreenenter"",""0"",""3337""
","
","10737.29999999702","<img style='border: 4px solid darkgrey;' src='img/tf1_16_M_ss3.jpeg'></img>","0","","exp","","0","<img src='img/tf1_16_T1_ss3_md.jpeg'></img>","0","true",""
"","html-keyboard-response","45","150617","0.0-10.0-0.16","842","""event"",""trial"",""time""
""fullscreenenter"",""0"",""3337""
","
","
","""event"",""trial"",""time""
""fullscreenenter"",""0"",""3337""
","
","null","<div style=""font-size:60px;"">+</div>","","null","fixation","2021-07-16 01:28:09.958","","","","",""
"","mars-trial","46","161538","0.0-10.0-1.16","842","""event"",""trial"",""time""
""fullscreenenter"",""0"",""3337""
","
","
","""event"",""trial"",""time""
""fullscreenenter"",""0"",""3337""
","
","10315.40000000596","<img style='border: 4px solid darkgrey;' src='img/tf1_17_M_ss1.jpeg'></img>","1","","exp","","0","<img src='img/tf1_17_T1_ss1_md.jpeg'></img>","0","true",""
"","html-keyboard-response","47","162041","0.0-10.0-0.17","842","""event"",""trial"",""time""
""fullscreenenter"",""0"",""3337""
","
","
","""event"",""trial"",""time""
""fullscreenenter"",""0"",""3337""
","
","null","<div style=""font-size:60px;"">+</div>","","null","fixation","2021-07-16 01:28:21.382","","","","",""
"","mars-trial","48","169907","0.0-10.0-1.17","842","""event"",""trial"",""time""
""fullscreenenter"",""0"",""3337""
","
","
","""event"",""trial"",""time""
""fullscreenenter"",""0"",""3337""
","
","7259.79999999702","<img style='border: 4px solid darkgrey;' src='img/tf1_18_M_ss2.jpeg'></img>","0","","exp","","2","<img src='img/tf1_18_T1_ss2_md.jpeg'></img>","0","false",""
"","html-keyboard-response","49","170411","0.0-10.0-0.18","842","""event"",""trial"",""time""
""fullscreenenter"",""0"",""3337""
","
","
","""event"",""trial"",""time""
""fullscreenenter"",""0"",""3337""
","
","null","<div style=""font-size:60px;"">+</div>","","null","fixation","2021-07-16 01:28:29.752","","","","",""
"","mars-trial","50","175570","0.0-10.0-1.18","842","""event"",""trial"",""time""
""fullscreenenter"",""0"",""3337""
","
","
","""event"",""trial"",""time""
""fullscreenenter"",""0"",""3337""
","
","4553.29999999702","<img style='border: 4px solid darkgrey;' src='img/tf1_19_M_ss3.jpeg'></img>","3","","exp","","2","<img src='img/tf1_19_T1_ss3_md.jpeg'></img>","0","false",""
"","html-keyboard-response","51","176073","0.0-10.0-0.19","842","""event"",""trial"",""time""
""fullscreenenter"",""0"",""3337""
","
","
","""event"",""trial"",""time""
""fullscreenenter"",""0"",""3337""
","
","null","<div style=""font-size:60px;"">+</div>","","null","fixation","2021-07-16 01:28:35.414","","","","",""
"","mars-trial","52","186777","0.0-10.0-1.19","842","""event"",""trial"",""time""
""fullscreenenter"",""0"",""3337""
","
","
","""event"",""trial"",""time""
""fullscreenenter"",""0"",""3337""
","
","10092.40000000596","<img style='border: 4px solid darkgrey;' src='img/tf1_20_M_ss1.jpeg'></img>","1","","exp","","0","<img src='img/tf1_20_T1_ss1_md.jpeg'></img>","0","true",""
"","html-keyboard-response","53","187279","0.0-10.0-0.20","842","""event"",""trial"",""time""
""fullscreenenter"",""0"",""3337""
","
","
","""event"",""trial"",""time""
""fullscreenenter"",""0"",""3337""
","
","null","<div style=""font-size:60px;"">+</div>","","null","fixation","2021-07-16 01:28:46.620","","","","",""
"","mars-trial","54","197755","0.0-10.0-1.20","842","""event"",""trial"",""time""
""fullscreenenter"",""0"",""3337""
","
","
","""event"",""trial"",""time""
""fullscreenenter"",""0"",""3337""
","
","9868","<img style='border: 4px solid darkgrey;' src='img/tf1_21_M_ss2.jpeg'></img>","2","","exp","","2","<img src='img/tf1_21_T1_ss2_md.jpeg'></img>","0","false",""
"","html-keyboard-response","55","198258","0.0-10.0-0.21","842","""event"",""trial"",""time""
""fullscreenenter"",""0"",""3337""
","
","
","""event"",""trial"",""time""
""fullscreenenter"",""0"",""3337""
","
","null","<div style=""font-size:60px;"">+</div>","","null","fixation","2021-07-16 01:28:57.599","","","","",""
"","mars-trial","56","206196","0.0-10.0-1.21","842","""event"",""trial"",""time""
""fullscreenenter"",""0"",""3337""
","
","
","""event"",""trial"",""time""
""fullscreenenter"",""0"",""3337""
","
","7330.79999999702","<img style='border: 4px solid darkgrey;' src='img/tf1_22_M_ss3.jpeg'></img>","1","","exp","","0","<img src='img/tf1_22_T1_ss3_md.jpeg'></img>","0","true",""
"","html-keyboard-response","57","206698","0.0-10.0-0.22","842","""event"",""trial"",""time""
""fullscreenenter"",""0"",""3337""
","
","
","""event"",""trial"",""time""
""fullscreenenter"",""0"",""3337""
","
","null","<div style=""font-size:60px;"">+</div>","","null","fixation","2021-07-16 01:29:06.039","","","","",""
"","mars-trial","58","212443","0.0-10.0-1.22","842","""event"",""trial"",""time""
""fullscreenenter"",""0"",""3337""
","
","
","""event"",""trial"",""time""
""fullscreenenter"",""0"",""3337""
","
","5141","<img style='border: 4px solid darkgrey;' src='img/tf1_23_M_ss1.jpeg'></img>","3","","exp","","3","<img src='img/tf1_23_T1_ss1_md.jpeg'></img>","0","false",""
"","html-keyboard-response","59","212945","0.0-10.0-0.23","842","""event"",""trial"",""time""
""fullscreenenter"",""0"",""3337""
","
","
","""event"",""trial"",""time""
""fullscreenenter"",""0"",""3337""
","
","null","<div style=""font-size:60px;"">+</div>","","null","fixation","2021-07-16 01:29:12.286","","","","",""
"","mars-trial","60","222955","0.0-10.0-1.23","842","""event"",""trial"",""time""
""fullscreenenter"",""0"",""3337""
","
","
","""event"",""trial"",""time""
""fullscreenenter"",""0"",""3337""
","
","9403.70000000298","<img style='border: 4px solid darkgrey;' src='img/tf1_24_M_ss2.jpeg'></img>","2","","exp","","1","<img src='img/tf1_24_T1_ss2_md.jpeg'></img>","0","false",""
"","html-keyboard-response","61","223457","0.0-10.0-0.24","842","""event"",""trial"",""time""
""fullscreenenter"",""0"",""3337""
","
","
","""event"",""trial"",""time""
""fullscreenenter"",""0"",""3337""
","
","null","<div style=""font-size:60px;"">+</div>","","null","fixation","2021-07-16 01:29:22.798","","","","",""
"","mars-trial","62","228899","0.0-10.0-1.24","842","""event"",""trial"",""time""
""fullscreenenter"",""0"",""3337""
","
","
","""event"",""trial"",""time""
""fullscreenenter"",""0"",""3337""
","
","4835.20000000298","<img style='border: 4px solid darkgrey;' src='img/tf1_25_M_ss3.jpeg'></img>","1","","exp","","0","<img src='img/tf1_25_T1_ss3_md.jpeg'></img>","0","true",""
"","html-keyboard-response","63","229406","0.0-10.0-0.25","842","""event"",""trial"",""time""
""fullscreenenter"",""0"",""3337""
","
","
","""event"",""trial"",""time""
""fullscreenenter"",""0"",""3337""
","
","null","<div style=""font-size:60px;"">+</div>","","null","fixation","2021-07-16 01:29:28.747","","","","",""
"","mars-trial","64","240612","0.0-10.0-1.25","842","""event"",""trial"",""time""
""fullscreenenter"",""0"",""3337""
","
","
","""event"",""trial"",""time""
""fullscreenenter"",""0"",""3337""
","
","10599.09999999404","<img style='border: 4px solid darkgrey;' src='img/tf1_26_M_ss1.jpeg'></img>","1","","exp","","0","<img src='img/tf1_26_T1_ss1_md.jpeg'></img>","0","true",""
"","html-keyboard-response","65","241113","0.0-10.0-0.26","842","""event"",""trial"",""time""
""fullscreenenter"",""0"",""3337""
","
","
","""event"",""trial"",""time""
""fullscreenenter"",""0"",""3337""
","
","null","<div style=""font-size:60px;"">+</div>","","null","fixation","2021-07-16 01:29:40.454","","","","",""
"","mars-trial","66","248338","0.0-10.0-1.26","842","""event"",""trial"",""time""
""fullscreenenter"",""0"",""3337""
","
","
","""event"",""trial"",""time""
""fullscreenenter"",""0"",""3337""
","
","6612.5999999940395","<img style='border: 4px solid darkgrey;' src='img/tf1_27_M_ss2.jpeg'></img>","3","","exp","","3","<img src='img/tf1_27_T1_ss2_md.jpeg'></img>","0","false",""
"","html-keyboard-response","67","248840","0.0-10.0-0.27","842","""event"",""trial"",""time""
""fullscreenenter"",""0"",""3337""
","
","
","""event"",""trial"",""time""
""fullscreenenter"",""0"",""3337""
","
","null","<div style=""font-size:60px;"">+</div>","","null","fixation","2021-07-16 01:29:48.181","","","","",""
"","mars-trial","68","254923","0.0-10.0-1.27","842","""event"",""trial"",""time""
""fullscreenenter"",""0"",""3337""
","
","
","""event"",""trial"",""time""
""fullscreenenter"",""0"",""3337""
","
","5476.0999999940395","<img style='border: 4px solid darkgrey;' src='img/tf1_28_M_ss3.jpeg'></img>","0","","exp","","1","<img src='img/tf1_28_T1_ss3_md.jpeg'></img>","0","false",""
"","html-keyboard-response","69","255426","0.0-10.0-0.28","842","""event"",""trial"",""time""
""fullscreenenter"",""0"",""3337""
","
","
","""event"",""trial"",""time""
""fullscreenenter"",""0"",""3337""
","
","null","<div style=""font-size:60px;"">+</div>","","null","fixation","2021-07-16 01:29:54.767","","","","",""
"","mars-trial","70","265642","0.0-10.0-1.28","842","""event"",""trial"",""time""
""fullscreenenter"",""0"",""3337""
","
","
","""event"",""trial"",""time""
""fullscreenenter"",""0"",""3337""
","
","9610.09999999404","<img style='border: 4px solid darkgrey;' src='img/tf1_29_M_ss1.jpeg'></img>","2","","exp","","1","<img src='img/tf1_29_T1_ss1_md.jpeg'></img>","0","false",""
"","html-keyboard-response","71","266145","0.0-10.0-0.29","842","""event"",""trial"",""time""
""fullscreenenter"",""0"",""3337""
","
","
","""event"",""trial"",""time""
""fullscreenenter"",""0"",""3337""
","
","null","<div style=""font-size:60px;"">+</div>","","null","fixation","2021-07-16 01:30:05.486","","","","",""
"","mars-trial","72","272251","0.0-10.0-1.29","842","""event"",""trial"",""time""
""fullscreenenter"",""0"",""3337""
","
","
","""event"",""trial"",""time""
""fullscreenenter"",""0"",""3337""
","
","5500.79999999702","<img style='border: 4px solid darkgrey;' src='img/tf1_30_M_ss2.jpeg'></img>","3","","exp","","2","<img src='img/tf1_30_T1_ss2_md.jpeg'></img>","0","false",""
"","html-keyboard-response","73","272754","0.0-10.0-0.30","842","""event"",""trial"",""time""
""fullscreenenter"",""0"",""3337""
","
","
","""event"",""trial"",""time""
""fullscreenenter"",""0"",""3337""
","
","null","<div style=""font-size:60px;"">+</div>","","null","fixation","2021-07-16 01:30:12.095","","","","",""
"","mars-trial","74","278170","0.0-10.0-1.30","842","""event"",""trial"",""time""
""fullscreenenter"",""0"",""3337""
","
","
","""event"",""trial"",""time""
""fullscreenenter"",""0"",""3337""
","
","4810.399999991059","<img style='border: 4px solid darkgrey;' src='img/tf1_31_M_ss3.jpeg'></img>","3","","exp","","3","<img src='img/tf1_31_T1_ss3_md.jpeg'></img>","0","false",""
"","html-keyboard-response","75","278674","0.0-10.0-0.31","842","""event"",""trial"",""time""
""fullscreenenter"",""0"",""3337""
","
","
","""event"",""trial"",""time""
""fullscreenenter"",""0"",""3337""
","
","null","<div style=""font-size:60px;"">+</div>","","null","fixation","2021-07-16 01:30:18.015","","","","",""
"","mars-trial","76","287091","0.0-10.0-1.31","842","""event"",""trial"",""time""
""fullscreenenter"",""0"",""3337""
","
","
","""event"",""trial"",""time""
""fullscreenenter"",""0"",""3337""
","
","7810.600000008941","<img style='border: 4px solid darkgrey;' src='img/tf1_32_M_ss1.jpeg'></img>","3","","exp","","0","<img src='img/tf1_32_T1_ss1_md.jpeg'></img>","0","true",""
"","html-keyboard-response","77","287593","0.0-10.0-0.32","842","""event"",""trial"",""time""
""fullscreenenter"",""0"",""3337""
","
","
","""event"",""trial"",""time""
""fullscreenenter"",""0"",""3337""
","
","null","<div style=""font-size:60px;"">+</div>","","null","fixation","2021-07-16 01:30:26.935","","","","",""
"","mars-trial","78","293011","0.0-10.0-1.32","842","""event"",""trial"",""time""
""fullscreenenter"",""0"",""3337""
","
","
","""event"",""trial"",""time""
""fullscreenenter"",""0"",""3337""
","
","4810.29999999702","<img style='border: 4px solid darkgrey;' src='img/tf1_33_M_ss2.jpeg'></img>","1","","exp","","0","<img src='img/tf1_33_T1_ss2_md.jpeg'></img>","0","true",""
"","html-keyboard-response","79","293513","0.0-10.0-0.33","842","""event"",""trial"",""time""
""fullscreenenter"",""0"",""3337""
","
","
","""event"",""trial"",""time""
""fullscreenenter"",""0"",""3337""
","
","null","<div style=""font-size:60px;"">+</div>","","null","fixation","2021-07-16 01:30:32.854","","","","",""
"","mars-trial","80","296714","0.0-10.0-1.33","842","""event"",""trial"",""time""
""fullscreenenter"",""0"",""3337""
","
","
","""event"",""trial"",""time""
""fullscreenenter"",""0"",""3337""
","
","2595.2000000029802","<img style='border: 4px solid darkgrey;' src='img/tf1_34_M_ss3.jpeg'></img>","3","","exp","","0","<img src='img/tf1_34_T1_ss3_md.jpeg'></img>","0","true",""
"","html-keyboard-response","81","297220","0.0-10.0-0.34","842","""event"",""trial"",""time""
""fullscreenenter"",""0"",""3337""
","
","
","""event"",""trial"",""time""
""fullscreenenter"",""0"",""3337""
","
","null","<div style=""font-size:60px;"">+</div>","","null","fixation","2021-07-16 01:30:36.561","","","","",""
"","mars-trial","82","304706","0.0-10.0-1.34","842","""event"",""trial"",""time""
""fullscreenenter"",""0"",""3337""
","
","
","""event"",""trial"",""time""
""fullscreenenter"",""0"",""3337""
","
","6880.20000000298","<img style='border: 4px solid darkgrey;' src='img/tf1_35_M_ss1.jpeg'></img>","0","","exp","","0","<img src='img/tf1_35_T1_ss1_md.jpeg'></img>","0","true",""
"","html-keyboard-response","83","305208","0.0-10.0-0.35","842","""event"",""trial"",""time""
""fullscreenenter"",""0"",""3337""
","
","
","""event"",""trial"",""time""
""fullscreenenter"",""0"",""3337""
","
","null","<div style=""font-size:60px;"">+</div>","","null","fixation","2021-07-16 01:30:44.549","","","","",""
"","mars-trial","84","313267","0.0-10.0-1.35","842","""event"",""trial"",""time""
""fullscreenenter"",""0"",""3337""
","
","
","""event"",""trial"",""time""
""fullscreenenter"",""0"",""3337""
","
","7451.9000000059605","<img style='border: 4px solid darkgrey;' src='img/tf1_36_M_ss2.jpeg'></img>","0","","exp","","0","<img src='img/tf1_36_T1_ss2_md.jpeg'></img>","0","true",""
"","html-keyboard-response","85","313770","0.0-10.0-0.36","842","""event"",""trial"",""time""
""fullscreenenter"",""0"",""3337""
","
","
","""event"",""trial"",""time""
""fullscreenenter"",""0"",""3337""
","
","null","<div style=""font-size:60px;"">+</div>","","null","fixation","2021-07-16 01:30:53.111","","","","",""
"","mars-trial","86","321242","0.0-10.0-1.36","842","""event"",""trial"",""time""
""fullscreenenter"",""0"",""3337""
","
","
","""event"",""trial"",""time""
""fullscreenenter"",""0"",""3337""
","
","6866.100000008941","<img style='border: 4px solid darkgrey;' src='img/tf1_37_M_ss3.jpeg'></img>","3","","exp","","3","<img src='img/tf1_37_T1_ss3_md.jpeg'></img>","0","false",""
"","html-keyboard-response","87","321744","0.0-10.0-0.37","842","""event"",""trial"",""time""
""fullscreenenter"",""0"",""3337""
","
","
","""event"",""trial"",""time""
""fullscreenenter"",""0"",""3337""
","
","null","<div style=""font-size:60px;"">+</div>","","null","fixation","2021-07-16 01:31:01.085","","","","",""
"","mars-trial","88","325307","0.0-10.0-1.37","842","""event"",""trial"",""time""
""fullscreenenter"",""0"",""3337""
","
","
","""event"",""trial"",""time""
""fullscreenenter"",""0"",""3337""
","
","2956.5999999940395","<img style='border: 4px solid darkgrey;' src='img/tf1_38_M_ss1.jpeg'></img>","0","","exp","","0","<img src='img/tf1_38_T1_ss1_md.jpeg'></img>","0","true",""
"","html-keyboard-response","89","325809","0.0-10.0-0.38","842","""event"",""trial"",""time""
""fullscreenenter"",""0"",""3337""
","
","
","""event"",""trial"",""time""
""fullscreenenter"",""0"",""3337""
","
","null","<div style=""font-size:60px;"">+</div>","","null","fixation","2021-07-16 01:31:05.150","","","","",""
"","mars-trial","90","333555","0.0-10.0-1.38","842","""event"",""trial"",""time""
""fullscreenenter"",""0"",""3337""
","
","
","""event"",""trial"",""time""
""fullscreenenter"",""0"",""3337""
","
","7140","<img style='border: 4px solid darkgrey;' src='img/tf1_39_M_ss2.jpeg'></img>","1","","exp","","0","<img src='img/tf1_39_T1_ss2_md.jpeg'></img>","0","true",""
"","html-keyboard-response","91","334058","0.0-10.0-0.39","842","""event"",""trial"",""time""
""fullscreenenter"",""0"",""3337""
","
","
","""event"",""trial"",""time""
""fullscreenenter"",""0"",""3337""
","
","null","<div style=""font-size:60px;"">+</div>","","null","fixation","2021-07-16 01:31:13.399","","","","",""
"","mars-trial","92","342291","0.0-10.0-1.39","842","""event"",""trial"",""time""
""fullscreenenter"",""0"",""3337""
","
","
","""event"",""trial"",""time""
""fullscreenenter"",""0"",""3337""
","
","7626.800000011921","<img style='border: 4px solid darkgrey;' src='img/tf1_40_M_ss3.jpeg'></img>","3","","exp","","3","<img src='img/tf1_40_T1_ss3_md.jpeg'></img>","0","false",""
"","html-keyboard-response","93","342798","0.0-10.0-0.40","842","""event"",""trial"",""time""
""fullscreenenter"",""0"",""3337""
","
","
","""event"",""trial"",""time""
""fullscreenenter"",""0"",""3337""
","
","null","<div style=""font-size:60px;"">+</div>","","null","fixation","2021-07-16 01:31:22.139","","","","",""
"","mars-trial","94","345380","0.0-10.0-1.40","842","""event"",""trial"",""time""
""fullscreenenter"",""0"",""3337""
","
","
","""event"",""trial"",""time""
""fullscreenenter"",""0"",""3337""
","
","1974.7000000029802","<img style='border: 4px solid darkgrey;' src='img/tf1_41_M_ss1.jpeg'></img>","3","","exp","","0","<img src='img/tf1_41_T1_ss1_md.jpeg'></img>","0","true",""
"","html-keyboard-response","95","345883","0.0-10.0-0.41","842","""event"",""trial"",""time""
""fullscreenenter"",""0"",""3337""
","
","
","""event"",""trial"",""time""
""fullscreenenter"",""0"",""3337""
","
","null","<div style=""font-size:60px;"">+</div>","","null","fixation","2021-07-16 01:31:25.224","","","","",""
"","mars-trial","96","352299","0.0-10.0-1.41","842","""event"",""trial"",""time""
""fullscreenenter"",""0"",""3337""
","
","
","""event"",""trial"",""time""
""fullscreenenter"",""0"",""3337""
","
","5810.5","<img style='border: 4px solid darkgrey;' src='img/tf1_42_M_ss2.jpeg'></img>","3","","exp","","3","<img src='img/tf1_42_T1_ss2_md.jpeg'></img>","0","false",""
"","html-keyboard-response","97","352814","0.0-10.0-0.42","842","""event"",""trial"",""time""
""fullscreenenter"",""0"",""3337""
","
","
","""event"",""trial"",""time""
""fullscreenenter"",""0"",""3337""
","
","null","<div style=""font-size:60px;"">+</div>","","null","fixation","2021-07-16 01:31:32.155","","","","",""
"","mars-trial","98","355938","0.0-10.0-1.42","842","""event"",""trial"",""time""
""fullscreenenter"",""0"",""3337""
","
","
","""event"",""trial"",""time""
""fullscreenenter"",""0"",""3337""
","
","2518.8999999910593","<img style='border: 4px solid darkgrey;' src='img/tf1_43_M_ss3.jpeg'></img>","0","","exp","","0","<img src='img/tf1_43_T1_ss3_md.jpeg'></img>","0","true",""
"","html-keyboard-response","99","356440","0.0-10.0-0.43","842","""event"",""trial"",""time""
""fullscreenenter"",""0"",""3337""
","
","
","""event"",""trial"",""time""
""fullscreenenter"",""0"",""3337""
","
","null","<div style=""font-size:60px;"">+</div>","","null","fixation","2021-07-16 01:31:35.781","","","","",""
"","mars-trial","100","368482","0.0-10.0-1.43","842","""event"",""trial"",""time""
""fullscreenenter"",""0"",""3337""
","
","
","""event"",""trial"",""time""
""fullscreenenter"",""0"",""3337""
","
","11437.40000000596","<img style='border: 4px solid darkgrey;' src='img/tf1_44_M_ss1.jpeg'></img>","3","","exp","","3","<img src='img/tf1_44_T1_ss1_md.jpeg'></img>","0","false",""
"","html-keyboard-response","101","368985","0.0-10.0-0.44","842","""event"",""trial"",""time""
""fullscreenenter"",""0"",""3337""
","
","
","""event"",""trial"",""time""
""fullscreenenter"",""0"",""3337""
","
","null","<div style=""font-size:60px;"">+</div>","","null","fixation","2021-07-16 01:31:48.326","","","","",""
"","mars-trial","102","378707","0.0-10.0-1.44","842","""event"",""trial"",""time""
""fullscreenenter"",""0"",""3337""
","
","
","""event"",""trial"",""time""
""fullscreenenter"",""0"",""3337""
","
","9115.20000000298","<img style='border: 4px solid darkgrey;' src='img/tf1_45_M_ss2.jpeg'></img>","1","","exp","","0","<img src='img/tf1_45_T1_ss2_md.jpeg'></img>","0","true",""
"","html-keyboard-response","103","379210","0.0-10.0-0.45","842","""event"",""trial"",""time""
""fullscreenenter"",""0"",""3337""
","
","
","""event"",""trial"",""time""
""fullscreenenter"",""0"",""3337""
","
","null","<div style=""font-size:60px;"">+</div>","","null","fixation","2021-07-16 01:31:58.552","","","","",""
"","mars-trial","104","387563","0.0-10.0-1.45","842","""event"",""trial"",""time""
""fullscreenenter"",""0"",""3337""
","
","
","""event"",""trial"",""time""
""fullscreenenter"",""0"",""3337""
","
","7745.70000000298","<img style='border: 4px solid darkgrey;' src='img/tf1_46_M_ss3.jpeg'></img>","0","","exp","","1","<img src='img/tf1_46_T1_ss3_md.jpeg'></img>","0","false",""
"","html-keyboard-response","105","388064","0.0-10.0-0.46","842","""event"",""trial"",""time""
""fullscreenenter"",""0"",""3337""
","
","
","""event"",""trial"",""time""
""fullscreenenter"",""0"",""3337""
","
","null","<div style=""font-size:60px;"">+</div>","","null","fixation","2021-07-16 01:32:07.405","","","","",""
"","mars-trial","106","397634","0.0-10.0-1.46","842","""event"",""trial"",""time""
""fullscreenenter"",""0"",""3337""
","
","
","""event"",""trial"",""time""
""fullscreenenter"",""0"",""3337""
","
","8964.39999999106","<img style='border: 4px solid darkgrey;' src='img/tf1_47_M_ss1.jpeg'></img>","2","","exp","","1","<img src='img/tf1_47_T1_ss1_md.jpeg'></img>","0","false",""
"","html-keyboard-response","107","398136","0.0-10.0-0.47","842","""event"",""trial"",""time""
""fullscreenenter"",""0"",""3337""
","
","
","""event"",""trial"",""time""
""fullscreenenter"",""0"",""3337""
","
","null","<div style=""font-size:60px;"">+</div>","","null","fixation","2021-07-16 01:32:17.477","","","","",""
"","mars-trial","108","405259","0.0-10.0-1.47","842","""event"",""trial"",""time""
""fullscreenenter"",""0"",""3337""
","
","
","""event"",""trial"",""time""
""fullscreenenter"",""0"",""3337""
","
","6516.20000000298","<img style='border: 4px solid darkgrey;' src='img/tf1_48_M_ss2.jpeg'></img>","2","","exp","","1","<img src='img/tf1_48_T1_ss2_md.jpeg'></img>","0","false",""
"","html-keyboard-response","109","405761","0.0-10.0-0.48","842","""event"",""trial"",""time""
""fullscreenenter"",""0"",""3337""
","
","
","""event"",""trial"",""time""
""fullscreenenter"",""0"",""3337""
","
","null","<div style=""font-size:60px;"">+</div>","","null","fixation","2021-07-16 01:32:25.102","","","","",""
"","mars-trial","110","414882","0.0-10.0-1.48","842","""event"",""trial"",""time""
""fullscreenenter"",""0"",""3337""
","
","
","""event"",""trial"",""time""
""fullscreenenter"",""0"",""3337""
","
","8515.40000000596","<img style='border: 4px solid darkgrey;' src='img/tf1_49_M_ss3.jpeg'></img>","1","","exp","","0","<img src='img/tf1_49_T1_ss3_md.jpeg'></img>","0","true",""
"","html-keyboard-response","111","415385","0.0-10.0-0.49","842","""event"",""trial"",""time""
""fullscreenenter"",""0"",""3337""
","
","
","""event"",""trial"",""time""
""fullscreenenter"",""0"",""3337""
","
","null","<div style=""font-size:60px;"">+</div>","","null","fixation","2021-07-16 01:32:34.726","","","","",""
"","mars-trial","112","421067","0.0-10.0-1.49","842","""event"",""trial"",""time""
""fullscreenenter"",""0"",""3337""
","
","
","""event"",""trial"",""time""
""fullscreenenter"",""0"",""3337""
","
","5075.20000000298","<img style='border: 4px solid darkgrey;' src='img/tf1_50_M_ss1.jpeg'></img>","0","","exp","","2","<img src='img/tf1_50_T1_ss1_md.jpeg'></img>","0","false",""
"","html-keyboard-response","113","421581","0.0-10.0-0.50","842","""event"",""trial"",""time""
""fullscreenenter"",""0"",""3337""
","
","
","""event"",""trial"",""time""
""fullscreenenter"",""0"",""3337""
","
","null","<div style=""font-size:60px;"">+</div>","","null","fixation","2021-07-16 01:32:40.922","","","","",""
"","mars-trial","114","428331","0.0-10.0-1.50","842","""event"",""trial"",""time""
""fullscreenenter"",""0"",""3337""
","
","
","""event"",""trial"",""time""
""fullscreenenter"",""0"",""3337""
","
","6143.399999991059","<img style='border: 4px solid darkgrey;' src='img/tf1_51_M_ss2.jpeg'></img>","3","","exp","","1","<img src='img/tf1_51_T1_ss2_md.jpeg'></img>","0","false",""
"","html-keyboard-response","115","428846","0.0-10.0-0.51","842","""event"",""trial"",""time""
""fullscreenenter"",""0"",""3337""
","
","
","""event"",""trial"",""time""
""fullscreenenter"",""0"",""3337""
","
","null","<div style=""font-size:60px;"">+</div>","","null","fixation","2021-07-16 01:32:48.187","","","","",""
"","mars-trial","116","433651","0.0-10.0-1.51","842","""event"",""trial"",""time""
""fullscreenenter"",""0"",""3337""
","
","
","""event"",""trial"",""time""
""fullscreenenter"",""0"",""3337""
","
","4198.29999999702","<img style='border: 4px solid darkgrey;' src='img/tf1_52_M_ss3.jpeg'></img>","3","","exp","","1","<img src='img/tf1_52_T1_ss3_md.jpeg'></img>","0","false",""
"","html-keyboard-response","117","434153","0.0-10.0-0.52","842","""event"",""trial"",""time""
""fullscreenenter"",""0"",""3337""
","
","
","""event"",""trial"",""time""
""fullscreenenter"",""0"",""3337""
","
","null","<div style=""font-size:60px;"">+</div>","","null","fixation","2021-07-16 01:32:53.494","","","","",""
"","mars-trial","118","438051","0.0-10.0-1.52","842","""event"",""trial"",""time""
""fullscreenenter"",""0"",""3337""
","
","
","""event"",""trial"",""time""
""fullscreenenter"",""0"",""3337""
","
","3291.2000000029802","<img style='border: 4px solid darkgrey;' src='img/tf1_53_M_ss1.jpeg'></img>","0","","exp","","1","<img src='img/tf1_53_T1_ss1_md.jpeg'></img>","0","false",""
"","html-keyboard-response","119","438554","0.0-10.0-0.53","842","""event"",""trial"",""time""
""fullscreenenter"",""0"",""3337""
","
","
","""event"",""trial"",""time""
""fullscreenenter"",""0"",""3337""
","
","null","<div style=""font-size:60px;"">+</div>","","null","fixation","2021-07-16 01:32:57.895","","","","",""
"","mars-trial","120","443732","0.0-10.0-1.53","842","""event"",""trial"",""time""
""fullscreenenter"",""0"",""3337""
","
","
","""event"",""trial"",""time""
""fullscreenenter"",""0"",""3337""
","
","4571.4000000059605","<img style='border: 4px solid darkgrey;' src='img/tf1_54_M_ss2.jpeg'></img>","3","","exp","","1","<img src='img/tf1_54_T1_ss2_md.jpeg'></img>","0","false",""
"","html-keyboard-response","121","444234","0.0-10.0-0.54","842","""event"",""trial"",""time""
""fullscreenenter"",""0"",""3337""
","
","
","""event"",""trial"",""time""
""fullscreenenter"",""0"",""3337""
","
","null","<div style=""font-size:60px;"">+</div>","","null","fixation","2021-07-16 01:33:03.575","","","","",""
"","mars-trial","122","450339","0.0-10.0-1.54","842","""event"",""trial"",""time""
""fullscreenenter"",""0"",""3337""
","
","
","""event"",""trial"",""time""
""fullscreenenter"",""0"",""3337""
","
","5499.300000011921","<img style='border: 4px solid darkgrey;' src='img/tf1_55_M_ss3.jpeg'></img>","3","","exp","","0","<img src='img/tf1_55_T1_ss3_md.jpeg'></img>","0","true",""
"","html-keyboard-response","123","450842","0.0-10.0-0.55","842","""event"",""trial"",""time""
""fullscreenenter"",""0"",""3337""
","
","
","""event"",""trial"",""time""
""fullscreenenter"",""0"",""3337""
","
","null","<div style=""font-size:60px;"">+</div>","","null","fixation","2021-07-16 01:33:10.183","","","","",""
"","mars-trial","124","457371","0.0-10.0-1.55","842","""event"",""trial"",""time""
""fullscreenenter"",""0"",""3337""
","
","
","""event"",""trial"",""time""
""fullscreenenter"",""0"",""3337""
","
","5923","<img style='border: 4px solid darkgrey;' src='img/tf1_56_M_ss1.jpeg'></img>","2","","exp","","1","<img src='img/tf1_56_T1_ss1_md.jpeg'></img>","0","false",""
"","html-keyboard-response","125","457874","0.0-10.0-0.56","842","""event"",""trial"",""time""
""fullscreenenter"",""0"",""3337""
","
","
","""event"",""trial"",""time""
""fullscreenenter"",""0"",""3337""
","
","null","<div style=""font-size:60px;"">+</div>","","null","fixation","2021-07-16 01:33:17.215","","","","",""
"","mars-trial","126","463314","0.0-10.0-1.56","842","""event"",""trial"",""time""
""fullscreenenter"",""0"",""3337""
","
","
","""event"",""trial"",""time""
""fullscreenenter"",""0"",""3337""
","
","4834.79999999702","<img style='border: 4px solid darkgrey;' src='img/tf1_57_M_ss2.jpeg'></img>","2","","exp","","1","<img src='img/tf1_57_T1_ss2_md.jpeg'></img>","0","false",""
"","html-keyboard-response","127","463815","0.0-10.0-0.57","842","""event"",""trial"",""time""
""fullscreenenter"",""0"",""3337""
","
","
","""event"",""trial"",""time""
""fullscreenenter"",""0"",""3337""
","
","null","<div style=""font-size:60px;"">+</div>","","null","fixation","2021-07-16 01:33:23.156","","","","",""
"","mars-trial","128","468179","0.0-10.0-1.57","842","""event"",""trial"",""time""
""fullscreenenter"",""0"",""3337""
","
","
","""event"",""trial"",""time""
""fullscreenenter"",""0"",""3337""
","
","3758.2000000029802","<img style='border: 4px solid darkgrey;' src='img/tf1_58_M_ss3.jpeg'></img>","2","","exp","","0","<img src='img/tf1_58_T1_ss3_md.jpeg'></img>","0","true",""
"","html-keyboard-response","129","468682","0.0-10.0-0.58","842","""event"",""trial"",""time""
""fullscreenenter"",""0"",""3337""
","
","
","""event"",""trial"",""time""
""fullscreenenter"",""0"",""3337""
","
","null","<div style=""font-size:60px;"">+</div>","","null","fixation","2021-07-16 01:33:28.023","","","","",""
"","mars-trial","130","476426","0.0-10.0-1.58","842","""event"",""trial"",""time""
""fullscreenenter"",""0"",""3337""
","
","
","""event"",""trial"",""time""
""fullscreenenter"",""0"",""3337""
","
","7139.5","<img style='border: 4px solid darkgrey;' src='img/tf1_59_M_ss1.jpeg'></img>","3","","exp","","2","<img src='img/tf1_59_T1_ss1_md.jpeg'></img>","0","false",""
"","html-keyboard-response","131","476928","0.0-10.0-0.59","842","""event"",""trial"",""time""
""fullscreenenter"",""0"",""3337""
","
","
","""event"",""trial"",""time""
""fullscreenenter"",""0"",""3337""
","
","null","<div style=""font-size:60px;"">+</div>","","null","fixation","2021-07-16 01:33:36.269","","","","",""
"","mars-trial","132","482434","0.0-10.0-1.59","842","""event"",""trial"",""time""
""fullscreenenter"",""0"",""3337""
","
","
","""event"",""trial"",""time""
""fullscreenenter"",""0"",""3337""
","
","4899.20000000298","<img style='border: 4px solid darkgrey;' src='img/tf1_60_M_ss2.jpeg'></img>","1","","exp","","3","<img src='img/tf1_60_T1_ss2_md.jpeg'></img>","0","false",""
"","html-keyboard-response","133","482936","0.0-10.0-0.60","842","""event"",""trial"",""time""
""fullscreenenter"",""0"",""3337""
","
","
","""event"",""trial"",""time""
""fullscreenenter"",""0"",""3337""
","
","null","<div style=""font-size:60px;"">+</div>","","null","fixation","2021-07-16 01:33:42.277","","","","",""
"","mars-trial","134","486946","0.0-10.0-1.60","842","""event"",""trial"",""time""
""fullscreenenter"",""0"",""3337""
","
","
","""event"",""trial"",""time""
""fullscreenenter"",""0"",""3337""
","
","3404.2000000029802","<img style='border: 4px solid darkgrey;' src='img/tf1_61_M_ss3.jpeg'></img>","0","","exp","","3","<img src='img/tf1_61_T1_ss3_md.jpeg'></img>","0","false",""
"","html-keyboard-response","135","487448","0.0-10.0-0.61","842","""event"",""trial"",""time""
""fullscreenenter"",""0"",""3337""
","
","
","""event"",""trial"",""time""
""fullscreenenter"",""0"",""3337""
","
","null","<div style=""font-size:60px;"">+</div>","","null","fixation","2021-07-16 01:33:46.789","","","","",""
"","mars-trial","136","493651","0.0-10.0-1.61","842","""event"",""trial"",""time""
""fullscreenenter"",""0"",""3337""
","
","
","""event"",""trial"",""time""
""fullscreenenter"",""0"",""3337""
","
","5595.4000000059605","<img style='border: 4px solid darkgrey;' src='img/tf1_62_M_ss1.jpeg'></img>","3","","exp","","0","<img src='img/tf1_62_T1_ss1_md.jpeg'></img>","0","true",""
"","html-keyboard-response","137","494154","0.0-10.0-0.62","842","""event"",""trial"",""time""
""fullscreenenter"",""0"",""3337""
","
","
","""event"",""trial"",""time""
""fullscreenenter"",""0"",""3337""
","
","null","<div style=""font-size:60px;"">+</div>","","null","fixation","2021-07-16 01:33:53.495","","","","",""
"","mars-trial","138","499731","0.0-10.0-1.62","842","""event"",""trial"",""time""
""fullscreenenter"",""0"",""3337""
","
","
","""event"",""trial"",""time""
""fullscreenenter"",""0"",""3337""
","
","4971","<img style='border: 4px solid darkgrey;' src='img/tf1_63_M_ss2.jpeg'></img>","3","","exp","","1","<img src='img/tf1_63_T1_ss2_md.jpeg'></img>","0","false",""
"","html-keyboard-response","139","500233","0.0-10.0-0.63","842","""event"",""trial"",""time""
""fullscreenenter"",""0"",""3337""
","
","
","""event"",""trial"",""time""
""fullscreenenter"",""0"",""3337""
","
","null","<div style=""font-size:60px;"">+</div>","","null","fixation","2021-07-16 01:33:59.574","","","","",""
"","mars-trial","140","504584","0.0-10.0-1.63","842","""event"",""trial"",""time""
""fullscreenenter"",""0"",""3337""
","
","
","""event"",""trial"",""time""
""fullscreenenter"",""0"",""3337""
","
","3731.9000000059605","<img style='border: 4px solid darkgrey;' src='img/tf1_64_M_ss3.jpeg'></img>","3","","exp","","0","<img src='img/tf1_64_T1_ss3_md.jpeg'></img>","0","true",""
"","html-keyboard-response","141","505087","0.0-10.0-0.64","842","""event"",""trial"",""time""
""fullscreenenter"",""0"",""3337""
","
","
","""event"",""trial"",""time""
""fullscreenenter"",""0"",""3337""
","
","null","<div style=""font-size:60px;"">+</div>","","null","fixation","2021-07-16 01:34:04.428","","","","",""
"","mars-trial","142","515786","0.0-10.0-1.64","842","""event"",""trial"",""time""
""fullscreenenter"",""0"",""3337""
","
","
","""event"",""trial"",""time""
""fullscreenenter"",""0"",""3337""
","
","10093.5","<img style='border: 4px solid darkgrey;' src='img/tf1_65_M_ss1.jpeg'></img>","0","","exp","","1","<img src='img/tf1_65_T1_ss1_md.jpeg'></img>","0","false",""
"","html-keyboard-response","143","516289","0.0-10.0-0.65","842","""event"",""trial"",""time""
""fullscreenenter"",""0"",""3337""
","
","
","""event"",""trial"",""time""
""fullscreenenter"",""0"",""3337""
","
","null","<div style=""font-size:60px;"">+</div>","","null","fixation","2021-07-16 01:34:15.630","","","","",""
"","mars-trial","144","520395","0.0-10.0-1.65","842","""event"",""trial"",""time""
""fullscreenenter"",""0"",""3337""
","
","
","""event"",""trial"",""time""
""fullscreenenter"",""0"",""3337""
","
","3502","<img style='border: 4px solid darkgrey;' src='img/tf1_66_M_ss2.jpeg'></img>","1","","exp","","0","<img src='img/tf1_66_T1_ss2_md.jpeg'></img>","0","true",""
"","html-keyboard-response","145","520898","0.0-10.0-0.66","842","""event"",""trial"",""time""
""fullscreenenter"",""0"",""3337""
","
","
","""event"",""trial"",""time""
""fullscreenenter"",""0"",""3337""
","
","null","<div style=""font-size:60px;"">+</div>","","null","fixation","2021-07-16 01:34:20.239","","","","",""
"","mars-trial","146","525619","0.0-10.0-1.66","842","""event"",""trial"",""time""
""fullscreenenter"",""0"",""3337""
","
","
","""event"",""trial"",""time""
""fullscreenenter"",""0"",""3337""
","
","4114.70000000298","<img style='border: 4px solid darkgrey;' src='img/tf1_67_M_ss3.jpeg'></img>","2","","exp","","0","<img src='img/tf1_67_T1_ss3_md.jpeg'></img>","0","true",""
"","html-keyboard-response","147","526136","0.0-10.0-0.67","842","""event"",""trial"",""time""
""fullscreenenter"",""0"",""3337""
","
","
","""event"",""trial"",""time""
""fullscreenenter"",""0"",""3337""
","
","null","<div style=""font-size:60px;"">+</div>","","null","fixation","2021-07-16 01:34:25.477","","","","",""
"","mars-trial","148","528027","0.0-10.0-1.67","842","""event"",""trial"",""time""
""fullscreenenter"",""0"",""3337""
","
","
","""event"",""trial"",""time""
""fullscreenenter"",""0"",""3337""
","
","1284.5","<img style='border: 4px solid darkgrey;' src='img/tf1_68_M_ss1.jpeg'></img>","1","","exp","","0","<img src='img/tf1_68_T1_ss1_md.jpeg'></img>","0","true",""
"","html-keyboard-response","149","528198","0.0-10.0-0.68","842","""event"",""trial"",""time""
""fullscreenenter"",""0"",""3337""
","
","
","""event"",""trial"",""time""
""fullscreenenter"",""0"",""3337""
","
","","","","","fixation","2021-07-16 01:34:27.539","","","","",""
"","audio-button-response","150","528544","0.0-11.0","842","""event"",""trial"",""time""
""fullscreenenter"",""0"",""3337""
","
","
","""event"",""trial"",""time""
""fullscreenenter"",""0"",""3337""
","
","null","<div style=""font-size:60px;"">+</div>","","null","","","","","","",""
