"success","trial_type","trial_index","time_elapsed","internal_node_id","subject_id","interactions","blur_events","focus_events","fullscreenenter_events","fullscreenexit_events","rt","stimulus","button_pressed","key_press","part","timestamp","unshuffled_button","correct_response","correct_button","correct","value"
"true","fullscreen","0","2689","0.0-0.0","291","""event"",""trial"",""time""
""fullscreenenter"",""0"",""1735""
","
","
","""event"",""trial"",""time""
""fullscreenenter"",""0"",""1735""
","
","","","","","","","","","","",""
"","pavlovia","1","2695","0.0-1.0","291","""event"",""trial"",""time""
""fullscreenenter"",""0"",""1735""
","
","
","""event"",""trial"",""time""
""fullscreenenter"",""0"",""1735""
","
","","","","","","","","","","",""
"","html-button-response","2","4392","0.0-2.0","291","""event"",""trial"",""time""
""fullscreenenter"",""0"",""1735""
","
","
","""event"",""trial"",""time""
""fullscreenenter"",""0"",""1735""
","
","1694.92000000173","<p>Welcome! Press START to begin.</p><br>","0","","","","","","","",""
"","audio-button-response","3","12440","0.0-3.0","291","""event"",""trial"",""time""
""fullscreenenter"",""0"",""1735""
","
","
","""event"",""trial"",""time""
""fullscreenenter"",""0"",""1735""
","
","8044.679999999062","audio/mars_instructions_slide2.wav","0","","","","","","","",""
"","audio-button-response","4","21030","0.0-4.0","291","""event"",""trial"",""time""
""fullscreenenter"",""0"",""1735""
","
","
","""event"",""trial"",""time""
""fullscreenenter"",""0"",""1735""
","
","8587.800000001153","audio/mars_instructions_slide3.wav","0","","","","","","","",""
"","html-keyboard-response","5","21537","0.0-5.0-0.0","291","""event"",""trial"",""time""
""fullscreenenter"",""0"",""1735""
","
","
","""event"",""trial"",""time""
""fullscreenenter"",""0"",""1735""
","
","null","<div style=""font-size:60px;"">+</div>","","null","fixation","2021-04-09 12:13:22.897","","","","",""
"","mars-trial","6","27098","0.0-5.0-1.0","291","""event"",""trial"",""time""
""fullscreenenter"",""0"",""1735""
","
","
","""event"",""trial"",""time""
""fullscreenenter"",""0"",""1735""
","
","3448.7000000008265","<img style='border: 4px solid darkgrey;' src='practice/pt1_M1.png'></img>","2","","practice","","0","<img src='practice/pt1_T1.png'></img>","0","true",""
"","html-keyboard-response","7","27603","0.0-6.0-0.0","291","""event"",""trial"",""time""
""fullscreenenter"",""0"",""1735""
","
","
","""event"",""trial"",""time""
""fullscreenenter"",""0"",""1735""
","
","null","<div style=""font-size:60px;"">+</div>","","null","fixation","2021-04-09 12:13:28.963","","","","",""
"","mars-trial","8","32382","0.0-6.0-1.0","291","""event"",""trial"",""time""
""fullscreenenter"",""0"",""1735""
","
","
","""event"",""trial"",""time""
""fullscreenenter"",""0"",""1735""
","
","2667.0799999992596","<img style='border: 4px solid darkgrey;' src='practice/pt2_M1.png'></img>","0","","practice","","0","<img src='practice/pt2_T1.png'></img>","0","true",""
"","html-keyboard-response","9","32887","0.0-7.0-0.0","291","""event"",""trial"",""time""
""fullscreenenter"",""0"",""1735""
","
","
","""event"",""trial"",""time""
""fullscreenenter"",""0"",""1735""
","
","null","<div style=""font-size:60px;"">+</div>","","null","fixation","2021-04-09 12:13:34.247","","","","",""
"","mars-trial","10","36015","0.0-7.0-1.0","291","""event"",""trial"",""time""
""fullscreenenter"",""0"",""1735""
","
","
","""event"",""trial"",""time""
""fullscreenenter"",""0"",""1735""
","
","1016.8850000045495","<img style='border: 4px solid darkgrey;' src='practice/pt3_M1.png'></img>","0","","practice","","0","<img src='practice/pt3_T1.png'></img>","0","true",""
"","audio-button-response","11","37619","0.0-8.0","291","""event"",""trial"",""time""
""fullscreenenter"",""0"",""1735""
","
","
","""event"",""trial"",""time""
""fullscreenenter"",""0"",""1735""
","
","1602.5950000039302","audio/mars_instructions_slide4.wav","0","","","","","","","",""
"","call-function","12","37620","0.0-9.0","291","""event"",""trial"",""time""
""fullscreenenter"",""0"",""1735""
","
","
","""event"",""trial"",""time""
""fullscreenenter"",""0"",""1735""
","
","","","","","","","","","","",""
"","html-keyboard-response","13","38122","0.0-10.0-0.0","291","""event"",""trial"",""time""
""fullscreenenter"",""0"",""1735""
","
","
","""event"",""trial"",""time""
""fullscreenenter"",""0"",""1735""
","
","null","<div style=""font-size:60px;"">+</div>","","null","fixation","2021-04-09 12:13:39.482","","","","",""
"","mars-trial","14","40334","0.0-10.0-1.0","291","""event"",""trial"",""time""
""fullscreenenter"",""0"",""1735""
","
","
","""event"",""trial"",""time""
""fullscreenenter"",""0"",""1735""
","
","1599.3749999979627","<img style='border: 4px solid darkgrey;' src='img/tf1_1_M_ss3.jpeg'></img>","0","","exp","","0","<img src='img/tf1_1_T1_ss3_md.jpeg'></img>","0","true",""
"","html-keyboard-response","15","40839","0.0-10.0-0.1","291","""event"",""trial"",""time""
""fullscreenenter"",""0"",""1735""
","
","
","""event"",""trial"",""time""
""fullscreenenter"",""0"",""1735""
","
","null","<div style=""font-size:60px;"">+</div>","","null","fixation","2021-04-09 12:13:42.199","","","","",""
"","mars-trial","16","43608","0.0-10.0-1.1","291","""event"",""trial"",""time""
""fullscreenenter"",""0"",""1735""
","
","
","""event"",""trial"",""time""
""fullscreenenter"",""0"",""1735""
","
","2157.810000004247","<img style='border: 4px solid darkgrey;' src='img/tf1_2_M_ss1.jpeg'></img>","0","","exp","","0","<img src='img/tf1_2_T1_ss1_md.jpeg'></img>","0","true",""
"","html-keyboard-response","17","44113","0.0-10.0-0.2","291","""event"",""trial"",""time""
""fullscreenenter"",""0"",""1735""
","
","
","""event"",""trial"",""time""
""fullscreenenter"",""0"",""1735""
","
","null","<div style=""font-size:60px;"">+</div>","","null","fixation","2021-04-09 12:13:45.473","","","","",""
"","mars-trial","18","46592","0.0-10.0-1.2","291","""event"",""trial"",""time""
""fullscreenenter"",""0"",""1735""
","
","
","""event"",""trial"",""time""
""fullscreenenter"",""0"",""1735""
","
","1868.6450000022887","<img style='border: 4px solid darkgrey;' src='img/tf1_3_M_ss2.jpeg'></img>","2","","exp","","0","<img src='img/tf1_3_T1_ss2_md.jpeg'></img>","0","true",""
"","html-keyboard-response","19","47097","0.0-10.0-0.3","291","""event"",""trial"",""time""
""fullscreenenter"",""0"",""1735""
","
","
","""event"",""trial"",""time""
""fullscreenenter"",""0"",""1735""
","
","null","<div style=""font-size:60px;"">+</div>","","null","fixation","2021-04-09 12:13:48.457","","","","",""
"","mars-trial","20","50029","0.0-10.0-1.3","291","""event"",""trial"",""time""
""fullscreenenter"",""0"",""1735""
","
","
","""event"",""trial"",""time""
""fullscreenenter"",""0"",""1735""
","
","2323.2549999956973","<img style='border: 4px solid darkgrey;' src='img/tf1_4_M_ss3.jpeg'></img>","2","","exp","","0","<img src='img/tf1_4_T1_ss3_md.jpeg'></img>","0","true",""
"","html-keyboard-response","21","50534","0.0-10.0-0.4","291","""event"",""trial"",""time""
""fullscreenenter"",""0"",""1735""
","
","
","""event"",""trial"",""time""
""fullscreenenter"",""0"",""1735""
","
","null","<div style=""font-size:60px;"">+</div>","","null","fixation","2021-04-09 12:13:51.894","","","","",""
"","mars-trial","22","52798","0.0-10.0-1.4","291","""event"",""trial"",""time""
""fullscreenenter"",""0"",""1735""
","
","
","""event"",""trial"",""time""
""fullscreenenter"",""0"",""1735""
","
","1651.5849999996135","<img style='border: 4px solid darkgrey;' src='img/tf1_5_M_ss1.jpeg'></img>","0","","exp","","0","<img src='img/tf1_5_T1_ss1_md.jpeg'></img>","0","true",""
"","html-keyboard-response","23","53302","0.0-10.0-0.5","291","""event"",""trial"",""time""
""fullscreenenter"",""0"",""1735""
","
","
","""event"",""trial"",""time""
""fullscreenenter"",""0"",""1735""
","
","null","<div style=""font-size:60px;"">+</div>","","null","fixation","2021-04-09 12:13:54.663","","","","",""
"","mars-trial","24","59003","0.0-10.0-1.5","291","""event"",""trial"",""time""
""fullscreenenter"",""0"",""1735""
","
","
","""event"",""trial"",""time""
""fullscreenenter"",""0"",""1735""
","
","5088.230000001204","<img style='border: 4px solid darkgrey;' src='img/tf1_6_M_ss2.jpeg'></img>","3","","exp","","3","<img src='img/tf1_6_T1_ss2_md.jpeg'></img>","0","false",""
"","html-keyboard-response","25","59507","0.0-10.0-0.6","291","""event"",""trial"",""time""
""fullscreenenter"",""0"",""1735""
","
","
","""event"",""trial"",""time""
""fullscreenenter"",""0"",""1735""
","
","null","<div style=""font-size:60px;"">+</div>","","null","fixation","2021-04-09 12:14:00.867","","","","",""
"","mars-trial","26","63123","0.0-10.0-1.6","291","""event"",""trial"",""time""
""fullscreenenter"",""0"",""1735""
","
","
","""event"",""trial"",""time""
""fullscreenenter"",""0"",""1735""
","
","3008.159999997588","<img style='border: 4px solid darkgrey;' src='img/tf1_7_M_ss3.jpeg'></img>","3","","exp","","0","<img src='img/tf1_7_T1_ss3_md.jpeg'></img>","0","true",""
"","html-keyboard-response","27","63630","0.0-10.0-0.7","291","""event"",""trial"",""time""
""fullscreenenter"",""0"",""1735""
","
","
","""event"",""trial"",""time""
""fullscreenenter"",""0"",""1735""
","
","null","<div style=""font-size:60px;"">+</div>","","null","fixation","2021-04-09 12:14:04.990","","","","",""
"","mars-trial","28","67200","0.0-10.0-1.7","291","""event"",""trial"",""time""
""fullscreenenter"",""0"",""1735""
","
","
","""event"",""trial"",""time""
""fullscreenenter"",""0"",""1735""
","
","2958.1899999975576","<img style='border: 4px solid darkgrey;' src='img/tf1_8_M_ss1.jpeg'></img>","1","","exp","","0","<img src='img/tf1_8_T1_ss1_md.jpeg'></img>","0","true",""
"","html-keyboard-response","29","67706","0.0-10.0-0.8","291","""event"",""trial"",""time""
""fullscreenenter"",""0"",""1735""
","
","
","""event"",""trial"",""time""
""fullscreenenter"",""0"",""1735""
","
","null","<div style=""font-size:60px;"">+</div>","","null","fixation","2021-04-09 12:14:09.066","","","","",""
"","mars-trial","30","72211","0.0-10.0-1.8","291","""event"",""trial"",""time""
""fullscreenenter"",""0"",""1735""
","
","
","""event"",""trial"",""time""
""fullscreenenter"",""0"",""1735""
","
","3894.7299999999814","<img style='border: 4px solid darkgrey;' src='img/tf1_9_M_ss2.jpeg'></img>","3","","exp","","0","<img src='img/tf1_9_T1_ss2_md.jpeg'></img>","0","true",""
"","html-keyboard-response","31","72716","0.0-10.0-0.9","291","""event"",""trial"",""time""
""fullscreenenter"",""0"",""1735""
","
","
","""event"",""trial"",""time""
""fullscreenenter"",""0"",""1735""
","
","null","<div style=""font-size:60px;"">+</div>","","null","fixation","2021-04-09 12:14:14.076","","","","",""
"","mars-trial","32","78170","0.0-10.0-1.9","291","""event"",""trial"",""time""
""fullscreenenter"",""0"",""1735""
","
","
","""event"",""trial"",""time""
""fullscreenenter"",""0"",""1735""
","
","4843.0999999982305","<img style='border: 4px solid darkgrey;' src='img/tf1_10_M_ss3.jpeg'></img>","2","","exp","","1","<img src='img/tf1_10_T1_ss3_md.jpeg'></img>","0","false",""
"","html-keyboard-response","33","78672","0.0-10.0-0.10","291","""event"",""trial"",""time""
""fullscreenenter"",""0"",""1735""
","
","
","""event"",""trial"",""time""
""fullscreenenter"",""0"",""1735""
","
","null","<div style=""font-size:60px;"">+</div>","","null","fixation","2021-04-09 12:14:20.032","","","","",""
"","mars-trial","34","83148","0.0-10.0-1.10","291","""event"",""trial"",""time""
""fullscreenenter"",""0"",""1735""
","
","
","""event"",""trial"",""time""
""fullscreenenter"",""0"",""1735""
","
","3867.050000000745","<img style='border: 4px solid darkgrey;' src='img/tf1_11_M_ss1.jpeg'></img>","1","","exp","","1","<img src='img/tf1_11_T1_ss1_md.jpeg'></img>","0","false",""
"","html-keyboard-response","35","83653","0.0-10.0-0.11","291","""event"",""trial"",""time""
""fullscreenenter"",""0"",""1735""
","
","
","""event"",""trial"",""time""
""fullscreenenter"",""0"",""1735""
","
","null","<div style=""font-size:60px;"">+</div>","","null","fixation","2021-04-09 12:14:25.013","","","","",""
"","mars-trial","36","91220","0.0-10.0-1.11","291","""event"",""trial"",""time""
""fullscreenenter"",""0"",""1735""
","
","
","""event"",""trial"",""time""
""fullscreenenter"",""0"",""1735""
","
","6957.054999998945","<img style='border: 4px solid darkgrey;' src='img/tf1_12_M_ss2.jpeg'></img>","1","","exp","","1","<img src='img/tf1_12_T1_ss2_md.jpeg'></img>","0","false",""
"","html-keyboard-response","37","91734","0.0-10.0-0.12","291","""event"",""trial"",""time""
""fullscreenenter"",""0"",""1735""
","
","
","""event"",""trial"",""time""
""fullscreenenter"",""0"",""1735""
","
","null","<div style=""font-size:60px;"">+</div>","","null","fixation","2021-04-09 12:14:33.094","","","","",""
"","mars-trial","38","98363","0.0-10.0-1.12","291","""event"",""trial"",""time""
""fullscreenenter"",""0"",""1735""
","
","
","""event"",""trial"",""time""
""fullscreenenter"",""0"",""1735""
","
","6016.234999995504","<img style='border: 4px solid darkgrey;' src='img/tf1_13_M_ss3.jpeg'></img>","3","","exp","","1","<img src='img/tf1_13_T1_ss3_md.jpeg'></img>","0","false",""
"","html-keyboard-response","39","98868","0.0-10.0-0.13","291","""event"",""trial"",""time""
""fullscreenenter"",""0"",""1735""
","
","
","""event"",""trial"",""time""
""fullscreenenter"",""0"",""1735""
","
","null","<div style=""font-size:60px;"">+</div>","","null","fixation","2021-04-09 12:14:40.228","","","","",""
"","mars-trial","40","106922","0.0-10.0-1.13","291","""event"",""trial"",""time""
""fullscreenenter"",""0"",""1735""
","
","
","""event"",""trial"",""time""
""fullscreenenter"",""0"",""1735""
","
","7440.05499999912","<img style='border: 4px solid darkgrey;' src='img/tf1_14_M_ss1.jpeg'></img>","3","","exp","","1","<img src='img/tf1_14_T1_ss1_md.jpeg'></img>","0","false",""
"","html-keyboard-response","41","107428","0.0-10.0-0.14","291","""event"",""trial"",""time""
""fullscreenenter"",""0"",""1735""
","
","
","""event"",""trial"",""time""
""fullscreenenter"",""0"",""1735""
","
","null","<div style=""font-size:60px;"">+</div>","","null","fixation","2021-04-09 12:14:48.788","","","","",""
"","mars-trial","42","119593","0.0-10.0-1.14","291","""event"",""trial"",""time""
""fullscreenenter"",""0"",""1735""
","
","
","""event"",""trial"",""time""
""fullscreenenter"",""0"",""1735""
","
","11557.39000000176","<img style='border: 4px solid darkgrey;' src='img/tf1_15_M_ss2.jpeg'></img>","2","","exp","","3","<img src='img/tf1_15_T1_ss2_md.jpeg'></img>","0","false",""
"","html-keyboard-response","43","120098","0.0-10.0-0.15","291","""event"",""trial"",""time""
""fullscreenenter"",""0"",""1735""
","
","
","""event"",""trial"",""time""
""fullscreenenter"",""0"",""1735""
","
","null","<div style=""font-size:60px;"">+</div>","","null","fixation","2021-04-09 12:15:01.458","","","","",""
"","mars-trial","44","130338","0.0-10.0-1.15","291","""event"",""trial"",""time""
""fullscreenenter"",""0"",""1735""
","
","
","""event"",""trial"",""time""
""fullscreenenter"",""0"",""1735""
","
","9630.709999997634","<img style='border: 4px solid darkgrey;' src='img/tf1_16_M_ss3.jpeg'></img>","1","","exp","","0","<img src='img/tf1_16_T1_ss3_md.jpeg'></img>","0","true",""
"","html-keyboard-response","45","130843","0.0-10.0-0.16","291","""event"",""trial"",""time""
""fullscreenenter"",""0"",""1735""
","
","
","""event"",""trial"",""time""
""fullscreenenter"",""0"",""1735""
","
","null","<div style=""font-size:60px;"">+</div>","","null","fixation","2021-04-09 12:15:12.203","","","","",""
"","mars-trial","46","139568","0.0-10.0-1.16","291","""event"",""trial"",""time""
""fullscreenenter"",""0"",""1735""
","
","
","""event"",""trial"",""time""
""fullscreenenter"",""0"",""1735""
","
","8113.59999999695","<img style='border: 4px solid darkgrey;' src='img/tf1_17_M_ss1.jpeg'></img>","2","","exp","","2","<img src='img/tf1_17_T1_ss1_md.jpeg'></img>","0","false",""
"","html-keyboard-response","47","140073","0.0-10.0-0.17","291","""event"",""trial"",""time""
""fullscreenenter"",""0"",""1735""
","
","
","""event"",""trial"",""time""
""fullscreenenter"",""0"",""1735""
","
","null","<div style=""font-size:60px;"">+</div>","","null","fixation","2021-04-09 12:15:21.433","","","","",""
"","mars-trial","48","149397","0.0-10.0-1.17","291","""event"",""trial"",""time""
""fullscreenenter"",""0"",""1735""
","
","
","""event"",""trial"",""time""
""fullscreenenter"",""0"",""1735""
","
","8711.394999998447","<img style='border: 4px solid darkgrey;' src='img/tf1_18_M_ss2.jpeg'></img>","2","","exp","","0","<img src='img/tf1_18_T1_ss2_md.jpeg'></img>","0","true",""
"","html-keyboard-response","49","149902","0.0-10.0-0.18","291","""event"",""trial"",""time""
""fullscreenenter"",""0"",""1735""
","
","
","""event"",""trial"",""time""
""fullscreenenter"",""0"",""1735""
","
","null","<div style=""font-size:60px;"">+</div>","","null","fixation","2021-04-09 12:15:31.262","","","","",""
"","mars-trial","50","155056","0.0-10.0-1.18","291","""event"",""trial"",""time""
""fullscreenenter"",""0"",""1735""
","
","
","""event"",""trial"",""time""
""fullscreenenter"",""0"",""1735""
","
","4541.410000005271","<img style='border: 4px solid darkgrey;' src='img/tf1_19_M_ss3.jpeg'></img>","1","","exp","","0","<img src='img/tf1_19_T1_ss3_md.jpeg'></img>","0","true",""
"","html-keyboard-response","51","155562","0.0-10.0-0.19","291","""event"",""trial"",""time""
""fullscreenenter"",""0"",""1735""
","
","
","""event"",""trial"",""time""
""fullscreenenter"",""0"",""1735""
","
","null","<div style=""font-size:60px;"">+</div>","","null","fixation","2021-04-09 12:15:36.922","","","","",""
"","mars-trial","52","163445","0.0-10.0-1.19","291","""event"",""trial"",""time""
""fullscreenenter"",""0"",""1735""
","
","
","""event"",""trial"",""time""
""fullscreenenter"",""0"",""1735""
","
","7272.980000001553","<img style='border: 4px solid darkgrey;' src='img/tf1_20_M_ss1.jpeg'></img>","3","","exp","","2","<img src='img/tf1_20_T1_ss1_md.jpeg'></img>","0","false",""
"","html-keyboard-response","53","163950","0.0-10.0-0.20","291","""event"",""trial"",""time""
""fullscreenenter"",""0"",""1735""
","
","
","""event"",""trial"",""time""
""fullscreenenter"",""0"",""1735""
","
","null","<div style=""font-size:60px;"">+</div>","","null","fixation","2021-04-09 12:15:45.310","","","","",""
"","mars-trial","54","170113","0.0-10.0-1.20","291","""event"",""trial"",""time""
""fullscreenenter"",""0"",""1735""
","
","
","""event"",""trial"",""time""
""fullscreenenter"",""0"",""1735""
","
","5551.080000004731","<img style='border: 4px solid darkgrey;' src='img/tf1_21_M_ss2.jpeg'></img>","3","","exp","","2","<img src='img/tf1_21_T1_ss2_md.jpeg'></img>","0","false",""
"","html-keyboard-response","55","170614","0.0-10.0-0.21","291","""event"",""trial"",""time""
""fullscreenenter"",""0"",""1735""
","
","
","""event"",""trial"",""time""
""fullscreenenter"",""0"",""1735""
","
","null","<div style=""font-size:60px;"">+</div>","","null","fixation","2021-04-09 12:15:51.975","","","","",""
"","mars-trial","56","179967","0.0-10.0-1.21","291","""event"",""trial"",""time""
""fullscreenenter"",""0"",""1735""
","
","
","""event"",""trial"",""time""
""fullscreenenter"",""0"",""1735""
","
","8743.244999997842","<img style='border: 4px solid darkgrey;' src='img/tf1_22_M_ss3.jpeg'></img>","0","","exp","","1","<img src='img/tf1_22_T1_ss3_md.jpeg'></img>","0","false",""
"","html-keyboard-response","57","180472","0.0-10.0-0.22","291","""event"",""trial"",""time""
""fullscreenenter"",""0"",""1735""
","
","
","""event"",""trial"",""time""
""fullscreenenter"",""0"",""1735""
","
","null","<div style=""font-size:60px;"">+</div>","","null","fixation","2021-04-09 12:16:01.832","","","","",""
"","mars-trial","58","183788","0.0-10.0-1.22","291","""event"",""trial"",""time""
""fullscreenenter"",""0"",""1735""
","
","
","""event"",""trial"",""time""
""fullscreenenter"",""0"",""1735""
","
","2707.9799999992247","<img style='border: 4px solid darkgrey;' src='img/tf1_23_M_ss1.jpeg'></img>","1","","exp","","0","<img src='img/tf1_23_T1_ss1_md.jpeg'></img>","0","true",""
"","html-keyboard-response","59","184291","0.0-10.0-0.23","291","""event"",""trial"",""time""
""fullscreenenter"",""0"",""1735""
","
","
","""event"",""trial"",""time""
""fullscreenenter"",""0"",""1735""
","
","null","<div style=""font-size:60px;"">+</div>","","null","fixation","2021-04-09 12:16:05.651","","","","",""
"","mars-trial","60","187523","0.0-10.0-1.23","291","""event"",""trial"",""time""
""fullscreenenter"",""0"",""1735""
","
","
","""event"",""trial"",""time""
""fullscreenenter"",""0"",""1735""
","
","2619.2149999988033","<img style='border: 4px solid darkgrey;' src='img/tf1_24_M_ss2.jpeg'></img>","2","","exp","","2","<img src='img/tf1_24_T1_ss2_md.jpeg'></img>","0","false",""
"","html-keyboard-response","61","188024","0.0-10.0-0.24","291","""event"",""trial"",""time""
""fullscreenenter"",""0"",""1735""
","
","
","""event"",""trial"",""time""
""fullscreenenter"",""0"",""1735""
","
","null","<div style=""font-size:60px;"">+</div>","","null","fixation","2021-04-09 12:16:09.384","","","","",""
"","mars-trial","62","192442","0.0-10.0-1.24","291","""event"",""trial"",""time""
""fullscreenenter"",""0"",""1735""
","
","
","""event"",""trial"",""time""
""fullscreenenter"",""0"",""1735""
","
","3805.9850000063307","<img style='border: 4px solid darkgrey;' src='img/tf1_25_M_ss3.jpeg'></img>","0","","exp","","1","<img src='img/tf1_25_T1_ss3_md.jpeg'></img>","0","false",""
"","html-keyboard-response","63","192947","0.0-10.0-0.25","291","""event"",""trial"",""time""
""fullscreenenter"",""0"",""1735""
","
","
","""event"",""trial"",""time""
""fullscreenenter"",""0"",""1735""
","
","null","<div style=""font-size:60px;"">+</div>","","null","fixation","2021-04-09 12:16:14.307","","","","",""
"","mars-trial","64","200987","0.0-10.0-1.25","291","""event"",""trial"",""time""
""fullscreenenter"",""0"",""1735""
","
","
","""event"",""trial"",""time""
""fullscreenenter"",""0"",""1735""
","
","7428.545000002487","<img style='border: 4px solid darkgrey;' src='img/tf1_26_M_ss1.jpeg'></img>","0","","exp","","1","<img src='img/tf1_26_T1_ss1_md.jpeg'></img>","0","false",""
"","html-keyboard-response","65","201492","0.0-10.0-0.26","291","""event"",""trial"",""time""
""fullscreenenter"",""0"",""1735""
","
","
","""event"",""trial"",""time""
""fullscreenenter"",""0"",""1735""
","
","null","<div style=""font-size:60px;"">+</div>","","null","fixation","2021-04-09 12:16:22.852","","","","",""
"","mars-trial","66","209968","0.0-10.0-1.26","291","""event"",""trial"",""time""
""fullscreenenter"",""0"",""1735""
","
","
","""event"",""trial"",""time""
""fullscreenenter"",""0"",""1735""
","
","7865.29999999766","<img style='border: 4px solid darkgrey;' src='img/tf1_27_M_ss2.jpeg'></img>","2","","exp","","0","<img src='img/tf1_27_T1_ss2_md.jpeg'></img>","0","true",""
"","html-keyboard-response","67","210473","0.0-10.0-0.27","291","""event"",""trial"",""time""
""fullscreenenter"",""0"",""1735""
","
","
","""event"",""trial"",""time""
""fullscreenenter"",""0"",""1735""
","
","null","<div style=""font-size:60px;"">+</div>","","null","fixation","2021-04-09 12:16:31.833","","","","",""
"","mars-trial","68","221653","0.0-10.0-1.27","291","""event"",""trial"",""time""
""fullscreenenter"",""0"",""1735""
","
","
","""event"",""trial"",""time""
""fullscreenenter"",""0"",""1735""
","
","10567.320000001928","<img style='border: 4px solid darkgrey;' src='img/tf1_28_M_ss3.jpeg'></img>","2","","exp","","0","<img src='img/tf1_28_T1_ss3_md.jpeg'></img>","0","true",""
"","html-keyboard-response","69","222158","0.0-10.0-0.28","291","""event"",""trial"",""time""
""fullscreenenter"",""0"",""1735""
","
","
","""event"",""trial"",""time""
""fullscreenenter"",""0"",""1735""
","
","null","<div style=""font-size:60px;"">+</div>","","null","fixation","2021-04-09 12:16:43.518","","","","",""
"","mars-trial","70","227679","0.0-10.0-1.28","291","""event"",""trial"",""time""
""fullscreenenter"",""0"",""1735""
","
","
","""event"",""trial"",""time""
""fullscreenenter"",""0"",""1735""
","
","4911.534999999276","<img style='border: 4px solid darkgrey;' src='img/tf1_29_M_ss1.jpeg'></img>","0","","exp","","1","<img src='img/tf1_29_T1_ss1_md.jpeg'></img>","0","false",""
"","html-keyboard-response","71","228184","0.0-10.0-0.29","291","""event"",""trial"",""time""
""fullscreenenter"",""0"",""1735""
","
","
","""event"",""trial"",""time""
""fullscreenenter"",""0"",""1735""
","
","null","<div style=""font-size:60px;"">+</div>","","null","fixation","2021-04-09 12:16:49.544","","","","",""
"","mars-trial","72","238065","0.0-10.0-1.29","291","""event"",""trial"",""time""
""fullscreenenter"",""0"",""1735""
","
","
","""event"",""trial"",""time""
""fullscreenenter"",""0"",""1735""
","
","9271.990000001097","<img style='border: 4px solid darkgrey;' src='img/tf1_30_M_ss2.jpeg'></img>","3","","exp","","2","<img src='img/tf1_30_T1_ss2_md.jpeg'></img>","0","false",""
"","html-keyboard-response","73","238570","0.0-10.0-0.30","291","""event"",""trial"",""time""
""fullscreenenter"",""0"",""1735""
","
","
","""event"",""trial"",""time""
""fullscreenenter"",""0"",""1735""
","
","null","<div style=""font-size:60px;"">+</div>","","null","fixation","2021-04-09 12:16:59.930","","","","",""
"","mars-trial","74","243545","0.0-10.0-1.30","291","""event"",""trial"",""time""
""fullscreenenter"",""0"",""1735""
","
","
","""event"",""trial"",""time""
""fullscreenenter"",""0"",""1735""
","
","4361.329999999725","<img style='border: 4px solid darkgrey;' src='img/tf1_31_M_ss3.jpeg'></img>","2","","exp","","0","<img src='img/tf1_31_T1_ss3_md.jpeg'></img>","0","true",""
"","html-keyboard-response","75","244050","0.0-10.0-0.31","291","""event"",""trial"",""time""
""fullscreenenter"",""0"",""1735""
","
","
","""event"",""trial"",""time""
""fullscreenenter"",""0"",""1735""
","
","null","<div style=""font-size:60px;"">+</div>","","null","fixation","2021-04-09 12:17:05.410","","","","",""
"","mars-trial","76","246674","0.0-10.0-1.31","291","""event"",""trial"",""time""
""fullscreenenter"",""0"",""1735""
","
","
","""event"",""trial"",""time""
""fullscreenenter"",""0"",""1735""
","
","2013.4949999992386","<img style='border: 4px solid darkgrey;' src='img/tf1_32_M_ss1.jpeg'></img>","1","","exp","","2","<img src='img/tf1_32_T1_ss1_md.jpeg'></img>","0","false",""
"","html-keyboard-response","77","247179","0.0-10.0-0.32","291","""event"",""trial"",""time""
""fullscreenenter"",""0"",""1735""
","
","
","""event"",""trial"",""time""
""fullscreenenter"",""0"",""1735""
","
","null","<div style=""font-size:60px;"">+</div>","","null","fixation","2021-04-09 12:17:08.539","","","","",""
"","mars-trial","78","249425","0.0-10.0-1.32","291","""event"",""trial"",""time""
""fullscreenenter"",""0"",""1735""
","
","
","""event"",""trial"",""time""
""fullscreenenter"",""0"",""1735""
","
","1642.1750000008615","<img style='border: 4px solid darkgrey;' src='img/tf1_33_M_ss2.jpeg'></img>","2","","exp","","0","<img src='img/tf1_33_T1_ss2_md.jpeg'></img>","0","true",""
"","html-keyboard-response","79","249930","0.0-10.0-0.33","291","""event"",""trial"",""time""
""fullscreenenter"",""0"",""1735""
","
","
","""event"",""trial"",""time""
""fullscreenenter"",""0"",""1735""
","
","null","<div style=""font-size:60px;"">+</div>","","null","fixation","2021-04-09 12:17:11.290","","","","",""
"","mars-trial","80","251777","0.0-10.0-1.33","291","""event"",""trial"",""time""
""fullscreenenter"",""0"",""1735""
","
","
","""event"",""trial"",""time""
""fullscreenenter"",""0"",""1735""
","
","1241.760000004433","<img style='border: 4px solid darkgrey;' src='img/tf1_34_M_ss3.jpeg'></img>","3","","exp","","2","<img src='img/tf1_34_T1_ss3_md.jpeg'></img>","0","false",""
"","html-keyboard-response","81","252280","0.0-10.0-0.34","291","""event"",""trial"",""time""
""fullscreenenter"",""0"",""1735""
","
","
","""event"",""trial"",""time""
""fullscreenenter"",""0"",""1735""
","
","null","<div style=""font-size:60px;"">+</div>","","null","fixation","2021-04-09 12:17:13.640","","","","",""
"","mars-trial","82","256301","0.0-10.0-1.34","291","""event"",""trial"",""time""
""fullscreenenter"",""0"",""1735""
","
","
","""event"",""trial"",""time""
""fullscreenenter"",""0"",""1735""
","
","3410.19999999844","<img style='border: 4px solid darkgrey;' src='img/tf1_35_M_ss1.jpeg'></img>","1","","exp","","2","<img src='img/tf1_35_T1_ss1_md.jpeg'></img>","0","false",""
"","html-keyboard-response","83","256804","0.0-10.0-0.35","291","""event"",""trial"",""time""
""fullscreenenter"",""0"",""1735""
","
","
","""event"",""trial"",""time""
""fullscreenenter"",""0"",""1735""
","
","null","<div style=""font-size:60px;"">+</div>","","null","fixation","2021-04-09 12:17:18.164","","","","",""
"","mars-trial","84","264393","0.0-10.0-1.35","291","""event"",""trial"",""time""
""fullscreenenter"",""0"",""1735""
","
","
","""event"",""trial"",""time""
""fullscreenenter"",""0"",""1735""
","
","6980.5450000058045","<img style='border: 4px solid darkgrey;' src='img/tf1_36_M_ss2.jpeg'></img>","2","","exp","","2","<img src='img/tf1_36_T1_ss2_md.jpeg'></img>","0","false",""
"","html-keyboard-response","85","264896","0.0-10.0-0.36","291","""event"",""trial"",""time""
""fullscreenenter"",""0"",""1735""
","
","
","""event"",""trial"",""time""
""fullscreenenter"",""0"",""1735""
","
","null","<div style=""font-size:60px;"">+</div>","","null","fixation","2021-04-09 12:17:26.256","","","","",""
"","mars-trial","86","268472","0.0-10.0-1.36","291","""event"",""trial"",""time""
""fullscreenenter"",""0"",""1735""
","
","
","""event"",""trial"",""time""
""fullscreenenter"",""0"",""1735""
","
","2964.540000000852","<img style='border: 4px solid darkgrey;' src='img/tf1_37_M_ss3.jpeg'></img>","3","","exp","","3","<img src='img/tf1_37_T1_ss3_md.jpeg'></img>","0","false",""
"","html-keyboard-response","87","268977","0.0-10.0-0.37","291","""event"",""trial"",""time""
""fullscreenenter"",""0"",""1735""
","
","
","""event"",""trial"",""time""
""fullscreenenter"",""0"",""1735""
","
","null","<div style=""font-size:60px;"">+</div>","","null","fixation","2021-04-09 12:17:30.337","","","","",""
"","mars-trial","88","272449","0.0-10.0-1.37","291","""event"",""trial"",""time""
""fullscreenenter"",""0"",""1735""
","
","
","""event"",""trial"",""time""
""fullscreenenter"",""0"",""1735""
","
","2859.489999995276","<img style='border: 4px solid darkgrey;' src='img/tf1_38_M_ss1.jpeg'></img>","0","","exp","","0","<img src='img/tf1_38_T1_ss1_md.jpeg'></img>","0","true",""
"","html-keyboard-response","89","272954","0.0-10.0-0.38","291","""event"",""trial"",""time""
""fullscreenenter"",""0"",""1735""
","
","
","""event"",""trial"",""time""
""fullscreenenter"",""0"",""1735""
","
","null","<div style=""font-size:60px;"">+</div>","","null","fixation","2021-04-09 12:17:34.314","","","","",""
"","mars-trial","90","281470","0.0-10.0-1.38","291","""event"",""trial"",""time""
""fullscreenenter"",""0"",""1735""
","
","
","""event"",""trial"",""time""
""fullscreenenter"",""0"",""1735""
","
","7907.214999999269","<img style='border: 4px solid darkgrey;' src='img/tf1_39_M_ss2.jpeg'></img>","2","","exp","","1","<img src='img/tf1_39_T1_ss2_md.jpeg'></img>","0","false",""
"","html-keyboard-response","91","281975","0.0-10.0-0.39","291","""event"",""trial"",""time""
""fullscreenenter"",""0"",""1735""
","
","
","""event"",""trial"",""time""
""fullscreenenter"",""0"",""1735""
","
","null","<div style=""font-size:60px;"">+</div>","","null","fixation","2021-04-09 12:17:43.335","","","","",""
"","mars-trial","92","285940","0.0-10.0-1.39","291","""event"",""trial"",""time""
""fullscreenenter"",""0"",""1735""
","
","
","""event"",""trial"",""time""
""fullscreenenter"",""0"",""1735""
","
","3353.45000000234","<img style='border: 4px solid darkgrey;' src='img/tf1_40_M_ss3.jpeg'></img>","1","","exp","","3","<img src='img/tf1_40_T1_ss3_md.jpeg'></img>","0","false",""
"","html-keyboard-response","93","286445","0.0-10.0-0.40","291","""event"",""trial"",""time""
""fullscreenenter"",""0"",""1735""
","
","
","""event"",""trial"",""time""
""fullscreenenter"",""0"",""1735""
","
","null","<div style=""font-size:60px;"">+</div>","","null","fixation","2021-04-09 12:17:47.805","","","","",""
"","mars-trial","94","290189","0.0-10.0-1.40","291","""event"",""trial"",""time""
""fullscreenenter"",""0"",""1735""
","
","
","""event"",""trial"",""time""
""fullscreenenter"",""0"",""1735""
","
","3133.5550000003423","<img style='border: 4px solid darkgrey;' src='img/tf1_41_M_ss1.jpeg'></img>","2","","exp","","0","<img src='img/tf1_41_T1_ss1_md.jpeg'></img>","0","true",""
"","html-keyboard-response","95","290691","0.0-10.0-0.41","291","""event"",""trial"",""time""
""fullscreenenter"",""0"",""1735""
","
","
","""event"",""trial"",""time""
""fullscreenenter"",""0"",""1735""
","
","null","<div style=""font-size:60px;"">+</div>","","null","fixation","2021-04-09 12:17:52.051","","","","",""
"","mars-trial","96","301602","0.0-10.0-1.41","291","""event"",""trial"",""time""
""fullscreenenter"",""0"",""1735""
","
","
","""event"",""trial"",""time""
""fullscreenenter"",""0"",""1735""
","
","10300.974999998289","<img style='border: 4px solid darkgrey;' src='img/tf1_42_M_ss2.jpeg'></img>","3","","exp","","0","<img src='img/tf1_42_T1_ss2_md.jpeg'></img>","0","true",""
"","html-keyboard-response","97","302107","0.0-10.0-0.42","291","""event"",""trial"",""time""
""fullscreenenter"",""0"",""1735""
","
","
","""event"",""trial"",""time""
""fullscreenenter"",""0"",""1735""
","
","null","<div style=""font-size:60px;"">+</div>","","null","fixation","2021-04-09 12:18:03.467","","","","",""
"","mars-trial","98","311239","0.0-10.0-1.42","291","""event"",""trial"",""time""
""fullscreenenter"",""0"",""1735""
","
","
","""event"",""trial"",""time""
""fullscreenenter"",""0"",""1735""
","
","8520.820000005187","<img style='border: 4px solid darkgrey;' src='img/tf1_43_M_ss3.jpeg'></img>","0","","exp","","3","<img src='img/tf1_43_T1_ss3_md.jpeg'></img>","0","false",""
"","html-keyboard-response","99","311749","0.0-10.0-0.43","291","""event"",""trial"",""time""
""fullscreenenter"",""0"",""1735""
","
","
","""event"",""trial"",""time""
""fullscreenenter"",""0"",""1735""
","
","null","<div style=""font-size:60px;"">+</div>","","null","fixation","2021-04-09 12:18:13.110","","","","",""
"","mars-trial","100","319389","0.0-10.0-1.43","291","""event"",""trial"",""time""
""fullscreenenter"",""0"",""1735""
","
","
","""event"",""trial"",""time""
""fullscreenenter"",""0"",""1735""
","
","7029.934999998659","<img style='border: 4px solid darkgrey;' src='img/tf1_44_M_ss1.jpeg'></img>","0","","exp","","3","<img src='img/tf1_44_T1_ss1_md.jpeg'></img>","0","false",""
"","html-keyboard-response","101","319894","0.0-10.0-0.44","291","""event"",""trial"",""time""
""fullscreenenter"",""0"",""1735""
","
","
","""event"",""trial"",""time""
""fullscreenenter"",""0"",""1735""
","
","null","<div style=""font-size:60px;"">+</div>","","null","fixation","2021-04-09 12:18:21.254","","","","",""
"","mars-trial","102","325508","0.0-10.0-1.44","291","""event"",""trial"",""time""
""fullscreenenter"",""0"",""1735""
","
","
","""event"",""trial"",""time""
""fullscreenenter"",""0"",""1735""
","
","5004.410000001371","<img style='border: 4px solid darkgrey;' src='img/tf1_45_M_ss2.jpeg'></img>","2","","exp","","3","<img src='img/tf1_45_T1_ss2_md.jpeg'></img>","0","false",""
"","html-keyboard-response","103","326012","0.0-10.0-0.45","291","""event"",""trial"",""time""
""fullscreenenter"",""0"",""1735""
","
","
","""event"",""trial"",""time""
""fullscreenenter"",""0"",""1735""
","
","null","<div style=""font-size:60px;"">+</div>","","null","fixation","2021-04-09 12:18:27.372","","","","",""
"","mars-trial","104","328904","0.0-10.0-1.45","291","""event"",""trial"",""time""
""fullscreenenter"",""0"",""1735""
","
","
","""event"",""trial"",""time""
""fullscreenenter"",""0"",""1735""
","
","2281.3049999967916","<img style='border: 4px solid darkgrey;' src='img/tf1_46_M_ss3.jpeg'></img>","2","","exp","","2","<img src='img/tf1_46_T1_ss3_md.jpeg'></img>","0","false",""
"","html-keyboard-response","105","329406","0.0-10.0-0.46","291","""event"",""trial"",""time""
""fullscreenenter"",""0"",""1735""
","
","
","""event"",""trial"",""time""
""fullscreenenter"",""0"",""1735""
","
","null","<div style=""font-size:60px;"">+</div>","","null","fixation","2021-04-09 12:18:30.766","","","","",""
"","mars-trial","106","336961","0.0-10.0-1.46","291","""event"",""trial"",""time""
""fullscreenenter"",""0"",""1735""
","
","
","""event"",""trial"",""time""
""fullscreenenter"",""0"",""1735""
","
","6945.709999999963","<img style='border: 4px solid darkgrey;' src='img/tf1_47_M_ss1.jpeg'></img>","0","","exp","","2","<img src='img/tf1_47_T1_ss1_md.jpeg'></img>","0","false",""
"","html-keyboard-response","107","337466","0.0-10.0-0.47","291","""event"",""trial"",""time""
""fullscreenenter"",""0"",""1735""
","
","
","""event"",""trial"",""time""
""fullscreenenter"",""0"",""1735""
","
","null","<div style=""font-size:60px;"">+</div>","","null","fixation","2021-04-09 12:18:38.826","","","","",""
"","mars-trial","108","343777","0.0-10.0-1.47","291","""event"",""trial"",""time""
""fullscreenenter"",""0"",""1735""
","
","
","""event"",""trial"",""time""
""fullscreenenter"",""0"",""1735""
","
","5701.62999999593","<img style='border: 4px solid darkgrey;' src='img/tf1_48_M_ss2.jpeg'></img>","0","","exp","","0","<img src='img/tf1_48_T1_ss2_md.jpeg'></img>","0","true",""
"","html-keyboard-response","109","344279","0.0-10.0-0.48","291","""event"",""trial"",""time""
""fullscreenenter"",""0"",""1735""
","
","
","""event"",""trial"",""time""
""fullscreenenter"",""0"",""1735""
","
","null","<div style=""font-size:60px;"">+</div>","","null","fixation","2021-04-09 12:18:45.639","","","","",""
"","mars-trial","110","349362","0.0-10.0-1.48","291","""event"",""trial"",""time""
""fullscreenenter"",""0"",""1735""
","
","
","""event"",""trial"",""time""
""fullscreenenter"",""0"",""1735""
","
","4476.894999999786","<img style='border: 4px solid darkgrey;' src='img/tf1_49_M_ss3.jpeg'></img>","1","","exp","","0","<img src='img/tf1_49_T1_ss3_md.jpeg'></img>","0","true",""
"","html-keyboard-response","111","349866","0.0-10.0-0.49","291","""event"",""trial"",""time""
""fullscreenenter"",""0"",""1735""
","
","
","""event"",""trial"",""time""
""fullscreenenter"",""0"",""1735""
","
","null","<div style=""font-size:60px;"">+</div>","","null","fixation","2021-04-09 12:18:51.226","","","","",""
"","mars-trial","112","355114","0.0-10.0-1.49","291","""event"",""trial"",""time""
""fullscreenenter"",""0"",""1735""
","
","
","""event"",""trial"",""time""
""fullscreenenter"",""0"",""1735""
","
","4634.519999999611","<img style='border: 4px solid darkgrey;' src='img/tf1_50_M_ss1.jpeg'></img>","2","","exp","","0","<img src='img/tf1_50_T1_ss1_md.jpeg'></img>","0","true",""
"","html-keyboard-response","113","355617","0.0-10.0-0.50","291","""event"",""trial"",""time""
""fullscreenenter"",""0"",""1735""
","
","
","""event"",""trial"",""time""
""fullscreenenter"",""0"",""1735""
","
","null","<div style=""font-size:60px;"">+</div>","","null","fixation","2021-04-09 12:18:56.977","","","","",""
"","mars-trial","114","357819","0.0-10.0-1.50","291","""event"",""trial"",""time""
""fullscreenenter"",""0"",""1735""
","
","
","""event"",""trial"",""time""
""fullscreenenter"",""0"",""1735""
","
","1593.459999996412","<img style='border: 4px solid darkgrey;' src='img/tf1_51_M_ss2.jpeg'></img>","2","","exp","","2","<img src='img/tf1_51_T1_ss2_md.jpeg'></img>","0","false",""
"","html-keyboard-response","115","358324","0.0-10.0-0.51","291","""event"",""trial"",""time""
""fullscreenenter"",""0"",""1735""
","
","
","""event"",""trial"",""time""
""fullscreenenter"",""0"",""1735""
","
","null","<div style=""font-size:60px;"">+</div>","","null","fixation","2021-04-09 12:18:59.684","","","","",""
"","mars-trial","116","360072","0.0-10.0-1.51","291","""event"",""trial"",""time""
""fullscreenenter"",""0"",""1735""
","
","
","""event"",""trial"",""time""
""fullscreenenter"",""0"",""1735""
","
","1139.2500000001746","<img style='border: 4px solid darkgrey;' src='img/tf1_52_M_ss3.jpeg'></img>","3","","exp","","2","<img src='img/tf1_52_T1_ss3_md.jpeg'></img>","0","false",""
"","html-keyboard-response","117","360577","0.0-10.0-0.52","291","""event"",""trial"",""time""
""fullscreenenter"",""0"",""1735""
","
","
","""event"",""trial"",""time""
""fullscreenenter"",""0"",""1735""
","
","null","<div style=""font-size:60px;"">+</div>","","null","fixation","2021-04-09 12:19:01.937","","","","",""
"","mars-trial","118","361987","0.0-10.0-1.52","291","""event"",""trial"",""time""
""fullscreenenter"",""0"",""1735""
","
","
","""event"",""trial"",""time""
""fullscreenenter"",""0"",""1735""
","
","804.6700000049896","<img style='border: 4px solid darkgrey;' src='img/tf1_53_M_ss1.jpeg'></img>","1","","exp","","3","<img src='img/tf1_53_T1_ss1_md.jpeg'></img>","0","false",""
"","html-keyboard-response","119","362492","0.0-10.0-0.53","291","""event"",""trial"",""time""
""fullscreenenter"",""0"",""1735""
","
","
","""event"",""trial"",""time""
""fullscreenenter"",""0"",""1735""
","
","null","<div style=""font-size:60px;"">+</div>","","null","fixation","2021-04-09 12:19:03.852","","","","",""
"","mars-trial","120","365334","0.0-10.0-1.53","291","""event"",""trial"",""time""
""fullscreenenter"",""0"",""1735""
","
","
","""event"",""trial"",""time""
""fullscreenenter"",""0"",""1735""
","
","2234.8849999980303","<img style='border: 4px solid darkgrey;' src='img/tf1_54_M_ss2.jpeg'></img>","1","","exp","","1","<img src='img/tf1_54_T1_ss2_md.jpeg'></img>","0","false",""
"","html-keyboard-response","121","365838","0.0-10.0-0.54","291","""event"",""trial"",""time""
""fullscreenenter"",""0"",""1735""
","
","
","""event"",""trial"",""time""
""fullscreenenter"",""0"",""1735""
","
","null","<div style=""font-size:60px;"">+</div>","","null","fixation","2021-04-09 12:19:07.198","","","","",""
"","mars-trial","122","375797","0.0-10.0-1.54","291","""event"",""trial"",""time""
""fullscreenenter"",""0"",""1735""
","
","
","""event"",""trial"",""time""
""fullscreenenter"",""0"",""1735""
","
","9351.380000000063","<img style='border: 4px solid darkgrey;' src='img/tf1_55_M_ss3.jpeg'></img>","1","","exp","","0","<img src='img/tf1_55_T1_ss3_md.jpeg'></img>","0","true",""
"","html-keyboard-response","123","376309","0.0-10.0-0.55","291","""event"",""trial"",""time""
""fullscreenenter"",""0"",""1735""
","
","
","""event"",""trial"",""time""
""fullscreenenter"",""0"",""1735""
","
","null","<div style=""font-size:60px;"">+</div>","","null","fixation","2021-04-09 12:19:17.669","","","","",""
"","mars-trial","124","379458","0.0-10.0-1.55","291","""event"",""trial"",""time""
""fullscreenenter"",""0"",""1735""
","
","
","""event"",""trial"",""time""
""fullscreenenter"",""0"",""1735""
","
","2538.5499999974854","<img style='border: 4px solid darkgrey;' src='img/tf1_56_M_ss1.jpeg'></img>","0","","exp","","2","<img src='img/tf1_56_T1_ss1_md.jpeg'></img>","0","false",""
"","html-keyboard-response","125","379960","0.0-10.0-0.56","291","""event"",""trial"",""time""
""fullscreenenter"",""0"",""1735""
","
","
","""event"",""trial"",""time""
""fullscreenenter"",""0"",""1735""
","
","null","<div style=""font-size:60px;"">+</div>","","null","fixation","2021-04-09 12:19:21.320","","","","",""
"","mars-trial","126","385150","0.0-10.0-1.56","291","""event"",""trial"",""time""
""fullscreenenter"",""0"",""1735""
","
","
","""event"",""trial"",""time""
""fullscreenenter"",""0"",""1735""
","
","4582.000000002154","<img style='border: 4px solid darkgrey;' src='img/tf1_57_M_ss2.jpeg'></img>","0","","exp","","0","<img src='img/tf1_57_T1_ss2_md.jpeg'></img>","0","true",""
"","html-keyboard-response","127","385655","0.0-10.0-0.57","291","""event"",""trial"",""time""
""fullscreenenter"",""0"",""1735""
","
","
","""event"",""trial"",""time""
""fullscreenenter"",""0"",""1735""
","
","null","<div style=""font-size:60px;"">+</div>","","null","fixation","2021-04-09 12:19:27.015","","","","",""
"","mars-trial","128","389473","0.0-10.0-1.57","291","""event"",""trial"",""time""
""fullscreenenter"",""0"",""1735""
","
","
","""event"",""trial"",""time""
""fullscreenenter"",""0"",""1735""
","
","3208.664999998291","<img style='border: 4px solid darkgrey;' src='img/tf1_58_M_ss3.jpeg'></img>","0","","exp","","3","<img src='img/tf1_58_T1_ss3_md.jpeg'></img>","0","false",""
"","html-keyboard-response","129","389977","0.0-10.0-0.58","291","""event"",""trial"",""time""
""fullscreenenter"",""0"",""1735""
","
","
","""event"",""trial"",""time""
""fullscreenenter"",""0"",""1735""
","
","null","<div style=""font-size:60px;"">+</div>","","null","fixation","2021-04-09 12:19:31.337","","","","",""
"","mars-trial","130","393491","0.0-10.0-1.58","291","""event"",""trial"",""time""
""fullscreenenter"",""0"",""1735""
","
","
","""event"",""trial"",""time""
""fullscreenenter"",""0"",""1735""
","
","2903.8350000046194","<img style='border: 4px solid darkgrey;' src='img/tf1_59_M_ss1.jpeg'></img>","3","","exp","","2","<img src='img/tf1_59_T1_ss1_md.jpeg'></img>","0","false",""
"","html-keyboard-response","131","393997","0.0-10.0-0.59","291","""event"",""trial"",""time""
""fullscreenenter"",""0"",""1735""
","
","
","""event"",""trial"",""time""
""fullscreenenter"",""0"",""1735""
","
","null","<div style=""font-size:60px;"">+</div>","","null","fixation","2021-04-09 12:19:35.357","","","","",""
"","mars-trial","132","395744","0.0-10.0-1.59","291","""event"",""trial"",""time""
""fullscreenenter"",""0"",""1735""
","
","
","""event"",""trial"",""time""
""fullscreenenter"",""0"",""1735""
","
","1138.969999999972","<img style='border: 4px solid darkgrey;' src='img/tf1_60_M_ss2.jpeg'></img>","2","","exp","","0","<img src='img/tf1_60_T1_ss2_md.jpeg'></img>","0","true",""
"","html-keyboard-response","133","396249","0.0-10.0-0.60","291","""event"",""trial"",""time""
""fullscreenenter"",""0"",""1735""
","
","
","""event"",""trial"",""time""
""fullscreenenter"",""0"",""1735""
","
","null","<div style=""font-size:60px;"">+</div>","","null","fixation","2021-04-09 12:19:37.609","","","","",""
"","mars-trial","134","398117","0.0-10.0-1.60","291","""event"",""trial"",""time""
""fullscreenenter"",""0"",""1735""
","
","
","""event"",""trial"",""time""
""fullscreenenter"",""0"",""1735""
","
","1256.8050000045332","<img style='border: 4px solid darkgrey;' src='img/tf1_61_M_ss3.jpeg'></img>","3","","exp","","3","<img src='img/tf1_61_T1_ss3_md.jpeg'></img>","0","false",""
"","html-keyboard-response","135","398618","0.0-10.0-0.61","291","""event"",""trial"",""time""
""fullscreenenter"",""0"",""1735""
","
","
","""event"",""trial"",""time""
""fullscreenenter"",""0"",""1735""
","
","null","<div style=""font-size:60px;"">+</div>","","null","fixation","2021-04-09 12:19:39.978","","","","",""
"","mars-trial","136","400551","0.0-10.0-1.61","291","""event"",""trial"",""time""
""fullscreenenter"",""0"",""1735""
","
","
","""event"",""trial"",""time""
""fullscreenenter"",""0"",""1735""
","
","1320.1499999995576","<img style='border: 4px solid darkgrey;' src='img/tf1_62_M_ss1.jpeg'></img>","1","","exp","","0","<img src='img/tf1_62_T1_ss1_md.jpeg'></img>","0","true",""
"","html-keyboard-response","137","401056","0.0-10.0-0.62","291","""event"",""trial"",""time""
""fullscreenenter"",""0"",""1735""
","
","
","""event"",""trial"",""time""
""fullscreenenter"",""0"",""1735""
","
","null","<div style=""font-size:60px;"">+</div>","","null","fixation","2021-04-09 12:19:42.416","","","","",""
"","mars-trial","138","404325","0.0-10.0-1.62","291","""event"",""trial"",""time""
""fullscreenenter"",""0"",""1735""
","
","
","""event"",""trial"",""time""
""fullscreenenter"",""0"",""1735""
","
","2661.7150000020047","<img style='border: 4px solid darkgrey;' src='img/tf1_63_M_ss2.jpeg'></img>","2","","exp","","0","<img src='img/tf1_63_T1_ss2_md.jpeg'></img>","0","true",""
"","html-keyboard-response","139","404830","0.0-10.0-0.63","291","""event"",""trial"",""time""
""fullscreenenter"",""0"",""1735""
","
","
","""event"",""trial"",""time""
""fullscreenenter"",""0"",""1735""
","
","null","<div style=""font-size:60px;"">+</div>","","null","fixation","2021-04-09 12:19:46.190","","","","",""
"","mars-trial","140","407192","0.0-10.0-1.63","291","""event"",""trial"",""time""
""fullscreenenter"",""0"",""1735""
","
","
","""event"",""trial"",""time""
""fullscreenenter"",""0"",""1735""
","
","1751.9249999968451","<img style='border: 4px solid darkgrey;' src='img/tf1_64_M_ss3.jpeg'></img>","3","","exp","","0","<img src='img/tf1_64_T1_ss3_md.jpeg'></img>","0","true",""
"","html-keyboard-response","141","407697","0.0-10.0-0.64","291","""event"",""trial"",""time""
""fullscreenenter"",""0"",""1735""
","
","
","""event"",""trial"",""time""
""fullscreenenter"",""0"",""1735""
","
","null","<div style=""font-size:60px;"">+</div>","","null","fixation","2021-04-09 12:19:49.057","","","","",""
"","mars-trial","142","409230","0.0-10.0-1.64","291","""event"",""trial"",""time""
""fullscreenenter"",""0"",""1735""
","
","
","""event"",""trial"",""time""
""fullscreenenter"",""0"",""1735""
","
","920.509999996284","<img style='border: 4px solid darkgrey;' src='img/tf1_65_M_ss1.jpeg'></img>","0","","exp","","2","<img src='img/tf1_65_T1_ss1_md.jpeg'></img>","0","false",""
"","html-keyboard-response","143","409733","0.0-10.0-0.65","291","""event"",""trial"",""time""
""fullscreenenter"",""0"",""1735""
","
","
","""event"",""trial"",""time""
""fullscreenenter"",""0"",""1735""
","
","null","<div style=""font-size:60px;"">+</div>","","null","fixation","2021-04-09 12:19:51.093","","","","",""
"","mars-trial","144","411580","0.0-10.0-1.65","291","""event"",""trial"",""time""
""fullscreenenter"",""0"",""1735""
","
","
","""event"",""trial"",""time""
""fullscreenenter"",""0"",""1735""
","
","1240.7400000010966","<img style='border: 4px solid darkgrey;' src='img/tf1_66_M_ss2.jpeg'></img>","2","","exp","","3","<img src='img/tf1_66_T1_ss2_md.jpeg'></img>","0","false",""
"","html-keyboard-response","145","412084","0.0-10.0-0.66","291","""event"",""trial"",""time""
""fullscreenenter"",""0"",""1735""
","
","
","""event"",""trial"",""time""
""fullscreenenter"",""0"",""1735""
","
","null","<div style=""font-size:60px;"">+</div>","","null","fixation","2021-04-09 12:19:53.444","","","","",""
"","mars-trial","146","413659","0.0-10.0-1.66","291","""event"",""trial"",""time""
""fullscreenenter"",""0"",""1735""
","
","
","""event"",""trial"",""time""
""fullscreenenter"",""0"",""1735""
","
","965.6149999937043","<img style='border: 4px solid darkgrey;' src='img/tf1_67_M_ss3.jpeg'></img>","3","","exp","","3","<img src='img/tf1_67_T1_ss3_md.jpeg'></img>","0","false",""
"","html-keyboard-response","147","414164","0.0-10.0-0.67","291","""event"",""trial"",""time""
""fullscreenenter"",""0"",""1735""
","
","
","""event"",""trial"",""time""
""fullscreenenter"",""0"",""1735""
","
","null","<div style=""font-size:60px;"">+</div>","","null","fixation","2021-04-09 12:19:55.524","","","","",""
"","mars-trial","148","416318","0.0-10.0-1.67","291","""event"",""trial"",""time""
""fullscreenenter"",""0"",""1735""
","
","
","""event"",""trial"",""time""
""fullscreenenter"",""0"",""1735""
","
","1545.7250000035856","<img style='border: 4px solid darkgrey;' src='img/tf1_68_M_ss1.jpeg'></img>","3","","exp","","0","<img src='img/tf1_68_T1_ss1_md.jpeg'></img>","0","true",""
"","html-keyboard-response","149","416823","0.0-10.0-0.68","291","""event"",""trial"",""time""
""fullscreenenter"",""0"",""1735""
","
","
","""event"",""trial"",""time""
""fullscreenenter"",""0"",""1735""
","
","null","<div style=""font-size:60px;"">+</div>","","null","fixation","2021-04-09 12:19:58.183","","","","",""
"","mars-trial","150","420620","0.0-10.0-1.68","291","""event"",""trial"",""time""
""fullscreenenter"",""0"",""1735""
","
","
","""event"",""trial"",""time""
""fullscreenenter"",""0"",""1735""
","
","3186.709999994491","<img style='border: 4px solid darkgrey;' src='img/tf1_69_M_ss2.jpeg'></img>","1","","exp","","1","<img src='img/tf1_69_T1_ss2_md.jpeg'></img>","0","false",""
"","html-keyboard-response","151","421124","0.0-10.0-0.69","291","""event"",""trial"",""time""
""fullscreenenter"",""0"",""1735""
","
","
","""event"",""trial"",""time""
""fullscreenenter"",""0"",""1735""
","
","null","<div style=""font-size:60px;"">+</div>","","null","fixation","2021-04-09 12:20:02.485","","","","",""
"","mars-trial","152","427940","0.0-10.0-1.69","291","""event"",""trial"",""time""
""fullscreenenter"",""0"",""1735""
","
","
","""event"",""trial"",""time""
""fullscreenenter"",""0"",""1735""
","
","6201.545000003534","<img style='border: 4px solid darkgrey;' src='img/tf1_70_M_ss3.jpeg'></img>","2","","exp","","0","<img src='img/tf1_70_T1_ss3_md.jpeg'></img>","0","true",""
"","html-keyboard-response","153","428451","0.0-10.0-0.70","291","""event"",""trial"",""time""
""fullscreenenter"",""0"",""1735""
","
","
","""event"",""trial"",""time""
""fullscreenenter"",""0"",""1735""
","
","null","<div style=""font-size:60px;"">+</div>","","null","fixation","2021-04-09 12:20:09.811","","","","",""
"","mars-trial","154","432754","0.0-10.0-1.70","291","""event"",""trial"",""time""
""fullscreenenter"",""0"",""1735""
","
","
","""event"",""trial"",""time""
""fullscreenenter"",""0"",""1735""
","
","3691.4749999996275","<img style='border: 4px solid darkgrey;' src='img/tf1_71_M_ss1.jpeg'></img>","2","","exp","","1","<img src='img/tf1_71_T1_ss1_md.jpeg'></img>","0","false",""
"","html-keyboard-response","155","433259","0.0-10.0-0.71","291","""event"",""trial"",""time""
""fullscreenenter"",""0"",""1735""
","
","
","""event"",""trial"",""time""
""fullscreenenter"",""0"",""1735""
","
","null","<div style=""font-size:60px;"">+</div>","","null","fixation","2021-04-09 12:20:14.620","","","","",""
"","mars-trial","156","437494","0.0-10.0-1.71","291","""event"",""trial"",""time""
""fullscreenenter"",""0"",""1735""
","
","
","""event"",""trial"",""time""
""fullscreenenter"",""0"",""1735""
","
","3625.290000003588","<img style='border: 4px solid darkgrey;' src='img/tf1_72_M_ss2.jpeg'></img>","2","","exp","","2","<img src='img/tf1_72_T1_ss2_md.jpeg'></img>","0","false",""
"","html-keyboard-response","157","437998","0.0-10.0-0.72","291","""event"",""trial"",""time""
""fullscreenenter"",""0"",""1735""
","
","
","""event"",""trial"",""time""
""fullscreenenter"",""0"",""1735""
","
","null","<div style=""font-size:60px;"">+</div>","","null","fixation","2021-04-09 12:20:19.358","","","","",""
"","mars-trial","158","440404","0.0-10.0-1.72","291","""event"",""trial"",""time""
""fullscreenenter"",""0"",""1735""
","
","
","""event"",""trial"",""time""
""fullscreenenter"",""0"",""1735""
","
","1799.9800000034156","<img style='border: 4px solid darkgrey;' src='img/tf1_73_M_ss3.jpeg'></img>","3","","exp","","0","<img src='img/tf1_73_T1_ss3_md.jpeg'></img>","0","true",""
"","html-keyboard-response","159","440905","0.0-10.0-0.73","291","""event"",""trial"",""time""
""fullscreenenter"",""0"",""1735""
","
","
","""event"",""trial"",""time""
""fullscreenenter"",""0"",""1735""
","
","null","<div style=""font-size:60px;"">+</div>","","null","fixation","2021-04-09 12:20:22.265","","","","",""
"","mars-trial","160","447614","0.0-10.0-1.73","291","""event"",""trial"",""time""
""fullscreenenter"",""0"",""1735""
","
","
","""event"",""trial"",""time""
""fullscreenenter"",""0"",""1735""
","
","6099.970000002941","<img style='border: 4px solid darkgrey;' src='img/tf1_74_M_ss1.jpeg'></img>","2","","exp","","0","<img src='img/tf1_74_T1_ss1_md.jpeg'></img>","0","true",""
"","html-keyboard-response","161","448118","0.0-10.0-0.74","291","""event"",""trial"",""time""
""fullscreenenter"",""0"",""1735""
","
","
","""event"",""trial"",""time""
""fullscreenenter"",""0"",""1735""
","
","null","<div style=""font-size:60px;"">+</div>","","null","fixation","2021-04-09 12:20:29.479","","","","",""
"","mars-trial","162","449878","0.0-10.0-1.74","291","""event"",""trial"",""time""
""fullscreenenter"",""0"",""1735""
","
","
","""event"",""trial"",""time""
""fullscreenenter"",""0"",""1735""
","
","1147.6700000057463","<img style='border: 4px solid darkgrey;' src='img/tf1_75_M_ss2.jpeg'></img>","2","","exp","","2","<img src='img/tf1_75_T1_ss2_md.jpeg'></img>","0","false",""
"","html-keyboard-response","163","450381","0.0-10.0-0.75","291","""event"",""trial"",""time""
""fullscreenenter"",""0"",""1735""
","
","
","""event"",""trial"",""time""
""fullscreenenter"",""0"",""1735""
","
","null","<div style=""font-size:60px;"">+</div>","","null","fixation","2021-04-09 12:20:31.741","","","","",""
"","mars-trial","164","455456","0.0-10.0-1.75","291","""event"",""trial"",""time""
""fullscreenenter"",""0"",""1735""
","
","
","""event"",""trial"",""time""
""fullscreenenter"",""0"",""1735""
","
","4461.314999993192","<img style='border: 4px solid darkgrey;' src='img/tf1_76_M_ss3.jpeg'></img>","2","","exp","","0","<img src='img/tf1_76_T1_ss3_md.jpeg'></img>","0","true",""
"","html-keyboard-response","165","455958","0.0-10.0-0.76","291","""event"",""trial"",""time""
""fullscreenenter"",""0"",""1735""
","
","
","""event"",""trial"",""time""
""fullscreenenter"",""0"",""1735""
","
","null","<div style=""font-size:60px;"">+</div>","","null","fixation","2021-04-09 12:20:37.319","","","","",""
"","mars-trial","166","461976","0.0-10.0-1.76","291","""event"",""trial"",""time""
""fullscreenenter"",""0"",""1735""
","
","
","""event"",""trial"",""time""
""fullscreenenter"",""0"",""1735""
","
","5406.600000002072","<img style='border: 4px solid darkgrey;' src='img/tf1_77_M_ss1.jpeg'></img>","3","","exp","","3","<img src='img/tf1_77_T1_ss1_md.jpeg'></img>","0","false",""
"","html-keyboard-response","167","462481","0.0-10.0-0.77","291","""event"",""trial"",""time""
""fullscreenenter"",""0"",""1735""
","
","
","""event"",""trial"",""time""
""fullscreenenter"",""0"",""1735""
","
","null","<div style=""font-size:60px;"">+</div>","","null","fixation","2021-04-09 12:20:43.841","","","","",""
"","mars-trial","168","464147","0.0-10.0-1.77","291","""event"",""trial"",""time""
""fullscreenenter"",""0"",""1735""
","
","
","""event"",""trial"",""time""
""fullscreenenter"",""0"",""1735""
","
","1061.1900000003516","<img style='border: 4px solid darkgrey;' src='img/tf1_78_M_ss2.jpeg'></img>","3","","exp","","2","<img src='img/tf1_78_T1_ss2_md.jpeg'></img>","0","false",""
"","html-keyboard-response","169","464650","0.0-10.0-0.78","291","""event"",""trial"",""time""
""fullscreenenter"",""0"",""1735""
","
","
","""event"",""trial"",""time""
""fullscreenenter"",""0"",""1735""
","
","null","<div style=""font-size:60px;"">+</div>","","null","fixation","2021-04-09 12:20:46.010","","","","",""
"","mars-trial","170","466846","0.0-10.0-1.78","291","""event"",""trial"",""time""
""fullscreenenter"",""0"",""1735""
","
","
","""event"",""trial"",""time""
""fullscreenenter"",""0"",""1735""
","
","1589.6300000022165","<img style='border: 4px solid darkgrey;' src='img/tf1_79_M_ss3.jpeg'></img>","2","","exp","","1","<img src='img/tf1_79_T1_ss3_md.jpeg'></img>","0","false",""
"","html-keyboard-response","171","467352","0.0-10.0-0.79","291","""event"",""trial"",""time""
""fullscreenenter"",""0"",""1735""
","
","
","""event"",""trial"",""time""
""fullscreenenter"",""0"",""1735""
","
","null","<div style=""font-size:60px;"">+</div>","","null","fixation","2021-04-09 12:20:48.712","","","","",""
"","mars-trial","172","471415","0.0-10.0-1.79","291","""event"",""trial"",""time""
""fullscreenenter"",""0"",""1735""
","
","
","""event"",""trial"",""time""
""fullscreenenter"",""0"",""1735""
","
","3455.0600000002305","<img style='border: 4px solid darkgrey;' src='img/tf1_80_M_ss1.jpeg'></img>","1","","exp","","0","<img src='img/tf1_80_T1_ss1_md.jpeg'></img>","0","true",""
"","audio-button-response","173","473478","0.0-11.0","291","""event"",""trial"",""time""
""fullscreenenter"",""0"",""1735""
","
","
","""event"",""trial"",""time""
""fullscreenenter"",""0"",""1735""
","
","2061.3349999985076","audio/mars_instructions_slide5.wav","0","","","","","","","",""
