"success","trial_type","trial_index","time_elapsed","internal_node_id","subject_id","interactions","blur_events","focus_events","fullscreenenter_events","fullscreenexit_events","rt","stimulus","button_pressed","key_press","part","timestamp","unshuffled_button","correct_response","correct_button","correct","value"
"true","fullscreen","0","2955","0.0-0.0","A106","""event"",""trial"",""time""
""fullscreenenter"",""0"",""1995""
","
","
","""event"",""trial"",""time""
""fullscreenenter"",""0"",""1995""
","
","","","","","","","","","","",""
"","pavlovia","1","2962","0.0-1.0","A106","""event"",""trial"",""time""
""fullscreenenter"",""0"",""1995""
","
","
","""event"",""trial"",""time""
""fullscreenenter"",""0"",""1995""
","
","","","","","","","","","","",""
"","html-button-response","2","4127","0.0-2.0","A106","""event"",""trial"",""time""
""fullscreenenter"",""0"",""1995""
","
","
","""event"",""trial"",""time""
""fullscreenenter"",""0"",""1995""
","
","1163.6600000201724","<p>Welcome! Press START to begin.</p><br>","0","","","","","","","",""
"","audio-button-response","3","23544","0.0-3.0","A106","""event"",""trial"",""time""
""fullscreenenter"",""0"",""1995""
","
","
","""event"",""trial"",""time""
""fullscreenenter"",""0"",""1995""
","
","19414.64500001166","audio/mars_instructions_slide2.wav","0","","","","","","","",""
"","audio-button-response","4","29167","0.0-4.0","A106","""event"",""trial"",""time""
""fullscreenenter"",""0"",""1995""
","
","
","""event"",""trial"",""time""
""fullscreenenter"",""0"",""1995""
","
","5620.704999979353","audio/mars_instructions_slide3.wav","0","","","","","","","",""
"","html-keyboard-response","5","29672","0.0-5.0-0.0","A106","""event"",""trial"",""time""
""fullscreenenter"",""0"",""1995""
","
","
","""event"",""trial"",""time""
""fullscreenenter"",""0"",""1995""
","
","null","<div style=""font-size:60px;"">+</div>","","null","fixation","2021-04-03 20:43:08.776","","","","",""
"","mars-trial","6","34140","0.0-5.0-1.0","A106","""event"",""trial"",""time""
""fullscreenenter"",""0"",""1995""
","
","
","""event"",""trial"",""time""
""fullscreenenter"",""0"",""1995""
","
","2357.4550000193994","<img style='border: 4px solid darkgrey;' src='practice/pt1_M1.png'></img>","0","","practice","","0","<img src='practice/pt1_T1.png'></img>","0","true",""
"","html-keyboard-response","7","34644","0.0-6.0-0.0","A106","""event"",""trial"",""time""
""fullscreenenter"",""0"",""1995""
","
","
","""event"",""trial"",""time""
""fullscreenenter"",""0"",""1995""
","
","null","<div style=""font-size:60px;"">+</div>","","null","fixation","2021-04-03 20:43:13.748","","","","",""
"","mars-trial","8","38239","0.0-6.0-1.0","A106","""event"",""trial"",""time""
""fullscreenenter"",""0"",""1995""
","
","
","""event"",""trial"",""time""
""fullscreenenter"",""0"",""1995""
","
","1482.2449999919627","<img style='border: 4px solid darkgrey;' src='practice/pt2_M1.png'></img>","3","","practice","","0","<img src='practice/pt2_T1.png'></img>","0","true",""
"","html-keyboard-response","9","38746","0.0-7.0-0.0","A106","""event"",""trial"",""time""
""fullscreenenter"",""0"",""1995""
","
","
","""event"",""trial"",""time""
""fullscreenenter"",""0"",""1995""
","
","null","<div style=""font-size:60px;"">+</div>","","null","fixation","2021-04-03 20:43:17.850","","","","",""
"","mars-trial","10","42047","0.0-7.0-1.0","A106","""event"",""trial"",""time""
""fullscreenenter"",""0"",""1995""
","
","
","""event"",""trial"",""time""
""fullscreenenter"",""0"",""1995""
","
","1189.1900000046007","<img style='border: 4px solid darkgrey;' src='practice/pt3_M1.png'></img>","0","","practice","","0","<img src='practice/pt3_T1.png'></img>","0","true",""
"","audio-button-response","11","44598","0.0-8.0","A106","""event"",""trial"",""time""
""fullscreenenter"",""0"",""1995""
","
","
","""event"",""trial"",""time""
""fullscreenenter"",""0"",""1995""
","
","2548.559999995632","audio/mars_instructions_slide4.wav","0","","","","","","","",""
"","call-function","12","44600","0.0-9.0","A106","""event"",""trial"",""time""
""fullscreenenter"",""0"",""1995""
","
","
","""event"",""trial"",""time""
""fullscreenenter"",""0"",""1995""
","
","","","","","","","","","","",""
"","html-keyboard-response","13","45102","0.0-10.0-0.0","A106","""event"",""trial"",""time""
""fullscreenenter"",""0"",""1995""
","
","
","""event"",""trial"",""time""
""fullscreenenter"",""0"",""1995""
","
","null","<div style=""font-size:60px;"">+</div>","","null","fixation","2021-04-03 20:43:24.207","","","","",""
"","mars-trial","14","47248","0.0-10.0-1.0","A106","""event"",""trial"",""time""
""fullscreenenter"",""0"",""1995""
","
","
","""event"",""trial"",""time""
""fullscreenenter"",""0"",""1995""
","
","1533.8249999913387","<img style='border: 4px solid darkgrey;' src='img/tf1_1_M_ss3.jpeg'></img>","1","","exp","","0","<img src='img/tf1_1_T1_ss3_md.jpeg'></img>","0","true",""
"","html-keyboard-response","15","47753","0.0-10.0-0.1","A106","""event"",""trial"",""time""
""fullscreenenter"",""0"",""1995""
","
","
","""event"",""trial"",""time""
""fullscreenenter"",""0"",""1995""
","
","null","<div style=""font-size:60px;"">+</div>","","null","fixation","2021-04-03 20:43:26.857","","","","",""
"","mars-trial","16","50200","0.0-10.0-1.1","A106","""event"",""trial"",""time""
""fullscreenenter"",""0"",""1995""
","
","
","""event"",""trial"",""time""
""fullscreenenter"",""0"",""1995""
","
","1834.835000016028","<img style='border: 4px solid darkgrey;' src='img/tf1_2_M_ss1.jpeg'></img>","1","","exp","","0","<img src='img/tf1_2_T1_ss1_md.jpeg'></img>","0","true",""
"","html-keyboard-response","17","50703","0.0-10.0-0.2","A106","""event"",""trial"",""time""
""fullscreenenter"",""0"",""1995""
","
","
","""event"",""trial"",""time""
""fullscreenenter"",""0"",""1995""
","
","null","<div style=""font-size:60px;"">+</div>","","null","fixation","2021-04-03 20:43:29.807","","","","",""
"","mars-trial","18","53098","0.0-10.0-1.2","A106","""event"",""trial"",""time""
""fullscreenenter"",""0"",""1995""
","
","
","""event"",""trial"",""time""
""fullscreenenter"",""0"",""1995""
","
","1779.3449999880977","<img style='border: 4px solid darkgrey;' src='img/tf1_3_M_ss2.jpeg'></img>","2","","exp","","0","<img src='img/tf1_3_T1_ss2_md.jpeg'></img>","0","true",""
"","html-keyboard-response","19","53602","0.0-10.0-0.3","A106","""event"",""trial"",""time""
""fullscreenenter"",""0"",""1995""
","
","
","""event"",""trial"",""time""
""fullscreenenter"",""0"",""1995""
","
","null","<div style=""font-size:60px;"">+</div>","","null","fixation","2021-04-03 20:43:32.706","","","","",""
"","mars-trial","20","56791","0.0-10.0-1.3","A106","""event"",""trial"",""time""
""fullscreenenter"",""0"",""1995""
","
","
","""event"",""trial"",""time""
""fullscreenenter"",""0"",""1995""
","
","2571.4849999931175","<img style='border: 4px solid darkgrey;' src='img/tf1_4_M_ss3.jpeg'></img>","0","","exp","","0","<img src='img/tf1_4_T1_ss3_md.jpeg'></img>","0","true",""
"","html-keyboard-response","21","57298","0.0-10.0-0.4","A106","""event"",""trial"",""time""
""fullscreenenter"",""0"",""1995""
","
","
","""event"",""trial"",""time""
""fullscreenenter"",""0"",""1995""
","
","null","<div style=""font-size:60px;"">+</div>","","null","fixation","2021-04-03 20:43:36.403","","","","",""
"","mars-trial","22","60049","0.0-10.0-1.4","A106","""event"",""trial"",""time""
""fullscreenenter"",""0"",""1995""
","
","
","""event"",""trial"",""time""
""fullscreenenter"",""0"",""1995""
","
","2136.014999996405","<img style='border: 4px solid darkgrey;' src='img/tf1_5_M_ss1.jpeg'></img>","2","","exp","","0","<img src='img/tf1_5_T1_ss1_md.jpeg'></img>","0","true",""
"","html-keyboard-response","23","60551","0.0-10.0-0.5","A106","""event"",""trial"",""time""
""fullscreenenter"",""0"",""1995""
","
","
","""event"",""trial"",""time""
""fullscreenenter"",""0"",""1995""
","
","null","<div style=""font-size:60px;"">+</div>","","null","fixation","2021-04-03 20:43:39.655","","","","",""
"","mars-trial","24","66901","0.0-10.0-1.5","A106","""event"",""trial"",""time""
""fullscreenenter"",""0"",""1995""
","
","
","""event"",""trial"",""time""
""fullscreenenter"",""0"",""1995""
","
","5736.4949999901","<img style='border: 4px solid darkgrey;' src='img/tf1_6_M_ss2.jpeg'></img>","0","","exp","","1","<img src='img/tf1_6_T1_ss2_md.jpeg'></img>","0","false",""
"","html-keyboard-response","25","67403","0.0-10.0-0.6","A106","""event"",""trial"",""time""
""fullscreenenter"",""0"",""1995""
","
","
","""event"",""trial"",""time""
""fullscreenenter"",""0"",""1995""
","
","null","<div style=""font-size:60px;"">+</div>","","null","fixation","2021-04-03 20:43:46.507","","","","",""
"","mars-trial","26","70773","0.0-10.0-1.6","A106","""event"",""trial"",""time""
""fullscreenenter"",""0"",""1995""
","
","
","""event"",""trial"",""time""
""fullscreenenter"",""0"",""1995""
","
","2760.195000009844","<img style='border: 4px solid darkgrey;' src='img/tf1_7_M_ss3.jpeg'></img>","0","","exp","","0","<img src='img/tf1_7_T1_ss3_md.jpeg'></img>","0","true",""
"","html-keyboard-response","27","71279","0.0-10.0-0.7","A106","""event"",""trial"",""time""
""fullscreenenter"",""0"",""1995""
","
","
","""event"",""trial"",""time""
""fullscreenenter"",""0"",""1995""
","
","null","<div style=""font-size:60px;"">+</div>","","null","fixation","2021-04-03 20:43:50.383","","","","",""
"","mars-trial","28","75256","0.0-10.0-1.7","A106","""event"",""trial"",""time""
""fullscreenenter"",""0"",""1995""
","
","
","""event"",""trial"",""time""
""fullscreenenter"",""0"",""1995""
","
","3365.3850000118837","<img style='border: 4px solid darkgrey;' src='img/tf1_8_M_ss1.jpeg'></img>","3","","exp","","0","<img src='img/tf1_8_T1_ss1_md.jpeg'></img>","0","true",""
"","html-keyboard-response","29","75764","0.0-10.0-0.8","A106","""event"",""trial"",""time""
""fullscreenenter"",""0"",""1995""
","
","
","""event"",""trial"",""time""
""fullscreenenter"",""0"",""1995""
","
","null","<div style=""font-size:60px;"">+</div>","","null","fixation","2021-04-03 20:43:54.868","","","","",""
"","mars-trial","30","79528","0.0-10.0-1.8","A106","""event"",""trial"",""time""
""fullscreenenter"",""0"",""1995""
","
","
","""event"",""trial"",""time""
""fullscreenenter"",""0"",""1995""
","
","3155.865000007907","<img style='border: 4px solid darkgrey;' src='img/tf1_9_M_ss2.jpeg'></img>","3","","exp","","0","<img src='img/tf1_9_T1_ss2_md.jpeg'></img>","0","true",""
"","html-keyboard-response","31","80035","0.0-10.0-0.9","A106","""event"",""trial"",""time""
""fullscreenenter"",""0"",""1995""
","
","
","""event"",""trial"",""time""
""fullscreenenter"",""0"",""1995""
","
","null","<div style=""font-size:60px;"">+</div>","","null","fixation","2021-04-03 20:43:59.139","","","","",""
"","mars-trial","32","85743","0.0-10.0-1.9","A106","""event"",""trial"",""time""
""fullscreenenter"",""0"",""1995""
","
","
","""event"",""trial"",""time""
""fullscreenenter"",""0"",""1995""
","
","5093.35499998997","<img style='border: 4px solid darkgrey;' src='img/tf1_10_M_ss3.jpeg'></img>","1","","exp","","0","<img src='img/tf1_10_T1_ss3_md.jpeg'></img>","0","true",""
"","html-keyboard-response","33","86246","0.0-10.0-0.10","A106","""event"",""trial"",""time""
""fullscreenenter"",""0"",""1995""
","
","
","""event"",""trial"",""time""
""fullscreenenter"",""0"",""1995""
","
","null","<div style=""font-size:60px;"">+</div>","","null","fixation","2021-04-03 20:44:05.350","","","","",""
"","mars-trial","34","92045","0.0-10.0-1.10","A106","""event"",""trial"",""time""
""fullscreenenter"",""0"",""1995""
","
","
","""event"",""trial"",""time""
""fullscreenenter"",""0"",""1995""
","
","5190.6700000108685","<img style='border: 4px solid darkgrey;' src='img/tf1_11_M_ss1.jpeg'></img>","0","","exp","","1","<img src='img/tf1_11_T1_ss1_md.jpeg'></img>","0","false",""
"","html-keyboard-response","35","92548","0.0-10.0-0.11","A106","""event"",""trial"",""time""
""fullscreenenter"",""0"",""1995""
","
","
","""event"",""trial"",""time""
""fullscreenenter"",""0"",""1995""
","
","null","<div style=""font-size:60px;"">+</div>","","null","fixation","2021-04-03 20:44:11.652","","","","",""
"","mars-trial","36","98776","0.0-10.0-1.11","A106","""event"",""trial"",""time""
""fullscreenenter"",""0"",""1995""
","
","
","""event"",""trial"",""time""
""fullscreenenter"",""0"",""1995""
","
","5613.1550000282","<img style='border: 4px solid darkgrey;' src='img/tf1_12_M_ss2.jpeg'></img>","2","","exp","","1","<img src='img/tf1_12_T1_ss2_md.jpeg'></img>","0","false",""
"","html-keyboard-response","37","99280","0.0-10.0-0.12","A106","""event"",""trial"",""time""
""fullscreenenter"",""0"",""1995""
","
","
","""event"",""trial"",""time""
""fullscreenenter"",""0"",""1995""
","
","null","<div style=""font-size:60px;"">+</div>","","null","fixation","2021-04-03 20:44:18.385","","","","",""
"","mars-trial","38","107414","0.0-10.0-1.12","A106","""event"",""trial"",""time""
""fullscreenenter"",""0"",""1995""
","
","
","""event"",""trial"",""time""
""fullscreenenter"",""0"",""1995""
","
","7523.649999988265","<img style='border: 4px solid darkgrey;' src='img/tf1_13_M_ss3.jpeg'></img>","2","","exp","","2","<img src='img/tf1_13_T1_ss3_md.jpeg'></img>","0","false",""
"","html-keyboard-response","39","107918","0.0-10.0-0.13","A106","""event"",""trial"",""time""
""fullscreenenter"",""0"",""1995""
","
","
","""event"",""trial"",""time""
""fullscreenenter"",""0"",""1995""
","
","null","<div style=""font-size:60px;"">+</div>","","null","fixation","2021-04-03 20:44:27.023","","","","",""
"","mars-trial","40","117286","0.0-10.0-1.13","A106","""event"",""trial"",""time""
""fullscreenenter"",""0"",""1995""
","
","
","""event"",""trial"",""time""
""fullscreenenter"",""0"",""1995""
","
","8758.07499999064","<img style='border: 4px solid darkgrey;' src='img/tf1_14_M_ss1.jpeg'></img>","1","","exp","","3","<img src='img/tf1_14_T1_ss1_md.jpeg'></img>","0","false",""
"","html-keyboard-response","41","117788","0.0-10.0-0.14","A106","""event"",""trial"",""time""
""fullscreenenter"",""0"",""1995""
","
","
","""event"",""trial"",""time""
""fullscreenenter"",""0"",""1995""
","
","null","<div style=""font-size:60px;"">+</div>","","null","fixation","2021-04-03 20:44:36.892","","","","",""
"","mars-trial","42","126218","0.0-10.0-1.14","A106","""event"",""trial"",""time""
""fullscreenenter"",""0"",""1995""
","
","
","""event"",""trial"",""time""
""fullscreenenter"",""0"",""1995""
","
","7820.669999986421","<img style='border: 4px solid darkgrey;' src='img/tf1_15_M_ss2.jpeg'></img>","0","","exp","","2","<img src='img/tf1_15_T1_ss2_md.jpeg'></img>","0","false",""
"","html-keyboard-response","43","126721","0.0-10.0-0.15","A106","""event"",""trial"",""time""
""fullscreenenter"",""0"",""1995""
","
","
","""event"",""trial"",""time""
""fullscreenenter"",""0"",""1995""
","
","null","<div style=""font-size:60px;"">+</div>","","null","fixation","2021-04-03 20:44:45.825","","","","",""
"","mars-trial","44","138029","0.0-10.0-1.15","A106","""event"",""trial"",""time""
""fullscreenenter"",""0"",""1995""
","
","
","""event"",""trial"",""time""
""fullscreenenter"",""0"",""1995""
","
","10698.420000000624","<img style='border: 4px solid darkgrey;' src='img/tf1_16_M_ss3.jpeg'></img>","0","","exp","","3","<img src='img/tf1_16_T1_ss3_md.jpeg'></img>","0","false",""
"","html-keyboard-response","45","138534","0.0-10.0-0.16","A106","""event"",""trial"",""time""
""fullscreenenter"",""0"",""1995""
","
","
","""event"",""trial"",""time""
""fullscreenenter"",""0"",""1995""
","
","null","<div style=""font-size:60px;"">+</div>","","null","fixation","2021-04-03 20:44:57.638","","","","",""
"","mars-trial","46","145794","0.0-10.0-1.16","A106","""event"",""trial"",""time""
""fullscreenenter"",""0"",""1995""
","
","
","""event"",""trial"",""time""
""fullscreenenter"",""0"",""1995""
","
","6651.355000009062","<img style='border: 4px solid darkgrey;' src='img/tf1_17_M_ss1.jpeg'></img>","1","","exp","","0","<img src='img/tf1_17_T1_ss1_md.jpeg'></img>","0","true",""
"","html-keyboard-response","47","146301","0.0-10.0-0.17","A106","""event"",""trial"",""time""
""fullscreenenter"",""0"",""1995""
","
","
","""event"",""trial"",""time""
""fullscreenenter"",""0"",""1995""
","
","null","<div style=""font-size:60px;"">+</div>","","null","fixation","2021-04-03 20:45:05.405","","","","",""
"","mars-trial","48","154102","0.0-10.0-1.17","A106","""event"",""trial"",""time""
""fullscreenenter"",""0"",""1995""
","
","
","""event"",""trial"",""time""
""fullscreenenter"",""0"",""1995""
","
","7193.539999978384","<img style='border: 4px solid darkgrey;' src='img/tf1_18_M_ss2.jpeg'></img>","3","","exp","","1","<img src='img/tf1_18_T1_ss2_md.jpeg'></img>","0","false",""
"","html-keyboard-response","49","154608","0.0-10.0-0.18","A106","""event"",""trial"",""time""
""fullscreenenter"",""0"",""1995""
","
","
","""event"",""trial"",""time""
""fullscreenenter"",""0"",""1995""
","
","null","<div style=""font-size:60px;"">+</div>","","null","fixation","2021-04-03 20:45:13.712","","","","",""
"","mars-trial","50","161607","0.0-10.0-1.18","A106","""event"",""trial"",""time""
""fullscreenenter"",""0"",""1995""
","
","
","""event"",""trial"",""time""
""fullscreenenter"",""0"",""1995""
","
","6385.41499999701","<img style='border: 4px solid darkgrey;' src='img/tf1_19_M_ss3.jpeg'></img>","2","","exp","","3","<img src='img/tf1_19_T1_ss3_md.jpeg'></img>","0","false",""
"","html-keyboard-response","51","162111","0.0-10.0-0.19","A106","""event"",""trial"",""time""
""fullscreenenter"",""0"",""1995""
","
","
","""event"",""trial"",""time""
""fullscreenenter"",""0"",""1995""
","
","null","<div style=""font-size:60px;"">+</div>","","null","fixation","2021-04-03 20:45:21.216","","","","",""
"","mars-trial","52","166853","0.0-10.0-1.19","A106","""event"",""trial"",""time""
""fullscreenenter"",""0"",""1995""
","
","
","""event"",""trial"",""time""
""fullscreenenter"",""0"",""1995""
","
","4129.589999996824","<img style='border: 4px solid darkgrey;' src='img/tf1_20_M_ss1.jpeg'></img>","0","","exp","","1","<img src='img/tf1_20_T1_ss1_md.jpeg'></img>","0","false",""
"","html-keyboard-response","53","167359","0.0-10.0-0.20","A106","""event"",""trial"",""time""
""fullscreenenter"",""0"",""1995""
","
","
","""event"",""trial"",""time""
""fullscreenenter"",""0"",""1995""
","
","null","<div style=""font-size:60px;"">+</div>","","null","fixation","2021-04-03 20:45:26.464","","","","",""
"","mars-trial","54","173804","0.0-10.0-1.20","A106","""event"",""trial"",""time""
""fullscreenenter"",""0"",""1995""
","
","
","""event"",""trial"",""time""
""fullscreenenter"",""0"",""1995""
","
","5837.160000024596","<img style='border: 4px solid darkgrey;' src='img/tf1_21_M_ss2.jpeg'></img>","2","","exp","","2","<img src='img/tf1_21_T1_ss2_md.jpeg'></img>","0","false",""
"","html-keyboard-response","55","174309","0.0-10.0-0.21","A106","""event"",""trial"",""time""
""fullscreenenter"",""0"",""1995""
","
","
","""event"",""trial"",""time""
""fullscreenenter"",""0"",""1995""
","
","null","<div style=""font-size:60px;"">+</div>","","null","fixation","2021-04-03 20:45:33.413","","","","",""
"","mars-trial","56","177166","0.0-10.0-1.21","A106","""event"",""trial"",""time""
""fullscreenenter"",""0"",""1995""
","
","
","""event"",""trial"",""time""
""fullscreenenter"",""0"",""1995""
","
","2247.2750000015367","<img style='border: 4px solid darkgrey;' src='img/tf1_22_M_ss3.jpeg'></img>","1","","exp","","2","<img src='img/tf1_22_T1_ss3_md.jpeg'></img>","0","false",""
"","html-keyboard-response","57","177668","0.0-10.0-0.22","A106","""event"",""trial"",""time""
""fullscreenenter"",""0"",""1995""
","
","
","""event"",""trial"",""time""
""fullscreenenter"",""0"",""1995""
","
","null","<div style=""font-size:60px;"">+</div>","","null","fixation","2021-04-03 20:45:36.773","","","","",""
"","mars-trial","58","186292","0.0-10.0-1.22","A106","""event"",""trial"",""time""
""fullscreenenter"",""0"",""1995""
","
","
","""event"",""trial"",""time""
""fullscreenenter"",""0"",""1995""
","
","8014.67999999295","<img style='border: 4px solid darkgrey;' src='img/tf1_23_M_ss1.jpeg'></img>","1","","exp","","2","<img src='img/tf1_23_T1_ss1_md.jpeg'></img>","0","false",""
"","html-keyboard-response","59","186795","0.0-10.0-0.23","A106","""event"",""trial"",""time""
""fullscreenenter"",""0"",""1995""
","
","
","""event"",""trial"",""time""
""fullscreenenter"",""0"",""1995""
","
","null","<div style=""font-size:60px;"">+</div>","","null","fixation","2021-04-03 20:45:45.899","","","","",""
"","mars-trial","60","195849","0.0-10.0-1.23","A106","""event"",""trial"",""time""
""fullscreenenter"",""0"",""1995""
","
","
","""event"",""trial"",""time""
""fullscreenenter"",""0"",""1995""
","
","8444.734999997308","<img style='border: 4px solid darkgrey;' src='img/tf1_24_M_ss2.jpeg'></img>","1","","exp","","0","<img src='img/tf1_24_T1_ss2_md.jpeg'></img>","0","true",""
"","html-keyboard-response","61","196356","0.0-10.0-0.24","A106","""event"",""trial"",""time""
""fullscreenenter"",""0"",""1995""
","
","
","""event"",""trial"",""time""
""fullscreenenter"",""0"",""1995""
","
","null","<div style=""font-size:60px;"">+</div>","","null","fixation","2021-04-03 20:45:55.460","","","","",""
"","mars-trial","62","200094","0.0-10.0-1.24","A106","""event"",""trial"",""time""
""fullscreenenter"",""0"",""1995""
","
","
","""event"",""trial"",""time""
""fullscreenenter"",""0"",""1995""
","
","3122.5000000267755","<img style='border: 4px solid darkgrey;' src='img/tf1_25_M_ss3.jpeg'></img>","2","","exp","","0","<img src='img/tf1_25_T1_ss3_md.jpeg'></img>","0","true",""
"","html-keyboard-response","63","200601","0.0-10.0-0.25","A106","""event"",""trial"",""time""
""fullscreenenter"",""0"",""1995""
","
","
","""event"",""trial"",""time""
""fullscreenenter"",""0"",""1995""
","
","null","<div style=""font-size:60px;"">+</div>","","null","fixation","2021-04-03 20:45:59.705","","","","",""
"","mars-trial","64","211129","0.0-10.0-1.25","A106","""event"",""trial"",""time""
""fullscreenenter"",""0"",""1995""
","
","
","""event"",""trial"",""time""
""fullscreenenter"",""0"",""1995""
","
","9916.479999985313","<img style='border: 4px solid darkgrey;' src='img/tf1_26_M_ss1.jpeg'></img>","0","","exp","","2","<img src='img/tf1_26_T1_ss1_md.jpeg'></img>","0","false",""
"","html-keyboard-response","65","211631","0.0-10.0-0.26","A106","""event"",""trial"",""time""
""fullscreenenter"",""0"",""1995""
","
","
","""event"",""trial"",""time""
""fullscreenenter"",""0"",""1995""
","
","null","<div style=""font-size:60px;"">+</div>","","null","fixation","2021-04-03 20:46:10.735","","","","",""
"","mars-trial","66","216869","0.0-10.0-1.26","A106","""event"",""trial"",""time""
""fullscreenenter"",""0"",""1995""
","
","
","""event"",""trial"",""time""
""fullscreenenter"",""0"",""1995""
","
","4631.010000011884","<img style='border: 4px solid darkgrey;' src='img/tf1_27_M_ss2.jpeg'></img>","0","","exp","","2","<img src='img/tf1_27_T1_ss2_md.jpeg'></img>","0","false",""
"","html-keyboard-response","67","217371","0.0-10.0-0.27","A106","""event"",""trial"",""time""
""fullscreenenter"",""0"",""1995""
","
","
","""event"",""trial"",""time""
""fullscreenenter"",""0"",""1995""
","
","null","<div style=""font-size:60px;"">+</div>","","null","fixation","2021-04-03 20:46:16.475","","","","",""
"","mars-trial","68","220608","0.0-10.0-1.27","A106","""event"",""trial"",""time""
""fullscreenenter"",""0"",""1995""
","
","
","""event"",""trial"",""time""
""fullscreenenter"",""0"",""1995""
","
","2626.4850000152364","<img style='border: 4px solid darkgrey;' src='img/tf1_28_M_ss3.jpeg'></img>","2","","exp","","1","<img src='img/tf1_28_T1_ss3_md.jpeg'></img>","0","false",""
"","html-keyboard-response","69","221114","0.0-10.0-0.28","A106","""event"",""trial"",""time""
""fullscreenenter"",""0"",""1995""
","
","
","""event"",""trial"",""time""
""fullscreenenter"",""0"",""1995""
","
","null","<div style=""font-size:60px;"">+</div>","","null","fixation","2021-04-03 20:46:20.218","","","","",""
"","mars-trial","70","227502","0.0-10.0-1.28","A106","""event"",""trial"",""time""
""fullscreenenter"",""0"",""1995""
","
","
","""event"",""trial"",""time""
""fullscreenenter"",""0"",""1995""
","
","5778.4649999812245","<img style='border: 4px solid darkgrey;' src='img/tf1_29_M_ss1.jpeg'></img>","3","","exp","","2","<img src='img/tf1_29_T1_ss1_md.jpeg'></img>","0","false",""
"","html-keyboard-response","71","228005","0.0-10.0-0.29","A106","""event"",""trial"",""time""
""fullscreenenter"",""0"",""1995""
","
","
","""event"",""trial"",""time""
""fullscreenenter"",""0"",""1995""
","
","null","<div style=""font-size:60px;"">+</div>","","null","fixation","2021-04-03 20:46:27.109","","","","",""
"","mars-trial","72","236521","0.0-10.0-1.29","A106","""event"",""trial"",""time""
""fullscreenenter"",""0"",""1995""
","
","
","""event"",""trial"",""time""
""fullscreenenter"",""0"",""1995""
","
","7908.2650000054855","<img style='border: 4px solid darkgrey;' src='img/tf1_30_M_ss2.jpeg'></img>","3","","exp","","0","<img src='img/tf1_30_T1_ss2_md.jpeg'></img>","0","true",""
"","html-keyboard-response","73","237023","0.0-10.0-0.30","A106","""event"",""trial"",""time""
""fullscreenenter"",""0"",""1995""
","
","
","""event"",""trial"",""time""
""fullscreenenter"",""0"",""1995""
","
","null","<div style=""font-size:60px;"">+</div>","","null","fixation","2021-04-03 20:46:36.127","","","","",""
"","mars-trial","74","245250","0.0-10.0-1.30","A106","""event"",""trial"",""time""
""fullscreenenter"",""0"",""1995""
","
","
","""event"",""trial"",""time""
""fullscreenenter"",""0"",""1995""
","
","7614.2800000088755","<img style='border: 4px solid darkgrey;' src='img/tf1_31_M_ss3.jpeg'></img>","2","","exp","","0","<img src='img/tf1_31_T1_ss3_md.jpeg'></img>","0","true",""
"","html-keyboard-response","75","245756","0.0-10.0-0.31","A106","""event"",""trial"",""time""
""fullscreenenter"",""0"",""1995""
","
","
","""event"",""trial"",""time""
""fullscreenenter"",""0"",""1995""
","
","null","<div style=""font-size:60px;"">+</div>","","null","fixation","2021-04-03 20:46:44.860","","","","",""
"","mars-trial","76","250956","0.0-10.0-1.31","A106","""event"",""trial"",""time""
""fullscreenenter"",""0"",""1995""
","
","
","""event"",""trial"",""time""
""fullscreenenter"",""0"",""1995""
","
","4591.75999998115","<img style='border: 4px solid darkgrey;' src='img/tf1_32_M_ss1.jpeg'></img>","2","","exp","","3","<img src='img/tf1_32_T1_ss1_md.jpeg'></img>","0","false",""
"","html-keyboard-response","77","251463","0.0-10.0-0.32","A106","""event"",""trial"",""time""
""fullscreenenter"",""0"",""1995""
","
","
","""event"",""trial"",""time""
""fullscreenenter"",""0"",""1995""
","
","null","<div style=""font-size:60px;"">+</div>","","null","fixation","2021-04-03 20:46:50.567","","","","",""
"","mars-trial","78","255282","0.0-10.0-1.32","A106","""event"",""trial"",""time""
""fullscreenenter"",""0"",""1995""
","
","
","""event"",""trial"",""time""
""fullscreenenter"",""0"",""1995""
","
","3209.919999993872","<img style='border: 4px solid darkgrey;' src='img/tf1_33_M_ss2.jpeg'></img>","0","","exp","","1","<img src='img/tf1_33_T1_ss2_md.jpeg'></img>","0","false",""
"","html-keyboard-response","79","255788","0.0-10.0-0.33","A106","""event"",""trial"",""time""
""fullscreenenter"",""0"",""1995""
","
","
","""event"",""trial"",""time""
""fullscreenenter"",""0"",""1995""
","
","null","<div style=""font-size:60px;"">+</div>","","null","fixation","2021-04-03 20:46:54.892","","","","",""
"","mars-trial","80","260798","0.0-10.0-1.33","A106","""event"",""trial"",""time""
""fullscreenenter"",""0"",""1995""
","
","
","""event"",""trial"",""time""
""fullscreenenter"",""0"",""1995""
","
","4401.559999998426","<img style='border: 4px solid darkgrey;' src='img/tf1_34_M_ss3.jpeg'></img>","3","","exp","","0","<img src='img/tf1_34_T1_ss3_md.jpeg'></img>","0","true",""
"","html-keyboard-response","81","261305","0.0-10.0-0.34","A106","""event"",""trial"",""time""
""fullscreenenter"",""0"",""1995""
","
","
","""event"",""trial"",""time""
""fullscreenenter"",""0"",""1995""
","
","null","<div style=""font-size:60px;"">+</div>","","null","fixation","2021-04-03 20:47:00.409","","","","",""
"","mars-trial","82","265527","0.0-10.0-1.34","A106","""event"",""trial"",""time""
""fullscreenenter"",""0"",""1995""
","
","
","""event"",""trial"",""time""
""fullscreenenter"",""0"",""1995""
","
","3612.920000014128","<img style='border: 4px solid darkgrey;' src='img/tf1_35_M_ss1.jpeg'></img>","1","","exp","","3","<img src='img/tf1_35_T1_ss1_md.jpeg'></img>","0","false",""
"","html-keyboard-response","83","266029","0.0-10.0-0.35","A106","""event"",""trial"",""time""
""fullscreenenter"",""0"",""1995""
","
","
","""event"",""trial"",""time""
""fullscreenenter"",""0"",""1995""
","
","null","<div style=""font-size:60px;"">+</div>","","null","fixation","2021-04-03 20:47:05.133","","","","",""
"","mars-trial","84","267218","0.0-10.0-1.35","A106","""event"",""trial"",""time""
""fullscreenenter"",""0"",""1995""
","
","
","""event"",""trial"",""time""
""fullscreenenter"",""0"",""1995""
","
","580.8050000050571","<img style='border: 4px solid darkgrey;' src='img/tf1_36_M_ss2.jpeg'></img>","2","","exp","","2","<img src='img/tf1_36_T1_ss2_md.jpeg'></img>","0","false",""
"","html-keyboard-response","85","267721","0.0-10.0-0.36","A106","""event"",""trial"",""time""
""fullscreenenter"",""0"",""1995""
","
","
","""event"",""trial"",""time""
""fullscreenenter"",""0"",""1995""
","
","null","<div style=""font-size:60px;"">+</div>","","null","fixation","2021-04-03 20:47:06.825","","","","",""
"","mars-trial","86","268873","0.0-10.0-1.36","A106","""event"",""trial"",""time""
""fullscreenenter"",""0"",""1995""
","
","
","""event"",""trial"",""time""
""fullscreenenter"",""0"",""1995""
","
","542.9700000095181","<img style='border: 4px solid darkgrey;' src='img/tf1_37_M_ss3.jpeg'></img>","1","","exp","","3","<img src='img/tf1_37_T1_ss3_md.jpeg'></img>","0","false",""
"","html-keyboard-response","87","269375","0.0-10.0-0.37","A106","""event"",""trial"",""time""
""fullscreenenter"",""0"",""1995""
","
","
","""event"",""trial"",""time""
""fullscreenenter"",""0"",""1995""
","
","null","<div style=""font-size:60px;"">+</div>","","null","fixation","2021-04-03 20:47:08.479","","","","",""
"","mars-trial","88","270635","0.0-10.0-1.37","A106","""event"",""trial"",""time""
""fullscreenenter"",""0"",""1995""
","
","
","""event"",""trial"",""time""
""fullscreenenter"",""0"",""1995""
","
","654.5849999820348","<img style='border: 4px solid darkgrey;' src='img/tf1_38_M_ss1.jpeg'></img>","3","","exp","","3","<img src='img/tf1_38_T1_ss1_md.jpeg'></img>","0","false",""
"","html-keyboard-response","89","271137","0.0-10.0-0.38","A106","""event"",""trial"",""time""
""fullscreenenter"",""0"",""1995""
","
","
","""event"",""trial"",""time""
""fullscreenenter"",""0"",""1995""
","
","null","<div style=""font-size:60px;"">+</div>","","null","fixation","2021-04-03 20:47:10.242","","","","",""
"","mars-trial","90","272305","0.0-10.0-1.38","A106","""event"",""trial"",""time""
""fullscreenenter"",""0"",""1995""
","
","
","""event"",""trial"",""time""
""fullscreenenter"",""0"",""1995""
","
","562.690000020666","<img style='border: 4px solid darkgrey;' src='img/tf1_39_M_ss2.jpeg'></img>","2","","exp","","0","<img src='img/tf1_39_T1_ss2_md.jpeg'></img>","0","true",""
"","html-keyboard-response","91","272812","0.0-10.0-0.39","A106","""event"",""trial"",""time""
""fullscreenenter"",""0"",""1995""
","
","
","""event"",""trial"",""time""
""fullscreenenter"",""0"",""1995""
","
","null","<div style=""font-size:60px;"">+</div>","","null","fixation","2021-04-03 20:47:11.916","","","","",""
"","mars-trial","92","277201","0.0-10.0-1.39","A106","""event"",""trial"",""time""
""fullscreenenter"",""0"",""1995""
","
","
","""event"",""trial"",""time""
""fullscreenenter"",""0"",""1995""
","
","3782.4600000167266","<img style='border: 4px solid darkgrey;' src='img/tf1_40_M_ss3.jpeg'></img>","0","","exp","","1","<img src='img/tf1_40_T1_ss3_md.jpeg'></img>","0","false",""
"","html-keyboard-response","93","277704","0.0-10.0-0.40","A106","""event"",""trial"",""time""
""fullscreenenter"",""0"",""1995""
","
","
","""event"",""trial"",""time""
""fullscreenenter"",""0"",""1995""
","
","null","<div style=""font-size:60px;"">+</div>","","null","fixation","2021-04-03 20:47:16.809","","","","",""
"","mars-trial","94","281190","0.0-10.0-1.40","A106","""event"",""trial"",""time""
""fullscreenenter"",""0"",""1995""
","
","
","""event"",""trial"",""time""
""fullscreenenter"",""0"",""1995""
","
","2878.7350000056904","<img style='border: 4px solid darkgrey;' src='img/tf1_41_M_ss1.jpeg'></img>","3","","exp","","0","<img src='img/tf1_41_T1_ss1_md.jpeg'></img>","0","true",""
"","html-keyboard-response","95","281697","0.0-10.0-0.41","A106","""event"",""trial"",""time""
""fullscreenenter"",""0"",""1995""
","
","
","""event"",""trial"",""time""
""fullscreenenter"",""0"",""1995""
","
","null","<div style=""font-size:60px;"">+</div>","","null","fixation","2021-04-03 20:47:20.801","","","","",""
"","mars-trial","96","290118","0.0-10.0-1.41","A106","""event"",""trial"",""time""
""fullscreenenter"",""0"",""1995""
","
","
","""event"",""trial"",""time""
""fullscreenenter"",""0"",""1995""
","
","7815.230000007432","<img style='border: 4px solid darkgrey;' src='img/tf1_42_M_ss2.jpeg'></img>","0","","exp","","0","<img src='img/tf1_42_T1_ss2_md.jpeg'></img>","0","true",""
"","html-keyboard-response","97","290621","0.0-10.0-0.42","A106","""event"",""trial"",""time""
""fullscreenenter"",""0"",""1995""
","
","
","""event"",""trial"",""time""
""fullscreenenter"",""0"",""1995""
","
","null","<div style=""font-size:60px;"">+</div>","","null","fixation","2021-04-03 20:47:29.725","","","","",""
"","mars-trial","98","292779","0.0-10.0-1.42","A106","""event"",""trial"",""time""
""fullscreenenter"",""0"",""1995""
","
","
","""event"",""trial"",""time""
""fullscreenenter"",""0"",""1995""
","
","1543.48999998183","<img style='border: 4px solid darkgrey;' src='img/tf1_43_M_ss3.jpeg'></img>","2","","exp","","0","<img src='img/tf1_43_T1_ss3_md.jpeg'></img>","0","true",""
"","html-keyboard-response","99","293282","0.0-10.0-0.43","A106","""event"",""trial"",""time""
""fullscreenenter"",""0"",""1995""
","
","
","""event"",""trial"",""time""
""fullscreenenter"",""0"",""1995""
","
","null","<div style=""font-size:60px;"">+</div>","","null","fixation","2021-04-03 20:47:32.386","","","","",""
"","mars-trial","100","295208","0.0-10.0-1.43","A106","""event"",""trial"",""time""
""fullscreenenter"",""0"",""1995""
","
","
","""event"",""trial"",""time""
""fullscreenenter"",""0"",""1995""
","
","1314.4299999985378","<img style='border: 4px solid darkgrey;' src='img/tf1_44_M_ss1.jpeg'></img>","1","","exp","","0","<img src='img/tf1_44_T1_ss1_md.jpeg'></img>","0","true",""
"","html-keyboard-response","101","295709","0.0-10.0-0.44","A106","""event"",""trial"",""time""
""fullscreenenter"",""0"",""1995""
","
","
","""event"",""trial"",""time""
""fullscreenenter"",""0"",""1995""
","
","null","<div style=""font-size:60px;"">+</div>","","null","fixation","2021-04-03 20:47:34.813","","","","",""
"","mars-trial","102","296969","0.0-10.0-1.44","A106","""event"",""trial"",""time""
""fullscreenenter"",""0"",""1995""
","
","
","""event"",""trial"",""time""
""fullscreenenter"",""0"",""1995""
","
","648.3750000188593","<img style='border: 4px solid darkgrey;' src='img/tf1_45_M_ss2.jpeg'></img>","3","","exp","","3","<img src='img/tf1_45_T1_ss2_md.jpeg'></img>","0","false",""
"","html-keyboard-response","103","297471","0.0-10.0-0.45","A106","""event"",""trial"",""time""
""fullscreenenter"",""0"",""1995""
","
","
","""event"",""trial"",""time""
""fullscreenenter"",""0"",""1995""
","
","null","<div style=""font-size:60px;"">+</div>","","null","fixation","2021-04-03 20:47:36.575","","","","",""
"","mars-trial","104","298887","0.0-10.0-1.45","A106","""event"",""trial"",""time""
""fullscreenenter"",""0"",""1995""
","
","
","""event"",""trial"",""time""
""fullscreenenter"",""0"",""1995""
","
","806.5049999859184","<img style='border: 4px solid darkgrey;' src='img/tf1_46_M_ss3.jpeg'></img>","1","","exp","","0","<img src='img/tf1_46_T1_ss3_md.jpeg'></img>","0","true",""
"","html-keyboard-response","105","299389","0.0-10.0-0.46","A106","""event"",""trial"",""time""
""fullscreenenter"",""0"",""1995""
","
","
","""event"",""trial"",""time""
""fullscreenenter"",""0"",""1995""
","
","null","<div style=""font-size:60px;"">+</div>","","null","fixation","2021-04-03 20:47:38.494","","","","",""
"","mars-trial","106","300716","0.0-10.0-1.46","A106","""event"",""trial"",""time""
""fullscreenenter"",""0"",""1995""
","
","
","""event"",""trial"",""time""
""fullscreenenter"",""0"",""1995""
","
","718.7850000045728","<img style='border: 4px solid darkgrey;' src='img/tf1_47_M_ss1.jpeg'></img>","2","","exp","","2","<img src='img/tf1_47_T1_ss1_md.jpeg'></img>","0","false",""
"","html-keyboard-response","107","301218","0.0-10.0-0.47","A106","""event"",""trial"",""time""
""fullscreenenter"",""0"",""1995""
","
","
","""event"",""trial"",""time""
""fullscreenenter"",""0"",""1995""
","
","null","<div style=""font-size:60px;"">+</div>","","null","fixation","2021-04-03 20:47:40.322","","","","",""
"","mars-trial","108","302402","0.0-10.0-1.47","A106","""event"",""trial"",""time""
""fullscreenenter"",""0"",""1995""
","
","
","""event"",""trial"",""time""
""fullscreenenter"",""0"",""1995""
","
","571.3500000128988","<img style='border: 4px solid darkgrey;' src='img/tf1_48_M_ss2.jpeg'></img>","1","","exp","","0","<img src='img/tf1_48_T1_ss2_md.jpeg'></img>","0","true",""
"","html-keyboard-response","109","302906","0.0-10.0-0.48","A106","""event"",""trial"",""time""
""fullscreenenter"",""0"",""1995""
","
","
","""event"",""trial"",""time""
""fullscreenenter"",""0"",""1995""
","
","null","<div style=""font-size:60px;"">+</div>","","null","fixation","2021-04-03 20:47:42.010","","","","",""
"","mars-trial","110","303987","0.0-10.0-1.48","A106","""event"",""trial"",""time""
""fullscreenenter"",""0"",""1995""
","
","
","""event"",""trial"",""time""
""fullscreenenter"",""0"",""1995""
","
","474.8250000120606","<img style='border: 4px solid darkgrey;' src='img/tf1_49_M_ss3.jpeg'></img>","2","","exp","","2","<img src='img/tf1_49_T1_ss3_md.jpeg'></img>","0","false",""
"","html-keyboard-response","111","304492","0.0-10.0-0.49","A106","""event"",""trial"",""time""
""fullscreenenter"",""0"",""1995""
","
","
","""event"",""trial"",""time""
""fullscreenenter"",""0"",""1995""
","
","null","<div style=""font-size:60px;"">+</div>","","null","fixation","2021-04-03 20:47:43.596","","","","",""
"","mars-trial","112","305541","0.0-10.0-1.49","A106","""event"",""trial"",""time""
""fullscreenenter"",""0"",""1995""
","
","
","""event"",""trial"",""time""
""fullscreenenter"",""0"",""1995""
","
","441.9049999851268","<img style='border: 4px solid darkgrey;' src='img/tf1_50_M_ss1.jpeg'></img>","0","","exp","","2","<img src='img/tf1_50_T1_ss1_md.jpeg'></img>","0","false",""
"","html-keyboard-response","113","306043","0.0-10.0-0.50","A106","""event"",""trial"",""time""
""fullscreenenter"",""0"",""1995""
","
","
","""event"",""trial"",""time""
""fullscreenenter"",""0"",""1995""
","
","null","<div style=""font-size:60px;"">+</div>","","null","fixation","2021-04-03 20:47:45.147","","","","",""
"","mars-trial","114","309323","0.0-10.0-1.50","A106","""event"",""trial"",""time""
""fullscreenenter"",""0"",""1995""
","
","
","""event"",""trial"",""time""
""fullscreenenter"",""0"",""1995""
","
","2668.8450000074226","<img style='border: 4px solid darkgrey;' src='img/tf1_51_M_ss2.jpeg'></img>","1","","exp","","2","<img src='img/tf1_51_T1_ss2_md.jpeg'></img>","0","false",""
"","html-keyboard-response","115","309825","0.0-10.0-0.51","A106","""event"",""trial"",""time""
""fullscreenenter"",""0"",""1995""
","
","
","""event"",""trial"",""time""
""fullscreenenter"",""0"",""1995""
","
","null","<div style=""font-size:60px;"">+</div>","","null","fixation","2021-04-03 20:47:48.930","","","","",""
"","mars-trial","116","313007","0.0-10.0-1.51","A106","""event"",""trial"",""time""
""fullscreenenter"",""0"",""1995""
","
","
","""event"",""trial"",""time""
""fullscreenenter"",""0"",""1995""
","
","2573.245000006864","<img style='border: 4px solid darkgrey;' src='img/tf1_52_M_ss3.jpeg'></img>","0","","exp","","2","<img src='img/tf1_52_T1_ss3_md.jpeg'></img>","0","false",""
"","html-keyboard-response","117","313512","0.0-10.0-0.52","A106","""event"",""trial"",""time""
""fullscreenenter"",""0"",""1995""
","
","
","""event"",""trial"",""time""
""fullscreenenter"",""0"",""1995""
","
","null","<div style=""font-size:60px;"">+</div>","","null","fixation","2021-04-03 20:47:52.616","","","","",""
"","mars-trial","118","318437","0.0-10.0-1.52","A106","""event"",""trial"",""time""
""fullscreenenter"",""0"",""1995""
","
","
","""event"",""trial"",""time""
""fullscreenenter"",""0"",""1995""
","
","4314.089999999851","<img style='border: 4px solid darkgrey;' src='img/tf1_53_M_ss1.jpeg'></img>","1","","exp","","3","<img src='img/tf1_53_T1_ss1_md.jpeg'></img>","0","false",""
"","html-keyboard-response","119","318940","0.0-10.0-0.53","A106","""event"",""trial"",""time""
""fullscreenenter"",""0"",""1995""
","
","
","""event"",""trial"",""time""
""fullscreenenter"",""0"",""1995""
","
","null","<div style=""font-size:60px;"">+</div>","","null","fixation","2021-04-03 20:47:58.044","","","","",""
"","mars-trial","120","320569","0.0-10.0-1.53","A106","""event"",""trial"",""time""
""fullscreenenter"",""0"",""1995""
","
","
","""event"",""trial"",""time""
""fullscreenenter"",""0"",""1995""
","
","1016.5449999913108","<img style='border: 4px solid darkgrey;' src='img/tf1_54_M_ss2.jpeg'></img>","2","","exp","","3","<img src='img/tf1_54_T1_ss2_md.jpeg'></img>","0","false",""
"","html-keyboard-response","121","321071","0.0-10.0-0.54","A106","""event"",""trial"",""time""
""fullscreenenter"",""0"",""1995""
","
","
","""event"",""trial"",""time""
""fullscreenenter"",""0"",""1995""
","
","null","<div style=""font-size:60px;"">+</div>","","null","fixation","2021-04-03 20:48:00.175","","","","",""
"","mars-trial","122","322461","0.0-10.0-1.54","A106","""event"",""trial"",""time""
""fullscreenenter"",""0"",""1995""
","
","
","""event"",""trial"",""time""
""fullscreenenter"",""0"",""1995""
","
","783.3700000192039","<img style='border: 4px solid darkgrey;' src='img/tf1_55_M_ss3.jpeg'></img>","0","","exp","","1","<img src='img/tf1_55_T1_ss3_md.jpeg'></img>","0","false",""
"","html-keyboard-response","123","322964","0.0-10.0-0.55","A106","""event"",""trial"",""time""
""fullscreenenter"",""0"",""1995""
","
","
","""event"",""trial"",""time""
""fullscreenenter"",""0"",""1995""
","
","null","<div style=""font-size:60px;"">+</div>","","null","fixation","2021-04-03 20:48:02.068","","","","",""
"","mars-trial","124","331107","0.0-10.0-1.55","A106","""event"",""trial"",""time""
""fullscreenenter"",""0"",""1995""
","
","
","""event"",""trial"",""time""
""fullscreenenter"",""0"",""1995""
","
","7537.2950000164565","<img style='border: 4px solid darkgrey;' src='img/tf1_56_M_ss1.jpeg'></img>","3","","exp","","0","<img src='img/tf1_56_T1_ss1_md.jpeg'></img>","0","true",""
"","html-keyboard-response","125","331612","0.0-10.0-0.56","A106","""event"",""trial"",""time""
""fullscreenenter"",""0"",""1995""
","
","
","""event"",""trial"",""time""
""fullscreenenter"",""0"",""1995""
","
","null","<div style=""font-size:60px;"">+</div>","","null","fixation","2021-04-03 20:48:10.716","","","","",""
"","mars-trial","126","336068","0.0-10.0-1.56","A106","""event"",""trial"",""time""
""fullscreenenter"",""0"",""1995""
","
","
","""event"",""trial"",""time""
""fullscreenenter"",""0"",""1995""
","
","3848.5749999817926","<img style='border: 4px solid darkgrey;' src='img/tf1_57_M_ss2.jpeg'></img>","1","","exp","","3","<img src='img/tf1_57_T1_ss2_md.jpeg'></img>","0","false",""
"","html-keyboard-response","127","336571","0.0-10.0-0.57","A106","""event"",""trial"",""time""
""fullscreenenter"",""0"",""1995""
","
","
","""event"",""trial"",""time""
""fullscreenenter"",""0"",""1995""
","
","null","<div style=""font-size:60px;"">+</div>","","null","fixation","2021-04-03 20:48:15.675","","","","",""
"","mars-trial","128","346316","0.0-10.0-1.57","A106","""event"",""trial"",""time""
""fullscreenenter"",""0"",""1995""
","
","
","""event"",""trial"",""time""
""fullscreenenter"",""0"",""1995""
","
","9136.310000001686","<img style='border: 4px solid darkgrey;' src='img/tf1_58_M_ss3.jpeg'></img>","0","","exp","","0","<img src='img/tf1_58_T1_ss3_md.jpeg'></img>","0","true",""
"","html-keyboard-response","129","346819","0.0-10.0-0.58","A106","""event"",""trial"",""time""
""fullscreenenter"",""0"",""1995""
","
","
","""event"",""trial"",""time""
""fullscreenenter"",""0"",""1995""
","
","null","<div style=""font-size:60px;"">+</div>","","null","fixation","2021-04-03 20:48:25.923","","","","",""
"","mars-trial","130","352030","0.0-10.0-1.58","A106","""event"",""trial"",""time""
""fullscreenenter"",""0"",""1995""
","
","
","""event"",""trial"",""time""
""fullscreenenter"",""0"",""1995""
","
","4602.54999998142","<img style='border: 4px solid darkgrey;' src='img/tf1_59_M_ss1.jpeg'></img>","2","","exp","","0","<img src='img/tf1_59_T1_ss1_md.jpeg'></img>","0","true",""
"","html-keyboard-response","131","352537","0.0-10.0-0.59","A106","""event"",""trial"",""time""
""fullscreenenter"",""0"",""1995""
","
","
","""event"",""trial"",""time""
""fullscreenenter"",""0"",""1995""
","
","null","<div style=""font-size:60px;"">+</div>","","null","fixation","2021-04-03 20:48:31.641","","","","",""
"","mars-trial","132","356687","0.0-10.0-1.59","A106","""event"",""trial"",""time""
""fullscreenenter"",""0"",""1995""
","
","
","""event"",""trial"",""time""
""fullscreenenter"",""0"",""1995""
","
","3542.524999997113","<img style='border: 4px solid darkgrey;' src='img/tf1_60_M_ss2.jpeg'></img>","1","","exp","","3","<img src='img/tf1_60_T1_ss2_md.jpeg'></img>","0","false",""
"","html-keyboard-response","133","357190","0.0-10.0-0.60","A106","""event"",""trial"",""time""
""fullscreenenter"",""0"",""1995""
","
","
","""event"",""trial"",""time""
""fullscreenenter"",""0"",""1995""
","
","null","<div style=""font-size:60px;"">+</div>","","null","fixation","2021-04-03 20:48:36.294","","","","",""
"","mars-trial","134","358292","0.0-10.0-1.60","A106","""event"",""trial"",""time""
""fullscreenenter"",""0"",""1995""
","
","
","""event"",""trial"",""time""
""fullscreenenter"",""0"",""1995""
","
","489.62499998742715","<img style='border: 4px solid darkgrey;' src='img/tf1_61_M_ss3.jpeg'></img>","2","","exp","","2","<img src='img/tf1_61_T1_ss3_md.jpeg'></img>","0","false",""
"","html-keyboard-response","135","358795","0.0-10.0-0.61","A106","""event"",""trial"",""time""
""fullscreenenter"",""0"",""1995""
","
","
","""event"",""trial"",""time""
""fullscreenenter"",""0"",""1995""
","
","null","<div style=""font-size:60px;"">+</div>","","null","fixation","2021-04-03 20:48:37.899","","","","",""
"","mars-trial","136","359878","0.0-10.0-1.61","A106","""event"",""trial"",""time""
""fullscreenenter"",""0"",""1995""
","
","
","""event"",""trial"",""time""
""fullscreenenter"",""0"",""1995""
","
","472.98000002047047","<img style='border: 4px solid darkgrey;' src='img/tf1_62_M_ss1.jpeg'></img>","3","","exp","","2","<img src='img/tf1_62_T1_ss1_md.jpeg'></img>","0","false",""
"","html-keyboard-response","137","360380","0.0-10.0-0.62","A106","""event"",""trial"",""time""
""fullscreenenter"",""0"",""1995""
","
","
","""event"",""trial"",""time""
""fullscreenenter"",""0"",""1995""
","
","null","<div style=""font-size:60px;"">+</div>","","null","fixation","2021-04-03 20:48:39.485","","","","",""
"","mars-trial","138","361502","0.0-10.0-1.62","A106","""event"",""trial"",""time""
""fullscreenenter"",""0"",""1995""
","
","
","""event"",""trial"",""time""
""fullscreenenter"",""0"",""1995""
","
","512.9549999837764","<img style='border: 4px solid darkgrey;' src='img/tf1_63_M_ss2.jpeg'></img>","1","","exp","","1","<img src='img/tf1_63_T1_ss2_md.jpeg'></img>","0","false",""
"","html-keyboard-response","139","362007","0.0-10.0-0.63","A106","""event"",""trial"",""time""
""fullscreenenter"",""0"",""1995""
","
","
","""event"",""trial"",""time""
""fullscreenenter"",""0"",""1995""
","
","null","<div style=""font-size:60px;"">+</div>","","null","fixation","2021-04-03 20:48:41.111","","","","",""
"","mars-trial","140","363221","0.0-10.0-1.63","A106","""event"",""trial"",""time""
""fullscreenenter"",""0"",""1995""
","
","
","""event"",""trial"",""time""
""fullscreenenter"",""0"",""1995""
","
","606.2649999803398","<img style='border: 4px solid darkgrey;' src='img/tf1_64_M_ss3.jpeg'></img>","2","","exp","","3","<img src='img/tf1_64_T1_ss3_md.jpeg'></img>","0","false",""
"","html-keyboard-response","141","363725","0.0-10.0-0.64","A106","""event"",""trial"",""time""
""fullscreenenter"",""0"",""1995""
","
","
","""event"",""trial"",""time""
""fullscreenenter"",""0"",""1995""
","
","null","<div style=""font-size:60px;"">+</div>","","null","fixation","2021-04-03 20:48:42.830","","","","",""
"","mars-trial","142","364997","0.0-10.0-1.64","A106","""event"",""trial"",""time""
""fullscreenenter"",""0"",""1995""
","
","
","""event"",""trial"",""time""
""fullscreenenter"",""0"",""1995""
","
","657.5599999923725","<img style='border: 4px solid darkgrey;' src='img/tf1_65_M_ss1.jpeg'></img>","3","","exp","","2","<img src='img/tf1_65_T1_ss1_md.jpeg'></img>","0","false",""
"","html-keyboard-response","143","365500","0.0-10.0-0.65","A106","""event"",""trial"",""time""
""fullscreenenter"",""0"",""1995""
","
","
","""event"",""trial"",""time""
""fullscreenenter"",""0"",""1995""
","
","null","<div style=""font-size:60px;"">+</div>","","null","fixation","2021-04-03 20:48:44.604","","","","",""
"","mars-trial","144","366629","0.0-10.0-1.65","A106","""event"",""trial"",""time""
""fullscreenenter"",""0"",""1995""
","
","
","""event"",""trial"",""time""
""fullscreenenter"",""0"",""1995""
","
","523.5950000060257","<img style='border: 4px solid darkgrey;' src='img/tf1_66_M_ss2.jpeg'></img>","0","","exp","","2","<img src='img/tf1_66_T1_ss2_md.jpeg'></img>","0","false",""
"","html-keyboard-response","145","367131","0.0-10.0-0.66","A106","""event"",""trial"",""time""
""fullscreenenter"",""0"",""1995""
","
","
","""event"",""trial"",""time""
""fullscreenenter"",""0"",""1995""
","
","null","<div style=""font-size:60px;"">+</div>","","null","fixation","2021-04-03 20:48:46.235","","","","",""
"","mars-trial","146","371689","0.0-10.0-1.66","A106","""event"",""trial"",""time""
""fullscreenenter"",""0"",""1995""
","
","
","""event"",""trial"",""time""
""fullscreenenter"",""0"",""1995""
","
","3953.0200000153854","<img style='border: 4px solid darkgrey;' src='img/tf1_67_M_ss3.jpeg'></img>","3","","exp","","3","<img src='img/tf1_67_T1_ss3_md.jpeg'></img>","0","false",""
"","html-keyboard-response","147","372191","0.0-10.0-0.67","A106","""event"",""trial"",""time""
""fullscreenenter"",""0"",""1995""
","
","
","""event"",""trial"",""time""
""fullscreenenter"",""0"",""1995""
","
","null","<div style=""font-size:60px;"">+</div>","","null","fixation","2021-04-03 20:48:51.295","","","","",""
"","mars-trial","148","374729","0.0-10.0-1.67","A106","""event"",""trial"",""time""
""fullscreenenter"",""0"",""1995""
","
","
","""event"",""trial"",""time""
""fullscreenenter"",""0"",""1995""
","
","1930.8249999885447","<img style='border: 4px solid darkgrey;' src='img/tf1_68_M_ss1.jpeg'></img>","1","","exp","","0","<img src='img/tf1_68_T1_ss1_md.jpeg'></img>","0","true",""
"","html-keyboard-response","149","375231","0.0-10.0-0.68","A106","""event"",""trial"",""time""
""fullscreenenter"",""0"",""1995""
","
","
","""event"",""trial"",""time""
""fullscreenenter"",""0"",""1995""
","
","null","<div style=""font-size:60px;"">+</div>","","null","fixation","2021-04-03 20:48:54.335","","","","",""
"","mars-trial","150","379070","0.0-10.0-1.68","A106","""event"",""trial"",""time""
""fullscreenenter"",""0"",""1995""
","
","
","""event"",""trial"",""time""
""fullscreenenter"",""0"",""1995""
","
","3228.705000015907","<img style='border: 4px solid darkgrey;' src='img/tf1_69_M_ss2.jpeg'></img>","2","","exp","","1","<img src='img/tf1_69_T1_ss2_md.jpeg'></img>","0","false",""
"","html-keyboard-response","151","379578","0.0-10.0-0.69","A106","""event"",""trial"",""time""
""fullscreenenter"",""0"",""1995""
","
","
","""event"",""trial"",""time""
""fullscreenenter"",""0"",""1995""
","
","null","<div style=""font-size:60px;"">+</div>","","null","fixation","2021-04-03 20:48:58.682","","","","",""
"","mars-trial","152","385236","0.0-10.0-1.69","A106","""event"",""trial"",""time""
""fullscreenenter"",""0"",""1995""
","
","
","""event"",""trial"",""time""
""fullscreenenter"",""0"",""1995""
","
","5044.180000026245","<img style='border: 4px solid darkgrey;' src='img/tf1_70_M_ss3.jpeg'></img>","3","","exp","","0","<img src='img/tf1_70_T1_ss3_md.jpeg'></img>","0","true",""
"","html-keyboard-response","153","385741","0.0-10.0-0.70","A106","""event"",""trial"",""time""
""fullscreenenter"",""0"",""1995""
","
","
","""event"",""trial"",""time""
""fullscreenenter"",""0"",""1995""
","
","null","<div style=""font-size:60px;"">+</div>","","null","fixation","2021-04-03 20:49:04.845","","","","",""
"","mars-trial","154","390324","0.0-10.0-1.70","A106","""event"",""trial"",""time""
""fullscreenenter"",""0"",""1995""
","
","
","""event"",""trial"",""time""
""fullscreenenter"",""0"",""1995""
","
","3973.505000001751","<img style='border: 4px solid darkgrey;' src='img/tf1_71_M_ss1.jpeg'></img>","3","","exp","","0","<img src='img/tf1_71_T1_ss1_md.jpeg'></img>","0","true",""
"","html-keyboard-response","155","390831","0.0-10.0-0.71","A106","""event"",""trial"",""time""
""fullscreenenter"",""0"",""1995""
","
","
","""event"",""trial"",""time""
""fullscreenenter"",""0"",""1995""
","
","null","<div style=""font-size:60px;"">+</div>","","null","fixation","2021-04-03 20:49:09.935","","","","",""
"","mars-trial","156","395256","0.0-10.0-1.71","A106","""event"",""trial"",""time""
""fullscreenenter"",""0"",""1995""
","
","
","""event"",""trial"",""time""
""fullscreenenter"",""0"",""1995""
","
","3812.260000006063","<img style='border: 4px solid darkgrey;' src='img/tf1_72_M_ss2.jpeg'></img>","0","","exp","","1","<img src='img/tf1_72_T1_ss2_md.jpeg'></img>","0","false",""
"","html-keyboard-response","157","395762","0.0-10.0-0.72","A106","""event"",""trial"",""time""
""fullscreenenter"",""0"",""1995""
","
","
","""event"",""trial"",""time""
""fullscreenenter"",""0"",""1995""
","
","null","<div style=""font-size:60px;"">+</div>","","null","fixation","2021-04-03 20:49:14.866","","","","",""
"","mars-trial","158","400770","0.0-10.0-1.72","A106","""event"",""trial"",""time""
""fullscreenenter"",""0"",""1995""
","
","
","""event"",""trial"",""time""
""fullscreenenter"",""0"",""1995""
","
","4400.224999990314","<img style='border: 4px solid darkgrey;' src='img/tf1_73_M_ss3.jpeg'></img>","2","","exp","","0","<img src='img/tf1_73_T1_ss3_md.jpeg'></img>","0","true",""
"","html-keyboard-response","159","401272","0.0-10.0-0.73","A106","""event"",""trial"",""time""
""fullscreenenter"",""0"",""1995""
","
","
","""event"",""trial"",""time""
""fullscreenenter"",""0"",""1995""
","
","null","<div style=""font-size:60px;"">+</div>","","null","fixation","2021-04-03 20:49:20.376","","","","",""
"","mars-trial","160","407412","0.0-10.0-1.73","A106","""event"",""trial"",""time""
""fullscreenenter"",""0"",""1995""
","
","
","""event"",""trial"",""time""
""fullscreenenter"",""0"",""1995""
","
","5534.034999989672","<img style='border: 4px solid darkgrey;' src='img/tf1_74_M_ss1.jpeg'></img>","1","","exp","","1","<img src='img/tf1_74_T1_ss1_md.jpeg'></img>","0","false",""
"","html-keyboard-response","161","407916","0.0-10.0-0.74","A106","""event"",""trial"",""time""
""fullscreenenter"",""0"",""1995""
","
","
","""event"",""trial"",""time""
""fullscreenenter"",""0"",""1995""
","
","null","<div style=""font-size:60px;"">+</div>","","null","fixation","2021-04-03 20:49:27.020","","","","",""
"","mars-trial","162","413005","0.0-10.0-1.74","A106","""event"",""trial"",""time""
""fullscreenenter"",""0"",""1995""
","
","
","""event"",""trial"",""time""
""fullscreenenter"",""0"",""1995""
","
","4480.315000022529","<img style='border: 4px solid darkgrey;' src='img/tf1_75_M_ss2.jpeg'></img>","0","","exp","","2","<img src='img/tf1_75_T1_ss2_md.jpeg'></img>","0","false",""
"","html-keyboard-response","163","413508","0.0-10.0-0.75","A106","""event"",""trial"",""time""
""fullscreenenter"",""0"",""1995""
","
","
","""event"",""trial"",""time""
""fullscreenenter"",""0"",""1995""
","
","null","<div style=""font-size:60px;"">+</div>","","null","fixation","2021-04-03 20:49:32.612","","","","",""
"","mars-trial","164","419091","0.0-10.0-1.75","A106","""event"",""trial"",""time""
""fullscreenenter"",""0"",""1995""
","
","
","""event"",""trial"",""time""
""fullscreenenter"",""0"",""1995""
","
","4969.395000021905","<img style='border: 4px solid darkgrey;' src='img/tf1_76_M_ss3.jpeg'></img>","2","","exp","","2","<img src='img/tf1_76_T1_ss3_md.jpeg'></img>","0","false",""
"","html-keyboard-response","165","419593","0.0-10.0-0.76","A106","""event"",""trial"",""time""
""fullscreenenter"",""0"",""1995""
","
","
","""event"",""trial"",""time""
""fullscreenenter"",""0"",""1995""
","
","null","<div style=""font-size:60px;"">+</div>","","null","fixation","2021-04-03 20:49:38.697","","","","",""
"","mars-trial","166","428652","0.0-10.0-1.76","A106","""event"",""trial"",""time""
""fullscreenenter"",""0"",""1995""
","
","
","""event"",""trial"",""time""
""fullscreenenter"",""0"",""1995""
","
","8448.355000000447","<img style='border: 4px solid darkgrey;' src='img/tf1_77_M_ss1.jpeg'></img>","3","","exp","","0","<img src='img/tf1_77_T1_ss1_md.jpeg'></img>","0","true",""
"","html-keyboard-response","167","429155","0.0-10.0-0.77","A106","""event"",""trial"",""time""
""fullscreenenter"",""0"",""1995""
","
","
","""event"",""trial"",""time""
""fullscreenenter"",""0"",""1995""
","
","null","<div style=""font-size:60px;"">+</div>","","null","fixation","2021-04-03 20:49:48.259","","","","",""
"","mars-trial","168","433370","0.0-10.0-1.77","A106","""event"",""trial"",""time""
""fullscreenenter"",""0"",""1995""
","
","
","""event"",""trial"",""time""
""fullscreenenter"",""0"",""1995""
","
","3606.1350000090897","<img style='border: 4px solid darkgrey;' src='img/tf1_78_M_ss2.jpeg'></img>","3","","exp","","2","<img src='img/tf1_78_T1_ss2_md.jpeg'></img>","0","false",""
"","html-keyboard-response","169","433872","0.0-10.0-0.78","A106","""event"",""trial"",""time""
""fullscreenenter"",""0"",""1995""
","
","
","""event"",""trial"",""time""
""fullscreenenter"",""0"",""1995""
","
","null","<div style=""font-size:60px;"">+</div>","","null","fixation","2021-04-03 20:49:52.977","","","","",""
"","mars-trial","170","435448","0.0-10.0-1.78","A106","""event"",""trial"",""time""
""fullscreenenter"",""0"",""1995""
","
","
","""event"",""trial"",""time""
""fullscreenenter"",""0"",""1995""
","
","966.4700000139419","<img style='border: 4px solid darkgrey;' src='img/tf1_79_M_ss3.jpeg'></img>","1","","exp","","2","<img src='img/tf1_79_T1_ss3_md.jpeg'></img>","0","false",""
"","html-keyboard-response","171","435949","0.0-10.0-0.79","A106","""event"",""trial"",""time""
""fullscreenenter"",""0"",""1995""
","
","
","""event"",""trial"",""time""
""fullscreenenter"",""0"",""1995""
","
","null","<div style=""font-size:60px;"">+</div>","","null","fixation","2021-04-03 20:49:55.053","","","","",""
"","mars-trial","172","437088","0.0-10.0-1.79","A106","""event"",""trial"",""time""
""fullscreenenter"",""0"",""1995""
","
","
","""event"",""trial"",""time""
""fullscreenenter"",""0"",""1995""
","
","529.2099999787752","<img style='border: 4px solid darkgrey;' src='img/tf1_80_M_ss1.jpeg'></img>","2","","exp","","0","<img src='img/tf1_80_T1_ss1_md.jpeg'></img>","0","true",""
"","audio-button-response","173","439813","0.0-11.0","A106","""event"",""trial"",""time""
""fullscreenenter"",""0"",""1995""
","
","
","""event"",""trial"",""time""
""fullscreenenter"",""0"",""1995""
","
","2722.185000020545","audio/mars_instructions_slide5.wav","0","","","","","","","",""
