"success","trial_type","trial_index","time_elapsed","internal_node_id","subject_id","interactions","blur_events","focus_events","fullscreenenter_events","fullscreenexit_events","rt","stimulus","button_pressed","key_press","part","timestamp","unshuffled_button","correct_response","correct_button","correct","value"
"true","fullscreen","0","5946","0.0-0.0","782","""event"",""trial"",""time""
""fullscreenenter"",""0"",""4948""
","
","
","""event"",""trial"",""time""
""fullscreenenter"",""0"",""4948""
","
","","","","","","","","","","",""
"","pavlovia","1","5958","0.0-1.0","782","""event"",""trial"",""time""
""fullscreenenter"",""0"",""4948""
","
","
","""event"",""trial"",""time""
""fullscreenenter"",""0"",""4948""
","
","","","","","","","","","","",""
"","html-button-response","2","9816","0.0-2.0","782","""event"",""trial"",""time""
""fullscreenenter"",""0"",""4948""
","
","
","""event"",""trial"",""time""
""fullscreenenter"",""0"",""4948""
","
","3856.8150000064634","<p>Welcome! Press START to begin.</p><br>","0","","","","","","","",""
"","audio-button-response","3","23385","0.0-3.0","782","""event"",""trial"",""time""
""fullscreenenter"",""0"",""4948""
","
","
","""event"",""trial"",""time""
""fullscreenenter"",""0"",""4948""
","
","13566.935000009835","audio/mars_instructions_slide2.wav","0","","","","","","","",""
"","audio-button-response","4","30105","0.0-4.0","782","""event"",""trial"",""time""
""fullscreenenter"",""0"",""4948""
","
","
","""event"",""trial"",""time""
""fullscreenenter"",""0"",""4948""
","
","6718.795000051614","audio/mars_instructions_slide3.wav","0","","","","","","","",""
"","html-keyboard-response","5","30608","0.0-5.0-0.0","782","""event"",""trial"",""time""
""fullscreenenter"",""0"",""4948""
","
","
","""event"",""trial"",""time""
""fullscreenenter"",""0"",""4948""
","
","null","<div style=""font-size:60px;"">+</div>","","null","fixation","2021-04-21 00:40:41.087","","","","",""
"","mars-trial","6","38717","0.0-5.0-1.0","782","""event"",""trial"",""time""
""fullscreenenter"",""0"",""4948""
","
","
","""event"",""trial"",""time""
""fullscreenenter"",""0"",""4948""
","
","6000.639999983832","<img style='border: 4px solid darkgrey;' src='practice/pt1_M1.png'></img>","2","","practice","","0","<img src='practice/pt1_T1.png'></img>","0","true",""
"","html-keyboard-response","7","39225","0.0-6.0-0.0","782","""event"",""trial"",""time""
""fullscreenenter"",""0"",""4948""
","
","
","""event"",""trial"",""time""
""fullscreenenter"",""0"",""4948""
","
","null","<div style=""font-size:60px;"">+</div>","","null","fixation","2021-04-21 00:40:49.705","","","","",""
"","mars-trial","8","43885","0.0-6.0-1.0","782","""event"",""trial"",""time""
""fullscreenenter"",""0"",""4948""
","
","
","""event"",""trial"",""time""
""fullscreenenter"",""0"",""4948""
","
","2544.5399999734946","<img style='border: 4px solid darkgrey;' src='practice/pt2_M1.png'></img>","2","","practice","","0","<img src='practice/pt2_T1.png'></img>","0","true",""
"","html-keyboard-response","9","44399","0.0-7.0-0.0","782","""event"",""trial"",""time""
""fullscreenenter"",""0"",""4948""
","
","
","""event"",""trial"",""time""
""fullscreenenter"",""0"",""4948""
","
","null","<div style=""font-size:60px;"">+</div>","","null","fixation","2021-04-21 00:40:54.878","","","","",""
"","mars-trial","10","48299","0.0-7.0-1.0","782","""event"",""trial"",""time""
""fullscreenenter"",""0"",""4948""
","
","
","""event"",""trial"",""time""
""fullscreenenter"",""0"",""4948""
","
","1786.7700000060722","<img style='border: 4px solid darkgrey;' src='practice/pt3_M1.png'></img>","1","","practice","","0","<img src='practice/pt3_T1.png'></img>","0","true",""
"","audio-button-response","11","61985","0.0-8.0","782","""event"",""trial"",""time""
""fullscreenenter"",""0"",""4948""
","
","
","""event"",""trial"",""time""
""fullscreenenter"",""0"",""4948""
","
","13683.949999976903","audio/mars_instructions_slide4.wav","0","","","","","","","",""
"","call-function","12","61987","0.0-9.0","782","""event"",""trial"",""time""
""fullscreenenter"",""0"",""4948""
","
","
","""event"",""trial"",""time""
""fullscreenenter"",""0"",""4948""
","
","","","","","","","","","","",""
"","html-keyboard-response","13","62488","0.0-10.0-0.0","782","""event"",""trial"",""time""
""fullscreenenter"",""0"",""4948""
","
","
","""event"",""trial"",""time""
""fullscreenenter"",""0"",""4948""
","
","null","<div style=""font-size:60px;"">+</div>","","null","fixation","2021-04-21 00:41:12.967","","","","",""
"","mars-trial","14","77135","0.0-10.0-1.0","782","""event"",""trial"",""time""
""fullscreenenter"",""0"",""4948""
","
","
","""event"",""trial"",""time""
""fullscreenenter"",""0"",""4948""
","
","14032.334999996237","<img style='border: 4px solid darkgrey;' src='img/tf1_1_M_ss3.jpeg'></img>","2","","exp","","0","<img src='img/tf1_1_T1_ss3_md.jpeg'></img>","0","true",""
"","html-keyboard-response","15","77637","0.0-10.0-0.1","782","""event"",""trial"",""time""
""fullscreenenter"",""0"",""4948""
","
","
","""event"",""trial"",""time""
""fullscreenenter"",""0"",""4948""
","
","null","<div style=""font-size:60px;"">+</div>","","null","fixation","2021-04-21 00:41:28.116","","","","",""
"","mars-trial","16","83592","0.0-10.0-1.1","782","""event"",""trial"",""time""
""fullscreenenter"",""0"",""4948""
","
","
","""event"",""trial"",""time""
""fullscreenenter"",""0"",""4948""
","
","5349.965000001248","<img style='border: 4px solid darkgrey;' src='img/tf1_2_M_ss1.jpeg'></img>","0","","exp","","0","<img src='img/tf1_2_T1_ss1_md.jpeg'></img>","0","true",""
"","html-keyboard-response","17","84096","0.0-10.0-0.2","782","""event"",""trial"",""time""
""fullscreenenter"",""0"",""4948""
","
","
","""event"",""trial"",""time""
""fullscreenenter"",""0"",""4948""
","
","null","<div style=""font-size:60px;"">+</div>","","null","fixation","2021-04-21 00:41:34.575","","","","",""
"","mars-trial","18","86887","0.0-10.0-1.2","782","""event"",""trial"",""time""
""fullscreenenter"",""0"",""4948""
","
","
","""event"",""trial"",""time""
""fullscreenenter"",""0"",""4948""
","
","2185.1199999800883","<img style='border: 4px solid darkgrey;' src='img/tf1_3_M_ss2.jpeg'></img>","2","","exp","","0","<img src='img/tf1_3_T1_ss2_md.jpeg'></img>","0","true",""
"","html-keyboard-response","19","87390","0.0-10.0-0.3","782","""event"",""trial"",""time""
""fullscreenenter"",""0"",""4948""
","
","
","""event"",""trial"",""time""
""fullscreenenter"",""0"",""4948""
","
","null","<div style=""font-size:60px;"">+</div>","","null","fixation","2021-04-21 00:41:37.870","","","","",""
"","mars-trial","20","92751","0.0-10.0-1.3","782","""event"",""trial"",""time""
""fullscreenenter"",""0"",""4948""
","
","
","""event"",""trial"",""time""
""fullscreenenter"",""0"",""4948""
","
","4756.60500000231","<img style='border: 4px solid darkgrey;' src='img/tf1_4_M_ss3.jpeg'></img>","2","","exp","","0","<img src='img/tf1_4_T1_ss3_md.jpeg'></img>","0","true",""
"","html-keyboard-response","21","93252","0.0-10.0-0.4","782","""event"",""trial"",""time""
""fullscreenenter"",""0"",""4948""
","
","
","""event"",""trial"",""time""
""fullscreenenter"",""0"",""4948""
","
","null","<div style=""font-size:60px;"">+</div>","","null","fixation","2021-04-21 00:41:43.731","","","","",""
"","mars-trial","22","95463","0.0-10.0-1.4","782","""event"",""trial"",""time""
""fullscreenenter"",""0"",""4948""
","
","
","""event"",""trial"",""time""
""fullscreenenter"",""0"",""4948""
","
","1603.9200000232086","<img style='border: 4px solid darkgrey;' src='img/tf1_5_M_ss1.jpeg'></img>","2","","exp","","0","<img src='img/tf1_5_T1_ss1_md.jpeg'></img>","0","true",""
"","html-keyboard-response","23","95967","0.0-10.0-0.5","782","""event"",""trial"",""time""
""fullscreenenter"",""0"",""4948""
","
","
","""event"",""trial"",""time""
""fullscreenenter"",""0"",""4948""
","
","null","<div style=""font-size:60px;"">+</div>","","null","fixation","2021-04-21 00:41:46.446","","","","",""
"","mars-trial","24","106647","0.0-10.0-1.5","782","""event"",""trial"",""time""
""fullscreenenter"",""0"",""4948""
","
","
","""event"",""trial"",""time""
""fullscreenenter"",""0"",""4948""
","
","10075.555000046734","<img style='border: 4px solid darkgrey;' src='img/tf1_6_M_ss2.jpeg'></img>","0","","exp","","3","<img src='img/tf1_6_T1_ss2_md.jpeg'></img>","0","false",""
"","html-keyboard-response","25","107148","0.0-10.0-0.6","782","""event"",""trial"",""time""
""fullscreenenter"",""0"",""4948""
","
","
","""event"",""trial"",""time""
""fullscreenenter"",""0"",""4948""
","
","null","<div style=""font-size:60px;"">+</div>","","null","fixation","2021-04-21 00:41:57.627","","","","",""
"","mars-trial","26","114537","0.0-10.0-1.6","782","""event"",""trial"",""time""
""fullscreenenter"",""0"",""4948""
","
","
","""event"",""trial"",""time""
""fullscreenenter"",""0"",""4948""
","
","6781.279999995604","<img style='border: 4px solid darkgrey;' src='img/tf1_7_M_ss3.jpeg'></img>","0","","exp","","0","<img src='img/tf1_7_T1_ss3_md.jpeg'></img>","0","true",""
"","html-keyboard-response","27","115039","0.0-10.0-0.7","782","""event"",""trial"",""time""
""fullscreenenter"",""0"",""4948""
","
","
","""event"",""trial"",""time""
""fullscreenenter"",""0"",""4948""
","
","null","<div style=""font-size:60px;"">+</div>","","null","fixation","2021-04-21 00:42:05.518","","","","",""
"","mars-trial","28","123824","0.0-10.0-1.7","782","""event"",""trial"",""time""
""fullscreenenter"",""0"",""4948""
","
","
","""event"",""trial"",""time""
""fullscreenenter"",""0"",""4948""
","
","8177.949999982957","<img style='border: 4px solid darkgrey;' src='img/tf1_8_M_ss1.jpeg'></img>","0","","exp","","0","<img src='img/tf1_8_T1_ss1_md.jpeg'></img>","0","true",""
"","html-keyboard-response","29","124326","0.0-10.0-0.8","782","""event"",""trial"",""time""
""fullscreenenter"",""0"",""4948""
","
","
","""event"",""trial"",""time""
""fullscreenenter"",""0"",""4948""
","
","null","<div style=""font-size:60px;"">+</div>","","null","fixation","2021-04-21 00:42:14.805","","","","",""
"","mars-trial","30","135783","0.0-10.0-1.8","782","""event"",""trial"",""time""
""fullscreenenter"",""0"",""4948""
","
","
","""event"",""trial"",""time""
""fullscreenenter"",""0"",""4948""
","
","10849.829999962822","<img style='border: 4px solid darkgrey;' src='img/tf1_9_M_ss2.jpeg'></img>","1","","exp","","0","<img src='img/tf1_9_T1_ss2_md.jpeg'></img>","0","true",""
"","html-keyboard-response","31","136286","0.0-10.0-0.9","782","""event"",""trial"",""time""
""fullscreenenter"",""0"",""4948""
","
","
","""event"",""trial"",""time""
""fullscreenenter"",""0"",""4948""
","
","null","<div style=""font-size:60px;"">+</div>","","null","fixation","2021-04-21 00:42:26.765","","","","",""
"","mars-trial","32","155488","0.0-10.0-1.9","782","""event"",""trial"",""time""
""fullscreenenter"",""0"",""4948""
","
","
","""event"",""trial"",""time""
""fullscreenenter"",""0"",""4948""
","
","18594.41499999957","<img style='border: 4px solid darkgrey;' src='img/tf1_10_M_ss3.jpeg'></img>","3","","exp","","1","<img src='img/tf1_10_T1_ss3_md.jpeg'></img>","0","false",""
"","html-keyboard-response","33","155990","0.0-10.0-0.10","782","""event"",""trial"",""time""
""fullscreenenter"",""0"",""4948""
","
","
","""event"",""trial"",""time""
""fullscreenenter"",""0"",""4948""
","
","null","<div style=""font-size:60px;"">+</div>","","null","fixation","2021-04-21 00:42:46.469","","","","",""
"","mars-trial","34","168152","0.0-10.0-1.10","782","""event"",""trial"",""time""
""fullscreenenter"",""0"",""4948""
","
","
","""event"",""trial"",""time""
""fullscreenenter"",""0"",""4948""
","
","11556.754999968689","<img style='border: 4px solid darkgrey;' src='img/tf1_11_M_ss1.jpeg'></img>","1","","exp","","1","<img src='img/tf1_11_T1_ss1_md.jpeg'></img>","0","false",""
"","html-keyboard-response","35","168653","0.0-10.0-0.11","782","""event"",""trial"",""time""
""fullscreenenter"",""0"",""4948""
","
","
","""event"",""trial"",""time""
""fullscreenenter"",""0"",""4948""
","
","null","<div style=""font-size:60px;"">+</div>","","null","fixation","2021-04-21 00:42:59.132","","","","",""
"","mars-trial","36","193096","0.0-10.0-1.11","782","""event"",""trial"",""time""
""fullscreenenter"",""0"",""4948""
","
","
","""event"",""trial"",""time""
""fullscreenenter"",""0"",""4948""
","
","23834.915000014007","<img style='border: 4px solid darkgrey;' src='img/tf1_12_M_ss2.jpeg'></img>","0","","exp","","3","<img src='img/tf1_12_T1_ss2_md.jpeg'></img>","0","false",""
"","html-keyboard-response","37","193599","0.0-10.0-0.12","782","""event"",""trial"",""time""
""fullscreenenter"",""0"",""4948""
","
","
","""event"",""trial"",""time""
""fullscreenenter"",""0"",""4948""
","
","null","<div style=""font-size:60px;"">+</div>","","null","fixation","2021-04-21 00:43:24.078","","","","",""
"","mars-trial","38","209807","0.0-10.0-1.12","782","""event"",""trial"",""time""
""fullscreenenter"",""0"",""4948""
","
","
","""event"",""trial"",""time""
""fullscreenenter"",""0"",""4948""
","
","15602.305000007618","<img style='border: 4px solid darkgrey;' src='img/tf1_13_M_ss3.jpeg'></img>","2","","exp","","2","<img src='img/tf1_13_T1_ss3_md.jpeg'></img>","0","false",""
"","html-keyboard-response","39","210310","0.0-10.0-0.13","782","""event"",""trial"",""time""
""fullscreenenter"",""0"",""4948""
","
","
","""event"",""trial"",""time""
""fullscreenenter"",""0"",""4948""
","
","null","<div style=""font-size:60px;"">+</div>","","null","fixation","2021-04-21 00:43:40.789","","","","",""
"","mars-trial","40","234383","0.0-10.0-1.13","782","""event"",""trial"",""time""
""fullscreenenter"",""0"",""4948""
","
","
","""event"",""trial"",""time""
""fullscreenenter"",""0"",""4948""
","
","23466.904999979306","<img style='border: 4px solid darkgrey;' src='img/tf1_14_M_ss1.jpeg'></img>","0","","exp","","0","<img src='img/tf1_14_T1_ss1_md.jpeg'></img>","0","true",""
"","html-keyboard-response","41","234886","0.0-10.0-0.14","782","""event"",""trial"",""time""
""fullscreenenter"",""0"",""4948""
","
","
","""event"",""trial"",""time""
""fullscreenenter"",""0"",""4948""
","
","null","<div style=""font-size:60px;"">+</div>","","null","fixation","2021-04-21 00:44:05.365","","","","",""
"","mars-trial","42","241903","0.0-10.0-1.14","782","""event"",""trial"",""time""
""fullscreenenter"",""0"",""4948""
","
","
","""event"",""trial"",""time""
""fullscreenenter"",""0"",""4948""
","
","6410.089999961201","<img style='border: 4px solid darkgrey;' src='img/tf1_15_M_ss2.jpeg'></img>","3","","exp","","3","<img src='img/tf1_15_T1_ss2_md.jpeg'></img>","0","false",""
"","html-keyboard-response","43","242406","0.0-10.0-0.15","782","""event"",""trial"",""time""
""fullscreenenter"",""0"",""4948""
","
","
","""event"",""trial"",""time""
""fullscreenenter"",""0"",""4948""
","
","null","<div style=""font-size:60px;"">+</div>","","null","fixation","2021-04-21 00:44:12.885","","","","",""
"","mars-trial","44","248846","0.0-10.0-1.15","782","""event"",""trial"",""time""
""fullscreenenter"",""0"",""4948""
","
","
","""event"",""trial"",""time""
""fullscreenenter"",""0"",""4948""
","
","5834.160000027623","<img style='border: 4px solid darkgrey;' src='img/tf1_16_M_ss3.jpeg'></img>","0","","exp","","0","<img src='img/tf1_16_T1_ss3_md.jpeg'></img>","0","true",""
"","html-keyboard-response","45","249349","0.0-10.0-0.16","782","""event"",""trial"",""time""
""fullscreenenter"",""0"",""4948""
","
","
","""event"",""trial"",""time""
""fullscreenenter"",""0"",""4948""
","
","null","<div style=""font-size:60px;"">+</div>","","null","fixation","2021-04-21 00:44:19.828","","","","",""
"","mars-trial","46","257375","0.0-10.0-1.16","782","""event"",""trial"",""time""
""fullscreenenter"",""0"",""4948""
","
","
","""event"",""trial"",""time""
""fullscreenenter"",""0"",""4948""
","
","7420.979999995325","<img style='border: 4px solid darkgrey;' src='img/tf1_17_M_ss1.jpeg'></img>","2","","exp","","0","<img src='img/tf1_17_T1_ss1_md.jpeg'></img>","0","true",""
"","html-keyboard-response","47","257879","0.0-10.0-0.17","782","""event"",""trial"",""time""
""fullscreenenter"",""0"",""4948""
","
","
","""event"",""trial"",""time""
""fullscreenenter"",""0"",""4948""
","
","null","<div style=""font-size:60px;"">+</div>","","null","fixation","2021-04-21 00:44:28.358","","","","",""
"","mars-trial","48","280815","0.0-10.0-1.17","782","""event"",""trial"",""time""
""fullscreenenter"",""0"",""4948""
","
","
","""event"",""trial"",""time""
""fullscreenenter"",""0"",""4948""
","
","22328.33499996923","<img style='border: 4px solid darkgrey;' src='img/tf1_18_M_ss2.jpeg'></img>","0","","exp","","1","<img src='img/tf1_18_T1_ss2_md.jpeg'></img>","0","false",""
"","html-keyboard-response","49","281318","0.0-10.0-0.18","782","""event"",""trial"",""time""
""fullscreenenter"",""0"",""4948""
","
","
","""event"",""trial"",""time""
""fullscreenenter"",""0"",""4948""
","
","null","<div style=""font-size:60px;"">+</div>","","null","fixation","2021-04-21 00:44:51.797","","","","",""
"","mars-trial","50","291359","0.0-10.0-1.18","782","""event"",""trial"",""time""
""fullscreenenter"",""0"",""4948""
","
","
","""event"",""trial"",""time""
""fullscreenenter"",""0"",""4948""
","
","9434.970000002068","<img style='border: 4px solid darkgrey;' src='img/tf1_19_M_ss3.jpeg'></img>","2","","exp","","2","<img src='img/tf1_19_T1_ss3_md.jpeg'></img>","0","false",""
"","html-keyboard-response","51","291862","0.0-10.0-0.19","782","""event"",""trial"",""time""
""fullscreenenter"",""0"",""4948""
","
","
","""event"",""trial"",""time""
""fullscreenenter"",""0"",""4948""
","
","null","<div style=""font-size:60px;"">+</div>","","null","fixation","2021-04-21 00:45:02.342","","","","",""
"","mars-trial","52","297926","0.0-10.0-1.19","782","""event"",""trial"",""time""
""fullscreenenter"",""0"",""4948""
","
","
","""event"",""trial"",""time""
""fullscreenenter"",""0"",""4948""
","
","5459.244999976363","<img style='border: 4px solid darkgrey;' src='img/tf1_20_M_ss1.jpeg'></img>","0","","exp","","2","<img src='img/tf1_20_T1_ss1_md.jpeg'></img>","0","false",""
"","html-keyboard-response","53","298428","0.0-10.0-0.20","782","""event"",""trial"",""time""
""fullscreenenter"",""0"",""4948""
","
","
","""event"",""trial"",""time""
""fullscreenenter"",""0"",""4948""
","
","null","<div style=""font-size:60px;"">+</div>","","null","fixation","2021-04-21 00:45:08.907","","","","",""
"","mars-trial","54","321617","0.0-10.0-1.20","782","""event"",""trial"",""time""
""fullscreenenter"",""0"",""4948""
","
","
","""event"",""trial"",""time""
""fullscreenenter"",""0"",""4948""
","
","22581.25500002643","<img style='border: 4px solid darkgrey;' src='img/tf1_21_M_ss2.jpeg'></img>","0","","exp","","0","<img src='img/tf1_21_T1_ss2_md.jpeg'></img>","0","true",""
"","html-keyboard-response","55","322120","0.0-10.0-0.21","782","""event"",""trial"",""time""
""fullscreenenter"",""0"",""4948""
","
","
","""event"",""trial"",""time""
""fullscreenenter"",""0"",""4948""
","
","null","<div style=""font-size:60px;"">+</div>","","null","fixation","2021-04-21 00:45:32.599","","","","",""
"","mars-trial","56","329856","0.0-10.0-1.21","782","""event"",""trial"",""time""
""fullscreenenter"",""0"",""4948""
","
","
","""event"",""trial"",""time""
""fullscreenenter"",""0"",""4948""
","
","7130.044999998063","<img style='border: 4px solid darkgrey;' src='img/tf1_22_M_ss3.jpeg'></img>","1","","exp","","1","<img src='img/tf1_22_T1_ss3_md.jpeg'></img>","0","false",""
"","html-keyboard-response","57","330359","0.0-10.0-0.22","782","""event"",""trial"",""time""
""fullscreenenter"",""0"",""4948""
","
","
","""event"",""trial"",""time""
""fullscreenenter"",""0"",""4948""
","
","null","<div style=""font-size:60px;"">+</div>","","null","fixation","2021-04-21 00:45:40.838","","","","",""
"","mars-trial","58","336903","0.0-10.0-1.22","782","""event"",""trial"",""time""
""fullscreenenter"",""0"",""4948""
","
","
","""event"",""trial"",""time""
""fullscreenenter"",""0"",""4948""
","
","5937.994999985676","<img style='border: 4px solid darkgrey;' src='img/tf1_23_M_ss1.jpeg'></img>","2","","exp","","0","<img src='img/tf1_23_T1_ss1_md.jpeg'></img>","0","true",""
"","html-keyboard-response","59","337405","0.0-10.0-0.23","782","""event"",""trial"",""time""
""fullscreenenter"",""0"",""4948""
","
","
","""event"",""trial"",""time""
""fullscreenenter"",""0"",""4948""
","
","null","<div style=""font-size:60px;"">+</div>","","null","fixation","2021-04-21 00:45:47.884","","","","",""
"","mars-trial","60","347888","0.0-10.0-1.23","782","""event"",""trial"",""time""
""fullscreenenter"",""0"",""4948""
","
","
","""event"",""trial"",""time""
""fullscreenenter"",""0"",""4948""
","
","9878.954999963753","<img style='border: 4px solid darkgrey;' src='img/tf1_24_M_ss2.jpeg'></img>","0","","exp","","1","<img src='img/tf1_24_T1_ss2_md.jpeg'></img>","0","false",""
"","html-keyboard-response","61","348391","0.0-10.0-0.24","782","""event"",""trial"",""time""
""fullscreenenter"",""0"",""4948""
","
","
","""event"",""trial"",""time""
""fullscreenenter"",""0"",""4948""
","
","null","<div style=""font-size:60px;"">+</div>","","null","fixation","2021-04-21 00:45:58.870","","","","",""
"","mars-trial","62","362353","0.0-10.0-1.24","782","""event"",""trial"",""time""
""fullscreenenter"",""0"",""4948""
","
","
","""event"",""trial"",""time""
""fullscreenenter"",""0"",""4948""
","
","13353.709999995772","<img style='border: 4px solid darkgrey;' src='img/tf1_25_M_ss3.jpeg'></img>","2","","exp","","2","<img src='img/tf1_25_T1_ss3_md.jpeg'></img>","0","false",""
"","html-keyboard-response","63","362858","0.0-10.0-0.25","782","""event"",""trial"",""time""
""fullscreenenter"",""0"",""4948""
","
","
","""event"",""trial"",""time""
""fullscreenenter"",""0"",""4948""
","
","null","<div style=""font-size:60px;"">+</div>","","null","fixation","2021-04-21 00:46:13.337","","","","",""
"","mars-trial","64","373463","0.0-10.0-1.25","782","""event"",""trial"",""time""
""fullscreenenter"",""0"",""4948""
","
","
","""event"",""trial"",""time""
""fullscreenenter"",""0"",""4948""
","
","9997.4500000244","<img style='border: 4px solid darkgrey;' src='img/tf1_26_M_ss1.jpeg'></img>","0","","exp","","2","<img src='img/tf1_26_T1_ss1_md.jpeg'></img>","0","false",""
"","html-keyboard-response","65","373967","0.0-10.0-0.26","782","""event"",""trial"",""time""
""fullscreenenter"",""0"",""4948""
","
","
","""event"",""trial"",""time""
""fullscreenenter"",""0"",""4948""
","
","null","<div style=""font-size:60px;"">+</div>","","null","fixation","2021-04-21 00:46:24.446","","","","",""
"","mars-trial","66","380216","0.0-10.0-1.26","782","""event"",""trial"",""time""
""fullscreenenter"",""0"",""4948""
","
","
","""event"",""trial"",""time""
""fullscreenenter"",""0"",""4948""
","
","5641.254999965895","<img style='border: 4px solid darkgrey;' src='img/tf1_27_M_ss2.jpeg'></img>","3","","exp","","2","<img src='img/tf1_27_T1_ss2_md.jpeg'></img>","0","false",""
"","html-keyboard-response","67","380719","0.0-10.0-0.27","782","""event"",""trial"",""time""
""fullscreenenter"",""0"",""4948""
","
","
","""event"",""trial"",""time""
""fullscreenenter"",""0"",""4948""
","
","null","<div style=""font-size:60px;"">+</div>","","null","fixation","2021-04-21 00:46:31.198","","","","",""
"","mars-trial","68","385783","0.0-10.0-1.27","782","""event"",""trial"",""time""
""fullscreenenter"",""0"",""4948""
","
","
","""event"",""trial"",""time""
""fullscreenenter"",""0"",""4948""
","
","4456.984999997076","<img style='border: 4px solid darkgrey;' src='img/tf1_28_M_ss3.jpeg'></img>","1","","exp","","1","<img src='img/tf1_28_T1_ss3_md.jpeg'></img>","0","false",""
"","html-keyboard-response","69","386285","0.0-10.0-0.28","782","""event"",""trial"",""time""
""fullscreenenter"",""0"",""4948""
","
","
","""event"",""trial"",""time""
""fullscreenenter"",""0"",""4948""
","
","null","<div style=""font-size:60px;"">+</div>","","null","fixation","2021-04-21 00:46:36.764","","","","",""
"","mars-trial","70","393719","0.0-10.0-1.28","782","""event"",""trial"",""time""
""fullscreenenter"",""0"",""4948""
","
","
","""event"",""trial"",""time""
""fullscreenenter"",""0"",""4948""
","
","6828.295000013895","<img style='border: 4px solid darkgrey;' src='img/tf1_29_M_ss1.jpeg'></img>","1","","exp","","3","<img src='img/tf1_29_T1_ss1_md.jpeg'></img>","0","false",""
"","html-keyboard-response","71","394221","0.0-10.0-0.29","782","""event"",""trial"",""time""
""fullscreenenter"",""0"",""4948""
","
","
","""event"",""trial"",""time""
""fullscreenenter"",""0"",""4948""
","
","null","<div style=""font-size:60px;"">+</div>","","null","fixation","2021-04-21 00:46:44.700","","","","",""
"","mars-trial","72","400383","0.0-10.0-1.29","782","""event"",""trial"",""time""
""fullscreenenter"",""0"",""4948""
","
","
","""event"",""trial"",""time""
""fullscreenenter"",""0"",""4948""
","
","5554.925000004005","<img style='border: 4px solid darkgrey;' src='img/tf1_30_M_ss2.jpeg'></img>","2","","exp","","0","<img src='img/tf1_30_T1_ss2_md.jpeg'></img>","0","true",""
"","html-keyboard-response","73","400886","0.0-10.0-0.30","782","""event"",""trial"",""time""
""fullscreenenter"",""0"",""4948""
","
","
","""event"",""trial"",""time""
""fullscreenenter"",""0"",""4948""
","
","null","<div style=""font-size:60px;"">+</div>","","null","fixation","2021-04-21 00:46:51.365","","","","",""
"","mars-trial","74","404263","0.0-10.0-1.30","782","""event"",""trial"",""time""
""fullscreenenter"",""0"",""4948""
","
","
","""event"",""trial"",""time""
""fullscreenenter"",""0"",""4948""
","
","2771.264999988489","<img style='border: 4px solid darkgrey;' src='img/tf1_31_M_ss3.jpeg'></img>","1","","exp","","2","<img src='img/tf1_31_T1_ss3_md.jpeg'></img>","0","false",""
"","html-keyboard-response","75","404770","0.0-10.0-0.31","782","""event"",""trial"",""time""
""fullscreenenter"",""0"",""4948""
","
","
","""event"",""trial"",""time""
""fullscreenenter"",""0"",""4948""
","
","null","<div style=""font-size:60px;"">+</div>","","null","fixation","2021-04-21 00:46:55.250","","","","",""
"","mars-trial","76","417423","0.0-10.0-1.31","782","""event"",""trial"",""time""
""fullscreenenter"",""0"",""4948""
","
","
","""event"",""trial"",""time""
""fullscreenenter"",""0"",""4948""
","
","12047.649999964051","<img style='border: 4px solid darkgrey;' src='img/tf1_32_M_ss1.jpeg'></img>","1","","exp","","0","<img src='img/tf1_32_T1_ss1_md.jpeg'></img>","0","true",""
"","html-keyboard-response","77","417925","0.0-10.0-0.32","782","""event"",""trial"",""time""
""fullscreenenter"",""0"",""4948""
","
","
","""event"",""trial"",""time""
""fullscreenenter"",""0"",""4948""
","
","null","<div style=""font-size:60px;"">+</div>","","null","fixation","2021-04-21 00:47:08.404","","","","",""
"","mars-trial","78","438288","0.0-10.0-1.32","782","""event"",""trial"",""time""
""fullscreenenter"",""0"",""4948""
","
","
","""event"",""trial"",""time""
""fullscreenenter"",""0"",""4948""
","
","19755.249999987427","<img style='border: 4px solid darkgrey;' src='img/tf1_33_M_ss2.jpeg'></img>","3","","exp","","1","<img src='img/tf1_33_T1_ss2_md.jpeg'></img>","0","false",""
"","html-keyboard-response","79","438791","0.0-10.0-0.33","782","""event"",""trial"",""time""
""fullscreenenter"",""0"",""4948""
","
","
","""event"",""trial"",""time""
""fullscreenenter"",""0"",""4948""
","
","null","<div style=""font-size:60px;"">+</div>","","null","fixation","2021-04-21 00:47:29.270","","","","",""
"","mars-trial","80","441590","0.0-10.0-1.33","782","""event"",""trial"",""time""
""fullscreenenter"",""0"",""4948""
","
","
","""event"",""trial"",""time""
""fullscreenenter"",""0"",""4948""
","
","2195.2450000098906","<img style='border: 4px solid darkgrey;' src='img/tf1_34_M_ss3.jpeg'></img>","2","","exp","","2","<img src='img/tf1_34_T1_ss3_md.jpeg'></img>","0","false",""
"","html-keyboard-response","81","442091","0.0-10.0-0.34","782","""event"",""trial"",""time""
""fullscreenenter"",""0"",""4948""
","
","
","""event"",""trial"",""time""
""fullscreenenter"",""0"",""4948""
","
","null","<div style=""font-size:60px;"">+</div>","","null","fixation","2021-04-21 00:47:32.571","","","","",""
"","mars-trial","82","452358","0.0-10.0-1.34","782","""event"",""trial"",""time""
""fullscreenenter"",""0"",""4948""
","
","
","""event"",""trial"",""time""
""fullscreenenter"",""0"",""4948""
","
","9661.93000000203","<img style='border: 4px solid darkgrey;' src='img/tf1_35_M_ss1.jpeg'></img>","3","","exp","","1","<img src='img/tf1_35_T1_ss1_md.jpeg'></img>","0","false",""
"","html-keyboard-response","83","452860","0.0-10.0-0.35","782","""event"",""trial"",""time""
""fullscreenenter"",""0"",""4948""
","
","
","""event"",""trial"",""time""
""fullscreenenter"",""0"",""4948""
","
","null","<div style=""font-size:60px;"">+</div>","","null","fixation","2021-04-21 00:47:43.339","","","","",""
"","mars-trial","84","472837","0.0-10.0-1.35","782","""event"",""trial"",""time""
""fullscreenenter"",""0"",""4948""
","
","
","""event"",""trial"",""time""
""fullscreenenter"",""0"",""4948""
","
","19371.115000045393","<img style='border: 4px solid darkgrey;' src='img/tf1_36_M_ss2.jpeg'></img>","3","","exp","","3","<img src='img/tf1_36_T1_ss2_md.jpeg'></img>","0","false",""
"","html-keyboard-response","85","473340","0.0-10.0-0.36","782","""event"",""trial"",""time""
""fullscreenenter"",""0"",""4948""
","
","
","""event"",""trial"",""time""
""fullscreenenter"",""0"",""4948""
","
","null","<div style=""font-size:60px;"">+</div>","","null","fixation","2021-04-21 00:48:03.819","","","","",""
"","mars-trial","86","476247","0.0-10.0-1.36","782","""event"",""trial"",""time""
""fullscreenenter"",""0"",""4948""
","
","
","""event"",""trial"",""time""
""fullscreenenter"",""0"",""4948""
","
","2301.1849999893457","<img style='border: 4px solid darkgrey;' src='img/tf1_37_M_ss3.jpeg'></img>","1","","exp","","3","<img src='img/tf1_37_T1_ss3_md.jpeg'></img>","0","false",""
"","html-keyboard-response","87","476750","0.0-10.0-0.37","782","""event"",""trial"",""time""
""fullscreenenter"",""0"",""4948""
","
","
","""event"",""trial"",""time""
""fullscreenenter"",""0"",""4948""
","
","null","<div style=""font-size:60px;"">+</div>","","null","fixation","2021-04-21 00:48:07.229","","","","",""
"","mars-trial","88","482835","0.0-10.0-1.37","782","""event"",""trial"",""time""
""fullscreenenter"",""0"",""4948""
","
","
","""event"",""trial"",""time""
""fullscreenenter"",""0"",""4948""
","
","5472.695000004023","<img style='border: 4px solid darkgrey;' src='img/tf1_38_M_ss1.jpeg'></img>","1","","exp","","0","<img src='img/tf1_38_T1_ss1_md.jpeg'></img>","0","true",""
"","html-keyboard-response","89","483337","0.0-10.0-0.38","782","""event"",""trial"",""time""
""fullscreenenter"",""0"",""4948""
","
","
","""event"",""trial"",""time""
""fullscreenenter"",""0"",""4948""
","
","null","<div style=""font-size:60px;"">+</div>","","null","fixation","2021-04-21 00:48:13.816","","","","",""
"","mars-trial","90","486902","0.0-10.0-1.38","782","""event"",""trial"",""time""
""fullscreenenter"",""0"",""4948""
","
","
","""event"",""trial"",""time""
""fullscreenenter"",""0"",""4948""
","
","2959.6550000132993","<img style='border: 4px solid darkgrey;' src='img/tf1_39_M_ss2.jpeg'></img>","3","","exp","","3","<img src='img/tf1_39_T1_ss2_md.jpeg'></img>","0","false",""
"","html-keyboard-response","91","487404","0.0-10.0-0.39","782","""event"",""trial"",""time""
""fullscreenenter"",""0"",""4948""
","
","
","""event"",""trial"",""time""
""fullscreenenter"",""0"",""4948""
","
","null","<div style=""font-size:60px;"">+</div>","","null","fixation","2021-04-21 00:48:17.884","","","","",""
"","mars-trial","92","497958","0.0-10.0-1.39","782","""event"",""trial"",""time""
""fullscreenenter"",""0"",""4948""
","
","
","""event"",""trial"",""time""
""fullscreenenter"",""0"",""4948""
","
","9947.065000014845","<img style='border: 4px solid darkgrey;' src='img/tf1_40_M_ss3.jpeg'></img>","1","","exp","","3","<img src='img/tf1_40_T1_ss3_md.jpeg'></img>","0","false",""
"","html-keyboard-response","93","498461","0.0-10.0-0.40","782","""event"",""trial"",""time""
""fullscreenenter"",""0"",""4948""
","
","
","""event"",""trial"",""time""
""fullscreenenter"",""0"",""4948""
","
","null","<div style=""font-size:60px;"">+</div>","","null","fixation","2021-04-21 00:48:28.941","","","","",""
"","mars-trial","94","507438","0.0-10.0-1.40","782","""event"",""trial"",""time""
""fullscreenenter"",""0"",""4948""
","
","
","""event"",""trial"",""time""
""fullscreenenter"",""0"",""4948""
","
","8370.31999998726","<img style='border: 4px solid darkgrey;' src='img/tf1_41_M_ss1.jpeg'></img>","1","","exp","","0","<img src='img/tf1_41_T1_ss1_md.jpeg'></img>","0","true",""
"","html-keyboard-response","95","507940","0.0-10.0-0.41","782","""event"",""trial"",""time""
""fullscreenenter"",""0"",""4948""
","
","
","""event"",""trial"",""time""
""fullscreenenter"",""0"",""4948""
","
","null","<div style=""font-size:60px;"">+</div>","","null","fixation","2021-04-21 00:48:38.419","","","","",""
"","mars-trial","96","514119","0.0-10.0-1.41","782","""event"",""trial"",""time""
""fullscreenenter"",""0"",""4948""
","
","
","""event"",""trial"",""time""
""fullscreenenter"",""0"",""4948""
","
","5573.295000009239","<img style='border: 4px solid darkgrey;' src='img/tf1_42_M_ss2.jpeg'></img>","2","","exp","","2","<img src='img/tf1_42_T1_ss2_md.jpeg'></img>","0","false",""
"","html-keyboard-response","97","514621","0.0-10.0-0.42","782","""event"",""trial"",""time""
""fullscreenenter"",""0"",""4948""
","
","
","""event"",""trial"",""time""
""fullscreenenter"",""0"",""4948""
","
","null","<div style=""font-size:60px;"">+</div>","","null","fixation","2021-04-21 00:48:45.100","","","","",""
"","mars-trial","98","526463","0.0-10.0-1.42","782","""event"",""trial"",""time""
""fullscreenenter"",""0"",""4948""
","
","
","""event"",""trial"",""time""
""fullscreenenter"",""0"",""4948""
","
","11235.994999995455","<img style='border: 4px solid darkgrey;' src='img/tf1_43_M_ss3.jpeg'></img>","1","","exp","","0","<img src='img/tf1_43_T1_ss3_md.jpeg'></img>","0","true",""
"","html-keyboard-response","99","526965","0.0-10.0-0.43","782","""event"",""trial"",""time""
""fullscreenenter"",""0"",""4948""
","
","
","""event"",""trial"",""time""
""fullscreenenter"",""0"",""4948""
","
","null","<div style=""font-size:60px;"">+</div>","","null","fixation","2021-04-21 00:48:57.444","","","","",""
"","mars-trial","100","537775","0.0-10.0-1.43","782","""event"",""trial"",""time""
""fullscreenenter"",""0"",""4948""
","
","
","""event"",""trial"",""time""
""fullscreenenter"",""0"",""4948""
","
","10203.77500000177","<img style='border: 4px solid darkgrey;' src='img/tf1_44_M_ss1.jpeg'></img>","0","","exp","","2","<img src='img/tf1_44_T1_ss1_md.jpeg'></img>","0","false",""
"","html-keyboard-response","101","538278","0.0-10.0-0.44","782","""event"",""trial"",""time""
""fullscreenenter"",""0"",""4948""
","
","
","""event"",""trial"",""time""
""fullscreenenter"",""0"",""4948""
","
","null","<div style=""font-size:60px;"">+</div>","","null","fixation","2021-04-21 00:49:08.757","","","","",""
"","mars-trial","102","541987","0.0-10.0-1.44","782","""event"",""trial"",""time""
""fullscreenenter"",""0"",""4948""
","
","
","""event"",""trial"",""time""
""fullscreenenter"",""0"",""4948""
","
","","","","","exp","","","<img src='img/tf1_45_T1_ss2_md.jpeg'></img>","0","false",""
"","html-keyboard-response","103","542488","0.0-10.0-0.45","782","""event"",""trial"",""time""
""fullscreenenter"",""0"",""4948""
","
","
","""event"",""trial"",""time""
""fullscreenenter"",""0"",""4948""
","
","null","<div style=""font-size:60px;"">+</div>","","null","fixation","2021-04-21 00:49:12.967","","","","",""
"","audio-button-response","104","547321","0.0-11.0","782","""event"",""trial"",""time""
""fullscreenenter"",""0"",""4948""
","
","
","""event"",""trial"",""time""
""fullscreenenter"",""0"",""4948""
","
","4730.059999972582","audio/mars_instructions_slide5.wav","0","","","","","","","",""
