"success","trial_type","trial_index","time_elapsed","internal_node_id","subject_id","interactions","blur_events","focus_events","fullscreenenter_events","fullscreenexit_events","rt","stimulus","button_pressed","key_press","part","timestamp","unshuffled_button","correct_response","correct_button","correct","value"
"true","fullscreen","0","4128","0.0-0.0","1078","""event"",""trial"",""time""
""fullscreenenter"",""0"",""3146""
","
","
","""event"",""trial"",""time""
""fullscreenenter"",""0"",""3146""
","
","","","","","","","","","","",""
"","pavlovia","1","4139","0.0-1.0","1078","""event"",""trial"",""time""
""fullscreenenter"",""0"",""3146""
","
","
","""event"",""trial"",""time""
""fullscreenenter"",""0"",""3146""
","
","","","","","","","","","","",""
"","html-button-response","2","5822","0.0-2.0","1078","""event"",""trial"",""time""
""fullscreenenter"",""0"",""3146""
","
","
","""event"",""trial"",""time""
""fullscreenenter"",""0"",""3146""
","
","1681.5","<p>Welcome! Press START to begin.</p><br>","0","","","","","","","",""
"","audio-button-response","3","26601","0.0-3.0","1078","""event"",""trial"",""time""
""fullscreenenter"",""0"",""3146""
","
","
","""event"",""trial"",""time""
""fullscreenenter"",""0"",""3146""
","
","20774.199999999953","audio/mars_instructions_slide2.wav","0","","","","","","","",""
"","audio-button-response","4","45839","0.0-4.0","1078","""event"",""trial"",""time""
""fullscreenenter"",""0"",""3146""
","
","
","""event"",""trial"",""time""
""fullscreenenter"",""0"",""3146""
","
","19234.700000000186","audio/mars_instructions_slide3.wav","0","","","","","","","",""
"","html-keyboard-response","5","46349","0.0-5.0-0.0","1078","""event"",""trial"",""time""
""fullscreenenter"",""0"",""3146""
","
","
","""event"",""trial"",""time""
""fullscreenenter"",""0"",""3146""
","
","null","<div style=""font-size:60px;"">+</div>","","null","fixation","2021-08-09 18:47:47.603","","","","",""
"","mars-trial","6","71455","0.0-5.0-1.0","1078","""event"",""trial"",""time""
""fullscreenenter"",""0"",""3146""
","
","
","""event"",""trial"",""time""
""fullscreenenter"",""0"",""3146""
","
","22997.600000000093","<img style='border: 4px solid darkgrey;' src='practice/pt1_M1.png'></img>","2","","practice","","3","<img src='practice/pt1_T1.png'></img>","0","false",""
"","html-keyboard-response","7","71969","0.0-5.1-0.1","1078","""event"",""trial"",""time""
""fullscreenenter"",""0"",""3146""
","
","
","""event"",""trial"",""time""
""fullscreenenter"",""0"",""3146""
","
","null","<div style=""font-size:60px;"">+</div>","","null","fixation","2021-08-09 18:48:13.224","","","","",""
"","mars-trial","8","81555","0.0-5.1-1.1","1078","""event"",""trial"",""time""
""fullscreenenter"",""0"",""3146""
","
","
","""event"",""trial"",""time""
""fullscreenenter"",""0"",""3146""
","
","7475","<img style='border: 4px solid darkgrey;' src='practice/pt1_M1.png'></img>","0","","practice","","0","<img src='practice/pt1_T1.png'></img>","0","true",""
"","html-keyboard-response","9","82060","0.0-6.0-0.0","1078","""event"",""trial"",""time""
""fullscreenenter"",""0"",""3146""
","
","
","""event"",""trial"",""time""
""fullscreenenter"",""0"",""3146""
","
","null","<div style=""font-size:60px;"">+</div>","","null","fixation","2021-08-09 18:48:23.314","","","","",""
"","mars-trial","10","89146","0.0-6.0-1.0","1078","""event"",""trial"",""time""
""fullscreenenter"",""0"",""3146""
","
","
","""event"",""trial"",""time""
""fullscreenenter"",""0"",""3146""
","
","4971.199999999721","<img style='border: 4px solid darkgrey;' src='practice/pt2_M1.png'></img>","3","","practice","","0","<img src='practice/pt2_T1.png'></img>","0","true",""
"","html-keyboard-response","11","89651","0.0-7.0-0.0","1078","""event"",""trial"",""time""
""fullscreenenter"",""0"",""3146""
","
","
","""event"",""trial"",""time""
""fullscreenenter"",""0"",""3146""
","
","null","<div style=""font-size:60px;"">+</div>","","null","fixation","2021-08-09 18:48:30.905","","","","",""
"","mars-trial","12","94201","0.0-7.0-1.0","1078","""event"",""trial"",""time""
""fullscreenenter"",""0"",""3146""
","
","
","""event"",""trial"",""time""
""fullscreenenter"",""0"",""3146""
","
","2435","<img style='border: 4px solid darkgrey;' src='practice/pt3_M1.png'></img>","2","","practice","","0","<img src='practice/pt3_T1.png'></img>","0","true",""
"","audio-button-response","13","95655","0.0-8.0","1078","""event"",""trial"",""time""
""fullscreenenter"",""0"",""3146""
","
","
","""event"",""trial"",""time""
""fullscreenenter"",""0"",""3146""
","
","1451.6999999997206","audio/mars_instructions_slide4.wav","0","","","","","","","",""
"","call-function","14","95656","0.0-9.0","1078","""event"",""trial"",""time""
""fullscreenenter"",""0"",""3146""
","
","
","""event"",""trial"",""time""
""fullscreenenter"",""0"",""3146""
","
","","","","","","","","","","",""
"","html-keyboard-response","15","96167","0.0-10.0-0.0","1078","""event"",""trial"",""time""
""fullscreenenter"",""0"",""3146""
","
","
","""event"",""trial"",""time""
""fullscreenenter"",""0"",""3146""
","
","null","<div style=""font-size:60px;"">+</div>","","null","fixation","2021-08-09 18:48:37.421","","","","",""
"","mars-trial","16","99087","0.0-10.0-1.0","1078","""event"",""trial"",""time""
""fullscreenenter"",""0"",""3146""
","
","
","""event"",""trial"",""time""
""fullscreenenter"",""0"",""3146""
","
","2306.5","<img style='border: 4px solid darkgrey;' src='img/tf1_1_M_ss3.jpeg'></img>","1","","exp","","0","<img src='img/tf1_1_T1_ss3_md.jpeg'></img>","0","true",""
"","html-keyboard-response","17","99592","0.0-10.0-0.1","1078","""event"",""trial"",""time""
""fullscreenenter"",""0"",""3146""
","
","
","""event"",""trial"",""time""
""fullscreenenter"",""0"",""3146""
","
","null","<div style=""font-size:60px;"">+</div>","","null","fixation","2021-08-09 18:48:40.846","","","","",""
"","mars-trial","18","103077","0.0-10.0-1.1","1078","""event"",""trial"",""time""
""fullscreenenter"",""0"",""3146""
","
","
","""event"",""trial"",""time""
""fullscreenenter"",""0"",""3146""
","
","2866.3000000002794","<img style='border: 4px solid darkgrey;' src='img/tf1_2_M_ss1.jpeg'></img>","3","","exp","","0","<img src='img/tf1_2_T1_ss1_md.jpeg'></img>","0","true",""
"","html-keyboard-response","19","103582","0.0-10.0-0.2","1078","""event"",""trial"",""time""
""fullscreenenter"",""0"",""3146""
","
","
","""event"",""trial"",""time""
""fullscreenenter"",""0"",""3146""
","
","null","<div style=""font-size:60px;"">+</div>","","null","fixation","2021-08-09 18:48:44.836","","","","",""
"","mars-trial","20","107107","0.0-10.0-1.2","1078","""event"",""trial"",""time""
""fullscreenenter"",""0"",""3146""
","
","
","""event"",""trial"",""time""
""fullscreenenter"",""0"",""3146""
","
","2899","<img style='border: 4px solid darkgrey;' src='img/tf1_3_M_ss2.jpeg'></img>","1","","exp","","0","<img src='img/tf1_3_T1_ss2_md.jpeg'></img>","0","true",""
"","html-keyboard-response","21","107617","0.0-10.0-0.3","1078","""event"",""trial"",""time""
""fullscreenenter"",""0"",""3146""
","
","
","""event"",""trial"",""time""
""fullscreenenter"",""0"",""3146""
","
","null","<div style=""font-size:60px;"">+</div>","","null","fixation","2021-08-09 18:48:48.871","","","","",""
"","mars-trial","22","115424","0.0-10.0-1.3","1078","""event"",""trial"",""time""
""fullscreenenter"",""0"",""3146""
","
","
","""event"",""trial"",""time""
""fullscreenenter"",""0"",""3146""
","
","7183.5","<img style='border: 4px solid darkgrey;' src='img/tf1_4_M_ss3.jpeg'></img>","2","","exp","","0","<img src='img/tf1_4_T1_ss3_md.jpeg'></img>","0","true",""
"","html-keyboard-response","23","115934","0.0-10.0-0.4","1078","""event"",""trial"",""time""
""fullscreenenter"",""0"",""3146""
","
","
","""event"",""trial"",""time""
""fullscreenenter"",""0"",""3146""
","
","null","<div style=""font-size:60px;"">+</div>","","null","fixation","2021-08-09 18:48:57.188","","","","",""
"","mars-trial","24","119184","0.0-10.0-1.4","1078","""event"",""trial"",""time""
""fullscreenenter"",""0"",""3146""
","
","
","""event"",""trial"",""time""
""fullscreenenter"",""0"",""3146""
","
","2635.1999999997206","<img style='border: 4px solid darkgrey;' src='img/tf1_5_M_ss1.jpeg'></img>","3","","exp","","0","<img src='img/tf1_5_T1_ss1_md.jpeg'></img>","0","true",""
"","html-keyboard-response","25","119688","0.0-10.0-0.5","1078","""event"",""trial"",""time""
""fullscreenenter"",""0"",""3146""
","
","
","""event"",""trial"",""time""
""fullscreenenter"",""0"",""3146""
","
","null","<div style=""font-size:60px;"">+</div>","","null","fixation","2021-08-09 18:49:00.943","","","","",""
"","mars-trial","26","126874","0.0-10.0-1.5","1078","""event"",""trial"",""time""
""fullscreenenter"",""0"",""3146""
","
","
","""event"",""trial"",""time""
""fullscreenenter"",""0"",""3146""
","
","6568.399999999907","<img style='border: 4px solid darkgrey;' src='img/tf1_6_M_ss2.jpeg'></img>","1","","exp","","3","<img src='img/tf1_6_T1_ss2_md.jpeg'></img>","0","false",""
"","html-keyboard-response","27","127378","0.0-10.0-0.6","1078","""event"",""trial"",""time""
""fullscreenenter"",""0"",""3146""
","
","
","""event"",""trial"",""time""
""fullscreenenter"",""0"",""3146""
","
","null","<div style=""font-size:60px;"">+</div>","","null","fixation","2021-08-09 18:49:08.632","","","","",""
"","mars-trial","28","134864","0.0-10.0-1.6","1078","""event"",""trial"",""time""
""fullscreenenter"",""0"",""3146""
","
","
","""event"",""trial"",""time""
""fullscreenenter"",""0"",""3146""
","
","6874","<img style='border: 4px solid darkgrey;' src='img/tf1_7_M_ss3.jpeg'></img>","3","","exp","","0","<img src='img/tf1_7_T1_ss3_md.jpeg'></img>","0","true",""
"","html-keyboard-response","29","135369","0.0-10.0-0.7","1078","""event"",""trial"",""time""
""fullscreenenter"",""0"",""3146""
","
","
","""event"",""trial"",""time""
""fullscreenenter"",""0"",""3146""
","
","null","<div style=""font-size:60px;"">+</div>","","null","fixation","2021-08-09 18:49:16.623","","","","",""
"","mars-trial","30","139225","0.0-10.0-1.7","1078","""event"",""trial"",""time""
""fullscreenenter"",""0"",""3146""
","
","
","""event"",""trial"",""time""
""fullscreenenter"",""0"",""3146""
","
","3240.1999999997206","<img style='border: 4px solid darkgrey;' src='img/tf1_8_M_ss1.jpeg'></img>","3","","exp","","0","<img src='img/tf1_8_T1_ss1_md.jpeg'></img>","0","true",""
"","html-keyboard-response","31","139730","0.0-10.0-0.8","1078","""event"",""trial"",""time""
""fullscreenenter"",""0"",""3146""
","
","
","""event"",""trial"",""time""
""fullscreenenter"",""0"",""3146""
","
","null","<div style=""font-size:60px;"">+</div>","","null","fixation","2021-08-09 18:49:20.984","","","","",""
"","mars-trial","32","147055","0.0-10.0-1.8","1078","""event"",""trial"",""time""
""fullscreenenter"",""0"",""3146""
","
","
","""event"",""trial"",""time""
""fullscreenenter"",""0"",""3146""
","
","6712.600000000093","<img style='border: 4px solid darkgrey;' src='img/tf1_9_M_ss2.jpeg'></img>","3","","exp","","1","<img src='img/tf1_9_T1_ss2_md.jpeg'></img>","0","false",""
"","html-keyboard-response","33","147561","0.0-10.0-0.9","1078","""event"",""trial"",""time""
""fullscreenenter"",""0"",""3146""
","
","
","""event"",""trial"",""time""
""fullscreenenter"",""0"",""3146""
","
","null","<div style=""font-size:60px;"">+</div>","","null","fixation","2021-08-09 18:49:28.815","","","","",""
"","mars-trial","34","166432","0.0-10.0-1.9","1078","""event"",""trial"",""time""
""fullscreenenter"",""0"",""3146""
","
","
","""event"",""trial"",""time""
""fullscreenenter"",""0"",""3146""
","
","18256.600000000093","<img style='border: 4px solid darkgrey;' src='img/tf1_10_M_ss3.jpeg'></img>","1","","exp","","1","<img src='img/tf1_10_T1_ss3_md.jpeg'></img>","0","false",""
"","html-keyboard-response","35","166938","0.0-10.0-0.10","1078","""event"",""trial"",""time""
""fullscreenenter"",""0"",""3146""
","
","
","""event"",""trial"",""time""
""fullscreenenter"",""0"",""3146""
","
","null","<div style=""font-size:60px;"">+</div>","","null","fixation","2021-08-09 18:49:48.192","","","","",""
"","mars-trial","36","176210","0.0-10.0-1.10","1078","""event"",""trial"",""time""
""fullscreenenter"",""0"",""3146""
","
","
","""event"",""trial"",""time""
""fullscreenenter"",""0"",""3146""
","
","8653.5","<img style='border: 4px solid darkgrey;' src='img/tf1_11_M_ss1.jpeg'></img>","1","","exp","","2","<img src='img/tf1_11_T1_ss1_md.jpeg'></img>","0","false",""
"","html-keyboard-response","37","176714","0.0-10.0-0.11","1078","""event"",""trial"",""time""
""fullscreenenter"",""0"",""3146""
","
","
","""event"",""trial"",""time""
""fullscreenenter"",""0"",""3146""
","
","null","<div style=""font-size:60px;"">+</div>","","null","fixation","2021-08-09 18:49:57.968","","","","",""
"","mars-trial","38","195091","0.0-10.0-1.11","1078","""event"",""trial"",""time""
""fullscreenenter"",""0"",""3146""
","
","
","""event"",""trial"",""time""
""fullscreenenter"",""0"",""3146""
","
","17764.600000000093","<img style='border: 4px solid darkgrey;' src='img/tf1_12_M_ss2.jpeg'></img>","3","","exp","","1","<img src='img/tf1_12_T1_ss2_md.jpeg'></img>","0","false",""
"","html-keyboard-response","39","195596","0.0-10.0-0.12","1078","""event"",""trial"",""time""
""fullscreenenter"",""0"",""3146""
","
","
","""event"",""trial"",""time""
""fullscreenenter"",""0"",""3146""
","
","null","<div style=""font-size:60px;"">+</div>","","null","fixation","2021-08-09 18:50:16.850","","","","",""
"","mars-trial","40","208673","0.0-10.0-1.12","1078","""event"",""trial"",""time""
""fullscreenenter"",""0"",""3146""
","
","
","""event"",""trial"",""time""
""fullscreenenter"",""0"",""3146""
","
","12464.200000000186","<img style='border: 4px solid darkgrey;' src='img/tf1_13_M_ss3.jpeg'></img>","2","","exp","","3","<img src='img/tf1_13_T1_ss3_md.jpeg'></img>","0","false",""
"","html-keyboard-response","41","209177","0.0-10.0-0.13","1078","""event"",""trial"",""time""
""fullscreenenter"",""0"",""3146""
","
","
","""event"",""trial"",""time""
""fullscreenenter"",""0"",""3146""
","
","null","<div style=""font-size:60px;"">+</div>","","null","fixation","2021-08-09 18:50:30.432","","","","",""
"","mars-trial","42","215278","0.0-10.0-1.13","1078","""event"",""trial"",""time""
""fullscreenenter"",""0"",""3146""
","
","
","""event"",""trial"",""time""
""fullscreenenter"",""0"",""3146""
","
","5484","<img style='border: 4px solid darkgrey;' src='img/tf1_14_M_ss1.jpeg'></img>","2","","exp","","0","<img src='img/tf1_14_T1_ss1_md.jpeg'></img>","0","true",""
"","html-keyboard-response","43","215783","0.0-10.0-0.14","1078","""event"",""trial"",""time""
""fullscreenenter"",""0"",""3146""
","
","
","""event"",""trial"",""time""
""fullscreenenter"",""0"",""3146""
","
","null","<div style=""font-size:60px;"">+</div>","","null","fixation","2021-08-09 18:50:37.038","","","","",""
"","mars-trial","44","235935","0.0-10.0-1.14","1078","""event"",""trial"",""time""
""fullscreenenter"",""0"",""3146""
","
","
","""event"",""trial"",""time""
""fullscreenenter"",""0"",""3146""
","
","19535.30000000028","<img style='border: 4px solid darkgrey;' src='img/tf1_15_M_ss2.jpeg'></img>","3","","exp","","3","<img src='img/tf1_15_T1_ss2_md.jpeg'></img>","0","false",""
"","html-keyboard-response","45","236440","0.0-10.0-0.15","1078","""event"",""trial"",""time""
""fullscreenenter"",""0"",""3146""
","
","
","""event"",""trial"",""time""
""fullscreenenter"",""0"",""3146""
","
","null","<div style=""font-size:60px;"">+</div>","","null","fixation","2021-08-09 18:50:57.694","","","","",""
"","mars-trial","46","252857","0.0-10.0-1.15","1078","""event"",""trial"",""time""
""fullscreenenter"",""0"",""3146""
","
","
","""event"",""trial"",""time""
""fullscreenenter"",""0"",""3146""
","
","15804.600000000093","<img style='border: 4px solid darkgrey;' src='img/tf1_16_M_ss3.jpeg'></img>","3","","exp","","1","<img src='img/tf1_16_T1_ss3_md.jpeg'></img>","0","false",""
"","html-keyboard-response","47","253362","0.0-10.0-0.16","1078","""event"",""trial"",""time""
""fullscreenenter"",""0"",""3146""
","
","
","""event"",""trial"",""time""
""fullscreenenter"",""0"",""3146""
","
","null","<div style=""font-size:60px;"">+</div>","","null","fixation","2021-08-09 18:51:14.616","","","","",""
"","mars-trial","48","263953","0.0-10.0-1.16","1078","""event"",""trial"",""time""
""fullscreenenter"",""0"",""3146""
","
","
","""event"",""trial"",""time""
""fullscreenenter"",""0"",""3146""
","
","9979.5","<img style='border: 4px solid darkgrey;' src='img/tf1_17_M_ss1.jpeg'></img>","2","","exp","","0","<img src='img/tf1_17_T1_ss1_md.jpeg'></img>","0","true",""
"","html-keyboard-response","49","264458","0.0-10.0-0.17","1078","""event"",""trial"",""time""
""fullscreenenter"",""0"",""3146""
","
","
","""event"",""trial"",""time""
""fullscreenenter"",""0"",""3146""
","
","null","<div style=""font-size:60px;"">+</div>","","null","fixation","2021-08-09 18:51:25.712","","","","",""
"","mars-trial","50","279534","0.0-10.0-1.17","1078","""event"",""trial"",""time""
""fullscreenenter"",""0"",""3146""
","
","
","""event"",""trial"",""time""
""fullscreenenter"",""0"",""3146""
","
","14462","<img style='border: 4px solid darkgrey;' src='img/tf1_18_M_ss2.jpeg'></img>","2","","exp","","3","<img src='img/tf1_18_T1_ss2_md.jpeg'></img>","0","false",""
"","html-keyboard-response","51","280040","0.0-10.0-0.18","1078","""event"",""trial"",""time""
""fullscreenenter"",""0"",""3146""
","
","
","""event"",""trial"",""time""
""fullscreenenter"",""0"",""3146""
","
","null","<div style=""font-size:60px;"">+</div>","","null","fixation","2021-08-09 18:51:41.294","","","","",""
"","mars-trial","52","296482","0.0-10.0-1.18","1078","""event"",""trial"",""time""
""fullscreenenter"",""0"",""3146""
","
","
","""event"",""trial"",""time""
""fullscreenenter"",""0"",""3146""
","
","15825.899999999907","<img style='border: 4px solid darkgrey;' src='img/tf1_19_M_ss3.jpeg'></img>","1","","exp","","3","<img src='img/tf1_19_T1_ss3_md.jpeg'></img>","0","false",""
"","html-keyboard-response","53","296987","0.0-10.0-0.19","1078","""event"",""trial"",""time""
""fullscreenenter"",""0"",""3146""
","
","
","""event"",""trial"",""time""
""fullscreenenter"",""0"",""3146""
","
","null","<div style=""font-size:60px;"">+</div>","","null","fixation","2021-08-09 18:51:58.241","","","","",""
"","mars-trial","54","310699","0.0-10.0-1.19","1078","""event"",""trial"",""time""
""fullscreenenter"",""0"",""3146""
","
","
","""event"",""trial"",""time""
""fullscreenenter"",""0"",""3146""
","
","13099.69999999972","<img style='border: 4px solid darkgrey;' src='img/tf1_20_M_ss1.jpeg'></img>","2","","exp","","0","<img src='img/tf1_20_T1_ss1_md.jpeg'></img>","0","true",""
"","html-keyboard-response","55","311204","0.0-10.0-0.20","1078","""event"",""trial"",""time""
""fullscreenenter"",""0"",""3146""
","
","
","""event"",""trial"",""time""
""fullscreenenter"",""0"",""3146""
","
","null","<div style=""font-size:60px;"">+</div>","","null","fixation","2021-08-09 18:52:12.458","","","","",""
"","mars-trial","56","341732","0.0-10.0-1.20","1078","""event"",""trial"",""time""
""fullscreenenter"",""0"",""3146""
","
","
","""event"",""trial"",""time""
""fullscreenenter"",""0"",""3146""
","
","29913.899999999907","<img style='border: 4px solid darkgrey;' src='img/tf1_21_M_ss2.jpeg'></img>","1","","exp","","3","<img src='img/tf1_21_T1_ss2_md.jpeg'></img>","0","false",""
"","html-keyboard-response","57","342237","0.0-10.0-0.21","1078","""event"",""trial"",""time""
""fullscreenenter"",""0"",""3146""
","
","
","""event"",""trial"",""time""
""fullscreenenter"",""0"",""3146""
","
","null","<div style=""font-size:60px;"">+</div>","","null","fixation","2021-08-09 18:52:43.491","","","","",""
"","mars-trial","58","352968","0.0-10.0-1.21","1078","""event"",""trial"",""time""
""fullscreenenter"",""0"",""3146""
","
","
","""event"",""trial"",""time""
""fullscreenenter"",""0"",""3146""
","
","10117.19999999972","<img style='border: 4px solid darkgrey;' src='img/tf1_22_M_ss3.jpeg'></img>","2","","exp","","1","<img src='img/tf1_22_T1_ss3_md.jpeg'></img>","0","false",""
"","html-keyboard-response","59","353473","0.0-10.0-0.22","1078","""event"",""trial"",""time""
""fullscreenenter"",""0"",""3146""
","
","
","""event"",""trial"",""time""
""fullscreenenter"",""0"",""3146""
","
","null","<div style=""font-size:60px;"">+</div>","","null","fixation","2021-08-09 18:52:54.727","","","","",""
"","mars-trial","60","355168","0.0-10.0-1.22","1078","""event"",""trial"",""time""
""fullscreenenter"",""0"",""3146""
","
","
","""event"",""trial"",""time""
""fullscreenenter"",""0"",""3146""
","
","1081","<img style='border: 4px solid darkgrey;' src='img/tf1_23_M_ss1.jpeg'></img>","1","","exp","","3","<img src='img/tf1_23_T1_ss1_md.jpeg'></img>","0","false",""
"","html-keyboard-response","61","355675","0.0-10.0-0.23","1078","""event"",""trial"",""time""
""fullscreenenter"",""0"",""3146""
","
","
","""event"",""trial"",""time""
""fullscreenenter"",""0"",""3146""
","
","null","<div style=""font-size:60px;"">+</div>","","null","fixation","2021-08-09 18:52:56.929","","","","",""
"","mars-trial","62","356911","0.0-10.0-1.23","1078","""event"",""trial"",""time""
""fullscreenenter"",""0"",""3146""
","
","
","""event"",""trial"",""time""
""fullscreenenter"",""0"",""3146""
","
","627.2999999998137","<img style='border: 4px solid darkgrey;' src='img/tf1_24_M_ss2.jpeg'></img>","2","","exp","","1","<img src='img/tf1_24_T1_ss2_md.jpeg'></img>","0","false",""
"","html-keyboard-response","63","357416","0.0-10.0-0.24","1078","""event"",""trial"",""time""
""fullscreenenter"",""0"",""3146""
","
","
","""event"",""trial"",""time""
""fullscreenenter"",""0"",""3146""
","
","null","<div style=""font-size:60px;"">+</div>","","null","fixation","2021-08-09 18:52:58.670","","","","",""
"","mars-trial","64","358541","0.0-10.0-1.24","1078","""event"",""trial"",""time""
""fullscreenenter"",""0"",""3146""
","
","
","""event"",""trial"",""time""
""fullscreenenter"",""0"",""3146""
","
","510.79999999981374","<img style='border: 4px solid darkgrey;' src='img/tf1_25_M_ss3.jpeg'></img>","3","","exp","","3","<img src='img/tf1_25_T1_ss3_md.jpeg'></img>","0","false",""
"","html-keyboard-response","65","359045","0.0-10.0-0.25","1078","""event"",""trial"",""time""
""fullscreenenter"",""0"",""3146""
","
","
","""event"",""trial"",""time""
""fullscreenenter"",""0"",""3146""
","
","null","<div style=""font-size:60px;"">+</div>","","null","fixation","2021-08-09 18:53:00.300","","","","",""
"","mars-trial","66","362017","0.0-10.0-1.25","1078","""event"",""trial"",""time""
""fullscreenenter"",""0"",""3146""
","
","
","""event"",""trial"",""time""
""fullscreenenter"",""0"",""3146""
","
","2361.2000000001863","<img style='border: 4px solid darkgrey;' src='img/tf1_26_M_ss1.jpeg'></img>","0","","exp","","2","<img src='img/tf1_26_T1_ss1_md.jpeg'></img>","0","false",""
"","html-keyboard-response","67","362521","0.0-10.0-0.26","1078","""event"",""trial"",""time""
""fullscreenenter"",""0"",""3146""
","
","
","""event"",""trial"",""time""
""fullscreenenter"",""0"",""3146""
","
","null","<div style=""font-size:60px;"">+</div>","","null","fixation","2021-08-09 18:53:03.775","","","","",""
"","mars-trial","68","363462","0.0-10.0-1.26","1078","""event"",""trial"",""time""
""fullscreenenter"",""0"",""3146""
","
","
","""event"",""trial"",""time""
""fullscreenenter"",""0"",""3146""
","
","331.8000000002794","<img style='border: 4px solid darkgrey;' src='img/tf1_27_M_ss2.jpeg'></img>","1","","exp","","2","<img src='img/tf1_27_T1_ss2_md.jpeg'></img>","0","false",""
"","html-keyboard-response","69","363966","0.0-10.0-0.27","1078","""event"",""trial"",""time""
""fullscreenenter"",""0"",""3146""
","
","
","""event"",""trial"",""time""
""fullscreenenter"",""0"",""3146""
","
","null","<div style=""font-size:60px;"">+</div>","","null","fixation","2021-08-09 18:53:05.221","","","","",""
"","mars-trial","70","366927","0.0-10.0-1.27","1078","""event"",""trial"",""time""
""fullscreenenter"",""0"",""3146""
","
","
","""event"",""trial"",""time""
""fullscreenenter"",""0"",""3146""
","
","2348.899999999907","<img style='border: 4px solid darkgrey;' src='img/tf1_28_M_ss3.jpeg'></img>","2","","exp","","2","<img src='img/tf1_28_T1_ss3_md.jpeg'></img>","0","false",""
"","html-keyboard-response","71","367431","0.0-10.0-0.28","1078","""event"",""trial"",""time""
""fullscreenenter"",""0"",""3146""
","
","
","""event"",""trial"",""time""
""fullscreenenter"",""0"",""3146""
","
","null","<div style=""font-size:60px;"">+</div>","","null","fixation","2021-08-09 18:53:08.686","","","","",""
"","mars-trial","72","370323","0.0-10.0-1.28","1078","""event"",""trial"",""time""
""fullscreenenter"",""0"",""3146""
","
","
","""event"",""trial"",""time""
""fullscreenenter"",""0"",""3146""
","
","2274.899999999907","<img style='border: 4px solid darkgrey;' src='img/tf1_29_M_ss1.jpeg'></img>","2","","exp","","2","<img src='img/tf1_29_T1_ss1_md.jpeg'></img>","0","false",""
"","html-keyboard-response","73","370827","0.0-10.0-0.29","1078","""event"",""trial"",""time""
""fullscreenenter"",""0"",""3146""
","
","
","""event"",""trial"",""time""
""fullscreenenter"",""0"",""3146""
","
","null","<div style=""font-size:60px;"">+</div>","","null","fixation","2021-08-09 18:53:12.081","","","","",""
"","mars-trial","74","375058","0.0-10.0-1.29","1078","""event"",""trial"",""time""
""fullscreenenter"",""0"",""3146""
","
","
","""event"",""trial"",""time""
""fullscreenenter"",""0"",""3146""
","
","3615.5","<img style='border: 4px solid darkgrey;' src='img/tf1_30_M_ss2.jpeg'></img>","1","","exp","","2","<img src='img/tf1_30_T1_ss2_md.jpeg'></img>","0","false",""
"","html-keyboard-response","75","375562","0.0-10.0-0.30","1078","""event"",""trial"",""time""
""fullscreenenter"",""0"",""3146""
","
","
","""event"",""trial"",""time""
""fullscreenenter"",""0"",""3146""
","
","null","<div style=""font-size:60px;"">+</div>","","null","fixation","2021-08-09 18:53:16.816","","","","",""
"","mars-trial","76","377423","0.0-10.0-1.30","1078","""event"",""trial"",""time""
""fullscreenenter"",""0"",""3146""
","
","
","""event"",""trial"",""time""
""fullscreenenter"",""0"",""3146""
","
","1244.7999999998137","<img style='border: 4px solid darkgrey;' src='img/tf1_31_M_ss3.jpeg'></img>","3","","exp","","2","<img src='img/tf1_31_T1_ss3_md.jpeg'></img>","0","false",""
"","html-keyboard-response","77","377927","0.0-10.0-0.31","1078","""event"",""trial"",""time""
""fullscreenenter"",""0"",""3146""
","
","
","""event"",""trial"",""time""
""fullscreenenter"",""0"",""3146""
","
","null","<div style=""font-size:60px;"">+</div>","","null","fixation","2021-08-09 18:53:19.182","","","","",""
"","mars-trial","78","379288","0.0-10.0-1.31","1078","""event"",""trial"",""time""
""fullscreenenter"",""0"",""3146""
","
","
","""event"",""trial"",""time""
""fullscreenenter"",""0"",""3146""
","
","746.1000000000931","<img style='border: 4px solid darkgrey;' src='img/tf1_32_M_ss1.jpeg'></img>","2","","exp","","1","<img src='img/tf1_32_T1_ss1_md.jpeg'></img>","0","false",""
"","html-keyboard-response","79","379793","0.0-10.0-0.32","1078","""event"",""trial"",""time""
""fullscreenenter"",""0"",""3146""
","
","
","""event"",""trial"",""time""
""fullscreenenter"",""0"",""3146""
","
","null","<div style=""font-size:60px;"">+</div>","","null","fixation","2021-08-09 18:53:21.047","","","","",""
"","mars-trial","80","393889","0.0-10.0-1.32","1078","""event"",""trial"",""time""
""fullscreenenter"",""0"",""3146""
","
","
","""event"",""trial"",""time""
""fullscreenenter"",""0"",""3146""
","
","13484.200000000186","<img style='border: 4px solid darkgrey;' src='img/tf1_33_M_ss2.jpeg'></img>","2","","exp","","0","<img src='img/tf1_33_T1_ss2_md.jpeg'></img>","0","true",""
"","html-keyboard-response","81","394394","0.0-10.0-0.33","1078","""event"",""trial"",""time""
""fullscreenenter"",""0"",""3146""
","
","
","""event"",""trial"",""time""
""fullscreenenter"",""0"",""3146""
","
","null","<div style=""font-size:60px;"">+</div>","","null","fixation","2021-08-09 18:53:35.648","","","","",""
"","mars-trial","82","404600","0.0-10.0-1.33","1078","""event"",""trial"",""time""
""fullscreenenter"",""0"",""3146""
","
","
","""event"",""trial"",""time""
""fullscreenenter"",""0"",""3146""
","
","9593.399999999907","<img style='border: 4px solid darkgrey;' src='img/tf1_34_M_ss3.jpeg'></img>","3","","exp","","0","<img src='img/tf1_34_T1_ss3_md.jpeg'></img>","0","true",""
"","html-keyboard-response","83","405105","0.0-10.0-0.34","1078","""event"",""trial"",""time""
""fullscreenenter"",""0"",""3146""
","
","
","""event"",""trial"",""time""
""fullscreenenter"",""0"",""3146""
","
","null","<div style=""font-size:60px;"">+</div>","","null","fixation","2021-08-09 18:53:46.359","","","","",""
"","mars-trial","84","406925","0.0-10.0-1.34","1078","""event"",""trial"",""time""
""fullscreenenter"",""0"",""3146""
","
","
","""event"",""trial"",""time""
""fullscreenenter"",""0"",""3146""
","
","1207.4000000003725","<img style='border: 4px solid darkgrey;' src='img/tf1_35_M_ss1.jpeg'></img>","2","","exp","","3","<img src='img/tf1_35_T1_ss1_md.jpeg'></img>","0","false",""
"","html-keyboard-response","85","407430","0.0-10.0-0.35","1078","""event"",""trial"",""time""
""fullscreenenter"",""0"",""3146""
","
","
","""event"",""trial"",""time""
""fullscreenenter"",""0"",""3146""
","
","null","<div style=""font-size:60px;"">+</div>","","null","fixation","2021-08-09 18:53:48.684","","","","",""
"","mars-trial","86","418987","0.0-10.0-1.35","1078","""event"",""trial"",""time""
""fullscreenenter"",""0"",""3146""
","
","
","""event"",""trial"",""time""
""fullscreenenter"",""0"",""3146""
","
","10942.799999999814","<img style='border: 4px solid darkgrey;' src='img/tf1_36_M_ss2.jpeg'></img>","3","","exp","","2","<img src='img/tf1_36_T1_ss2_md.jpeg'></img>","0","false",""
"","html-keyboard-response","87","419492","0.0-10.0-0.36","1078","""event"",""trial"",""time""
""fullscreenenter"",""0"",""3146""
","
","
","""event"",""trial"",""time""
""fullscreenenter"",""0"",""3146""
","
","null","<div style=""font-size:60px;"">+</div>","","null","fixation","2021-08-09 18:54:00.746","","","","",""
"","mars-trial","88","421302","0.0-10.0-1.36","1078","""event"",""trial"",""time""
""fullscreenenter"",""0"",""3146""
","
","
","""event"",""trial"",""time""
""fullscreenenter"",""0"",""3146""
","
","1194.6999999997206","<img style='border: 4px solid darkgrey;' src='img/tf1_37_M_ss3.jpeg'></img>","3","","exp","","2","<img src='img/tf1_37_T1_ss3_md.jpeg'></img>","0","false",""
"","html-keyboard-response","89","421807","0.0-10.0-0.37","1078","""event"",""trial"",""time""
""fullscreenenter"",""0"",""3146""
","
","
","""event"",""trial"",""time""
""fullscreenenter"",""0"",""3146""
","
","null","<div style=""font-size:60px;"">+</div>","","null","fixation","2021-08-09 18:54:03.061","","","","",""
"","mars-trial","90","423117","0.0-10.0-1.37","1078","""event"",""trial"",""time""
""fullscreenenter"",""0"",""3146""
","
","
","""event"",""trial"",""time""
""fullscreenenter"",""0"",""3146""
","
","695.5","<img style='border: 4px solid darkgrey;' src='img/tf1_38_M_ss1.jpeg'></img>","0","","exp","","1","<img src='img/tf1_38_T1_ss1_md.jpeg'></img>","0","false",""
"","html-keyboard-response","91","423622","0.0-10.0-0.38","1078","""event"",""trial"",""time""
""fullscreenenter"",""0"",""3146""
","
","
","""event"",""trial"",""time""
""fullscreenenter"",""0"",""3146""
","
","null","<div style=""font-size:60px;"">+</div>","","null","fixation","2021-08-09 18:54:04.876","","","","",""
"","mars-trial","92","424408","0.0-10.0-1.38","1078","""event"",""trial"",""time""
""fullscreenenter"",""0"",""3146""
","
","
","""event"",""trial"",""time""
""fullscreenenter"",""0"",""3146""
","
","172.59999999962747","<img style='border: 4px solid darkgrey;' src='img/tf1_39_M_ss2.jpeg'></img>","0","","exp","","2","<img src='img/tf1_39_T1_ss2_md.jpeg'></img>","0","false",""
"","html-keyboard-response","93","424913","0.0-10.0-0.39","1078","""event"",""trial"",""time""
""fullscreenenter"",""0"",""3146""
","
","
","""event"",""trial"",""time""
""fullscreenenter"",""0"",""3146""
","
","null","<div style=""font-size:60px;"">+</div>","","null","fixation","2021-08-09 18:54:06.167","","","","",""
"","mars-trial","94","425613","0.0-10.0-1.39","1078","""event"",""trial"",""time""
""fullscreenenter"",""0"",""3146""
","
","
","""event"",""trial"",""time""
""fullscreenenter"",""0"",""3146""
","
","84","<img style='border: 4px solid darkgrey;' src='img/tf1_40_M_ss3.jpeg'></img>","0","","exp","","3","<img src='img/tf1_40_T1_ss3_md.jpeg'></img>","0","false",""
"","html-keyboard-response","95","426118","0.0-10.0-0.40","1078","""event"",""trial"",""time""
""fullscreenenter"",""0"",""3146""
","
","
","""event"",""trial"",""time""
""fullscreenenter"",""0"",""3146""
","
","null","<div style=""font-size:60px;"">+</div>","","null","fixation","2021-08-09 18:54:07.372","","","","",""
"","mars-trial","96","427068","0.0-10.0-1.40","1078","""event"",""trial"",""time""
""fullscreenenter"",""0"",""3146""
","
","
","""event"",""trial"",""time""
""fullscreenenter"",""0"",""3146""
","
","340.39999999990687","<img style='border: 4px solid darkgrey;' src='img/tf1_41_M_ss1.jpeg'></img>","1","","exp","","2","<img src='img/tf1_41_T1_ss1_md.jpeg'></img>","0","false",""
"","html-keyboard-response","97","427573","0.0-10.0-0.41","1078","""event"",""trial"",""time""
""fullscreenenter"",""0"",""3146""
","
","
","""event"",""trial"",""time""
""fullscreenenter"",""0"",""3146""
","
","null","<div style=""font-size:60px;"">+</div>","","null","fixation","2021-08-09 18:54:08.827","","","","",""
"","mars-trial","98","428693","0.0-10.0-1.41","1078","""event"",""trial"",""time""
""fullscreenenter"",""0"",""3146""
","
","
","""event"",""trial"",""time""
""fullscreenenter"",""0"",""3146""
","
","509.1999999997206","<img style='border: 4px solid darkgrey;' src='img/tf1_42_M_ss2.jpeg'></img>","2","","exp","","2","<img src='img/tf1_42_T1_ss2_md.jpeg'></img>","0","false",""
"","html-keyboard-response","99","429198","0.0-10.0-0.42","1078","""event"",""trial"",""time""
""fullscreenenter"",""0"",""3146""
","
","
","""event"",""trial"",""time""
""fullscreenenter"",""0"",""3146""
","
","null","<div style=""font-size:60px;"">+</div>","","null","fixation","2021-08-09 18:54:10.452","","","","",""
"","mars-trial","100","429988","0.0-10.0-1.42","1078","""event"",""trial"",""time""
""fullscreenenter"",""0"",""3146""
","
","
","""event"",""trial"",""time""
""fullscreenenter"",""0"",""3146""
","
","178.39999999990687","<img style='border: 4px solid darkgrey;' src='img/tf1_43_M_ss3.jpeg'></img>","1","","exp","","1","<img src='img/tf1_43_T1_ss3_md.jpeg'></img>","0","false",""
"","html-keyboard-response","101","430493","0.0-10.0-0.43","1078","""event"",""trial"",""time""
""fullscreenenter"",""0"",""3146""
","
","
","""event"",""trial"",""time""
""fullscreenenter"",""0"",""3146""
","
","null","<div style=""font-size:60px;"">+</div>","","null","fixation","2021-08-09 18:54:11.747","","","","",""
"","mars-trial","102","432748","0.0-10.0-1.43","1078","""event"",""trial"",""time""
""fullscreenenter"",""0"",""3146""
","
","
","""event"",""trial"",""time""
""fullscreenenter"",""0"",""3146""
","
","1641","<img style='border: 4px solid darkgrey;' src='img/tf1_44_M_ss1.jpeg'></img>","3","","exp","","3","<img src='img/tf1_44_T1_ss1_md.jpeg'></img>","0","false",""
"","html-keyboard-response","103","433253","0.0-10.0-0.44","1078","""event"",""trial"",""time""
""fullscreenenter"",""0"",""3146""
","
","
","""event"",""trial"",""time""
""fullscreenenter"",""0"",""3146""
","
","null","<div style=""font-size:60px;"">+</div>","","null","fixation","2021-08-09 18:54:14.507","","","","",""
"","mars-trial","104","434238","0.0-10.0-1.44","1078","""event"",""trial"",""time""
""fullscreenenter"",""0"",""3146""
","
","
","""event"",""trial"",""time""
""fullscreenenter"",""0"",""3146""
","
","373.29999999981374","<img style='border: 4px solid darkgrey;' src='img/tf1_45_M_ss2.jpeg'></img>","1","","exp","","2","<img src='img/tf1_45_T1_ss2_md.jpeg'></img>","0","false",""
"","html-keyboard-response","105","434742","0.0-10.0-0.45","1078","""event"",""trial"",""time""
""fullscreenenter"",""0"",""3146""
""blur"",""106"",""435759""
""focus"",""106"",""436372""
","""event"",""trial"",""time""
""blur"",""106"",""435759""
","""event"",""trial"",""time""
""focus"",""106"",""436372""
","""event"",""trial"",""time""
""fullscreenenter"",""0"",""3146""
","
","null","<div style=""font-size:60px;"">+</div>","","null","fixation","2021-08-09 18:54:15.997","","","","",""
"","mars-trial","106","436959","0.0-10.0-1.45","1078","""event"",""trial"",""time""
""fullscreenenter"",""0"",""3146""
""blur"",""106"",""435759""
""focus"",""106"",""436372""
","""event"",""trial"",""time""
""blur"",""106"",""435759""
","""event"",""trial"",""time""
""focus"",""106"",""436372""
","""event"",""trial"",""time""
""fullscreenenter"",""0"",""3146""
","
","1608.2999999998137","<img style='border: 4px solid darkgrey;' src='img/tf1_46_M_ss3.jpeg'></img>","3","","exp","","1","<img src='img/tf1_46_T1_ss3_md.jpeg'></img>","0","false",""
"","html-keyboard-response","107","437463","0.0-10.0-0.46","1078","""event"",""trial"",""time""
""fullscreenenter"",""0"",""3146""
""blur"",""106"",""435759""
""focus"",""106"",""436372""
","""event"",""trial"",""time""
""blur"",""106"",""435759""
","""event"",""trial"",""time""
""focus"",""106"",""436372""
","""event"",""trial"",""time""
""fullscreenenter"",""0"",""3146""
","
","null","<div style=""font-size:60px;"">+</div>","","null","fixation","2021-08-09 18:54:18.718","","","","",""
"","mars-trial","108","438629","0.0-10.0-1.46","1078","""event"",""trial"",""time""
""fullscreenenter"",""0"",""3146""
""blur"",""106"",""435759""
""focus"",""106"",""436372""
","""event"",""trial"",""time""
""blur"",""106"",""435759""
","""event"",""trial"",""time""
""focus"",""106"",""436372""
","""event"",""trial"",""time""
""fullscreenenter"",""0"",""3146""
","
","550.2999999998137","<img style='border: 4px solid darkgrey;' src='img/tf1_47_M_ss1.jpeg'></img>","2","","exp","","2","<img src='img/tf1_47_T1_ss1_md.jpeg'></img>","0","false",""
"","html-keyboard-response","109","439133","0.0-10.0-0.47","1078","""event"",""trial"",""time""
""fullscreenenter"",""0"",""3146""
""blur"",""106"",""435759""
""focus"",""106"",""436372""
","""event"",""trial"",""time""
""blur"",""106"",""435759""
","""event"",""trial"",""time""
""focus"",""106"",""436372""
","""event"",""trial"",""time""
""fullscreenenter"",""0"",""3146""
","
","null","<div style=""font-size:60px;"">+</div>","","null","fixation","2021-08-09 18:54:20.388","","","","",""
"","mars-trial","110","441559","0.0-10.0-1.47","1078","""event"",""trial"",""time""
""fullscreenenter"",""0"",""3146""
""blur"",""106"",""435759""
""focus"",""106"",""436372""
","""event"",""trial"",""time""
""blur"",""106"",""435759""
","""event"",""trial"",""time""
""focus"",""106"",""436372""
","""event"",""trial"",""time""
""fullscreenenter"",""0"",""3146""
","
","1811.8999999999069","<img style='border: 4px solid darkgrey;' src='img/tf1_48_M_ss2.jpeg'></img>","0","","exp","","0","<img src='img/tf1_48_T1_ss2_md.jpeg'></img>","0","true",""
"","html-keyboard-response","111","442063","0.0-10.0-0.48","1078","""event"",""trial"",""time""
""fullscreenenter"",""0"",""3146""
""blur"",""106"",""435759""
""focus"",""106"",""436372""
","""event"",""trial"",""time""
""blur"",""106"",""435759""
","""event"",""trial"",""time""
""focus"",""106"",""436372""
","""event"",""trial"",""time""
""fullscreenenter"",""0"",""3146""
","
","null","<div style=""font-size:60px;"">+</div>","","null","fixation","2021-08-09 18:54:23.318","","","","",""
"","mars-trial","112","469132","0.0-10.0-1.48","1078","""event"",""trial"",""time""
""fullscreenenter"",""0"",""3146""
""blur"",""106"",""435759""
""focus"",""106"",""436372""
","""event"",""trial"",""time""
""blur"",""106"",""435759""
","""event"",""trial"",""time""
""focus"",""106"",""436372""
","""event"",""trial"",""time""
""fullscreenenter"",""0"",""3146""
","
","26454.5","<img style='border: 4px solid darkgrey;' src='img/tf1_49_M_ss3.jpeg'></img>","1","","exp","","2","<img src='img/tf1_49_T1_ss3_md.jpeg'></img>","0","false",""
"","html-keyboard-response","113","469636","0.0-10.0-0.49","1078","""event"",""trial"",""time""
""fullscreenenter"",""0"",""3146""
""blur"",""106"",""435759""
""focus"",""106"",""436372""
","""event"",""trial"",""time""
""blur"",""106"",""435759""
","""event"",""trial"",""time""
""focus"",""106"",""436372""
","""event"",""trial"",""time""
""fullscreenenter"",""0"",""3146""
","
","null","<div style=""font-size:60px;"">+</div>","","null","fixation","2021-08-09 18:54:50.890","","","","",""
"","mars-trial","114","493386","0.0-10.0-1.49","1078","""event"",""trial"",""time""
""fullscreenenter"",""0"",""3146""
""blur"",""106"",""435759""
""focus"",""106"",""436372""
","""event"",""trial"",""time""
""blur"",""106"",""435759""
","""event"",""trial"",""time""
""focus"",""106"",""436372""
","""event"",""trial"",""time""
""fullscreenenter"",""0"",""3146""
","
","23136.5","<img style='border: 4px solid darkgrey;' src='img/tf1_50_M_ss1.jpeg'></img>","2","","exp","","2","<img src='img/tf1_50_T1_ss1_md.jpeg'></img>","0","false",""
"","html-keyboard-response","115","493891","0.0-10.0-0.50","1078","""event"",""trial"",""time""
""fullscreenenter"",""0"",""3146""
""blur"",""106"",""435759""
""focus"",""106"",""436372""
","""event"",""trial"",""time""
""blur"",""106"",""435759""
","""event"",""trial"",""time""
""focus"",""106"",""436372""
","""event"",""trial"",""time""
""fullscreenenter"",""0"",""3146""
","
","null","<div style=""font-size:60px;"">+</div>","","null","fixation","2021-08-09 18:55:15.145","","","","",""
"","mars-trial","116","496336","0.0-10.0-1.50","1078","""event"",""trial"",""time""
""fullscreenenter"",""0"",""3146""
""blur"",""106"",""435759""
""focus"",""106"",""436372""
","""event"",""trial"",""time""
""blur"",""106"",""435759""
","""event"",""trial"",""time""
""focus"",""106"",""436372""
","""event"",""trial"",""time""
""fullscreenenter"",""0"",""3146""
","
","1829.1999999997206","<img style='border: 4px solid darkgrey;' src='img/tf1_51_M_ss2.jpeg'></img>","3","","exp","","0","<img src='img/tf1_51_T1_ss2_md.jpeg'></img>","0","true",""
"","html-keyboard-response","117","496842","0.0-10.0-0.51","1078","""event"",""trial"",""time""
""fullscreenenter"",""0"",""3146""
""blur"",""106"",""435759""
""focus"",""106"",""436372""
","""event"",""trial"",""time""
""blur"",""106"",""435759""
","""event"",""trial"",""time""
""focus"",""106"",""436372""
","""event"",""trial"",""time""
""fullscreenenter"",""0"",""3146""
","
","null","<div style=""font-size:60px;"">+</div>","","null","fixation","2021-08-09 18:55:18.096","","","","",""
"","mars-trial","118","499502","0.0-10.0-1.51","1078","""event"",""trial"",""time""
""fullscreenenter"",""0"",""3146""
""blur"",""106"",""435759""
""focus"",""106"",""436372""
","""event"",""trial"",""time""
""blur"",""106"",""435759""
","""event"",""trial"",""time""
""focus"",""106"",""436372""
","""event"",""trial"",""time""
""fullscreenenter"",""0"",""3146""
","
","2045.3999999999069","<img style='border: 4px solid darkgrey;' src='img/tf1_52_M_ss3.jpeg'></img>","1","","exp","","2","<img src='img/tf1_52_T1_ss3_md.jpeg'></img>","0","false",""
"","html-keyboard-response","119","500007","0.0-10.0-0.52","1078","""event"",""trial"",""time""
""fullscreenenter"",""0"",""3146""
""blur"",""106"",""435759""
""focus"",""106"",""436372""
","""event"",""trial"",""time""
""blur"",""106"",""435759""
","""event"",""trial"",""time""
""focus"",""106"",""436372""
","""event"",""trial"",""time""
""fullscreenenter"",""0"",""3146""
","
","null","<div style=""font-size:60px;"">+</div>","","null","fixation","2021-08-09 18:55:21.261","","","","",""
"","mars-trial","120","501907","0.0-10.0-1.52","1078","""event"",""trial"",""time""
""fullscreenenter"",""0"",""3146""
""blur"",""106"",""435759""
""focus"",""106"",""436372""
","""event"",""trial"",""time""
""blur"",""106"",""435759""
","""event"",""trial"",""time""
""focus"",""106"",""436372""
","""event"",""trial"",""time""
""fullscreenenter"",""0"",""3146""
","
","1288.1999999997206","<img style='border: 4px solid darkgrey;' src='img/tf1_53_M_ss1.jpeg'></img>","2","","exp","","0","<img src='img/tf1_53_T1_ss1_md.jpeg'></img>","0","true",""
"","html-keyboard-response","121","502412","0.0-10.0-0.53","1078","""event"",""trial"",""time""
""fullscreenenter"",""0"",""3146""
""blur"",""106"",""435759""
""focus"",""106"",""436372""
","""event"",""trial"",""time""
""blur"",""106"",""435759""
","""event"",""trial"",""time""
""focus"",""106"",""436372""
","""event"",""trial"",""time""
""fullscreenenter"",""0"",""3146""
","
","null","<div style=""font-size:60px;"">+</div>","","null","fixation","2021-08-09 18:55:23.666","","","","",""
"","mars-trial","122","509943","0.0-10.0-1.53","1078","""event"",""trial"",""time""
""fullscreenenter"",""0"",""3146""
""blur"",""106"",""435759""
""focus"",""106"",""436372""
","""event"",""trial"",""time""
""blur"",""106"",""435759""
","""event"",""trial"",""time""
""focus"",""106"",""436372""
","""event"",""trial"",""time""
""fullscreenenter"",""0"",""3146""
","
","6920","<img style='border: 4px solid darkgrey;' src='img/tf1_54_M_ss2.jpeg'></img>","2","","exp","","2","<img src='img/tf1_54_T1_ss2_md.jpeg'></img>","0","false",""
"","html-keyboard-response","123","510448","0.0-10.0-0.54","1078","""event"",""trial"",""time""
""fullscreenenter"",""0"",""3146""
""blur"",""106"",""435759""
""focus"",""106"",""436372""
","""event"",""trial"",""time""
""blur"",""106"",""435759""
","""event"",""trial"",""time""
""focus"",""106"",""436372""
","""event"",""trial"",""time""
""fullscreenenter"",""0"",""3146""
","
","null","<div style=""font-size:60px;"">+</div>","","null","fixation","2021-08-09 18:55:31.702","","","","",""
"","mars-trial","124","513088","0.0-10.0-1.54","1078","""event"",""trial"",""time""
""fullscreenenter"",""0"",""3146""
""blur"",""106"",""435759""
""focus"",""106"",""436372""
","""event"",""trial"",""time""
""blur"",""106"",""435759""
","""event"",""trial"",""time""
""focus"",""106"",""436372""
","""event"",""trial"",""time""
""fullscreenenter"",""0"",""3146""
","
","2026.4000000003725","<img style='border: 4px solid darkgrey;' src='img/tf1_55_M_ss3.jpeg'></img>","1","","exp","","1","<img src='img/tf1_55_T1_ss3_md.jpeg'></img>","0","false",""
"","html-keyboard-response","125","513594","0.0-10.0-0.55","1078","""event"",""trial"",""time""
""fullscreenenter"",""0"",""3146""
""blur"",""106"",""435759""
""focus"",""106"",""436372""
","""event"",""trial"",""time""
""blur"",""106"",""435759""
","""event"",""trial"",""time""
""focus"",""106"",""436372""
","""event"",""trial"",""time""
""fullscreenenter"",""0"",""3146""
","
","null","<div style=""font-size:60px;"">+</div>","","null","fixation","2021-08-09 18:55:34.848","","","","",""
"","mars-trial","126","521995","0.0-10.0-1.55","1078","""event"",""trial"",""time""
""fullscreenenter"",""0"",""3146""
""blur"",""106"",""435759""
""focus"",""106"",""436372""
","""event"",""trial"",""time""
""blur"",""106"",""435759""
","""event"",""trial"",""time""
""focus"",""106"",""436372""
","""event"",""trial"",""time""
""fullscreenenter"",""0"",""3146""
","
","7788","<img style='border: 4px solid darkgrey;' src='img/tf1_56_M_ss1.jpeg'></img>","0","","exp","","2","<img src='img/tf1_56_T1_ss1_md.jpeg'></img>","0","false",""
"","html-keyboard-response","127","522499","0.0-10.0-0.56","1078","""event"",""trial"",""time""
""fullscreenenter"",""0"",""3146""
""blur"",""106"",""435759""
""focus"",""106"",""436372""
","""event"",""trial"",""time""
""blur"",""106"",""435759""
","""event"",""trial"",""time""
""focus"",""106"",""436372""
","""event"",""trial"",""time""
""fullscreenenter"",""0"",""3146""
","
","null","<div style=""font-size:60px;"">+</div>","","null","fixation","2021-08-09 18:55:43.754","","","","",""
"","mars-trial","128","525885","0.0-10.0-1.56","1078","""event"",""trial"",""time""
""fullscreenenter"",""0"",""3146""
""blur"",""106"",""435759""
""focus"",""106"",""436372""
","""event"",""trial"",""time""
""blur"",""106"",""435759""
","""event"",""trial"",""time""
""focus"",""106"",""436372""
","""event"",""trial"",""time""
""fullscreenenter"",""0"",""3146""
","
","2769.2999999998137","<img style='border: 4px solid darkgrey;' src='img/tf1_57_M_ss2.jpeg'></img>","1","","exp","","3","<img src='img/tf1_57_T1_ss2_md.jpeg'></img>","0","false",""
"","html-keyboard-response","129","526389","0.0-10.0-0.57","1078","""event"",""trial"",""time""
""fullscreenenter"",""0"",""3146""
""blur"",""106"",""435759""
""focus"",""106"",""436372""
","""event"",""trial"",""time""
""blur"",""106"",""435759""
","""event"",""trial"",""time""
""focus"",""106"",""436372""
","""event"",""trial"",""time""
""fullscreenenter"",""0"",""3146""
","
","null","<div style=""font-size:60px;"">+</div>","","null","fixation","2021-08-09 18:55:47.644","","","","",""
"","mars-trial","130","528566","0.0-10.0-1.57","1078","""event"",""trial"",""time""
""fullscreenenter"",""0"",""3146""
""blur"",""106"",""435759""
""focus"",""106"",""436372""
","""event"",""trial"",""time""
""blur"",""106"",""435759""
","""event"",""trial"",""time""
""focus"",""106"",""436372""
","""event"",""trial"",""time""
""fullscreenenter"",""0"",""3146""
","
","1561.3000000002794","<img style='border: 4px solid darkgrey;' src='img/tf1_58_M_ss3.jpeg'></img>","2","","exp","","1","<img src='img/tf1_58_T1_ss3_md.jpeg'></img>","0","false",""
"","html-keyboard-response","131","529070","0.0-10.0-0.58","1078","""event"",""trial"",""time""
""fullscreenenter"",""0"",""3146""
""blur"",""106"",""435759""
""focus"",""106"",""436372""
","""event"",""trial"",""time""
""blur"",""106"",""435759""
","""event"",""trial"",""time""
""focus"",""106"",""436372""
","""event"",""trial"",""time""
""fullscreenenter"",""0"",""3146""
","
","null","<div style=""font-size:60px;"">+</div>","","null","fixation","2021-08-09 18:55:50.324","","","","",""
"","mars-trial","132","531151","0.0-10.0-1.58","1078","""event"",""trial"",""time""
""fullscreenenter"",""0"",""3146""
""blur"",""106"",""435759""
""focus"",""106"",""436372""
","""event"",""trial"",""time""
""blur"",""106"",""435759""
","""event"",""trial"",""time""
""focus"",""106"",""436372""
","""event"",""trial"",""time""
""fullscreenenter"",""0"",""3146""
","
","1469.5","<img style='border: 4px solid darkgrey;' src='img/tf1_59_M_ss1.jpeg'></img>","3","","exp","","3","<img src='img/tf1_59_T1_ss1_md.jpeg'></img>","0","false",""
"","html-keyboard-response","133","531655","0.0-10.0-0.59","1078","""event"",""trial"",""time""
""fullscreenenter"",""0"",""3146""
""blur"",""106"",""435759""
""focus"",""106"",""436372""
","""event"",""trial"",""time""
""blur"",""106"",""435759""
","""event"",""trial"",""time""
""focus"",""106"",""436372""
","""event"",""trial"",""time""
""fullscreenenter"",""0"",""3146""
","
","null","<div style=""font-size:60px;"">+</div>","","null","fixation","2021-08-09 18:55:52.909","","","","",""
"","mars-trial","134","548462","0.0-10.0-1.59","1078","""event"",""trial"",""time""
""fullscreenenter"",""0"",""3146""
""blur"",""106"",""435759""
""focus"",""106"",""436372""
","""event"",""trial"",""time""
""blur"",""106"",""435759""
","""event"",""trial"",""time""
""focus"",""106"",""436372""
","""event"",""trial"",""time""
""fullscreenenter"",""0"",""3146""
","
","16193.700000000186","<img style='border: 4px solid darkgrey;' src='img/tf1_60_M_ss2.jpeg'></img>","2","","exp","","2","<img src='img/tf1_60_T1_ss2_md.jpeg'></img>","0","false",""
"","html-keyboard-response","135","548967","0.0-10.0-0.60","1078","""event"",""trial"",""time""
""fullscreenenter"",""0"",""3146""
""blur"",""106"",""435759""
""focus"",""106"",""436372""
","""event"",""trial"",""time""
""blur"",""106"",""435759""
","""event"",""trial"",""time""
""focus"",""106"",""436372""
","""event"",""trial"",""time""
""fullscreenenter"",""0"",""3146""
","
","null","<div style=""font-size:60px;"">+</div>","","null","fixation","2021-08-09 18:56:10.221","","","","",""
"","mars-trial","136","551502","0.0-10.0-1.60","1078","""event"",""trial"",""time""
""fullscreenenter"",""0"",""3146""
""blur"",""106"",""435759""
""focus"",""106"",""436372""
","""event"",""trial"",""time""
""blur"",""106"",""435759""
","""event"",""trial"",""time""
""focus"",""106"",""436372""
","""event"",""trial"",""time""
""fullscreenenter"",""0"",""3146""
","
","1919.3999999999069","<img style='border: 4px solid darkgrey;' src='img/tf1_61_M_ss3.jpeg'></img>","1","","exp","","2","<img src='img/tf1_61_T1_ss3_md.jpeg'></img>","0","false",""
"","html-keyboard-response","137","552013","0.0-10.0-0.61","1078","""event"",""trial"",""time""
""fullscreenenter"",""0"",""3146""
""blur"",""106"",""435759""
""focus"",""106"",""436372""
","""event"",""trial"",""time""
""blur"",""106"",""435759""
","""event"",""trial"",""time""
""focus"",""106"",""436372""
","""event"",""trial"",""time""
""fullscreenenter"",""0"",""3146""
","
","null","<div style=""font-size:60px;"">+</div>","","null","fixation","2021-08-09 18:56:13.267","","","","",""
"","mars-trial","138","555948","0.0-10.0-1.61","1078","""event"",""trial"",""time""
""fullscreenenter"",""0"",""3146""
""blur"",""106"",""435759""
""focus"",""106"",""436372""
","""event"",""trial"",""time""
""blur"",""106"",""435759""
","""event"",""trial"",""time""
""focus"",""106"",""436372""
","""event"",""trial"",""time""
""fullscreenenter"",""0"",""3146""
","
","3323.899999999907","<img style='border: 4px solid darkgrey;' src='img/tf1_62_M_ss1.jpeg'></img>","0","","exp","","1","<img src='img/tf1_62_T1_ss1_md.jpeg'></img>","0","false",""
"","html-keyboard-response","139","556453","0.0-10.0-0.62","1078","""event"",""trial"",""time""
""fullscreenenter"",""0"",""3146""
""blur"",""106"",""435759""
""focus"",""106"",""436372""
","""event"",""trial"",""time""
""blur"",""106"",""435759""
","""event"",""trial"",""time""
""focus"",""106"",""436372""
","""event"",""trial"",""time""
""fullscreenenter"",""0"",""3146""
","
","null","<div style=""font-size:60px;"">+</div>","","null","fixation","2021-08-09 18:56:17.707","","","","",""
"","mars-trial","140","560749","0.0-10.0-1.62","1078","""event"",""trial"",""time""
""fullscreenenter"",""0"",""3146""
""blur"",""106"",""435759""
""focus"",""106"",""436372""
","""event"",""trial"",""time""
""blur"",""106"",""435759""
","""event"",""trial"",""time""
""focus"",""106"",""436372""
","""event"",""trial"",""time""
""fullscreenenter"",""0"",""3146""
","
","3682.5","<img style='border: 4px solid darkgrey;' src='img/tf1_63_M_ss2.jpeg'></img>","3","","exp","","2","<img src='img/tf1_63_T1_ss2_md.jpeg'></img>","0","false",""
"","html-keyboard-response","141","561254","0.0-10.0-0.63","1078","""event"",""trial"",""time""
""fullscreenenter"",""0"",""3146""
""blur"",""106"",""435759""
""focus"",""106"",""436372""
","""event"",""trial"",""time""
""blur"",""106"",""435759""
","""event"",""trial"",""time""
""focus"",""106"",""436372""
","""event"",""trial"",""time""
""fullscreenenter"",""0"",""3146""
","
","null","<div style=""font-size:60px;"">+</div>","","null","fixation","2021-08-09 18:56:22.508","","","","",""
"","mars-trial","142","562574","0.0-10.0-1.63","1078","""event"",""trial"",""time""
""fullscreenenter"",""0"",""3146""
""blur"",""106"",""435759""
""focus"",""106"",""436372""
","""event"",""trial"",""time""
""blur"",""106"",""435759""
","""event"",""trial"",""time""
""focus"",""106"",""436372""
","""event"",""trial"",""time""
""fullscreenenter"",""0"",""3146""
","
","707.6999999997206","<img style='border: 4px solid darkgrey;' src='img/tf1_64_M_ss3.jpeg'></img>","2","","exp","","3","<img src='img/tf1_64_T1_ss3_md.jpeg'></img>","0","false",""
"","html-keyboard-response","143","563079","0.0-10.0-0.64","1078","""event"",""trial"",""time""
""fullscreenenter"",""0"",""3146""
""blur"",""106"",""435759""
""focus"",""106"",""436372""
","""event"",""trial"",""time""
""blur"",""106"",""435759""
","""event"",""trial"",""time""
""focus"",""106"",""436372""
","""event"",""trial"",""time""
""fullscreenenter"",""0"",""3146""
","
","null","<div style=""font-size:60px;"">+</div>","","null","fixation","2021-08-09 18:56:24.333","","","","",""
"","mars-trial","144","573310","0.0-10.0-1.64","1078","""event"",""trial"",""time""
""fullscreenenter"",""0"",""3146""
""blur"",""106"",""435759""
""focus"",""106"",""436372""
","""event"",""trial"",""time""
""blur"",""106"",""435759""
","""event"",""trial"",""time""
""focus"",""106"",""436372""
","""event"",""trial"",""time""
""fullscreenenter"",""0"",""3146""
","
","9618.100000000093","<img style='border: 4px solid darkgrey;' src='img/tf1_65_M_ss1.jpeg'></img>","2","","exp","","0","<img src='img/tf1_65_T1_ss1_md.jpeg'></img>","0","true",""
"","html-keyboard-response","145","573815","0.0-10.0-0.65","1078","""event"",""trial"",""time""
""fullscreenenter"",""0"",""3146""
""blur"",""106"",""435759""
""focus"",""106"",""436372""
","""event"",""trial"",""time""
""blur"",""106"",""435759""
","""event"",""trial"",""time""
""focus"",""106"",""436372""
","""event"",""trial"",""time""
""fullscreenenter"",""0"",""3146""
","
","null","<div style=""font-size:60px;"">+</div>","","null","fixation","2021-08-09 18:56:35.069","","","","",""
"","mars-trial","146","575675","0.0-10.0-1.65","1078","""event"",""trial"",""time""
""fullscreenenter"",""0"",""3146""
""blur"",""106"",""435759""
""focus"",""106"",""436372""
","""event"",""trial"",""time""
""blur"",""106"",""435759""
","""event"",""trial"",""time""
""focus"",""106"",""436372""
","""event"",""trial"",""time""
""fullscreenenter"",""0"",""3146""
","
","","","","","exp","","","<img src='img/tf1_66_T1_ss2_md.jpeg'></img>","0","false",""
"","html-keyboard-response","147","576005","0.0-10.0-0.66","1078","""event"",""trial"",""time""
""fullscreenenter"",""0"",""3146""
""blur"",""106"",""435759""
""focus"",""106"",""436372""
","""event"",""trial"",""time""
""blur"",""106"",""435759""
","""event"",""trial"",""time""
""focus"",""106"",""436372""
","""event"",""trial"",""time""
""fullscreenenter"",""0"",""3146""
","
","1577.5","<img style='border: 4px solid darkgrey;' src='img/tf1_66_M_ss2.jpeg'></img>","2","","fixation","2021-08-09 18:56:37.259","3","","","",""
"","audio-button-response","148","579481","0.0-11.0","1078","""event"",""trial"",""time""
""fullscreenenter"",""0"",""3146""
""blur"",""106"",""435759""
""focus"",""106"",""436372""
","""event"",""trial"",""time""
""blur"",""106"",""435759""
","""event"",""trial"",""time""
""focus"",""106"",""436372""
","""event"",""trial"",""time""
""fullscreenenter"",""0"",""3146""
","
","3369.2999999998137","audio/mars_instructions_slide5.wav","0","","","","","","","",""
