"success","trial_type","trial_index","time_elapsed","internal_node_id","subject_id","interactions","blur_events","focus_events","fullscreenenter_events","fullscreenexit_events","rt","stimulus","button_pressed","key_press","part","timestamp","unshuffled_button","correct_response","correct_button","correct","value"
"true","fullscreen","0","3308","0.0-0.0","935","""event"",""trial"",""time""
""fullscreenenter"",""0"",""2354""
","
","
","""event"",""trial"",""time""
""fullscreenenter"",""0"",""2354""
","
","","","","","","","","","","",""
"","pavlovia","1","3314","0.0-1.0","935","""event"",""trial"",""time""
""fullscreenenter"",""0"",""2354""
""fullscreenexit"",""2"",""4712""
","
","
","""event"",""trial"",""time""
""fullscreenenter"",""0"",""2354""
","""event"",""trial"",""time""
""fullscreenexit"",""2"",""4712""
","","","","","","","","","","",""
"","html-button-response","2","6052","0.0-2.0","935","""event"",""trial"",""time""
""fullscreenenter"",""0"",""2354""
""fullscreenexit"",""2"",""4712""
","
","
","""event"",""trial"",""time""
""fullscreenenter"",""0"",""2354""
","""event"",""trial"",""time""
""fullscreenexit"",""2"",""4712""
","2737.2999999821186","<p>Welcome! Press START to begin.</p><br>","0","","","","","","","",""
"","audio-button-response","3","11237","0.0-3.0","935","""event"",""trial"",""time""
""fullscreenenter"",""0"",""2354""
""fullscreenexit"",""2"",""4712""
","
","
","""event"",""trial"",""time""
""fullscreenenter"",""0"",""2354""
","""event"",""trial"",""time""
""fullscreenexit"",""2"",""4712""
","5182","audio/mars_instructions_slide2.wav","0","","","","","","","",""
"","audio-button-response","4","18260","0.0-4.0","935","""event"",""trial"",""time""
""fullscreenenter"",""0"",""2354""
""fullscreenexit"",""2"",""4712""
","
","
","""event"",""trial"",""time""
""fullscreenenter"",""0"",""2354""
","""event"",""trial"",""time""
""fullscreenexit"",""2"",""4712""
","7021.700000017881","audio/mars_instructions_slide3.wav","0","","","","","","","",""
"","html-keyboard-response","5","18767","0.0-5.0-0.0","935","""event"",""trial"",""time""
""fullscreenenter"",""0"",""2354""
""fullscreenexit"",""2"",""4712""
","
","
","""event"",""trial"",""time""
""fullscreenenter"",""0"",""2354""
","""event"",""trial"",""time""
""fullscreenexit"",""2"",""4712""
","null","<div style=""font-size:60px;"">+</div>","","null","fixation","2021-06-27 02:26:08.514","","","","",""
"","mars-trial","6","31925","0.0-5.0-1.0","935","""event"",""trial"",""time""
""fullscreenenter"",""0"",""2354""
""fullscreenexit"",""2"",""4712""
","
","
","""event"",""trial"",""time""
""fullscreenenter"",""0"",""2354""
","""event"",""trial"",""time""
""fullscreenexit"",""2"",""4712""
","11051.300000011921","<img style='border: 4px solid darkgrey;' src='practice/pt1_M1.png'></img>","0","","practice","","0","<img src='practice/pt1_T1.png'></img>","0","true",""
"","html-keyboard-response","7","32428","0.0-6.0-0.0","935","""event"",""trial"",""time""
""fullscreenenter"",""0"",""2354""
""fullscreenexit"",""2"",""4712""
","
","
","""event"",""trial"",""time""
""fullscreenenter"",""0"",""2354""
","""event"",""trial"",""time""
""fullscreenexit"",""2"",""4712""
","null","<div style=""font-size:60px;"">+</div>","","null","fixation","2021-06-27 02:26:22.175","","","","",""
"","mars-trial","8","36539","0.0-6.0-1.0","935","""event"",""trial"",""time""
""fullscreenenter"",""0"",""2354""
""fullscreenexit"",""2"",""4712""
","
","
","""event"",""trial"",""time""
""fullscreenenter"",""0"",""2354""
","""event"",""trial"",""time""
""fullscreenexit"",""2"",""4712""
","1997","<img style='border: 4px solid darkgrey;' src='practice/pt2_M1.png'></img>","2","","practice","","0","<img src='practice/pt2_T1.png'></img>","0","true",""
"","html-keyboard-response","9","37045","0.0-7.0-0.0","935","""event"",""trial"",""time""
""fullscreenenter"",""0"",""2354""
""fullscreenexit"",""2"",""4712""
","
","
","""event"",""trial"",""time""
""fullscreenenter"",""0"",""2354""
","""event"",""trial"",""time""
""fullscreenexit"",""2"",""4712""
","null","<div style=""font-size:60px;"">+</div>","","null","fixation","2021-06-27 02:26:26.792","","","","",""
"","mars-trial","10","40452","0.0-7.0-1.0","935","""event"",""trial"",""time""
""fullscreenenter"",""0"",""2354""
""fullscreenexit"",""2"",""4712""
","
","
","""event"",""trial"",""time""
""fullscreenenter"",""0"",""2354""
","""event"",""trial"",""time""
""fullscreenexit"",""2"",""4712""
","1295.8999999761581","<img style='border: 4px solid darkgrey;' src='practice/pt3_M1.png'></img>","2","","practice","","0","<img src='practice/pt3_T1.png'></img>","0","true",""
"","audio-button-response","11","42820","0.0-8.0","935","""event"",""trial"",""time""
""fullscreenenter"",""0"",""2354""
""fullscreenexit"",""2"",""4712""
","
","
","""event"",""trial"",""time""
""fullscreenenter"",""0"",""2354""
","""event"",""trial"",""time""
""fullscreenexit"",""2"",""4712""
","2364.5","audio/mars_instructions_slide4.wav","0","","","","","","","",""
"","call-function","12","42821","0.0-9.0","935","""event"",""trial"",""time""
""fullscreenenter"",""0"",""2354""
""fullscreenexit"",""2"",""4712""
","
","
","""event"",""trial"",""time""
""fullscreenenter"",""0"",""2354""
","""event"",""trial"",""time""
""fullscreenexit"",""2"",""4712""
","","","","","","","","","","",""
"","html-keyboard-response","13","43326","0.0-10.0-0.0","935","""event"",""trial"",""time""
""fullscreenenter"",""0"",""2354""
""fullscreenexit"",""2"",""4712""
","
","
","""event"",""trial"",""time""
""fullscreenenter"",""0"",""2354""
","""event"",""trial"",""time""
""fullscreenexit"",""2"",""4712""
","null","<div style=""font-size:60px;"">+</div>","","null","fixation","2021-06-27 02:26:33.073","","","","",""
"","mars-trial","14","45253","0.0-10.0-1.0","935","""event"",""trial"",""time""
""fullscreenenter"",""0"",""2354""
""fullscreenexit"",""2"",""4712""
","
","
","""event"",""trial"",""time""
""fullscreenenter"",""0"",""2354""
","""event"",""trial"",""time""
""fullscreenexit"",""2"",""4712""
","1315.2000000178814","<img style='border: 4px solid darkgrey;' src='img/tf1_1_M_ss3.jpeg'></img>","2","","exp","","2","<img src='img/tf1_1_T1_ss3_md.jpeg'></img>","0","false",""
"","html-keyboard-response","15","45756","0.0-10.0-0.1","935","""event"",""trial"",""time""
""fullscreenenter"",""0"",""2354""
""fullscreenexit"",""2"",""4712""
","
","
","""event"",""trial"",""time""
""fullscreenenter"",""0"",""2354""
","""event"",""trial"",""time""
""fullscreenexit"",""2"",""4712""
","null","<div style=""font-size:60px;"">+</div>","","null","fixation","2021-06-27 02:26:35.503","","","","",""
"","mars-trial","16","49416","0.0-10.0-1.1","935","""event"",""trial"",""time""
""fullscreenenter"",""0"",""2354""
""fullscreenexit"",""2"",""4712""
","
","
","""event"",""trial"",""time""
""fullscreenenter"",""0"",""2354""
","""event"",""trial"",""time""
""fullscreenexit"",""2"",""4712""
","3050.4000000059605","<img style='border: 4px solid darkgrey;' src='img/tf1_2_M_ss1.jpeg'></img>","0","","exp","","0","<img src='img/tf1_2_T1_ss1_md.jpeg'></img>","0","true",""
"","html-keyboard-response","17","49917","0.0-10.0-0.2","935","""event"",""trial"",""time""
""fullscreenenter"",""0"",""2354""
""fullscreenexit"",""2"",""4712""
","
","
","""event"",""trial"",""time""
""fullscreenenter"",""0"",""2354""
","""event"",""trial"",""time""
""fullscreenexit"",""2"",""4712""
","null","<div style=""font-size:60px;"">+</div>","","null","fixation","2021-06-27 02:26:39.664","","","","",""
"","mars-trial","18","52957","0.0-10.0-1.2","935","""event"",""trial"",""time""
""fullscreenenter"",""0"",""2354""
""fullscreenexit"",""2"",""4712""
","
","
","""event"",""trial"",""time""
""fullscreenenter"",""0"",""2354""
","""event"",""trial"",""time""
""fullscreenexit"",""2"",""4712""
","2429.5999999940395","<img style='border: 4px solid darkgrey;' src='img/tf1_3_M_ss2.jpeg'></img>","2","","exp","","0","<img src='img/tf1_3_T1_ss2_md.jpeg'></img>","0","true",""
"","html-keyboard-response","19","53462","0.0-10.0-0.3","935","""event"",""trial"",""time""
""fullscreenenter"",""0"",""2354""
""fullscreenexit"",""2"",""4712""
","
","
","""event"",""trial"",""time""
""fullscreenenter"",""0"",""2354""
","""event"",""trial"",""time""
""fullscreenexit"",""2"",""4712""
","null","<div style=""font-size:60px;"">+</div>","","null","fixation","2021-06-27 02:26:43.209","","","","",""
"","mars-trial","20","56821","0.0-10.0-1.3","935","""event"",""trial"",""time""
""fullscreenenter"",""0"",""2354""
""fullscreenexit"",""2"",""4712""
","
","
","""event"",""trial"",""time""
""fullscreenenter"",""0"",""2354""
","""event"",""trial"",""time""
""fullscreenexit"",""2"",""4712""
","2748.2999999821186","<img style='border: 4px solid darkgrey;' src='img/tf1_4_M_ss3.jpeg'></img>","2","","exp","","0","<img src='img/tf1_4_T1_ss3_md.jpeg'></img>","0","true",""
"","html-keyboard-response","21","57326","0.0-10.0-0.4","935","""event"",""trial"",""time""
""fullscreenenter"",""0"",""2354""
""fullscreenexit"",""2"",""4712""
","
","
","""event"",""trial"",""time""
""fullscreenenter"",""0"",""2354""
","""event"",""trial"",""time""
""fullscreenexit"",""2"",""4712""
","null","<div style=""font-size:60px;"">+</div>","","null","fixation","2021-06-27 02:26:47.073","","","","",""
"","mars-trial","22","61026","0.0-10.0-1.4","935","""event"",""trial"",""time""
""fullscreenenter"",""0"",""2354""
""fullscreenexit"",""2"",""4712""
","
","
","""event"",""trial"",""time""
""fullscreenenter"",""0"",""2354""
","""event"",""trial"",""time""
""fullscreenexit"",""2"",""4712""
","3088.9000000059605","<img style='border: 4px solid darkgrey;' src='img/tf1_5_M_ss1.jpeg'></img>","1","","exp","","0","<img src='img/tf1_5_T1_ss1_md.jpeg'></img>","0","true",""
"","html-keyboard-response","23","61529","0.0-10.0-0.5","935","""event"",""trial"",""time""
""fullscreenenter"",""0"",""2354""
""fullscreenexit"",""2"",""4712""
","
","
","""event"",""trial"",""time""
""fullscreenenter"",""0"",""2354""
","""event"",""trial"",""time""
""fullscreenexit"",""2"",""4712""
","null","<div style=""font-size:60px;"">+</div>","","null","fixation","2021-06-27 02:26:51.276","","","","",""
"","mars-trial","24","70175","0.0-10.0-1.5","935","""event"",""trial"",""time""
""fullscreenenter"",""0"",""2354""
""fullscreenexit"",""2"",""4712""
","
","
","""event"",""trial"",""time""
""fullscreenenter"",""0"",""2354""
","""event"",""trial"",""time""
""fullscreenexit"",""2"",""4712""
","8034","<img style='border: 4px solid darkgrey;' src='img/tf1_6_M_ss2.jpeg'></img>","3","","exp","","0","<img src='img/tf1_6_T1_ss2_md.jpeg'></img>","0","true",""
"","html-keyboard-response","25","70677","0.0-10.0-0.6","935","""event"",""trial"",""time""
""fullscreenenter"",""0"",""2354""
""fullscreenexit"",""2"",""4712""
","
","
","""event"",""trial"",""time""
""fullscreenenter"",""0"",""2354""
","""event"",""trial"",""time""
""fullscreenexit"",""2"",""4712""
","null","<div style=""font-size:60px;"">+</div>","","null","fixation","2021-06-27 02:27:00.424","","","","",""
"","mars-trial","26","73763","0.0-10.0-1.6","935","""event"",""trial"",""time""
""fullscreenenter"",""0"",""2354""
""fullscreenexit"",""2"",""4712""
","
","
","""event"",""trial"",""time""
""fullscreenenter"",""0"",""2354""
","""event"",""trial"",""time""
""fullscreenexit"",""2"",""4712""
","2475.7000000178814","<img style='border: 4px solid darkgrey;' src='img/tf1_7_M_ss3.jpeg'></img>","3","","exp","","0","<img src='img/tf1_7_T1_ss3_md.jpeg'></img>","0","true",""
"","html-keyboard-response","27","74268","0.0-10.0-0.7","935","""event"",""trial"",""time""
""fullscreenenter"",""0"",""2354""
""fullscreenexit"",""2"",""4712""
","
","
","""event"",""trial"",""time""
""fullscreenenter"",""0"",""2354""
","""event"",""trial"",""time""
""fullscreenexit"",""2"",""4712""
","null","<div style=""font-size:60px;"">+</div>","","null","fixation","2021-06-27 02:27:04.015","","","","",""
"","mars-trial","28","82883","0.0-10.0-1.7","935","""event"",""trial"",""time""
""fullscreenenter"",""0"",""2354""
""fullscreenexit"",""2"",""4712""
","
","
","""event"",""trial"",""time""
""fullscreenenter"",""0"",""2354""
","""event"",""trial"",""time""
""fullscreenexit"",""2"",""4712""
","8001.300000011921","<img style='border: 4px solid darkgrey;' src='img/tf1_8_M_ss1.jpeg'></img>","1","","exp","","0","<img src='img/tf1_8_T1_ss1_md.jpeg'></img>","0","true",""
"","html-keyboard-response","29","83387","0.0-10.0-0.8","935","""event"",""trial"",""time""
""fullscreenenter"",""0"",""2354""
""fullscreenexit"",""2"",""4712""
","
","
","""event"",""trial"",""time""
""fullscreenenter"",""0"",""2354""
","""event"",""trial"",""time""
""fullscreenexit"",""2"",""4712""
","null","<div style=""font-size:60px;"">+</div>","","null","fixation","2021-06-27 02:27:13.134","","","","",""
"","mars-trial","30","90678","0.0-10.0-1.8","935","""event"",""trial"",""time""
""fullscreenenter"",""0"",""2354""
""fullscreenexit"",""2"",""4712""
","
","
","""event"",""trial"",""time""
""fullscreenenter"",""0"",""2354""
","""event"",""trial"",""time""
""fullscreenexit"",""2"",""4712""
","6679.299999982119","<img style='border: 4px solid darkgrey;' src='img/tf1_9_M_ss2.jpeg'></img>","1","","exp","","3","<img src='img/tf1_9_T1_ss2_md.jpeg'></img>","0","false",""
"","html-keyboard-response","31","91183","0.0-10.0-0.9","935","""event"",""trial"",""time""
""fullscreenenter"",""0"",""2354""
""fullscreenexit"",""2"",""4712""
","
","
","""event"",""trial"",""time""
""fullscreenenter"",""0"",""2354""
","""event"",""trial"",""time""
""fullscreenexit"",""2"",""4712""
","null","<div style=""font-size:60px;"">+</div>","","null","fixation","2021-06-27 02:27:20.930","","","","",""
"","mars-trial","32","107723","0.0-10.0-1.9","935","""event"",""trial"",""time""
""fullscreenenter"",""0"",""2354""
""fullscreenexit"",""2"",""4712""
","
","
","""event"",""trial"",""time""
""fullscreenenter"",""0"",""2354""
","""event"",""trial"",""time""
""fullscreenexit"",""2"",""4712""
","15928.799999982119","<img style='border: 4px solid darkgrey;' src='img/tf1_10_M_ss3.jpeg'></img>","0","","exp","","0","<img src='img/tf1_10_T1_ss3_md.jpeg'></img>","0","true",""
"","html-keyboard-response","33","108228","0.0-10.0-0.10","935","""event"",""trial"",""time""
""fullscreenenter"",""0"",""2354""
""fullscreenexit"",""2"",""4712""
","
","
","""event"",""trial"",""time""
""fullscreenenter"",""0"",""2354""
","""event"",""trial"",""time""
""fullscreenexit"",""2"",""4712""
","null","<div style=""font-size:60px;"">+</div>","","null","fixation","2021-06-27 02:27:37.975","","","","",""
"","mars-trial","34","135088","0.0-10.0-1.10","935","""event"",""trial"",""time""
""fullscreenenter"",""0"",""2354""
""fullscreenexit"",""2"",""4712""
","
","
","""event"",""trial"",""time""
""fullscreenenter"",""0"",""2354""
","""event"",""trial"",""time""
""fullscreenexit"",""2"",""4712""
","26248.09999999404","<img style='border: 4px solid darkgrey;' src='img/tf1_11_M_ss1.jpeg'></img>","1","","exp","","1","<img src='img/tf1_11_T1_ss1_md.jpeg'></img>","0","false",""
"","html-keyboard-response","35","135593","0.0-10.0-0.11","935","""event"",""trial"",""time""
""fullscreenenter"",""0"",""2354""
""fullscreenexit"",""2"",""4712""
","
","
","""event"",""trial"",""time""
""fullscreenenter"",""0"",""2354""
","""event"",""trial"",""time""
""fullscreenexit"",""2"",""4712""
","null","<div style=""font-size:60px;"">+</div>","","null","fixation","2021-06-27 02:28:05.340","","","","",""
"","mars-trial","36","141793","0.0-10.0-1.11","935","""event"",""trial"",""time""
""fullscreenenter"",""0"",""2354""
""fullscreenexit"",""2"",""4712""
","
","
","""event"",""trial"",""time""
""fullscreenenter"",""0"",""2354""
","""event"",""trial"",""time""
""fullscreenexit"",""2"",""4712""
","5589","<img style='border: 4px solid darkgrey;' src='img/tf1_12_M_ss2.jpeg'></img>","0","","exp","","3","<img src='img/tf1_12_T1_ss2_md.jpeg'></img>","0","false",""
"","html-keyboard-response","37","142297","0.0-10.0-0.12","935","""event"",""trial"",""time""
""fullscreenenter"",""0"",""2354""
""fullscreenexit"",""2"",""4712""
","
","
","""event"",""trial"",""time""
""fullscreenenter"",""0"",""2354""
","""event"",""trial"",""time""
""fullscreenexit"",""2"",""4712""
","null","<div style=""font-size:60px;"">+</div>","","null","fixation","2021-06-27 02:28:12.044","","","","",""
"","mars-trial","38","150614","0.0-10.0-1.12","935","""event"",""trial"",""time""
""fullscreenenter"",""0"",""2354""
""fullscreenexit"",""2"",""4712""
","
","
","""event"",""trial"",""time""
""fullscreenenter"",""0"",""2354""
","""event"",""trial"",""time""
""fullscreenexit"",""2"",""4712""
","7703.5","<img style='border: 4px solid darkgrey;' src='img/tf1_13_M_ss3.jpeg'></img>","3","","exp","","2","<img src='img/tf1_13_T1_ss3_md.jpeg'></img>","0","false",""
"","html-keyboard-response","39","151120","0.0-10.0-0.13","935","""event"",""trial"",""time""
""fullscreenenter"",""0"",""2354""
""fullscreenexit"",""2"",""4712""
","
","
","""event"",""trial"",""time""
""fullscreenenter"",""0"",""2354""
","""event"",""trial"",""time""
""fullscreenexit"",""2"",""4712""
","null","<div style=""font-size:60px;"">+</div>","","null","fixation","2021-06-27 02:28:20.867","","","","",""
"","mars-trial","40","170296","0.0-10.0-1.13","935","""event"",""trial"",""time""
""fullscreenenter"",""0"",""2354""
""fullscreenexit"",""2"",""4712""
","
","
","""event"",""trial"",""time""
""fullscreenenter"",""0"",""2354""
","""event"",""trial"",""time""
""fullscreenexit"",""2"",""4712""
","18561.19999998808","<img style='border: 4px solid darkgrey;' src='img/tf1_14_M_ss1.jpeg'></img>","2","","exp","","0","<img src='img/tf1_14_T1_ss1_md.jpeg'></img>","0","true",""
"","html-keyboard-response","41","170800","0.0-10.0-0.14","935","""event"",""trial"",""time""
""fullscreenenter"",""0"",""2354""
""fullscreenexit"",""2"",""4712""
","
","
","""event"",""trial"",""time""
""fullscreenenter"",""0"",""2354""
","""event"",""trial"",""time""
""fullscreenexit"",""2"",""4712""
","null","<div style=""font-size:60px;"">+</div>","","null","fixation","2021-06-27 02:28:40.547","","","","",""
"","mars-trial","42","177779","0.0-10.0-1.14","935","""event"",""trial"",""time""
""fullscreenenter"",""0"",""2354""
""fullscreenexit"",""2"",""4712""
","
","
","""event"",""trial"",""time""
""fullscreenenter"",""0"",""2354""
","""event"",""trial"",""time""
""fullscreenexit"",""2"",""4712""
","6363.800000011921","<img style='border: 4px solid darkgrey;' src='img/tf1_15_M_ss2.jpeg'></img>","3","","exp","","0","<img src='img/tf1_15_T1_ss2_md.jpeg'></img>","0","true",""
"","html-keyboard-response","43","178283","0.0-10.0-0.15","935","""event"",""trial"",""time""
""fullscreenenter"",""0"",""2354""
""fullscreenexit"",""2"",""4712""
","
","
","""event"",""trial"",""time""
""fullscreenenter"",""0"",""2354""
","""event"",""trial"",""time""
""fullscreenexit"",""2"",""4712""
","null","<div style=""font-size:60px;"">+</div>","","null","fixation","2021-06-27 02:28:48.030","","","","",""
"","mars-trial","44","185272","0.0-10.0-1.15","935","""event"",""trial"",""time""
""fullscreenenter"",""0"",""2354""
""fullscreenexit"",""2"",""4712""
","
","
","""event"",""trial"",""time""
""fullscreenenter"",""0"",""2354""
","""event"",""trial"",""time""
""fullscreenexit"",""2"",""4712""
","6378.199999988079","<img style='border: 4px solid darkgrey;' src='img/tf1_16_M_ss3.jpeg'></img>","1","","exp","","0","<img src='img/tf1_16_T1_ss3_md.jpeg'></img>","0","true",""
"","html-keyboard-response","45","185778","0.0-10.0-0.16","935","""event"",""trial"",""time""
""fullscreenenter"",""0"",""2354""
""fullscreenexit"",""2"",""4712""
","
","
","""event"",""trial"",""time""
""fullscreenenter"",""0"",""2354""
","""event"",""trial"",""time""
""fullscreenexit"",""2"",""4712""
","null","<div style=""font-size:60px;"">+</div>","","null","fixation","2021-06-27 02:28:55.525","","","","",""
"","mars-trial","46","193994","0.0-10.0-1.16","935","""event"",""trial"",""time""
""fullscreenenter"",""0"",""2354""
""fullscreenexit"",""2"",""4712""
","
","
","""event"",""trial"",""time""
""fullscreenenter"",""0"",""2354""
","""event"",""trial"",""time""
""fullscreenexit"",""2"",""4712""
","7604.4000000059605","<img style='border: 4px solid darkgrey;' src='img/tf1_17_M_ss1.jpeg'></img>","1","","exp","","0","<img src='img/tf1_17_T1_ss1_md.jpeg'></img>","0","true",""
"","html-keyboard-response","47","194498","0.0-10.0-0.17","935","""event"",""trial"",""time""
""fullscreenenter"",""0"",""2354""
""fullscreenexit"",""2"",""4712""
","
","
","""event"",""trial"",""time""
""fullscreenenter"",""0"",""2354""
","""event"",""trial"",""time""
""fullscreenexit"",""2"",""4712""
","null","<div style=""font-size:60px;"">+</div>","","null","fixation","2021-06-27 02:29:04.245","","","","",""
"","mars-trial","48","212388","0.0-10.0-1.17","935","""event"",""trial"",""time""
""fullscreenenter"",""0"",""2354""
""fullscreenexit"",""2"",""4712""
","
","
","""event"",""trial"",""time""
""fullscreenenter"",""0"",""2354""
","""event"",""trial"",""time""
""fullscreenexit"",""2"",""4712""
","17279","<img style='border: 4px solid darkgrey;' src='img/tf1_18_M_ss2.jpeg'></img>","1","","exp","","1","<img src='img/tf1_18_T1_ss2_md.jpeg'></img>","0","false",""
"","html-keyboard-response","49","212895","0.0-10.0-0.18","935","""event"",""trial"",""time""
""fullscreenenter"",""0"",""2354""
""fullscreenexit"",""2"",""4712""
","
","
","""event"",""trial"",""time""
""fullscreenenter"",""0"",""2354""
","""event"",""trial"",""time""
""fullscreenexit"",""2"",""4712""
","null","<div style=""font-size:60px;"">+</div>","","null","fixation","2021-06-27 02:29:22.643","","","","",""
"","mars-trial","50","231888","0.0-10.0-1.18","935","""event"",""trial"",""time""
""fullscreenenter"",""0"",""2354""
""fullscreenexit"",""2"",""4712""
","
","
","""event"",""trial"",""time""
""fullscreenenter"",""0"",""2354""
","""event"",""trial"",""time""
""fullscreenexit"",""2"",""4712""
","18381.09999999404","<img style='border: 4px solid darkgrey;' src='img/tf1_19_M_ss3.jpeg'></img>","2","","exp","","0","<img src='img/tf1_19_T1_ss3_md.jpeg'></img>","0","true",""
"","html-keyboard-response","51","232392","0.0-10.0-0.19","935","""event"",""trial"",""time""
""fullscreenenter"",""0"",""2354""
""fullscreenexit"",""2"",""4712""
","
","
","""event"",""trial"",""time""
""fullscreenenter"",""0"",""2354""
","""event"",""trial"",""time""
""fullscreenexit"",""2"",""4712""
","null","<div style=""font-size:60px;"">+</div>","","null","fixation","2021-06-27 02:29:42.140","","","","",""
"","mars-trial","52","239678","0.0-10.0-1.19","935","""event"",""trial"",""time""
""fullscreenenter"",""0"",""2354""
""fullscreenexit"",""2"",""4712""
","
","
","""event"",""trial"",""time""
""fullscreenenter"",""0"",""2354""
","""event"",""trial"",""time""
""fullscreenexit"",""2"",""4712""
","6677.300000011921","<img style='border: 4px solid darkgrey;' src='img/tf1_20_M_ss1.jpeg'></img>","2","","exp","","0","<img src='img/tf1_20_T1_ss1_md.jpeg'></img>","0","true",""
"","html-keyboard-response","53","240182","0.0-10.0-0.20","935","""event"",""trial"",""time""
""fullscreenenter"",""0"",""2354""
""fullscreenexit"",""2"",""4712""
","
","
","""event"",""trial"",""time""
""fullscreenenter"",""0"",""2354""
","""event"",""trial"",""time""
""fullscreenexit"",""2"",""4712""
","null","<div style=""font-size:60px;"">+</div>","","null","fixation","2021-06-27 02:29:49.930","","","","",""
"","mars-trial","54","252132","0.0-10.0-1.20","935","""event"",""trial"",""time""
""fullscreenenter"",""0"",""2354""
""fullscreenexit"",""2"",""4712""
","
","
","""event"",""trial"",""time""
""fullscreenenter"",""0"",""2354""
","""event"",""trial"",""time""
""fullscreenexit"",""2"",""4712""
","11335.09999999404","<img style='border: 4px solid darkgrey;' src='img/tf1_21_M_ss2.jpeg'></img>","3","","exp","","1","<img src='img/tf1_21_T1_ss2_md.jpeg'></img>","0","false",""
"","html-keyboard-response","55","252635","0.0-10.0-0.21","935","""event"",""trial"",""time""
""fullscreenenter"",""0"",""2354""
""fullscreenexit"",""2"",""4712""
","
","
","""event"",""trial"",""time""
""fullscreenenter"",""0"",""2354""
","""event"",""trial"",""time""
""fullscreenexit"",""2"",""4712""
","null","<div style=""font-size:60px;"">+</div>","","null","fixation","2021-06-27 02:30:02.382","","","","",""
"","mars-trial","56","267547","0.0-10.0-1.21","935","""event"",""trial"",""time""
""fullscreenenter"",""0"",""2354""
""fullscreenexit"",""2"",""4712""
","
","
","""event"",""trial"",""time""
""fullscreenenter"",""0"",""2354""
","""event"",""trial"",""time""
""fullscreenexit"",""2"",""4712""
","14298.199999988079","<img style='border: 4px solid darkgrey;' src='img/tf1_22_M_ss3.jpeg'></img>","2","","exp","","0","<img src='img/tf1_22_T1_ss3_md.jpeg'></img>","0","true",""
"","html-keyboard-response","57","268052","0.0-10.0-0.22","935","""event"",""trial"",""time""
""fullscreenenter"",""0"",""2354""
""fullscreenexit"",""2"",""4712""
","
","
","""event"",""trial"",""time""
""fullscreenenter"",""0"",""2354""
","""event"",""trial"",""time""
""fullscreenexit"",""2"",""4712""
","null","<div style=""font-size:60px;"">+</div>","","null","fixation","2021-06-27 02:30:17.800","","","","",""
"","mars-trial","58","277568","0.0-10.0-1.22","935","""event"",""trial"",""time""
""fullscreenenter"",""0"",""2354""
""fullscreenexit"",""2"",""4712""
","
","
","""event"",""trial"",""time""
""fullscreenenter"",""0"",""2354""
","""event"",""trial"",""time""
""fullscreenexit"",""2"",""4712""
","8902.300000011921","<img style='border: 4px solid darkgrey;' src='img/tf1_23_M_ss1.jpeg'></img>","1","","exp","","0","<img src='img/tf1_23_T1_ss1_md.jpeg'></img>","0","true",""
"","html-keyboard-response","59","278073","0.0-10.0-0.23","935","""event"",""trial"",""time""
""fullscreenenter"",""0"",""2354""
""fullscreenexit"",""2"",""4712""
","
","
","""event"",""trial"",""time""
""fullscreenenter"",""0"",""2354""
","""event"",""trial"",""time""
""fullscreenexit"",""2"",""4712""
","null","<div style=""font-size:60px;"">+</div>","","null","fixation","2021-06-27 02:30:27.820","","","","",""
"","mars-trial","60","295273","0.0-10.0-1.23","935","""event"",""trial"",""time""
""fullscreenenter"",""0"",""2354""
""fullscreenexit"",""2"",""4712""
","
","
","""event"",""trial"",""time""
""fullscreenenter"",""0"",""2354""
","""event"",""trial"",""time""
""fullscreenexit"",""2"",""4712""
","16587.19999998808","<img style='border: 4px solid darkgrey;' src='img/tf1_24_M_ss2.jpeg'></img>","1","","exp","","3","<img src='img/tf1_24_T1_ss2_md.jpeg'></img>","0","false",""
"","html-keyboard-response","61","295777","0.0-10.0-0.24","935","""event"",""trial"",""time""
""fullscreenenter"",""0"",""2354""
""fullscreenexit"",""2"",""4712""
","
","
","""event"",""trial"",""time""
""fullscreenenter"",""0"",""2354""
","""event"",""trial"",""time""
""fullscreenexit"",""2"",""4712""
","null","<div style=""font-size:60px;"">+</div>","","null","fixation","2021-06-27 02:30:45.524","","","","",""
"","mars-trial","62","301752","0.0-10.0-1.24","935","""event"",""trial"",""time""
""fullscreenenter"",""0"",""2354""
""fullscreenexit"",""2"",""4712""
","
","
","""event"",""trial"",""time""
""fullscreenenter"",""0"",""2354""
","""event"",""trial"",""time""
""fullscreenexit"",""2"",""4712""
","5368.4000000059605","<img style='border: 4px solid darkgrey;' src='img/tf1_25_M_ss3.jpeg'></img>","0","","exp","","0","<img src='img/tf1_25_T1_ss3_md.jpeg'></img>","0","true",""
"","html-keyboard-response","63","302256","0.0-10.0-0.25","935","""event"",""trial"",""time""
""fullscreenenter"",""0"",""2354""
""fullscreenexit"",""2"",""4712""
","
","
","""event"",""trial"",""time""
""fullscreenenter"",""0"",""2354""
","""event"",""trial"",""time""
""fullscreenexit"",""2"",""4712""
","null","<div style=""font-size:60px;"">+</div>","","null","fixation","2021-06-27 02:30:52.003","","","","",""
"","mars-trial","64","314950","0.0-10.0-1.25","935","""event"",""trial"",""time""
""fullscreenenter"",""0"",""2354""
""fullscreenexit"",""2"",""4712""
","
","
","""event"",""trial"",""time""
""fullscreenenter"",""0"",""2354""
","""event"",""trial"",""time""
""fullscreenexit"",""2"",""4712""
","12079.600000023842","<img style='border: 4px solid darkgrey;' src='img/tf1_26_M_ss1.jpeg'></img>","3","","exp","","0","<img src='img/tf1_26_T1_ss1_md.jpeg'></img>","0","true",""
"","html-keyboard-response","65","315455","0.0-10.0-0.26","935","""event"",""trial"",""time""
""fullscreenenter"",""0"",""2354""
""fullscreenexit"",""2"",""4712""
","
","
","""event"",""trial"",""time""
""fullscreenenter"",""0"",""2354""
","""event"",""trial"",""time""
""fullscreenexit"",""2"",""4712""
","null","<div style=""font-size:60px;"">+</div>","","null","fixation","2021-06-27 02:31:05.202","","","","",""
"","mars-trial","66","329567","0.0-10.0-1.26","935","""event"",""trial"",""time""
""fullscreenenter"",""0"",""2354""
""fullscreenexit"",""2"",""4712""
","
","
","""event"",""trial"",""time""
""fullscreenenter"",""0"",""2354""
","""event"",""trial"",""time""
""fullscreenexit"",""2"",""4712""
","13500.100000023842","<img style='border: 4px solid darkgrey;' src='img/tf1_27_M_ss2.jpeg'></img>","1","","exp","","1","<img src='img/tf1_27_T1_ss2_md.jpeg'></img>","0","false",""
"","html-keyboard-response","67","330069","0.0-10.0-0.27","935","""event"",""trial"",""time""
""fullscreenenter"",""0"",""2354""
""fullscreenexit"",""2"",""4712""
","
","
","""event"",""trial"",""time""
""fullscreenenter"",""0"",""2354""
","""event"",""trial"",""time""
""fullscreenexit"",""2"",""4712""
","null","<div style=""font-size:60px;"">+</div>","","null","fixation","2021-06-27 02:31:19.816","","","","",""
"","mars-trial","68","342730","0.0-10.0-1.27","935","""event"",""trial"",""time""
""fullscreenenter"",""0"",""2354""
""fullscreenexit"",""2"",""4712""
","
","
","""event"",""trial"",""time""
""fullscreenenter"",""0"",""2354""
","""event"",""trial"",""time""
""fullscreenexit"",""2"",""4712""
","12047","<img style='border: 4px solid darkgrey;' src='img/tf1_28_M_ss3.jpeg'></img>","1","","exp","","0","<img src='img/tf1_28_T1_ss3_md.jpeg'></img>","0","true",""
"","html-keyboard-response","69","343235","0.0-10.0-0.28","935","""event"",""trial"",""time""
""fullscreenenter"",""0"",""2354""
""fullscreenexit"",""2"",""4712""
","
","
","""event"",""trial"",""time""
""fullscreenenter"",""0"",""2354""
","""event"",""trial"",""time""
""fullscreenexit"",""2"",""4712""
","null","<div style=""font-size:60px;"">+</div>","","null","fixation","2021-06-27 02:31:32.982","","","","",""
"","mars-trial","70","363637","0.0-10.0-1.28","935","""event"",""trial"",""time""
""fullscreenenter"",""0"",""2354""
""fullscreenexit"",""2"",""4712""
","
","
","""event"",""trial"",""time""
""fullscreenenter"",""0"",""2354""
","""event"",""trial"",""time""
""fullscreenexit"",""2"",""4712""
","19786.5","<img style='border: 4px solid darkgrey;' src='img/tf1_29_M_ss1.jpeg'></img>","1","","exp","","1","<img src='img/tf1_29_T1_ss1_md.jpeg'></img>","0","false",""
"","html-keyboard-response","71","364139","0.0-10.0-0.29","935","""event"",""trial"",""time""
""fullscreenenter"",""0"",""2354""
""fullscreenexit"",""2"",""4712""
","
","
","""event"",""trial"",""time""
""fullscreenenter"",""0"",""2354""
","""event"",""trial"",""time""
""fullscreenexit"",""2"",""4712""
","null","<div style=""font-size:60px;"">+</div>","","null","fixation","2021-06-27 02:31:53.886","","","","",""
"","mars-trial","72","382048","0.0-10.0-1.29","935","""event"",""trial"",""time""
""fullscreenenter"",""0"",""2354""
""fullscreenexit"",""2"",""4712""
","
","
","""event"",""trial"",""time""
""fullscreenenter"",""0"",""2354""
","""event"",""trial"",""time""
""fullscreenexit"",""2"",""4712""
","17295","<img style='border: 4px solid darkgrey;' src='img/tf1_30_M_ss2.jpeg'></img>","2","","exp","","2","<img src='img/tf1_30_T1_ss2_md.jpeg'></img>","0","false",""
"","html-keyboard-response","73","382553","0.0-10.0-0.30","935","""event"",""trial"",""time""
""fullscreenenter"",""0"",""2354""
""fullscreenexit"",""2"",""4712""
","
","
","""event"",""trial"",""time""
""fullscreenenter"",""0"",""2354""
","""event"",""trial"",""time""
""fullscreenexit"",""2"",""4712""
","null","<div style=""font-size:60px;"">+</div>","","null","fixation","2021-06-27 02:32:12.300","","","","",""
"","mars-trial","74","390628","0.0-10.0-1.30","935","""event"",""trial"",""time""
""fullscreenenter"",""0"",""2354""
""fullscreenexit"",""2"",""4712""
","
","
","""event"",""trial"",""time""
""fullscreenenter"",""0"",""2354""
","""event"",""trial"",""time""
""fullscreenexit"",""2"",""4712""
","7465.200000017881","<img style='border: 4px solid darkgrey;' src='img/tf1_31_M_ss3.jpeg'></img>","2","","exp","","0","<img src='img/tf1_31_T1_ss3_md.jpeg'></img>","0","true",""
"","html-keyboard-response","75","391133","0.0-10.0-0.31","935","""event"",""trial"",""time""
""fullscreenenter"",""0"",""2354""
""fullscreenexit"",""2"",""4712""
","
","
","""event"",""trial"",""time""
""fullscreenenter"",""0"",""2354""
","""event"",""trial"",""time""
""fullscreenexit"",""2"",""4712""
","null","<div style=""font-size:60px;"">+</div>","","null","fixation","2021-06-27 02:32:20.880","","","","",""
"","mars-trial","76","399858","0.0-10.0-1.31","935","""event"",""trial"",""time""
""fullscreenenter"",""0"",""2354""
""fullscreenexit"",""2"",""4712""
","
","
","""event"",""trial"",""time""
""fullscreenenter"",""0"",""2354""
","""event"",""trial"",""time""
""fullscreenexit"",""2"",""4712""
","8116.699999988079","<img style='border: 4px solid darkgrey;' src='img/tf1_32_M_ss1.jpeg'></img>","2","","exp","","2","<img src='img/tf1_32_T1_ss1_md.jpeg'></img>","0","false",""
"","html-keyboard-response","77","400360","0.0-10.0-0.32","935","""event"",""trial"",""time""
""fullscreenenter"",""0"",""2354""
""fullscreenexit"",""2"",""4712""
","
","
","""event"",""trial"",""time""
""fullscreenenter"",""0"",""2354""
","""event"",""trial"",""time""
""fullscreenexit"",""2"",""4712""
","null","<div style=""font-size:60px;"">+</div>","","null","fixation","2021-06-27 02:32:30.107","","","","",""
"","mars-trial","78","407566","0.0-10.0-1.32","935","""event"",""trial"",""time""
""fullscreenenter"",""0"",""2354""
""fullscreenexit"",""2"",""4712""
","
","
","""event"",""trial"",""time""
""fullscreenenter"",""0"",""2354""
","""event"",""trial"",""time""
""fullscreenexit"",""2"",""4712""
","6596.199999988079","<img style='border: 4px solid darkgrey;' src='img/tf1_33_M_ss2.jpeg'></img>","2","","exp","","0","<img src='img/tf1_33_T1_ss2_md.jpeg'></img>","0","true",""
"","html-keyboard-response","79","408070","0.0-10.0-0.33","935","""event"",""trial"",""time""
""fullscreenenter"",""0"",""2354""
""fullscreenexit"",""2"",""4712""
","
","
","""event"",""trial"",""time""
""fullscreenenter"",""0"",""2354""
","""event"",""trial"",""time""
""fullscreenexit"",""2"",""4712""
","null","<div style=""font-size:60px;"">+</div>","","null","fixation","2021-06-27 02:32:37.817","","","","",""
"","mars-trial","80","428135","0.0-10.0-1.33","935","""event"",""trial"",""time""
""fullscreenenter"",""0"",""2354""
""fullscreenexit"",""2"",""4712""
","
","
","""event"",""trial"",""time""
""fullscreenenter"",""0"",""2354""
","""event"",""trial"",""time""
""fullscreenexit"",""2"",""4712""
","19457.70000001788","<img style='border: 4px solid darkgrey;' src='img/tf1_34_M_ss3.jpeg'></img>","0","","exp","","0","<img src='img/tf1_34_T1_ss3_md.jpeg'></img>","0","true",""
"","html-keyboard-response","81","428639","0.0-10.0-0.34","935","""event"",""trial"",""time""
""fullscreenenter"",""0"",""2354""
""fullscreenexit"",""2"",""4712""
","
","
","""event"",""trial"",""time""
""fullscreenenter"",""0"",""2354""
","""event"",""trial"",""time""
""fullscreenexit"",""2"",""4712""
","null","<div style=""font-size:60px;"">+</div>","","null","fixation","2021-06-27 02:32:58.386","","","","",""
"","mars-trial","82","448667","0.0-10.0-1.34","935","""event"",""trial"",""time""
""fullscreenenter"",""0"",""2354""
""fullscreenexit"",""2"",""4712""
","
","
","""event"",""trial"",""time""
""fullscreenenter"",""0"",""2354""
","""event"",""trial"",""time""
""fullscreenexit"",""2"",""4712""
","19412.90000000596","<img style='border: 4px solid darkgrey;' src='img/tf1_35_M_ss1.jpeg'></img>","1","","exp","","0","<img src='img/tf1_35_T1_ss1_md.jpeg'></img>","0","true",""
"","html-keyboard-response","83","449172","0.0-10.0-0.35","935","""event"",""trial"",""time""
""fullscreenenter"",""0"",""2354""
""fullscreenexit"",""2"",""4712""
","
","
","""event"",""trial"",""time""
""fullscreenenter"",""0"",""2354""
","""event"",""trial"",""time""
""fullscreenexit"",""2"",""4712""
","null","<div style=""font-size:60px;"">+</div>","","null","fixation","2021-06-27 02:33:18.919","","","","",""
"","mars-trial","84","469176","0.0-10.0-1.35","935","""event"",""trial"",""time""
""fullscreenenter"",""0"",""2354""
""fullscreenexit"",""2"",""4712""
","
","
","""event"",""trial"",""time""
""fullscreenenter"",""0"",""2354""
","""event"",""trial"",""time""
""fullscreenexit"",""2"",""4712""
","19391.80000001192","<img style='border: 4px solid darkgrey;' src='img/tf1_36_M_ss2.jpeg'></img>","1","","exp","","3","<img src='img/tf1_36_T1_ss2_md.jpeg'></img>","0","false",""
"","html-keyboard-response","85","469681","0.0-10.0-0.36","935","""event"",""trial"",""time""
""fullscreenenter"",""0"",""2354""
""fullscreenexit"",""2"",""4712""
","
","
","""event"",""trial"",""time""
""fullscreenenter"",""0"",""2354""
","""event"",""trial"",""time""
""fullscreenexit"",""2"",""4712""
","null","<div style=""font-size:60px;"">+</div>","","null","fixation","2021-06-27 02:33:39.428","","","","",""
"","mars-trial","86","497435","0.0-10.0-1.36","935","""event"",""trial"",""time""
""fullscreenenter"",""0"",""2354""
""fullscreenexit"",""2"",""4712""
","
","
","""event"",""trial"",""time""
""fullscreenenter"",""0"",""2354""
","""event"",""trial"",""time""
""fullscreenexit"",""2"",""4712""
","27136.899999976158","<img style='border: 4px solid darkgrey;' src='img/tf1_37_M_ss3.jpeg'></img>","2","","exp","","0","<img src='img/tf1_37_T1_ss3_md.jpeg'></img>","0","true",""
"","html-keyboard-response","87","497940","0.0-10.0-0.37","935","""event"",""trial"",""time""
""fullscreenenter"",""0"",""2354""
""fullscreenexit"",""2"",""4712""
","
","
","""event"",""trial"",""time""
""fullscreenenter"",""0"",""2354""
","""event"",""trial"",""time""
""fullscreenexit"",""2"",""4712""
","null","<div style=""font-size:60px;"">+</div>","","null","fixation","2021-06-27 02:34:07.687","","","","",""
"","mars-trial","88","502260","0.0-10.0-1.37","935","""event"",""trial"",""time""
""fullscreenenter"",""0"",""2354""
""fullscreenexit"",""2"",""4712""
","
","
","""event"",""trial"",""time""
""fullscreenenter"",""0"",""2354""
","""event"",""trial"",""time""
""fullscreenexit"",""2"",""4712""
","3707.800000011921","<img style='border: 4px solid darkgrey;' src='img/tf1_38_M_ss1.jpeg'></img>","2","","exp","","0","<img src='img/tf1_38_T1_ss1_md.jpeg'></img>","0","true",""
"","html-keyboard-response","89","502764","0.0-10.0-0.38","935","""event"",""trial"",""time""
""fullscreenenter"",""0"",""2354""
""fullscreenexit"",""2"",""4712""
""blur"",""90"",""511685""
""focus"",""90"",""514460""
","""event"",""trial"",""time""
""blur"",""90"",""511685""
","""event"",""trial"",""time""
""focus"",""90"",""514460""
","""event"",""trial"",""time""
""fullscreenenter"",""0"",""2354""
","""event"",""trial"",""time""
""fullscreenexit"",""2"",""4712""
","null","<div style=""font-size:60px;"">+</div>","","null","fixation","2021-06-27 02:34:12.511","","","","",""
"","mars-trial","90","519004","0.0-10.0-1.38","935","""event"",""trial"",""time""
""fullscreenenter"",""0"",""2354""
""fullscreenexit"",""2"",""4712""
""blur"",""90"",""511685""
""focus"",""90"",""514460""
","""event"",""trial"",""time""
""blur"",""90"",""511685""
","""event"",""trial"",""time""
""focus"",""90"",""514460""
","""event"",""trial"",""time""
""fullscreenenter"",""0"",""2354""
","""event"",""trial"",""time""
""fullscreenexit"",""2"",""4712""
","15626.699999988079","<img style='border: 4px solid darkgrey;' src='img/tf1_39_M_ss2.jpeg'></img>","1","","exp","","2","<img src='img/tf1_39_T1_ss2_md.jpeg'></img>","0","false",""
"","html-keyboard-response","91","519507","0.0-10.0-0.39","935","""event"",""trial"",""time""
""fullscreenenter"",""0"",""2354""
""fullscreenexit"",""2"",""4712""
""blur"",""90"",""511685""
""focus"",""90"",""514460""
","""event"",""trial"",""time""
""blur"",""90"",""511685""
","""event"",""trial"",""time""
""focus"",""90"",""514460""
","""event"",""trial"",""time""
""fullscreenenter"",""0"",""2354""
","""event"",""trial"",""time""
""fullscreenexit"",""2"",""4712""
","null","<div style=""font-size:60px;"">+</div>","","null","fixation","2021-06-27 02:34:29.254","","","","",""
"","mars-trial","92","522833","0.0-10.0-1.39","935","""event"",""trial"",""time""
""fullscreenenter"",""0"",""2354""
""fullscreenexit"",""2"",""4712""
""blur"",""90"",""511685""
""focus"",""90"",""514460""
","""event"",""trial"",""time""
""blur"",""90"",""511685""
","""event"",""trial"",""time""
""focus"",""90"",""514460""
","""event"",""trial"",""time""
""fullscreenenter"",""0"",""2354""
","""event"",""trial"",""time""
""fullscreenexit"",""2"",""4712""
","","","","","exp","","","<img src='img/tf1_40_T1_ss3_md.jpeg'></img>","0","false",""
"","html-keyboard-response","93","523338","0.0-10.0-0.40","935","""event"",""trial"",""time""
""fullscreenenter"",""0"",""2354""
""fullscreenexit"",""2"",""4712""
""blur"",""90"",""511685""
""focus"",""90"",""514460""
","""event"",""trial"",""time""
""blur"",""90"",""511685""
","""event"",""trial"",""time""
""focus"",""90"",""514460""
","""event"",""trial"",""time""
""fullscreenenter"",""0"",""2354""
","""event"",""trial"",""time""
""fullscreenexit"",""2"",""4712""
","null","<div style=""font-size:60px;"">+</div>","","null","fixation","2021-06-27 02:34:33.085","","","","",""
"","audio-button-response","94","526045","0.0-11.0","935","""event"",""trial"",""time""
""fullscreenenter"",""0"",""2354""
""fullscreenexit"",""2"",""4712""
""blur"",""90"",""511685""
""focus"",""90"",""514460""
","""event"",""trial"",""time""
""blur"",""90"",""511685""
","""event"",""trial"",""time""
""focus"",""90"",""514460""
","""event"",""trial"",""time""
""fullscreenenter"",""0"",""2354""
","""event"",""trial"",""time""
""fullscreenexit"",""2"",""4712""
","2600.5999999940395","audio/mars_instructions_slide5.wav","0","","","","","","","",""
