"success","trial_type","trial_index","time_elapsed","internal_node_id","subject_id","interactions","blur_events","focus_events","fullscreenenter_events","fullscreenexit_events","rt","stimulus","button_pressed","key_press","part","timestamp","unshuffled_button","correct_response","correct_button","correct","value"
"true","fullscreen","0","10847","0.0-0.0","407","""event"",""trial"",""time""
""fullscreenenter"",""0"",""9841""
","
","
","""event"",""trial"",""time""
""fullscreenenter"",""0"",""9841""
","
","","","","","","","","","","",""
"","pavlovia","1","10857","0.0-1.0","407","""event"",""trial"",""time""
""fullscreenenter"",""0"",""9841""
","
","
","""event"",""trial"",""time""
""fullscreenenter"",""0"",""9841""
","
","","","","","","","","","","",""
"","html-button-response","2","15068","0.0-2.0","407","""event"",""trial"",""time""
""fullscreenenter"",""0"",""9841""
","
","
","""event"",""trial"",""time""
""fullscreenenter"",""0"",""9841""
","
","4207.369999960065","<p>Welcome! Press START to begin.</p><br>","0","","","","","","","",""
"","audio-button-response","3","36691","0.0-3.0","407","""event"",""trial"",""time""
""fullscreenenter"",""0"",""9841""
","
","
","""event"",""trial"",""time""
""fullscreenenter"",""0"",""9841""
","
","21621.224999893457","audio/mars_instructions_slide2.wav","0","","","","","","","",""
"","audio-button-response","4","57859","0.0-4.0","407","""event"",""trial"",""time""
""fullscreenenter"",""0"",""9841""
","
","
","""event"",""trial"",""time""
""fullscreenenter"",""0"",""9841""
","
","21167.00500017032","audio/mars_instructions_slide3.wav","0","","","","","","","",""
"","html-keyboard-response","5","58367","0.0-5.0-0.0","407","""event"",""trial"",""time""
""fullscreenenter"",""0"",""9841""
","
","
","""event"",""trial"",""time""
""fullscreenenter"",""0"",""9841""
","
","null","<div style=""font-size:60px;"">+</div>","","null","fixation","2021-06-09 22:39:18.567","","","","",""
"","mars-trial","6","67823","0.0-5.0-1.0","407","""event"",""trial"",""time""
""fullscreenenter"",""0"",""9841""
","
","
","""event"",""trial"",""time""
""fullscreenenter"",""0"",""9841""
","
","7338.750000111759","<img style='border: 4px solid darkgrey;' src='practice/pt1_M1.png'></img>","1","","practice","","2","<img src='practice/pt1_T1.png'></img>","0","false",""
"","html-keyboard-response","7","68346","0.0-5.1-0.1","407","""event"",""trial"",""time""
""fullscreenenter"",""0"",""9841""
","
","
","""event"",""trial"",""time""
""fullscreenenter"",""0"",""9841""
","
","null","<div style=""font-size:60px;"">+</div>","","null","fixation","2021-06-09 22:39:28.545","","","","",""
"","mars-trial","8","78277","0.0-5.1-1.1","407","""event"",""trial"",""time""
""fullscreenenter"",""0"",""9841""
","
","
","""event"",""trial"",""time""
""fullscreenenter"",""0"",""9841""
","
","7799.879999831319","<img style='border: 4px solid darkgrey;' src='practice/pt1_M1.png'></img>","3","","practice","","2","<img src='practice/pt1_T1.png'></img>","0","false",""
"","html-keyboard-response","9","78797","0.0-5.2-0.2","407","""event"",""trial"",""time""
""fullscreenenter"",""0"",""9841""
","
","
","""event"",""trial"",""time""
""fullscreenenter"",""0"",""9841""
","
","null","<div style=""font-size:60px;"">+</div>","","null","fixation","2021-06-09 22:39:38.996","","","","",""
"","mars-trial","10","87558","0.0-5.2-1.2","407","""event"",""trial"",""time""
""fullscreenenter"",""0"",""9841""
","
","
","""event"",""trial"",""time""
""fullscreenenter"",""0"",""9841""
","
","6644.205000251532","<img style='border: 4px solid darkgrey;' src='practice/pt1_M1.png'></img>","0","","practice","","3","<img src='practice/pt1_T1.png'></img>","0","false",""
"","html-keyboard-response","11","88063","0.0-5.3-0.3","407","""event"",""trial"",""time""
""fullscreenenter"",""0"",""9841""
","
","
","""event"",""trial"",""time""
""fullscreenenter"",""0"",""9841""
","
","null","<div style=""font-size:60px;"">+</div>","","null","fixation","2021-06-09 22:39:48.262","","","","",""
"","mars-trial","12","96141","0.0-5.3-1.3","407","""event"",""trial"",""time""
""fullscreenenter"",""0"",""9841""
","
","
","""event"",""trial"",""time""
""fullscreenenter"",""0"",""9841""
","
","5957.500000018626","<img style='border: 4px solid darkgrey;' src='practice/pt1_M1.png'></img>","0","","practice","","0","<img src='practice/pt1_T1.png'></img>","0","true",""
"","html-keyboard-response","13","96652","0.0-6.0-0.0","407","""event"",""trial"",""time""
""fullscreenenter"",""0"",""9841""
","
","
","""event"",""trial"",""time""
""fullscreenenter"",""0"",""9841""
","
","null","<div style=""font-size:60px;"">+</div>","","null","fixation","2021-06-09 22:39:56.851","","","","",""
"","mars-trial","14","101269","0.0-6.0-1.0","407","""event"",""trial"",""time""
""fullscreenenter"",""0"",""9841""
","
","
","""event"",""trial"",""time""
""fullscreenenter"",""0"",""9841""
","
","2507.5850002467632","<img style='border: 4px solid darkgrey;' src='practice/pt2_M1.png'></img>","1","","practice","","0","<img src='practice/pt2_T1.png'></img>","0","true",""
"","html-keyboard-response","15","101772","0.0-7.0-0.0","407","""event"",""trial"",""time""
""fullscreenenter"",""0"",""9841""
","
","
","""event"",""trial"",""time""
""fullscreenenter"",""0"",""9841""
","
","null","<div style=""font-size:60px;"">+</div>","","null","fixation","2021-06-09 22:40:01.971","","","","",""
"","mars-trial","16","106170","0.0-7.0-1.0","407","""event"",""trial"",""time""
""fullscreenenter"",""0"",""9841""
","
","
","""event"",""trial"",""time""
""fullscreenenter"",""0"",""9841""
","
","2286.454999819398","<img style='border: 4px solid darkgrey;' src='practice/pt3_M1.png'></img>","3","","practice","","0","<img src='practice/pt3_T1.png'></img>","0","true",""
"","audio-button-response","17","111811","0.0-8.0","407","""event"",""trial"",""time""
""fullscreenenter"",""0"",""9841""
","
","
","""event"",""trial"",""time""
""fullscreenenter"",""0"",""9841""
","
","5638.805000111461","audio/mars_instructions_slide4.wav","0","","","","","","","",""
"","call-function","18","111812","0.0-9.0","407","""event"",""trial"",""time""
""fullscreenenter"",""0"",""9841""
","
","
","""event"",""trial"",""time""
""fullscreenenter"",""0"",""9841""
","
","","","","","","","","","","",""
"","html-keyboard-response","19","112331","0.0-10.0-0.0","407","""event"",""trial"",""time""
""fullscreenenter"",""0"",""9841""
","
","
","""event"",""trial"",""time""
""fullscreenenter"",""0"",""9841""
","
","null","<div style=""font-size:60px;"">+</div>","","null","fixation","2021-06-09 22:40:12.531","","","","",""
"","mars-trial","20","115586","0.0-10.0-1.0","407","""event"",""trial"",""time""
""fullscreenenter"",""0"",""9841""
","
","
","""event"",""trial"",""time""
""fullscreenenter"",""0"",""9841""
","
","2636.9449999183416","<img style='border: 4px solid darkgrey;' src='img/tf1_1_M_ss3.jpeg'></img>","2","","exp","","0","<img src='img/tf1_1_T1_ss3_md.jpeg'></img>","0","true",""
"","html-keyboard-response","21","116091","0.0-10.0-0.1","407","""event"",""trial"",""time""
""fullscreenenter"",""0"",""9841""
","
","
","""event"",""trial"",""time""
""fullscreenenter"",""0"",""9841""
","
","null","<div style=""font-size:60px;"">+</div>","","null","fixation","2021-06-09 22:40:16.290","","","","",""
"","mars-trial","22","119152","0.0-10.0-1.1","407","""event"",""trial"",""time""
""fullscreenenter"",""0"",""9841""
","
","
","""event"",""trial"",""time""
""fullscreenenter"",""0"",""9841""
","
","2437.849999871105","<img style='border: 4px solid darkgrey;' src='img/tf1_2_M_ss1.jpeg'></img>","3","","exp","","0","<img src='img/tf1_2_T1_ss1_md.jpeg'></img>","0","true",""
"","html-keyboard-response","23","119660","0.0-10.0-0.2","407","""event"",""trial"",""time""
""fullscreenenter"",""0"",""9841""
","
","
","""event"",""trial"",""time""
""fullscreenenter"",""0"",""9841""
","
","null","<div style=""font-size:60px;"">+</div>","","null","fixation","2021-06-09 22:40:19.859","","","","",""
"","mars-trial","24","122260","0.0-10.0-1.2","407","""event"",""trial"",""time""
""fullscreenenter"",""0"",""9841""
","
","
","""event"",""trial"",""time""
""fullscreenenter"",""0"",""9841""
","
","1989.4550000317395","<img style='border: 4px solid darkgrey;' src='img/tf1_3_M_ss2.jpeg'></img>","3","","exp","","0","<img src='img/tf1_3_T1_ss2_md.jpeg'></img>","0","true",""
"","html-keyboard-response","25","122772","0.0-10.0-0.3","407","""event"",""trial"",""time""
""fullscreenenter"",""0"",""9841""
","
","
","""event"",""trial"",""time""
""fullscreenenter"",""0"",""9841""
","
","null","<div style=""font-size:60px;"">+</div>","","null","fixation","2021-06-09 22:40:22.971","","","","",""
"","mars-trial","26","127628","0.0-10.0-1.3","407","""event"",""trial"",""time""
""fullscreenenter"",""0"",""9841""
","
","
","""event"",""trial"",""time""
""fullscreenenter"",""0"",""9841""
","
","4238.045000005513","<img style='border: 4px solid darkgrey;' src='img/tf1_4_M_ss3.jpeg'></img>","2","","exp","","0","<img src='img/tf1_4_T1_ss3_md.jpeg'></img>","0","true",""
"","html-keyboard-response","27","128131","0.0-10.0-0.4","407","""event"",""trial"",""time""
""fullscreenenter"",""0"",""9841""
","
","
","""event"",""trial"",""time""
""fullscreenenter"",""0"",""9841""
","
","null","<div style=""font-size:60px;"">+</div>","","null","fixation","2021-06-09 22:40:28.331","","","","",""
"","mars-trial","28","129841","0.0-10.0-1.4","407","""event"",""trial"",""time""
""fullscreenenter"",""0"",""9841""
","
","
","""event"",""trial"",""time""
""fullscreenenter"",""0"",""9841""
","
","1086.2650000490248","<img style='border: 4px solid darkgrey;' src='img/tf1_5_M_ss1.jpeg'></img>","2","","exp","","0","<img src='img/tf1_5_T1_ss1_md.jpeg'></img>","0","true",""
"","html-keyboard-response","29","130351","0.0-10.0-0.5","407","""event"",""trial"",""time""
""fullscreenenter"",""0"",""9841""
","
","
","""event"",""trial"",""time""
""fullscreenenter"",""0"",""9841""
","
","null","<div style=""font-size:60px;"">+</div>","","null","fixation","2021-06-09 22:40:30.551","","","","",""
"","mars-trial","30","136803","0.0-10.0-1.5","407","""event"",""trial"",""time""
""fullscreenenter"",""0"",""9841""
","
","
","""event"",""trial"",""time""
""fullscreenenter"",""0"",""9841""
","
","5818.864999804646","<img style='border: 4px solid darkgrey;' src='img/tf1_6_M_ss2.jpeg'></img>","0","","exp","","3","<img src='img/tf1_6_T1_ss2_md.jpeg'></img>","0","false",""
"","html-keyboard-response","31","137311","0.0-10.0-0.6","407","""event"",""trial"",""time""
""fullscreenenter"",""0"",""9841""
","
","
","""event"",""trial"",""time""
""fullscreenenter"",""0"",""9841""
","
","null","<div style=""font-size:60px;"">+</div>","","null","fixation","2021-06-09 22:40:37.510","","","","",""
"","mars-trial","32","141104","0.0-10.0-1.6","407","""event"",""trial"",""time""
""fullscreenenter"",""0"",""9841""
","
","
","""event"",""trial"",""time""
""fullscreenenter"",""0"",""9841""
","
","3178.6150000989437","<img style='border: 4px solid darkgrey;' src='img/tf1_7_M_ss3.jpeg'></img>","1","","exp","","0","<img src='img/tf1_7_T1_ss3_md.jpeg'></img>","0","true",""
"","html-keyboard-response","33","141609","0.0-10.0-0.7","407","""event"",""trial"",""time""
""fullscreenenter"",""0"",""9841""
","
","
","""event"",""trial"",""time""
""fullscreenenter"",""0"",""9841""
","
","null","<div style=""font-size:60px;"">+</div>","","null","fixation","2021-06-09 22:40:41.808","","","","",""
"","mars-trial","34","143850","0.0-10.0-1.7","407","""event"",""trial"",""time""
""fullscreenenter"",""0"",""9841""
","
","
","""event"",""trial"",""time""
""fullscreenenter"",""0"",""9841""
","
","1632.5699998997152","<img style='border: 4px solid darkgrey;' src='img/tf1_8_M_ss1.jpeg'></img>","3","","exp","","2","<img src='img/tf1_8_T1_ss1_md.jpeg'></img>","0","false",""
"","html-keyboard-response","35","144360","0.0-10.0-0.8","407","""event"",""trial"",""time""
""fullscreenenter"",""0"",""9841""
","
","
","""event"",""trial"",""time""
""fullscreenenter"",""0"",""9841""
","
","null","<div style=""font-size:60px;"">+</div>","","null","fixation","2021-06-09 22:40:44.560","","","","",""
"","mars-trial","36","149351","0.0-10.0-1.8","407","""event"",""trial"",""time""
""fullscreenenter"",""0"",""9841""
","
","
","""event"",""trial"",""time""
""fullscreenenter"",""0"",""9841""
","
","4373.254999984056","<img style='border: 4px solid darkgrey;' src='img/tf1_9_M_ss2.jpeg'></img>","0","","exp","","0","<img src='img/tf1_9_T1_ss2_md.jpeg'></img>","0","true",""
"","html-keyboard-response","37","149866","0.0-10.0-0.9","407","""event"",""trial"",""time""
""fullscreenenter"",""0"",""9841""
","
","
","""event"",""trial"",""time""
""fullscreenenter"",""0"",""9841""
","
","null","<div style=""font-size:60px;"">+</div>","","null","fixation","2021-06-09 22:40:50.065","","","","",""
"","mars-trial","38","153775","0.0-10.0-1.9","407","""event"",""trial"",""time""
""fullscreenenter"",""0"",""9841""
","
","
","""event"",""trial"",""time""
""fullscreenenter"",""0"",""9841""
","
","3293.774999678135","<img style='border: 4px solid darkgrey;' src='img/tf1_10_M_ss3.jpeg'></img>","2","","exp","","1","<img src='img/tf1_10_T1_ss3_md.jpeg'></img>","0","false",""
"","html-keyboard-response","39","154284","0.0-10.0-0.10","407","""event"",""trial"",""time""
""fullscreenenter"",""0"",""9841""
","
","
","""event"",""trial"",""time""
""fullscreenenter"",""0"",""9841""
","
","null","<div style=""font-size:60px;"">+</div>","","null","fixation","2021-06-09 22:40:54.484","","","","",""
"","mars-trial","40","159707","0.0-10.0-1.10","407","""event"",""trial"",""time""
""fullscreenenter"",""0"",""9841""
","
","
","""event"",""trial"",""time""
""fullscreenenter"",""0"",""9841""
","
","4811.199999880046","<img style='border: 4px solid darkgrey;' src='img/tf1_11_M_ss1.jpeg'></img>","1","","exp","","0","<img src='img/tf1_11_T1_ss1_md.jpeg'></img>","0","true",""
"","html-keyboard-response","41","160217","0.0-10.0-0.11","407","""event"",""trial"",""time""
""fullscreenenter"",""0"",""9841""
","
","
","""event"",""trial"",""time""
""fullscreenenter"",""0"",""9841""
","
","null","<div style=""font-size:60px;"">+</div>","","null","fixation","2021-06-09 22:41:00.416","","","","",""
"","mars-trial","42","164709","0.0-10.0-1.11","407","""event"",""trial"",""time""
""fullscreenenter"",""0"",""9841""
","
","
","""event"",""trial"",""time""
""fullscreenenter"",""0"",""9841""
","
","3876.345000229776","<img style='border: 4px solid darkgrey;' src='img/tf1_12_M_ss2.jpeg'></img>","2","","exp","","1","<img src='img/tf1_12_T1_ss2_md.jpeg'></img>","0","false",""
"","html-keyboard-response","43","165216","0.0-10.0-0.12","407","""event"",""trial"",""time""
""fullscreenenter"",""0"",""9841""
","
","
","""event"",""trial"",""time""
""fullscreenenter"",""0"",""9841""
","
","null","<div style=""font-size:60px;"">+</div>","","null","fixation","2021-06-09 22:41:05.415","","","","",""
"","mars-trial","44","173326","0.0-10.0-1.12","407","""event"",""trial"",""time""
""fullscreenenter"",""0"",""9841""
","
","
","""event"",""trial"",""time""
""fullscreenenter"",""0"",""9841""
","
","7491.710000205785","<img style='border: 4px solid darkgrey;' src='img/tf1_13_M_ss3.jpeg'></img>","3","","exp","","3","<img src='img/tf1_13_T1_ss3_md.jpeg'></img>","0","false",""
"","html-keyboard-response","45","173829","0.0-10.0-0.13","407","""event"",""trial"",""time""
""fullscreenenter"",""0"",""9841""
","
","
","""event"",""trial"",""time""
""fullscreenenter"",""0"",""9841""
","
","null","<div style=""font-size:60px;"">+</div>","","null","fixation","2021-06-09 22:41:14.029","","","","",""
"","mars-trial","46","198237","0.0-10.0-1.13","407","""event"",""trial"",""time""
""fullscreenenter"",""0"",""9841""
","
","
","""event"",""trial"",""time""
""fullscreenenter"",""0"",""9841""
","
","23800.125000067055","<img style='border: 4px solid darkgrey;' src='img/tf1_14_M_ss1.jpeg'></img>","3","","exp","","1","<img src='img/tf1_14_T1_ss1_md.jpeg'></img>","0","false",""
"","html-keyboard-response","47","198744","0.0-10.0-0.14","407","""event"",""trial"",""time""
""fullscreenenter"",""0"",""9841""
","
","
","""event"",""trial"",""time""
""fullscreenenter"",""0"",""9841""
","
","null","<div style=""font-size:60px;"">+</div>","","null","fixation","2021-06-09 22:41:38.943","","","","",""
"","mars-trial","48","203494","0.0-10.0-1.14","407","""event"",""trial"",""time""
""fullscreenenter"",""0"",""9841""
","
","
","""event"",""trial"",""time""
""fullscreenenter"",""0"",""9841""
","
","4137.815000023693","<img style='border: 4px solid darkgrey;' src='img/tf1_15_M_ss2.jpeg'></img>","1","","exp","","3","<img src='img/tf1_15_T1_ss2_md.jpeg'></img>","0","false",""
"","html-keyboard-response","49","203998","0.0-10.0-0.15","407","""event"",""trial"",""time""
""fullscreenenter"",""0"",""9841""
","
","
","""event"",""trial"",""time""
""fullscreenenter"",""0"",""9841""
","
","null","<div style=""font-size:60px;"">+</div>","","null","fixation","2021-06-09 22:41:44.197","","","","",""
"","mars-trial","50","216223","0.0-10.0-1.15","407","""event"",""trial"",""time""
""fullscreenenter"",""0"",""9841""
","
","
","""event"",""trial"",""time""
""fullscreenenter"",""0"",""9841""
","
","11611.200000159442","<img style='border: 4px solid darkgrey;' src='img/tf1_16_M_ss3.jpeg'></img>","1","","exp","","0","<img src='img/tf1_16_T1_ss3_md.jpeg'></img>","0","true",""
"","html-keyboard-response","51","216727","0.0-10.0-0.16","407","""event"",""trial"",""time""
""fullscreenenter"",""0"",""9841""
","
","
","""event"",""trial"",""time""
""fullscreenenter"",""0"",""9841""
","
","null","<div style=""font-size:60px;"">+</div>","","null","fixation","2021-06-09 22:41:56.926","","","","",""
"","mars-trial","52","230217","0.0-10.0-1.16","407","""event"",""trial"",""time""
""fullscreenenter"",""0"",""9841""
","
","
","""event"",""trial"",""time""
""fullscreenenter"",""0"",""9841""
","
","12864.960000384599","<img style='border: 4px solid darkgrey;' src='img/tf1_17_M_ss1.jpeg'></img>","3","","exp","","3","<img src='img/tf1_17_T1_ss1_md.jpeg'></img>","0","false",""
"","html-keyboard-response","53","230723","0.0-10.0-0.17","407","""event"",""trial"",""time""
""fullscreenenter"",""0"",""9841""
","
","
","""event"",""trial"",""time""
""fullscreenenter"",""0"",""9841""
","
","null","<div style=""font-size:60px;"">+</div>","","null","fixation","2021-06-09 22:42:10.922","","","","",""
"","mars-trial","54","234717","0.0-10.0-1.17","407","""event"",""trial"",""time""
""fullscreenenter"",""0"",""9841""
","
","
","""event"",""trial"",""time""
""fullscreenenter"",""0"",""9841""
","
","3380.7999999262393","<img style='border: 4px solid darkgrey;' src='img/tf1_18_M_ss2.jpeg'></img>","2","","exp","","1","<img src='img/tf1_18_T1_ss2_md.jpeg'></img>","0","false",""
"","html-keyboard-response","55","235233","0.0-10.0-0.18","407","""event"",""trial"",""time""
""fullscreenenter"",""0"",""9841""
","
","
","""event"",""trial"",""time""
""fullscreenenter"",""0"",""9841""
","
","null","<div style=""font-size:60px;"">+</div>","","null","fixation","2021-06-09 22:42:15.433","","","","",""
"","mars-trial","56","249656","0.0-10.0-1.18","407","""event"",""trial"",""time""
""fullscreenenter"",""0"",""9841""
","
","
","""event"",""trial"",""time""
""fullscreenenter"",""0"",""9841""
","
","13806.514999829233","<img style='border: 4px solid darkgrey;' src='img/tf1_19_M_ss3.jpeg'></img>","3","","exp","","0","<img src='img/tf1_19_T1_ss3_md.jpeg'></img>","0","true",""
"","html-keyboard-response","57","250161","0.0-10.0-0.19","407","""event"",""trial"",""time""
""fullscreenenter"",""0"",""9841""
","
","
","""event"",""trial"",""time""
""fullscreenenter"",""0"",""9841""
","
","null","<div style=""font-size:60px;"">+</div>","","null","fixation","2021-06-09 22:42:30.361","","","","",""
"","mars-trial","58","263059","0.0-10.0-1.19","407","""event"",""trial"",""time""
""fullscreenenter"",""0"",""9841""
","
","
","""event"",""trial"",""time""
""fullscreenenter"",""0"",""9841""
","
","12278.355000074953","<img style='border: 4px solid darkgrey;' src='img/tf1_20_M_ss1.jpeg'></img>","2","","exp","","0","<img src='img/tf1_20_T1_ss1_md.jpeg'></img>","0","true",""
"","html-keyboard-response","59","263567","0.0-10.0-0.20","407","""event"",""trial"",""time""
""fullscreenenter"",""0"",""9841""
","
","
","""event"",""trial"",""time""
""fullscreenenter"",""0"",""9841""
","
","null","<div style=""font-size:60px;"">+</div>","","null","fixation","2021-06-09 22:42:43.766","","","","",""
"","mars-trial","60","279944","0.0-10.0-1.20","407","""event"",""trial"",""time""
""fullscreenenter"",""0"",""9841""
","
","
","""event"",""trial"",""time""
""fullscreenenter"",""0"",""9841""
","
","15760.590000078082","<img style='border: 4px solid darkgrey;' src='img/tf1_21_M_ss2.jpeg'></img>","1","","exp","","0","<img src='img/tf1_21_T1_ss2_md.jpeg'></img>","0","true",""
"","html-keyboard-response","61","280447","0.0-10.0-0.21","407","""event"",""trial"",""time""
""fullscreenenter"",""0"",""9841""
","
","
","""event"",""trial"",""time""
""fullscreenenter"",""0"",""9841""
","
","null","<div style=""font-size:60px;"">+</div>","","null","fixation","2021-06-09 22:43:00.646","","","","",""
"","mars-trial","62","288356","0.0-10.0-1.21","407","""event"",""trial"",""time""
""fullscreenenter"",""0"",""9841""
","
","
","""event"",""trial"",""time""
""fullscreenenter"",""0"",""9841""
","
","7290.965000167489","<img style='border: 4px solid darkgrey;' src='img/tf1_22_M_ss3.jpeg'></img>","3","","exp","","0","<img src='img/tf1_22_T1_ss3_md.jpeg'></img>","0","true",""
"","html-keyboard-response","63","288864","0.0-10.0-0.22","407","""event"",""trial"",""time""
""fullscreenenter"",""0"",""9841""
","
","
","""event"",""trial"",""time""
""fullscreenenter"",""0"",""9841""
","
","null","<div style=""font-size:60px;"">+</div>","","null","fixation","2021-06-09 22:43:09.063","","","","",""
"","mars-trial","64","305569","0.0-10.0-1.22","407","""event"",""trial"",""time""
""fullscreenenter"",""0"",""9841""
","
","
","""event"",""trial"",""time""
""fullscreenenter"",""0"",""9841""
","
","16091.620000079274","<img style='border: 4px solid darkgrey;' src='img/tf1_23_M_ss1.jpeg'></img>","0","","exp","","0","<img src='img/tf1_23_T1_ss1_md.jpeg'></img>","0","true",""
"","html-keyboard-response","65","306073","0.0-10.0-0.23","407","""event"",""trial"",""time""
""fullscreenenter"",""0"",""9841""
","
","
","""event"",""trial"",""time""
""fullscreenenter"",""0"",""9841""
","
","null","<div style=""font-size:60px;"">+</div>","","null","fixation","2021-06-09 22:43:26.272","","","","",""
"","mars-trial","66","334615","0.0-10.0-1.23","407","""event"",""trial"",""time""
""fullscreenenter"",""0"",""9841""
","
","
","""event"",""trial"",""time""
""fullscreenenter"",""0"",""9841""
","
","27920.324999839067","<img style='border: 4px solid darkgrey;' src='img/tf1_24_M_ss2.jpeg'></img>","3","","exp","","3","<img src='img/tf1_24_T1_ss2_md.jpeg'></img>","0","false",""
"","html-keyboard-response","67","335120","0.0-10.0-0.24","407","""event"",""trial"",""time""
""fullscreenenter"",""0"",""9841""
","
","
","""event"",""trial"",""time""
""fullscreenenter"",""0"",""9841""
","
","null","<div style=""font-size:60px;"">+</div>","","null","fixation","2021-06-09 22:43:55.319","","","","",""
"","mars-trial","68","340563","0.0-10.0-1.24","407","""event"",""trial"",""time""
""fullscreenenter"",""0"",""9841""
","
","
","""event"",""trial"",""time""
""fullscreenenter"",""0"",""9841""
","
","4810.269999783486","<img style='border: 4px solid darkgrey;' src='img/tf1_25_M_ss3.jpeg'></img>","2","","exp","","0","<img src='img/tf1_25_T1_ss3_md.jpeg'></img>","0","true",""
"","html-keyboard-response","69","341076","0.0-10.0-0.25","407","""event"",""trial"",""time""
""fullscreenenter"",""0"",""9841""
","
","
","""event"",""trial"",""time""
""fullscreenenter"",""0"",""9841""
","
","null","<div style=""font-size:60px;"">+</div>","","null","fixation","2021-06-09 22:44:01.275","","","","",""
"","mars-trial","70","370201","0.0-10.0-1.25","407","""event"",""trial"",""time""
""fullscreenenter"",""0"",""9841""
","
","
","""event"",""trial"",""time""
""fullscreenenter"",""0"",""9841""
","
","28515.249999705702","<img style='border: 4px solid darkgrey;' src='img/tf1_26_M_ss1.jpeg'></img>","0","","exp","","1","<img src='img/tf1_26_T1_ss1_md.jpeg'></img>","0","false",""
"","html-keyboard-response","71","370714","0.0-10.0-0.26","407","""event"",""trial"",""time""
""fullscreenenter"",""0"",""9841""
","
","
","""event"",""trial"",""time""
""fullscreenenter"",""0"",""9841""
","
","null","<div style=""font-size:60px;"">+</div>","","null","fixation","2021-06-09 22:44:30.913","","","","",""
"","mars-trial","72","386640","0.0-10.0-1.26","407","""event"",""trial"",""time""
""fullscreenenter"",""0"",""9841""
","
","
","""event"",""trial"",""time""
""fullscreenenter"",""0"",""9841""
","
","15312.220000196248","<img style='border: 4px solid darkgrey;' src='img/tf1_27_M_ss2.jpeg'></img>","2","","exp","","2","<img src='img/tf1_27_T1_ss2_md.jpeg'></img>","0","false",""
"","html-keyboard-response","73","387143","0.0-10.0-0.27","407","""event"",""trial"",""time""
""fullscreenenter"",""0"",""9841""
","
","
","""event"",""trial"",""time""
""fullscreenenter"",""0"",""9841""
","
","null","<div style=""font-size:60px;"">+</div>","","null","fixation","2021-06-09 22:44:47.342","","","","",""
"","mars-trial","74","392189","0.0-10.0-1.27","407","""event"",""trial"",""time""
""fullscreenenter"",""0"",""9841""
","
","
","""event"",""trial"",""time""
""fullscreenenter"",""0"",""9841""
","
","4434.080000035465","<img style='border: 4px solid darkgrey;' src='img/tf1_28_M_ss3.jpeg'></img>","3","","exp","","2","<img src='img/tf1_28_T1_ss3_md.jpeg'></img>","0","false",""
"","html-keyboard-response","75","392701","0.0-10.0-0.28","407","""event"",""trial"",""time""
""fullscreenenter"",""0"",""9841""
","
","
","""event"",""trial"",""time""
""fullscreenenter"",""0"",""9841""
","
","null","<div style=""font-size:60px;"">+</div>","","null","fixation","2021-06-09 22:44:52.900","","","","",""
"","mars-trial","76","399456","0.0-10.0-1.28","407","""event"",""trial"",""time""
""fullscreenenter"",""0"",""9841""
","
","
","""event"",""trial"",""time""
""fullscreenenter"",""0"",""9841""
","
","6140.955000184476","<img style='border: 4px solid darkgrey;' src='img/tf1_29_M_ss1.jpeg'></img>","0","","exp","","2","<img src='img/tf1_29_T1_ss1_md.jpeg'></img>","0","false",""
"","html-keyboard-response","77","399964","0.0-10.0-0.29","407","""event"",""trial"",""time""
""fullscreenenter"",""0"",""9841""
","
","
","""event"",""trial"",""time""
""fullscreenenter"",""0"",""9841""
","
","null","<div style=""font-size:60px;"">+</div>","","null","fixation","2021-06-09 22:45:00.164","","","","",""
"","mars-trial","78","415022","0.0-10.0-1.29","407","""event"",""trial"",""time""
""fullscreenenter"",""0"",""9841""
","
","
","""event"",""trial"",""time""
""fullscreenenter"",""0"",""9841""
","
","14443.605000153184","<img style='border: 4px solid darkgrey;' src='img/tf1_30_M_ss2.jpeg'></img>","0","","exp","","3","<img src='img/tf1_30_T1_ss2_md.jpeg'></img>","0","false",""
"","html-keyboard-response","79","415526","0.0-10.0-0.30","407","""event"",""trial"",""time""
""fullscreenenter"",""0"",""9841""
","
","
","""event"",""trial"",""time""
""fullscreenenter"",""0"",""9841""
","
","null","<div style=""font-size:60px;"">+</div>","","null","fixation","2021-06-09 22:45:15.725","","","","",""
"","mars-trial","80","436892","0.0-10.0-1.30","407","""event"",""trial"",""time""
""fullscreenenter"",""0"",""9841""
","
","
","""event"",""trial"",""time""
""fullscreenenter"",""0"",""9841""
","
","20747.01499985531","<img style='border: 4px solid darkgrey;' src='img/tf1_31_M_ss3.jpeg'></img>","0","","exp","","1","<img src='img/tf1_31_T1_ss3_md.jpeg'></img>","0","false",""
"","html-keyboard-response","81","437402","0.0-10.0-0.31","407","""event"",""trial"",""time""
""fullscreenenter"",""0"",""9841""
","
","
","""event"",""trial"",""time""
""fullscreenenter"",""0"",""9841""
","
","null","<div style=""font-size:60px;"">+</div>","","null","fixation","2021-06-09 22:45:37.601","","","","",""
"","mars-trial","82","444692","0.0-10.0-1.31","407","""event"",""trial"",""time""
""fullscreenenter"",""0"",""9841""
","
","
","""event"",""trial"",""time""
""fullscreenenter"",""0"",""9841""
","
","6666.364999953657","<img style='border: 4px solid darkgrey;' src='img/tf1_32_M_ss1.jpeg'></img>","1","","exp","","0","<img src='img/tf1_32_T1_ss1_md.jpeg'></img>","0","true",""
"","html-keyboard-response","83","445203","0.0-10.0-0.32","407","""event"",""trial"",""time""
""fullscreenenter"",""0"",""9841""
","
","
","""event"",""trial"",""time""
""fullscreenenter"",""0"",""9841""
","
","null","<div style=""font-size:60px;"">+</div>","","null","fixation","2021-06-09 22:45:45.402","","","","",""
"","mars-trial","84","460817","0.0-10.0-1.32","407","""event"",""trial"",""time""
""fullscreenenter"",""0"",""9841""
","
","
","""event"",""trial"",""time""
""fullscreenenter"",""0"",""9841""
","
","14999.869999941438","<img style='border: 4px solid darkgrey;' src='img/tf1_33_M_ss2.jpeg'></img>","0","","exp","","0","<img src='img/tf1_33_T1_ss2_md.jpeg'></img>","0","true",""
"","html-keyboard-response","85","461325","0.0-10.0-0.33","407","""event"",""trial"",""time""
""fullscreenenter"",""0"",""9841""
","
","
","""event"",""trial"",""time""
""fullscreenenter"",""0"",""9841""
","
","null","<div style=""font-size:60px;"">+</div>","","null","fixation","2021-06-09 22:46:01.524","","","","",""
"","mars-trial","86","468455","0.0-10.0-1.33","407","""event"",""trial"",""time""
""fullscreenenter"",""0"",""9841""
","
","
","""event"",""trial"",""time""
""fullscreenenter"",""0"",""9841""
","
","6518.845000304282","<img style='border: 4px solid darkgrey;' src='img/tf1_34_M_ss3.jpeg'></img>","3","","exp","","3","<img src='img/tf1_34_T1_ss3_md.jpeg'></img>","0","false",""
"","html-keyboard-response","87","468958","0.0-10.0-0.34","407","""event"",""trial"",""time""
""fullscreenenter"",""0"",""9841""
","
","
","""event"",""trial"",""time""
""fullscreenenter"",""0"",""9841""
","
","null","<div style=""font-size:60px;"">+</div>","","null","fixation","2021-06-09 22:46:09.157","","","","",""
"","mars-trial","88","482877","0.0-10.0-1.34","407","""event"",""trial"",""time""
""fullscreenenter"",""0"",""9841""
","
","
","""event"",""trial"",""time""
""fullscreenenter"",""0"",""9841""
","
","13302.360000088811","<img style='border: 4px solid darkgrey;' src='img/tf1_35_M_ss1.jpeg'></img>","2","","exp","","1","<img src='img/tf1_35_T1_ss1_md.jpeg'></img>","0","false",""
"","html-keyboard-response","89","483386","0.0-10.0-0.35","407","""event"",""trial"",""time""
""fullscreenenter"",""0"",""9841""
","
","
","""event"",""trial"",""time""
""fullscreenenter"",""0"",""9841""
","
","null","<div style=""font-size:60px;"">+</div>","","null","fixation","2021-06-09 22:46:23.585","","","","",""
"","mars-trial","90","487208","0.0-10.0-1.35","407","""event"",""trial"",""time""
""fullscreenenter"",""0"",""9841""
","
","
","""event"",""trial"",""time""
""fullscreenenter"",""0"",""9841""
","
","3208.5299999453127","<img style='border: 4px solid darkgrey;' src='img/tf1_36_M_ss2.jpeg'></img>","2","","exp","","3","<img src='img/tf1_36_T1_ss2_md.jpeg'></img>","0","false",""
"","html-keyboard-response","91","487718","0.0-10.0-0.36","407","""event"",""trial"",""time""
""fullscreenenter"",""0"",""9841""
","
","
","""event"",""trial"",""time""
""fullscreenenter"",""0"",""9841""
","
","null","<div style=""font-size:60px;"">+</div>","","null","fixation","2021-06-09 22:46:27.918","","","","",""
"","mars-trial","92","489152","0.0-10.0-1.36","407","""event"",""trial"",""time""
""fullscreenenter"",""0"",""9841""
","
","
","""event"",""trial"",""time""
""fullscreenenter"",""0"",""9841""
","
","820.8499997854233","<img style='border: 4px solid darkgrey;' src='img/tf1_37_M_ss3.jpeg'></img>","2","","exp","","2","<img src='img/tf1_37_T1_ss3_md.jpeg'></img>","0","false",""
"","html-keyboard-response","93","489656","0.0-10.0-0.37","407","""event"",""trial"",""time""
""fullscreenenter"",""0"",""9841""
","
","
","""event"",""trial"",""time""
""fullscreenenter"",""0"",""9841""
","
","null","<div style=""font-size:60px;"">+</div>","","null","fixation","2021-06-09 22:46:29.855","","","","",""
"","mars-trial","94","493770","0.0-10.0-1.37","407","""event"",""trial"",""time""
""fullscreenenter"",""0"",""9841""
","
","
","""event"",""trial"",""time""
""fullscreenenter"",""0"",""9841""
","
","3499.83000010252","<img style='border: 4px solid darkgrey;' src='img/tf1_38_M_ss1.jpeg'></img>","0","","exp","","0","<img src='img/tf1_38_T1_ss1_md.jpeg'></img>","0","true",""
"","html-keyboard-response","95","494273","0.0-10.0-0.38","407","""event"",""trial"",""time""
""fullscreenenter"",""0"",""9841""
","
","
","""event"",""trial"",""time""
""fullscreenenter"",""0"",""9841""
","
","null","<div style=""font-size:60px;"">+</div>","","null","fixation","2021-06-09 22:46:34.472","","","","",""
"","mars-trial","96","513990","0.0-10.0-1.38","407","""event"",""trial"",""time""
""fullscreenenter"",""0"",""9841""
","
","
","""event"",""trial"",""time""
""fullscreenenter"",""0"",""9841""
","
","19105.46000022441","<img style='border: 4px solid darkgrey;' src='img/tf1_39_M_ss2.jpeg'></img>","2","","exp","","1","<img src='img/tf1_39_T1_ss2_md.jpeg'></img>","0","false",""
"","html-keyboard-response","97","514506","0.0-10.0-0.39","407","""event"",""trial"",""time""
""fullscreenenter"",""0"",""9841""
","
","
","""event"",""trial"",""time""
""fullscreenenter"",""0"",""9841""
","
","null","<div style=""font-size:60px;"">+</div>","","null","fixation","2021-06-09 22:46:54.705","","","","",""
"","mars-trial","98","518916","0.0-10.0-1.39","407","""event"",""trial"",""time""
""fullscreenenter"",""0"",""9841""
","
","
","""event"",""trial"",""time""
""fullscreenenter"",""0"",""9841""
","
","3794.129999820143","<img style='border: 4px solid darkgrey;' src='img/tf1_40_M_ss3.jpeg'></img>","1","","exp","","0","<img src='img/tf1_40_T1_ss3_md.jpeg'></img>","0","true",""
"","html-keyboard-response","99","519426","0.0-10.0-0.40","407","""event"",""trial"",""time""
""fullscreenenter"",""0"",""9841""
","
","
","""event"",""trial"",""time""
""fullscreenenter"",""0"",""9841""
","
","null","<div style=""font-size:60px;"">+</div>","","null","fixation","2021-06-09 22:46:59.625","","","","",""
"","mars-trial","100","524227","0.0-10.0-1.40","407","""event"",""trial"",""time""
""fullscreenenter"",""0"",""9841""
","
","
","""event"",""trial"",""time""
""fullscreenenter"",""0"",""9841""
","
","4187.834999989718","<img style='border: 4px solid darkgrey;' src='img/tf1_41_M_ss1.jpeg'></img>","3","","exp","","0","<img src='img/tf1_41_T1_ss1_md.jpeg'></img>","0","true",""
"","html-keyboard-response","101","524743","0.0-10.0-0.41","407","""event"",""trial"",""time""
""fullscreenenter"",""0"",""9841""
","
","
","""event"",""trial"",""time""
""fullscreenenter"",""0"",""9841""
","
","null","<div style=""font-size:60px;"">+</div>","","null","fixation","2021-06-09 22:47:04.942","","","","",""
"","mars-trial","102","533584","0.0-10.0-1.41","407","""event"",""trial"",""time""
""fullscreenenter"",""0"",""9841""
","
","
","""event"",""trial"",""time""
""fullscreenenter"",""0"",""9841""
","
","8220.10500030592","<img style='border: 4px solid darkgrey;' src='img/tf1_42_M_ss2.jpeg'></img>","3","","exp","","0","<img src='img/tf1_42_T1_ss2_md.jpeg'></img>","0","true",""
"","html-keyboard-response","103","534103","0.0-10.0-0.42","407","""event"",""trial"",""time""
""fullscreenenter"",""0"",""9841""
","
","
","""event"",""trial"",""time""
""fullscreenenter"",""0"",""9841""
","
","null","<div style=""font-size:60px;"">+</div>","","null","fixation","2021-06-09 22:47:14.302","","","","",""
"","mars-trial","104","537463","0.0-10.0-1.42","407","""event"",""trial"",""time""
""fullscreenenter"",""0"",""9841""
","
","
","""event"",""trial"",""time""
""fullscreenenter"",""0"",""9841""
","
","2749.044999945909","<img style='border: 4px solid darkgrey;' src='img/tf1_43_M_ss3.jpeg'></img>","1","","exp","","3","<img src='img/tf1_43_T1_ss3_md.jpeg'></img>","0","false",""
"","html-keyboard-response","105","537976","0.0-10.0-0.43","407","""event"",""trial"",""time""
""fullscreenenter"",""0"",""9841""
","
","
","""event"",""trial"",""time""
""fullscreenenter"",""0"",""9841""
","
","null","<div style=""font-size:60px;"">+</div>","","null","fixation","2021-06-09 22:47:18.176","","","","",""
"","mars-trial","106","561716","0.0-10.0-1.43","407","""event"",""trial"",""time""
""fullscreenenter"",""0"",""9841""
","
","
","""event"",""trial"",""time""
""fullscreenenter"",""0"",""9841""
","
","23122.71000025794","<img style='border: 4px solid darkgrey;' src='img/tf1_44_M_ss1.jpeg'></img>","0","","exp","","0","<img src='img/tf1_44_T1_ss1_md.jpeg'></img>","0","true",""
"","html-keyboard-response","107","562225","0.0-10.0-0.44","407","""event"",""trial"",""time""
""fullscreenenter"",""0"",""9841""
","
","
","""event"",""trial"",""time""
""fullscreenenter"",""0"",""9841""
","
","null","<div style=""font-size:60px;"">+</div>","","null","fixation","2021-06-09 22:47:42.424","","","","",""
"","mars-trial","108","582446","0.0-10.0-1.44","407","""event"",""trial"",""time""
""fullscreenenter"",""0"",""9841""
","
","
","""event"",""trial"",""time""
""fullscreenenter"",""0"",""9841""
","
","19601.524999830872","<img style='border: 4px solid darkgrey;' src='img/tf1_45_M_ss2.jpeg'></img>","3","","exp","","2","<img src='img/tf1_45_T1_ss2_md.jpeg'></img>","0","false",""
"","html-keyboard-response","109","582959","0.0-10.0-0.45","407","""event"",""trial"",""time""
""fullscreenenter"",""0"",""9841""
","
","
","""event"",""trial"",""time""
""fullscreenenter"",""0"",""9841""
","
","null","<div style=""font-size:60px;"">+</div>","","null","fixation","2021-06-09 22:48:03.158","","","","",""
"","mars-trial","110","590118","0.0-10.0-1.45","407","""event"",""trial"",""time""
""fullscreenenter"",""0"",""9841""
","
","
","""event"",""trial"",""time""
""fullscreenenter"",""0"",""9841""
","
","6548.985000234097","<img style='border: 4px solid darkgrey;' src='img/tf1_46_M_ss3.jpeg'></img>","1","","exp","","0","<img src='img/tf1_46_T1_ss3_md.jpeg'></img>","0","true",""
"","html-keyboard-response","111","590625","0.0-10.0-0.46","407","""event"",""trial"",""time""
""fullscreenenter"",""0"",""9841""
","
","
","""event"",""trial"",""time""
""fullscreenenter"",""0"",""9841""
","
","null","<div style=""font-size:60px;"">+</div>","","null","fixation","2021-06-09 22:48:10.825","","","","",""
"","mars-trial","112","591818","0.0-10.0-1.46","407","""event"",""trial"",""time""
""fullscreenenter"",""0"",""9841""
","
","
","""event"",""trial"",""time""
""fullscreenenter"",""0"",""9841""
","
","","","","","exp","","","<img src='img/tf1_47_T1_ss1_md.jpeg'></img>","0","false",""
"","html-keyboard-response","113","592323","0.0-10.0-0.47","407","""event"",""trial"",""time""
""fullscreenenter"",""0"",""9841""
","
","
","""event"",""trial"",""time""
""fullscreenenter"",""0"",""9841""
","
","null","<div style=""font-size:60px;"">+</div>","","null","fixation","2021-06-09 22:48:12.522","","","","",""
"","audio-button-response","114","597064","0.0-11.0","407","""event"",""trial"",""time""
""fullscreenenter"",""0"",""9841""
","
","
","""event"",""trial"",""time""
""fullscreenenter"",""0"",""9841""
","
","4632.28499982506","audio/mars_instructions_slide5.wav","0","","","","","","","",""
