"success","trial_type","trial_index","time_elapsed","internal_node_id","subject_id","interactions","blur_events","focus_events","fullscreenenter_events","fullscreenexit_events","rt","stimulus","button_pressed","key_press","part","timestamp","unshuffled_button","correct_response","correct_button","correct","value"
"true","fullscreen","0","3054","0.0-0.0","A573","""event"",""trial"",""time""
""fullscreenenter"",""0"",""2069""
","
","
","""event"",""trial"",""time""
""fullscreenenter"",""0"",""2069""
","
","","","","","","","","","","",""
"","pavlovia","1","3057","0.0-1.0","A573","""event"",""trial"",""time""
""fullscreenenter"",""0"",""2069""
","
","
","""event"",""trial"",""time""
""fullscreenenter"",""0"",""2069""
","
","","","","","","","","","","",""
"","html-button-response","2","4378","0.0-2.0","A573","""event"",""trial"",""time""
""fullscreenenter"",""0"",""2069""
","
","
","""event"",""trial"",""time""
""fullscreenenter"",""0"",""2069""
","
","1320.2150000142865","<p>Welcome! Press START to begin.</p><br>","0","","","","","","","",""
"","audio-button-response","3","13757","0.0-3.0","A573","""event"",""trial"",""time""
""fullscreenenter"",""0"",""2069""
","
","
","""event"",""trial"",""time""
""fullscreenenter"",""0"",""2069""
","
","9377.229999983683","audio/mars_instructions_slide2.wav","0","","","","","","","",""
"","audio-button-response","4","21046","0.0-4.0","A573","""event"",""trial"",""time""
""fullscreenenter"",""0"",""2069""
","
","
","""event"",""trial"",""time""
""fullscreenenter"",""0"",""2069""
","
","7288.869999989402","audio/mars_instructions_slide3.wav","0","","","","","","","",""
"","html-keyboard-response","5","21548","0.0-5.0-0.0","A573","""event"",""trial"",""time""
""fullscreenenter"",""0"",""2069""
","
","
","""event"",""trial"",""time""
""fullscreenenter"",""0"",""2069""
","
","null","<div style=""font-size:60px;"">+</div>","","null","fixation","2021-04-12 13:22:40.933","","","","",""
"","mars-trial","6","37338","0.0-5.0-1.0","A573","""event"",""trial"",""time""
""fullscreenenter"",""0"",""2069""
","
","
","""event"",""trial"",""time""
""fullscreenenter"",""0"",""2069""
","
","13685.490000003483","<img style='border: 4px solid darkgrey;' src='practice/pt1_M1.png'></img>","3","","practice","","2","<img src='practice/pt1_T1.png'></img>","0","false",""
"","html-keyboard-response","7","37840","0.0-5.1-0.1","A573","""event"",""trial"",""time""
""fullscreenenter"",""0"",""2069""
","
","
","""event"",""trial"",""time""
""fullscreenenter"",""0"",""2069""
","
","null","<div style=""font-size:60px;"">+</div>","","null","fixation","2021-04-12 13:22:57.225","","","","",""
"","mars-trial","8","41240","0.0-5.1-1.1","A573","""event"",""trial"",""time""
""fullscreenenter"",""0"",""2069""
","
","
","""event"",""trial"",""time""
""fullscreenenter"",""0"",""2069""
","
","1294.8799999430776","<img style='border: 4px solid darkgrey;' src='practice/pt1_M1.png'></img>","0","","practice","","0","<img src='practice/pt1_T1.png'></img>","0","true",""
"","html-keyboard-response","9","41742","0.0-6.0-0.0","A573","""event"",""trial"",""time""
""fullscreenenter"",""0"",""2069""
","
","
","""event"",""trial"",""time""
""fullscreenenter"",""0"",""2069""
","
","null","<div style=""font-size:60px;"">+</div>","","null","fixation","2021-04-12 13:23:01.127","","","","",""
"","mars-trial","10","45538","0.0-6.0-1.0","A573","""event"",""trial"",""time""
""fullscreenenter"",""0"",""2069""
","
","
","""event"",""trial"",""time""
""fullscreenenter"",""0"",""2069""
","
","1692.0699999900535","<img style='border: 4px solid darkgrey;' src='practice/pt2_M1.png'></img>","2","","practice","","0","<img src='practice/pt2_T1.png'></img>","0","true",""
"","html-keyboard-response","11","46039","0.0-7.0-0.0","A573","""event"",""trial"",""time""
""fullscreenenter"",""0"",""2069""
","
","
","""event"",""trial"",""time""
""fullscreenenter"",""0"",""2069""
","
","null","<div style=""font-size:60px;"">+</div>","","null","fixation","2021-04-12 13:23:05.425","","","","",""
"","mars-trial","12","49509","0.0-7.0-1.0","A573","""event"",""trial"",""time""
""fullscreenenter"",""0"",""2069""
","
","
","""event"",""trial"",""time""
""fullscreenenter"",""0"",""2069""
","
","1365.659999952186","<img style='border: 4px solid darkgrey;' src='practice/pt3_M1.png'></img>","1","","practice","","0","<img src='practice/pt3_T1.png'></img>","0","true",""
"","audio-button-response","13","50468","0.0-8.0","A573","""event"",""trial"",""time""
""fullscreenenter"",""0"",""2069""
","
","
","""event"",""trial"",""time""
""fullscreenenter"",""0"",""2069""
","
","958.5150000057183","audio/mars_instructions_slide4.wav","0","","","","","","","",""
"","call-function","14","50469","0.0-9.0","A573","""event"",""trial"",""time""
""fullscreenenter"",""0"",""2069""
","
","
","""event"",""trial"",""time""
""fullscreenenter"",""0"",""2069""
","
","","","","","","","","","","",""
"","html-keyboard-response","15","50970","0.0-10.0-0.0","A573","""event"",""trial"",""time""
""fullscreenenter"",""0"",""2069""
","
","
","""event"",""trial"",""time""
""fullscreenenter"",""0"",""2069""
","
","null","<div style=""font-size:60px;"">+</div>","","null","fixation","2021-04-12 13:23:10.355","","","","",""
"","mars-trial","16","52841","0.0-10.0-1.0","A573","""event"",""trial"",""time""
""fullscreenenter"",""0"",""2069""
","
","
","""event"",""trial"",""time""
""fullscreenenter"",""0"",""2069""
","
","1268.3900000411086","<img style='border: 4px solid darkgrey;' src='img/tf1_1_M_ss3.jpeg'></img>","1","","exp","","0","<img src='img/tf1_1_T1_ss3_md.jpeg'></img>","0","true",""
"","html-keyboard-response","17","53342","0.0-10.0-0.1","A573","""event"",""trial"",""time""
""fullscreenenter"",""0"",""2069""
","
","
","""event"",""trial"",""time""
""fullscreenenter"",""0"",""2069""
","
","null","<div style=""font-size:60px;"">+</div>","","null","fixation","2021-04-12 13:23:12.727","","","","",""
"","mars-trial","18","55846","0.0-10.0-1.1","A573","""event"",""trial"",""time""
""fullscreenenter"",""0"",""2069""
","
","
","""event"",""trial"",""time""
""fullscreenenter"",""0"",""2069""
","
","1898.864999995567","<img style='border: 4px solid darkgrey;' src='img/tf1_2_M_ss1.jpeg'></img>","3","","exp","","0","<img src='img/tf1_2_T1_ss1_md.jpeg'></img>","0","true",""
"","html-keyboard-response","19","56347","0.0-10.0-0.2","A573","""event"",""trial"",""time""
""fullscreenenter"",""0"",""2069""
","
","
","""event"",""trial"",""time""
""fullscreenenter"",""0"",""2069""
","
","null","<div style=""font-size:60px;"">+</div>","","null","fixation","2021-04-12 13:23:15.732","","","","",""
"","mars-trial","20","59001","0.0-10.0-1.2","A573","""event"",""trial"",""time""
""fullscreenenter"",""0"",""2069""
","
","
","""event"",""trial"",""time""
""fullscreenenter"",""0"",""2069""
","
","2049.8350000125356","<img style='border: 4px solid darkgrey;' src='img/tf1_3_M_ss2.jpeg'></img>","0","","exp","","0","<img src='img/tf1_3_T1_ss2_md.jpeg'></img>","0","true",""
"","html-keyboard-response","21","59503","0.0-10.0-0.3","A573","""event"",""trial"",""time""
""fullscreenenter"",""0"",""2069""
","
","
","""event"",""trial"",""time""
""fullscreenenter"",""0"",""2069""
","
","null","<div style=""font-size:60px;"">+</div>","","null","fixation","2021-04-12 13:23:18.888","","","","",""
"","mars-trial","22","62348","0.0-10.0-1.3","A573","""event"",""trial"",""time""
""fullscreenenter"",""0"",""2069""
","
","
","""event"",""trial"",""time""
""fullscreenenter"",""0"",""2069""
","
","2240.6849999679253","<img style='border: 4px solid darkgrey;' src='img/tf1_4_M_ss3.jpeg'></img>","3","","exp","","0","<img src='img/tf1_4_T1_ss3_md.jpeg'></img>","0","true",""
"","html-keyboard-response","23","62849","0.0-10.0-0.4","A573","""event"",""trial"",""time""
""fullscreenenter"",""0"",""2069""
","
","
","""event"",""trial"",""time""
""fullscreenenter"",""0"",""2069""
","
","null","<div style=""font-size:60px;"">+</div>","","null","fixation","2021-04-12 13:23:22.234","","","","",""
"","mars-trial","24","65329","0.0-10.0-1.4","A573","""event"",""trial"",""time""
""fullscreenenter"",""0"",""2069""
","
","
","""event"",""trial"",""time""
""fullscreenenter"",""0"",""2069""
","
","1875.949999957811","<img style='border: 4px solid darkgrey;' src='img/tf1_5_M_ss1.jpeg'></img>","3","","exp","","0","<img src='img/tf1_5_T1_ss1_md.jpeg'></img>","0","true",""
"","html-keyboard-response","25","65830","0.0-10.0-0.5","A573","""event"",""trial"",""time""
""fullscreenenter"",""0"",""2069""
","
","
","""event"",""trial"",""time""
""fullscreenenter"",""0"",""2069""
","
","null","<div style=""font-size:60px;"">+</div>","","null","fixation","2021-04-12 13:23:25.215","","","","",""
"","mars-trial","26","77869","0.0-10.0-1.5","A573","""event"",""trial"",""time""
""fullscreenenter"",""0"",""2069""
","
","
","""event"",""trial"",""time""
""fullscreenenter"",""0"",""2069""
","
","11436.305000039283","<img style='border: 4px solid darkgrey;' src='img/tf1_6_M_ss2.jpeg'></img>","3","","exp","","3","<img src='img/tf1_6_T1_ss2_md.jpeg'></img>","0","false",""
"","html-keyboard-response","27","78370","0.0-10.0-0.6","A573","""event"",""trial"",""time""
""fullscreenenter"",""0"",""2069""
","
","
","""event"",""trial"",""time""
""fullscreenenter"",""0"",""2069""
","
","null","<div style=""font-size:60px;"">+</div>","","null","fixation","2021-04-12 13:23:37.755","","","","",""
"","mars-trial","28","82882","0.0-10.0-1.6","A573","""event"",""trial"",""time""
""fullscreenenter"",""0"",""2069""
","
","
","""event"",""trial"",""time""
""fullscreenenter"",""0"",""2069""
","
","3908.6399999796413","<img style='border: 4px solid darkgrey;' src='img/tf1_7_M_ss3.jpeg'></img>","2","","exp","","0","<img src='img/tf1_7_T1_ss3_md.jpeg'></img>","0","true",""
"","html-keyboard-response","29","83383","0.0-10.0-0.7","A573","""event"",""trial"",""time""
""fullscreenenter"",""0"",""2069""
","
","
","""event"",""trial"",""time""
""fullscreenenter"",""0"",""2069""
","
","null","<div style=""font-size:60px;"">+</div>","","null","fixation","2021-04-12 13:23:42.768","","","","",""
"","mars-trial","30","107729","0.0-10.0-1.7","A573","""event"",""trial"",""time""
""fullscreenenter"",""0"",""2069""
","
","
","""event"",""trial"",""time""
""fullscreenenter"",""0"",""2069""
","
","23741.5200000396","<img style='border: 4px solid darkgrey;' src='img/tf1_8_M_ss1.jpeg'></img>","2","","exp","","0","<img src='img/tf1_8_T1_ss1_md.jpeg'></img>","0","true",""
"","html-keyboard-response","31","108231","0.0-10.0-0.8","A573","""event"",""trial"",""time""
""fullscreenenter"",""0"",""2069""
","
","
","""event"",""trial"",""time""
""fullscreenenter"",""0"",""2069""
","
","null","<div style=""font-size:60px;"">+</div>","","null","fixation","2021-04-12 13:24:07.616","","","","",""
"","mars-trial","32","112931","0.0-10.0-1.8","A573","""event"",""trial"",""time""
""fullscreenenter"",""0"",""2069""
","
","
","""event"",""trial"",""time""
""fullscreenenter"",""0"",""2069""
","
","4095.1399999903515","<img style='border: 4px solid darkgrey;' src='img/tf1_9_M_ss2.jpeg'></img>","0","","exp","","0","<img src='img/tf1_9_T1_ss2_md.jpeg'></img>","0","true",""
"","html-keyboard-response","33","113433","0.0-10.0-0.9","A573","""event"",""trial"",""time""
""fullscreenenter"",""0"",""2069""
","
","
","""event"",""trial"",""time""
""fullscreenenter"",""0"",""2069""
","
","null","<div style=""font-size:60px;"">+</div>","","null","fixation","2021-04-12 13:24:12.818","","","","",""
"","mars-trial","34","131224","0.0-10.0-1.9","A573","""event"",""trial"",""time""
""fullscreenenter"",""0"",""2069""
","
","
","""event"",""trial"",""time""
""fullscreenenter"",""0"",""2069""
","
","17187.210000003688","<img style='border: 4px solid darkgrey;' src='img/tf1_10_M_ss3.jpeg'></img>","3","","exp","","1","<img src='img/tf1_10_T1_ss3_md.jpeg'></img>","0","false",""
"","html-keyboard-response","35","131725","0.0-10.0-0.10","A573","""event"",""trial"",""time""
""fullscreenenter"",""0"",""2069""
","
","
","""event"",""trial"",""time""
""fullscreenenter"",""0"",""2069""
","
","null","<div style=""font-size:60px;"">+</div>","","null","fixation","2021-04-12 13:24:31.110","","","","",""
"","mars-trial","36","137955","0.0-10.0-1.10","A573","""event"",""trial"",""time""
""fullscreenenter"",""0"",""2069""
","
","
","""event"",""trial"",""time""
""fullscreenenter"",""0"",""2069""
","
","5625.175000051968","<img style='border: 4px solid darkgrey;' src='img/tf1_11_M_ss1.jpeg'></img>","2","","exp","","3","<img src='img/tf1_11_T1_ss1_md.jpeg'></img>","0","false",""
"","html-keyboard-response","37","138456","0.0-10.0-0.11","A573","""event"",""trial"",""time""
""fullscreenenter"",""0"",""2069""
","
","
","""event"",""trial"",""time""
""fullscreenenter"",""0"",""2069""
","
","null","<div style=""font-size:60px;"">+</div>","","null","fixation","2021-04-12 13:24:37.841","","","","",""
"","mars-trial","38","149080","0.0-10.0-1.11","A573","""event"",""trial"",""time""
""fullscreenenter"",""0"",""2069""
","
","
","""event"",""trial"",""time""
""fullscreenenter"",""0"",""2069""
","
","10019.919999991544","<img style='border: 4px solid darkgrey;' src='img/tf1_12_M_ss2.jpeg'></img>","0","","exp","","0","<img src='img/tf1_12_T1_ss2_md.jpeg'></img>","0","true",""
"","html-keyboard-response","39","149582","0.0-10.0-0.12","A573","""event"",""trial"",""time""
""fullscreenenter"",""0"",""2069""
","
","
","""event"",""trial"",""time""
""fullscreenenter"",""0"",""2069""
","
","null","<div style=""font-size:60px;"">+</div>","","null","fixation","2021-04-12 13:24:48.967","","","","",""
"","mars-trial","40","157092","0.0-10.0-1.12","A573","""event"",""trial"",""time""
""fullscreenenter"",""0"",""2069""
","
","
","""event"",""trial"",""time""
""fullscreenenter"",""0"",""2069""
","
","6905.604999978095","<img style='border: 4px solid darkgrey;' src='img/tf1_13_M_ss3.jpeg'></img>","0","","exp","","0","<img src='img/tf1_13_T1_ss3_md.jpeg'></img>","0","true",""
"","html-keyboard-response","41","157593","0.0-10.0-0.13","A573","""event"",""trial"",""time""
""fullscreenenter"",""0"",""2069""
","
","
","""event"",""trial"",""time""
""fullscreenenter"",""0"",""2069""
","
","null","<div style=""font-size:60px;"">+</div>","","null","fixation","2021-04-12 13:24:56.978","","","","",""
"","mars-trial","42","166916","0.0-10.0-1.13","A573","""event"",""trial"",""time""
""fullscreenenter"",""0"",""2069""
","
","
","""event"",""trial"",""time""
""fullscreenenter"",""0"",""2069""
","
","8717.984999995679","<img style='border: 4px solid darkgrey;' src='img/tf1_14_M_ss1.jpeg'></img>","1","","exp","","3","<img src='img/tf1_14_T1_ss1_md.jpeg'></img>","0","false",""
"","html-keyboard-response","43","167418","0.0-10.0-0.14","A573","""event"",""trial"",""time""
""fullscreenenter"",""0"",""2069""
","
","
","""event"",""trial"",""time""
""fullscreenenter"",""0"",""2069""
","
","null","<div style=""font-size:60px;"">+</div>","","null","fixation","2021-04-12 13:25:06.803","","","","",""
"","mars-trial","44","168934","0.0-10.0-1.14","A573","""event"",""trial"",""time""
""fullscreenenter"",""0"",""2069""
","
","
","""event"",""trial"",""time""
""fullscreenenter"",""0"",""2069""
","
","911.3300000317395","<img style='border: 4px solid darkgrey;' src='img/tf1_15_M_ss2.jpeg'></img>","2","","exp","","3","<img src='img/tf1_15_T1_ss2_md.jpeg'></img>","0","false",""
"","html-keyboard-response","45","169435","0.0-10.0-0.15","A573","""event"",""trial"",""time""
""fullscreenenter"",""0"",""2069""
","
","
","""event"",""trial"",""time""
""fullscreenenter"",""0"",""2069""
","
","null","<div style=""font-size:60px;"">+</div>","","null","fixation","2021-04-12 13:25:08.820","","","","",""
"","mars-trial","46","178692","0.0-10.0-1.15","A573","""event"",""trial"",""time""
""fullscreenenter"",""0"",""2069""
","
","
","""event"",""trial"",""time""
""fullscreenenter"",""0"",""2069""
","
","8653.90999999363","<img style='border: 4px solid darkgrey;' src='img/tf1_16_M_ss3.jpeg'></img>","2","","exp","","3","<img src='img/tf1_16_T1_ss3_md.jpeg'></img>","0","false",""
"","html-keyboard-response","47","179194","0.0-10.0-0.16","A573","""event"",""trial"",""time""
""fullscreenenter"",""0"",""2069""
","
","
","""event"",""trial"",""time""
""fullscreenenter"",""0"",""2069""
","
","null","<div style=""font-size:60px;"">+</div>","","null","fixation","2021-04-12 13:25:18.579","","","","",""
"","mars-trial","48","182972","0.0-10.0-1.16","A573","""event"",""trial"",""time""
""fullscreenenter"",""0"",""2069""
","
","
","""event"",""trial"",""time""
""fullscreenenter"",""0"",""2069""
","
","3174.1799999726936","<img style='border: 4px solid darkgrey;' src='img/tf1_17_M_ss1.jpeg'></img>","0","","exp","","0","<img src='img/tf1_17_T1_ss1_md.jpeg'></img>","0","true",""
"","html-keyboard-response","49","183473","0.0-10.0-0.17","A573","""event"",""trial"",""time""
""fullscreenenter"",""0"",""2069""
","
","
","""event"",""trial"",""time""
""fullscreenenter"",""0"",""2069""
","
","null","<div style=""font-size:60px;"">+</div>","","null","fixation","2021-04-12 13:25:22.858","","","","",""
"","mars-trial","50","184847","0.0-10.0-1.17","A573","""event"",""trial"",""time""
""fullscreenenter"",""0"",""2069""
","
","
","""event"",""trial"",""time""
""fullscreenenter"",""0"",""2069""
","
","771.4249999844469","<img style='border: 4px solid darkgrey;' src='img/tf1_18_M_ss2.jpeg'></img>","0","","exp","","3","<img src='img/tf1_18_T1_ss2_md.jpeg'></img>","0","false",""
"","html-keyboard-response","51","185348","0.0-10.0-0.18","A573","""event"",""trial"",""time""
""fullscreenenter"",""0"",""2069""
","
","
","""event"",""trial"",""time""
""fullscreenenter"",""0"",""2069""
","
","null","<div style=""font-size:60px;"">+</div>","","null","fixation","2021-04-12 13:25:24.733","","","","",""
"","mars-trial","52","196346","0.0-10.0-1.18","A573","""event"",""trial"",""time""
""fullscreenenter"",""0"",""2069""
","
","
","""event"",""trial"",""time""
""fullscreenenter"",""0"",""2069""
","
","10392.3150000046","<img style='border: 4px solid darkgrey;' src='img/tf1_19_M_ss3.jpeg'></img>","3","","exp","","0","<img src='img/tf1_19_T1_ss3_md.jpeg'></img>","0","true",""
"","html-keyboard-response","53","196848","0.0-10.0-0.19","A573","""event"",""trial"",""time""
""fullscreenenter"",""0"",""2069""
","
","
","""event"",""trial"",""time""
""fullscreenenter"",""0"",""2069""
","
","null","<div style=""font-size:60px;"">+</div>","","null","fixation","2021-04-12 13:25:36.233","","","","",""
"","mars-trial","54","208400","0.0-10.0-1.19","A573","""event"",""trial"",""time""
""fullscreenenter"",""0"",""2069""
","
","
","""event"",""trial"",""time""
""fullscreenenter"",""0"",""2069""
","
","10948.400000052061","<img style='border: 4px solid darkgrey;' src='img/tf1_20_M_ss1.jpeg'></img>","2","","exp","","0","<img src='img/tf1_20_T1_ss1_md.jpeg'></img>","0","true",""
"","html-keyboard-response","55","208902","0.0-10.0-0.20","A573","""event"",""trial"",""time""
""fullscreenenter"",""0"",""2069""
","
","
","""event"",""trial"",""time""
""fullscreenenter"",""0"",""2069""
","
","null","<div style=""font-size:60px;"">+</div>","","null","fixation","2021-04-12 13:25:48.287","","","","",""
"","mars-trial","56","211341","0.0-10.0-1.20","A573","""event"",""trial"",""time""
""fullscreenenter"",""0"",""2069""
","
","
","""event"",""trial"",""time""
""fullscreenenter"",""0"",""2069""
","
","1835.5050000245683","<img style='border: 4px solid darkgrey;' src='img/tf1_21_M_ss2.jpeg'></img>","2","","exp","","3","<img src='img/tf1_21_T1_ss2_md.jpeg'></img>","0","false",""
"","html-keyboard-response","57","211842","0.0-10.0-0.21","A573","""event"",""trial"",""time""
""fullscreenenter"",""0"",""2069""
","
","
","""event"",""trial"",""time""
""fullscreenenter"",""0"",""2069""
","
","null","<div style=""font-size:60px;"">+</div>","","null","fixation","2021-04-12 13:25:51.227","","","","",""
"","mars-trial","58","217350","0.0-10.0-1.21","A573","""event"",""trial"",""time""
""fullscreenenter"",""0"",""2069""
","
","
","""event"",""trial"",""time""
""fullscreenenter"",""0"",""2069""
","
","4905.029999965336","<img style='border: 4px solid darkgrey;' src='img/tf1_22_M_ss3.jpeg'></img>","0","","exp","","0","<img src='img/tf1_22_T1_ss3_md.jpeg'></img>","0","true",""
"","html-keyboard-response","59","217851","0.0-10.0-0.22","A573","""event"",""trial"",""time""
""fullscreenenter"",""0"",""2069""
","
","
","""event"",""trial"",""time""
""fullscreenenter"",""0"",""2069""
","
","null","<div style=""font-size:60px;"">+</div>","","null","fixation","2021-04-12 13:25:57.236","","","","",""
"","mars-trial","60","228972","0.0-10.0-1.22","A573","""event"",""trial"",""time""
""fullscreenenter"",""0"",""2069""
","
","
","""event"",""trial"",""time""
""fullscreenenter"",""0"",""2069""
","
","10515.629999979865","<img style='border: 4px solid darkgrey;' src='img/tf1_23_M_ss1.jpeg'></img>","2","","exp","","0","<img src='img/tf1_23_T1_ss1_md.jpeg'></img>","0","true",""
"","html-keyboard-response","61","229473","0.0-10.0-0.23","A573","""event"",""trial"",""time""
""fullscreenenter"",""0"",""2069""
","
","
","""event"",""trial"",""time""
""fullscreenenter"",""0"",""2069""
","
","null","<div style=""font-size:60px;"">+</div>","","null","fixation","2021-04-12 13:26:08.858","","","","",""
"","mars-trial","62","234507","0.0-10.0-1.23","A573","""event"",""trial"",""time""
""fullscreenenter"",""0"",""2069""
","
","
","""event"",""trial"",""time""
""fullscreenenter"",""0"",""2069""
","
","4429.719999956433","<img style='border: 4px solid darkgrey;' src='img/tf1_24_M_ss2.jpeg'></img>","0","","exp","","3","<img src='img/tf1_24_T1_ss2_md.jpeg'></img>","0","false",""
"","html-keyboard-response","63","235008","0.0-10.0-0.24","A573","""event"",""trial"",""time""
""fullscreenenter"",""0"",""2069""
","
","
","""event"",""trial"",""time""
""fullscreenenter"",""0"",""2069""
","
","null","<div style=""font-size:60px;"">+</div>","","null","fixation","2021-04-12 13:26:14.393","","","","",""
"","mars-trial","64","242453","0.0-10.0-1.24","A573","""event"",""trial"",""time""
""fullscreenenter"",""0"",""2069""
","
","
","""event"",""trial"",""time""
""fullscreenenter"",""0"",""2069""
","
","6841.589999967255","<img style='border: 4px solid darkgrey;' src='img/tf1_25_M_ss3.jpeg'></img>","3","","exp","","3","<img src='img/tf1_25_T1_ss3_md.jpeg'></img>","0","false",""
"","html-keyboard-response","65","242955","0.0-10.0-0.25","A573","""event"",""trial"",""time""
""fullscreenenter"",""0"",""2069""
","
","
","""event"",""trial"",""time""
""fullscreenenter"",""0"",""2069""
","
","null","<div style=""font-size:60px;"">+</div>","","null","fixation","2021-04-12 13:26:22.340","","","","",""
"","mars-trial","66","245761","0.0-10.0-1.25","A573","""event"",""trial"",""time""
""fullscreenenter"",""0"",""2069""
","
","
","""event"",""trial"",""time""
""fullscreenenter"",""0"",""2069""
","
","2200.4500000039116","<img style='border: 4px solid darkgrey;' src='img/tf1_26_M_ss1.jpeg'></img>","0","","exp","","0","<img src='img/tf1_26_T1_ss1_md.jpeg'></img>","0","true",""
"","html-keyboard-response","67","246262","0.0-10.0-0.26","A573","""event"",""trial"",""time""
""fullscreenenter"",""0"",""2069""
","
","
","""event"",""trial"",""time""
""fullscreenenter"",""0"",""2069""
","
","null","<div style=""font-size:60px;"">+</div>","","null","fixation","2021-04-12 13:26:25.647","","","","",""
"","mars-trial","68","247633","0.0-10.0-1.26","A573","""event"",""trial"",""time""
""fullscreenenter"",""0"",""2069""
","
","
","""event"",""trial"",""time""
""fullscreenenter"",""0"",""2069""
","
","767.9399999906309","<img style='border: 4px solid darkgrey;' src='img/tf1_27_M_ss2.jpeg'></img>","0","","exp","","3","<img src='img/tf1_27_T1_ss2_md.jpeg'></img>","0","false",""
"","html-keyboard-response","69","248135","0.0-10.0-0.27","A573","""event"",""trial"",""time""
""fullscreenenter"",""0"",""2069""
","
","
","""event"",""trial"",""time""
""fullscreenenter"",""0"",""2069""
","
","null","<div style=""font-size:60px;"">+</div>","","null","fixation","2021-04-12 13:26:27.520","","","","",""
"","mars-trial","70","255718","0.0-10.0-1.27","A573","""event"",""trial"",""time""
""fullscreenenter"",""0"",""2069""
","
","
","""event"",""trial"",""time""
""fullscreenenter"",""0"",""2069""
","
","6979.4399999664165","<img style='border: 4px solid darkgrey;' src='img/tf1_28_M_ss3.jpeg'></img>","0","","exp","","2","<img src='img/tf1_28_T1_ss3_md.jpeg'></img>","0","false",""
"","html-keyboard-response","71","256219","0.0-10.0-0.28","A573","""event"",""trial"",""time""
""fullscreenenter"",""0"",""2069""
","
","
","""event"",""trial"",""time""
""fullscreenenter"",""0"",""2069""
","
","null","<div style=""font-size:60px;"">+</div>","","null","fixation","2021-04-12 13:26:35.604","","","","",""
"","mars-trial","72","258740","0.0-10.0-1.28","A573","""event"",""trial"",""time""
""fullscreenenter"",""0"",""2069""
","
","
","""event"",""trial"",""time""
""fullscreenenter"",""0"",""2069""
","
","1916.2149999756366","<img style='border: 4px solid darkgrey;' src='img/tf1_29_M_ss1.jpeg'></img>","3","","exp","","3","<img src='img/tf1_29_T1_ss1_md.jpeg'></img>","0","false",""
"","html-keyboard-response","73","259241","0.0-10.0-0.29","A573","""event"",""trial"",""time""
""fullscreenenter"",""0"",""2069""
","
","
","""event"",""trial"",""time""
""fullscreenenter"",""0"",""2069""
","
","null","<div style=""font-size:60px;"">+</div>","","null","fixation","2021-04-12 13:26:38.626","","","","",""
"","mars-trial","74","260685","0.0-10.0-1.29","A573","""event"",""trial"",""time""
""fullscreenenter"",""0"",""2069""
","
","
","""event"",""trial"",""time""
""fullscreenenter"",""0"",""2069""
","
","839.6450000000186","<img style='border: 4px solid darkgrey;' src='img/tf1_30_M_ss2.jpeg'></img>","1","","exp","","1","<img src='img/tf1_30_T1_ss2_md.jpeg'></img>","0","false",""
"","html-keyboard-response","75","261187","0.0-10.0-0.30","A573","""event"",""trial"",""time""
""fullscreenenter"",""0"",""2069""
","
","
","""event"",""trial"",""time""
""fullscreenenter"",""0"",""2069""
","
","null","<div style=""font-size:60px;"">+</div>","","null","fixation","2021-04-12 13:26:40.572","","","","",""
"","mars-trial","76","261996","0.0-10.0-1.30","A573","""event"",""trial"",""time""
""fullscreenenter"",""0"",""2069""
","
","
","""event"",""trial"",""time""
""fullscreenenter"",""0"",""2069""
","
","204.68999998411164","<img style='border: 4px solid darkgrey;' src='img/tf1_31_M_ss3.jpeg'></img>","0","","exp","","3","<img src='img/tf1_31_T1_ss3_md.jpeg'></img>","0","false",""
"","html-keyboard-response","77","262497","0.0-10.0-0.31","A573","""event"",""trial"",""time""
""fullscreenenter"",""0"",""2069""
","
","
","""event"",""trial"",""time""
""fullscreenenter"",""0"",""2069""
","
","null","<div style=""font-size:60px;"">+</div>","","null","fixation","2021-04-12 13:26:41.882","","","","",""
"","mars-trial","78","265872","0.0-10.0-1.31","A573","""event"",""trial"",""time""
""fullscreenenter"",""0"",""2069""
","
","
","""event"",""trial"",""time""
""fullscreenenter"",""0"",""2069""
","
","2772.0500000286847","<img style='border: 4px solid darkgrey;' src='img/tf1_32_M_ss1.jpeg'></img>","1","","exp","","2","<img src='img/tf1_32_T1_ss1_md.jpeg'></img>","0","false",""
"","html-keyboard-response","79","266373","0.0-10.0-0.32","A573","""event"",""trial"",""time""
""fullscreenenter"",""0"",""2069""
","
","
","""event"",""trial"",""time""
""fullscreenenter"",""0"",""2069""
","
","null","<div style=""font-size:60px;"">+</div>","","null","fixation","2021-04-12 13:26:45.758","","","","",""
"","mars-trial","80","271655","0.0-10.0-1.32","A573","""event"",""trial"",""time""
""fullscreenenter"",""0"",""2069""
","
","
","""event"",""trial"",""time""
""fullscreenenter"",""0"",""2069""
","
","4678.054999967571","<img style='border: 4px solid darkgrey;' src='img/tf1_33_M_ss2.jpeg'></img>","1","","exp","","0","<img src='img/tf1_33_T1_ss2_md.jpeg'></img>","0","true",""
"","html-keyboard-response","81","272156","0.0-10.0-0.33","A573","""event"",""trial"",""time""
""fullscreenenter"",""0"",""2069""
","
","
","""event"",""trial"",""time""
""fullscreenenter"",""0"",""2069""
","
","null","<div style=""font-size:60px;"">+</div>","","null","fixation","2021-04-12 13:26:51.541","","","","",""
"","mars-trial","82","275317","0.0-10.0-1.33","A573","""event"",""trial"",""time""
""fullscreenenter"",""0"",""2069""
","
","
","""event"",""trial"",""time""
""fullscreenenter"",""0"",""2069""
","
","2555.110000015702","<img style='border: 4px solid darkgrey;' src='img/tf1_34_M_ss3.jpeg'></img>","3","","exp","","1","<img src='img/tf1_34_T1_ss3_md.jpeg'></img>","0","false",""
"","html-keyboard-response","83","275818","0.0-10.0-0.34","A573","""event"",""trial"",""time""
""fullscreenenter"",""0"",""2069""
","
","
","""event"",""trial"",""time""
""fullscreenenter"",""0"",""2069""
","
","null","<div style=""font-size:60px;"">+</div>","","null","fixation","2021-04-12 13:26:55.203","","","","",""
"","mars-trial","84","276859","0.0-10.0-1.34","A573","""event"",""trial"",""time""
""fullscreenenter"",""0"",""2069""
","
","
","""event"",""trial"",""time""
""fullscreenenter"",""0"",""2069""
","
","436.0900000319816","<img style='border: 4px solid darkgrey;' src='img/tf1_35_M_ss1.jpeg'></img>","2","","exp","","3","<img src='img/tf1_35_T1_ss1_md.jpeg'></img>","0","false",""
"","html-keyboard-response","85","277361","0.0-10.0-0.35","A573","""event"",""trial"",""time""
""fullscreenenter"",""0"",""2069""
","
","
","""event"",""trial"",""time""
""fullscreenenter"",""0"",""2069""
","
","null","<div style=""font-size:60px;"">+</div>","","null","fixation","2021-04-12 13:26:56.746","","","","",""
"","mars-trial","86","278074","0.0-10.0-1.35","A573","""event"",""trial"",""time""
""fullscreenenter"",""0"",""2069""
","
","
","""event"",""trial"",""time""
""fullscreenenter"",""0"",""2069""
","
","109.42499997327104","<img style='border: 4px solid darkgrey;' src='img/tf1_36_M_ss2.jpeg'></img>","1","","exp","","2","<img src='img/tf1_36_T1_ss2_md.jpeg'></img>","0","false",""
"","html-keyboard-response","87","278577","0.0-10.0-0.36","A573","""event"",""trial"",""time""
""fullscreenenter"",""0"",""2069""
","
","
","""event"",""trial"",""time""
""fullscreenenter"",""0"",""2069""
","
","null","<div style=""font-size:60px;"">+</div>","","null","fixation","2021-04-12 13:26:57.962","","","","",""
"","mars-trial","88","279317","0.0-10.0-1.36","A573","""event"",""trial"",""time""
""fullscreenenter"",""0"",""2069""
","
","
","""event"",""trial"",""time""
""fullscreenenter"",""0"",""2069""
","
","136.35500002419576","<img style='border: 4px solid darkgrey;' src='img/tf1_37_M_ss3.jpeg'></img>","0","","exp","","2","<img src='img/tf1_37_T1_ss3_md.jpeg'></img>","0","false",""
"","html-keyboard-response","89","279818","0.0-10.0-0.37","A573","""event"",""trial"",""time""
""fullscreenenter"",""0"",""2069""
","
","
","""event"",""trial"",""time""
""fullscreenenter"",""0"",""2069""
","
","null","<div style=""font-size:60px;"">+</div>","","null","fixation","2021-04-12 13:26:59.203","","","","",""
"","mars-trial","90","280637","0.0-10.0-1.37","A573","""event"",""trial"",""time""
""fullscreenenter"",""0"",""2069""
","
","
","""event"",""trial"",""time""
""fullscreenenter"",""0"",""2069""
","
","215.39500000653788","<img style='border: 4px solid darkgrey;' src='img/tf1_38_M_ss1.jpeg'></img>","1","","exp","","3","<img src='img/tf1_38_T1_ss1_md.jpeg'></img>","0","false",""
"","html-keyboard-response","91","281139","0.0-10.0-0.38","A573","""event"",""trial"",""time""
""fullscreenenter"",""0"",""2069""
","
","
","""event"",""trial"",""time""
""fullscreenenter"",""0"",""2069""
","
","null","<div style=""font-size:60px;"">+</div>","","null","fixation","2021-04-12 13:27:00.524","","","","",""
"","mars-trial","92","282502","0.0-10.0-1.38","A573","""event"",""trial"",""time""
""fullscreenenter"",""0"",""2069""
","
","
","""event"",""trial"",""time""
""fullscreenenter"",""0"",""2069""
","
","759.9000000045635","<img style='border: 4px solid darkgrey;' src='img/tf1_39_M_ss2.jpeg'></img>","2","","exp","","2","<img src='img/tf1_39_T1_ss2_md.jpeg'></img>","0","false",""
"","html-keyboard-response","93","283003","0.0-10.0-0.39","A573","""event"",""trial"",""time""
""fullscreenenter"",""0"",""2069""
","
","
","""event"",""trial"",""time""
""fullscreenenter"",""0"",""2069""
","
","null","<div style=""font-size:60px;"">+</div>","","null","fixation","2021-04-12 13:27:02.388","","","","",""
"","mars-trial","94","285180","0.0-10.0-1.39","A573","""event"",""trial"",""time""
""fullscreenenter"",""0"",""2069""
","
","
","""event"",""trial"",""time""
""fullscreenenter"",""0"",""2069""
","
","1572.06999999471","<img style='border: 4px solid darkgrey;' src='img/tf1_40_M_ss3.jpeg'></img>","3","","exp","","3","<img src='img/tf1_40_T1_ss3_md.jpeg'></img>","0","false",""
"","html-keyboard-response","95","285681","0.0-10.0-0.40","A573","""event"",""trial"",""time""
""fullscreenenter"",""0"",""2069""
","
","
","""event"",""trial"",""time""
""fullscreenenter"",""0"",""2069""
","
","null","<div style=""font-size:60px;"">+</div>","","null","fixation","2021-04-12 13:27:05.066","","","","",""
"","mars-trial","96","292098","0.0-10.0-1.40","A573","""event"",""trial"",""time""
""fullscreenenter"",""0"",""2069""
","
","
","""event"",""trial"",""time""
""fullscreenenter"",""0"",""2069""
","
","5813.694999960717","<img style='border: 4px solid darkgrey;' src='img/tf1_41_M_ss1.jpeg'></img>","3","","exp","","0","<img src='img/tf1_41_T1_ss1_md.jpeg'></img>","0","true",""
"","html-keyboard-response","97","292599","0.0-10.0-0.41","A573","""event"",""trial"",""time""
""fullscreenenter"",""0"",""2069""
","
","
","""event"",""trial"",""time""
""fullscreenenter"",""0"",""2069""
","
","null","<div style=""font-size:60px;"">+</div>","","null","fixation","2021-04-12 13:27:11.984","","","","",""
"","mars-trial","98","294316","0.0-10.0-1.41","A573","""event"",""trial"",""time""
""fullscreenenter"",""0"",""2069""
","
","
","""event"",""trial"",""time""
""fullscreenenter"",""0"",""2069""
","
","1114.4050000002608","<img style='border: 4px solid darkgrey;' src='img/tf1_42_M_ss2.jpeg'></img>","3","","exp","","3","<img src='img/tf1_42_T1_ss2_md.jpeg'></img>","0","false",""
"","html-keyboard-response","99","294817","0.0-10.0-0.42","A573","""event"",""trial"",""time""
""fullscreenenter"",""0"",""2069""
","
","
","""event"",""trial"",""time""
""fullscreenenter"",""0"",""2069""
","
","null","<div style=""font-size:60px;"">+</div>","","null","fixation","2021-04-12 13:27:14.202","","","","",""
"","mars-trial","100","296928","0.0-10.0-1.42","A573","""event"",""trial"",""time""
""fullscreenenter"",""0"",""2069""
","
","
","""event"",""trial"",""time""
""fullscreenenter"",""0"",""2069""
","
","1506.2249999609776","<img style='border: 4px solid darkgrey;' src='img/tf1_43_M_ss3.jpeg'></img>","0","","exp","","0","<img src='img/tf1_43_T1_ss3_md.jpeg'></img>","0","true",""
"","html-keyboard-response","101","297430","0.0-10.0-0.43","A573","""event"",""trial"",""time""
""fullscreenenter"",""0"",""2069""
","
","
","""event"",""trial"",""time""
""fullscreenenter"",""0"",""2069""
","
","null","<div style=""font-size:60px;"">+</div>","","null","fixation","2021-04-12 13:27:16.815","","","","",""
"","mars-trial","102","301023","0.0-10.0-1.43","A573","""event"",""trial"",""time""
""fullscreenenter"",""0"",""2069""
","
","
","""event"",""trial"",""time""
""fullscreenenter"",""0"",""2069""
","
","2989.2649999819696","<img style='border: 4px solid darkgrey;' src='img/tf1_44_M_ss1.jpeg'></img>","2","","exp","","2","<img src='img/tf1_44_T1_ss1_md.jpeg'></img>","0","false",""
"","html-keyboard-response","103","301524","0.0-10.0-0.44","A573","""event"",""trial"",""time""
""fullscreenenter"",""0"",""2069""
","
","
","""event"",""trial"",""time""
""fullscreenenter"",""0"",""2069""
","
","null","<div style=""font-size:60px;"">+</div>","","null","fixation","2021-04-12 13:27:20.909","","","","",""
"","mars-trial","104","303602","0.0-10.0-1.44","A573","""event"",""trial"",""time""
""fullscreenenter"",""0"",""2069""
","
","
","""event"",""trial"",""time""
""fullscreenenter"",""0"",""2069""
","
","1473.2599999988452","<img style='border: 4px solid darkgrey;' src='img/tf1_45_M_ss2.jpeg'></img>","1","","exp","","1","<img src='img/tf1_45_T1_ss2_md.jpeg'></img>","0","false",""
"","html-keyboard-response","105","304103","0.0-10.0-0.45","A573","""event"",""trial"",""time""
""fullscreenenter"",""0"",""2069""
","
","
","""event"",""trial"",""time""
""fullscreenenter"",""0"",""2069""
","
","null","<div style=""font-size:60px;"">+</div>","","null","fixation","2021-04-12 13:27:23.488","","","","",""
"","mars-trial","106","308357","0.0-10.0-1.45","A573","""event"",""trial"",""time""
""fullscreenenter"",""0"",""2069""
","
","
","""event"",""trial"",""time""
""fullscreenenter"",""0"",""2069""
","
","3648.8599999574944","<img style='border: 4px solid darkgrey;' src='img/tf1_46_M_ss3.jpeg'></img>","0","","exp","","0","<img src='img/tf1_46_T1_ss3_md.jpeg'></img>","0","true",""
"","html-keyboard-response","107","308858","0.0-10.0-0.46","A573","""event"",""trial"",""time""
""fullscreenenter"",""0"",""2069""
","
","
","""event"",""trial"",""time""
""fullscreenenter"",""0"",""2069""
","
","null","<div style=""font-size:60px;"">+</div>","","null","fixation","2021-04-12 13:27:28.243","","","","",""
"","mars-trial","108","311549","0.0-10.0-1.46","A573","""event"",""trial"",""time""
""fullscreenenter"",""0"",""2069""
","
","
","""event"",""trial"",""time""
""fullscreenenter"",""0"",""2069""
","
","2086.025000025984","<img style='border: 4px solid darkgrey;' src='img/tf1_47_M_ss1.jpeg'></img>","1","","exp","","2","<img src='img/tf1_47_T1_ss1_md.jpeg'></img>","0","false",""
"","html-keyboard-response","109","312050","0.0-10.0-0.47","A573","""event"",""trial"",""time""
""fullscreenenter"",""0"",""2069""
","
","
","""event"",""trial"",""time""
""fullscreenenter"",""0"",""2069""
","
","null","<div style=""font-size:60px;"">+</div>","","null","fixation","2021-04-12 13:27:31.435","","","","",""
"","mars-trial","110","316777","0.0-10.0-1.47","A573","""event"",""trial"",""time""
""fullscreenenter"",""0"",""2069""
","
","
","""event"",""trial"",""time""
""fullscreenenter"",""0"",""2069""
","
","4122.975000005681","<img style='border: 4px solid darkgrey;' src='img/tf1_48_M_ss2.jpeg'></img>","3","","exp","","0","<img src='img/tf1_48_T1_ss2_md.jpeg'></img>","0","true",""
"","html-keyboard-response","111","317278","0.0-10.0-0.48","A573","""event"",""trial"",""time""
""fullscreenenter"",""0"",""2069""
","
","
","""event"",""trial"",""time""
""fullscreenenter"",""0"",""2069""
","
","null","<div style=""font-size:60px;"">+</div>","","null","fixation","2021-04-12 13:27:36.663","","","","",""
"","mars-trial","112","319571","0.0-10.0-1.48","A573","""event"",""trial"",""time""
""fullscreenenter"",""0"",""2069""
","
","
","""event"",""trial"",""time""
""fullscreenenter"",""0"",""2069""
","
","1689.9800000246614","<img style='border: 4px solid darkgrey;' src='img/tf1_49_M_ss3.jpeg'></img>","1","","exp","","1","<img src='img/tf1_49_T1_ss3_md.jpeg'></img>","0","false",""
"","html-keyboard-response","113","320073","0.0-10.0-0.49","A573","""event"",""trial"",""time""
""fullscreenenter"",""0"",""2069""
","
","
","""event"",""trial"",""time""
""fullscreenenter"",""0"",""2069""
","
","null","<div style=""font-size:60px;"">+</div>","","null","fixation","2021-04-12 13:27:39.458","","","","",""
"","mars-trial","114","321535","0.0-10.0-1.49","A573","""event"",""trial"",""time""
""fullscreenenter"",""0"",""2069""
","
","
","""event"",""trial"",""time""
""fullscreenenter"",""0"",""2069""
","
","858.3150000195019","<img style='border: 4px solid darkgrey;' src='img/tf1_50_M_ss1.jpeg'></img>","2","","exp","","1","<img src='img/tf1_50_T1_ss1_md.jpeg'></img>","0","false",""
"","html-keyboard-response","115","322036","0.0-10.0-0.50","A573","""event"",""trial"",""time""
""fullscreenenter"",""0"",""2069""
","
","
","""event"",""trial"",""time""
""fullscreenenter"",""0"",""2069""
","
","null","<div style=""font-size:60px;"">+</div>","","null","fixation","2021-04-12 13:27:41.421","","","","",""
"","mars-trial","116","323387","0.0-10.0-1.50","A573","""event"",""trial"",""time""
""fullscreenenter"",""0"",""2069""
","
","
","""event"",""trial"",""time""
""fullscreenenter"",""0"",""2069""
","
","747.9200000525452","<img style='border: 4px solid darkgrey;' src='img/tf1_51_M_ss2.jpeg'></img>","3","","exp","","2","<img src='img/tf1_51_T1_ss2_md.jpeg'></img>","0","false",""
"","html-keyboard-response","117","323889","0.0-10.0-0.51","A573","""event"",""trial"",""time""
""fullscreenenter"",""0"",""2069""
","
","
","""event"",""trial"",""time""
""fullscreenenter"",""0"",""2069""
","
","null","<div style=""font-size:60px;"">+</div>","","null","fixation","2021-04-12 13:27:43.274","","","","",""
"","mars-trial","118","325166","0.0-10.0-1.51","A573","""event"",""trial"",""time""
""fullscreenenter"",""0"",""2069""
","
","
","""event"",""trial"",""time""
""fullscreenenter"",""0"",""2069""
","
","673.9249999518506","<img style='border: 4px solid darkgrey;' src='img/tf1_52_M_ss3.jpeg'></img>","2","","exp","","1","<img src='img/tf1_52_T1_ss3_md.jpeg'></img>","0","false",""
"","html-keyboard-response","119","325667","0.0-10.0-0.52","A573","""event"",""trial"",""time""
""fullscreenenter"",""0"",""2069""
","
","
","""event"",""trial"",""time""
""fullscreenenter"",""0"",""2069""
","
","null","<div style=""font-size:60px;"">+</div>","","null","fixation","2021-04-12 13:27:45.052","","","","",""
"","mars-trial","120","326747","0.0-10.0-1.52","A573","""event"",""trial"",""time""
""fullscreenenter"",""0"",""2069""
","
","
","""event"",""trial"",""time""
""fullscreenenter"",""0"",""2069""
","
","477.199999964796","<img style='border: 4px solid darkgrey;' src='img/tf1_53_M_ss1.jpeg'></img>","1","","exp","","2","<img src='img/tf1_53_T1_ss1_md.jpeg'></img>","0","false",""
"","html-keyboard-response","121","327248","0.0-10.0-0.53","A573","""event"",""trial"",""time""
""fullscreenenter"",""0"",""2069""
","
","
","""event"",""trial"",""time""
""fullscreenenter"",""0"",""2069""
","
","null","<div style=""font-size:60px;"">+</div>","","null","fixation","2021-04-12 13:27:46.633","","","","",""
"","mars-trial","122","328476","0.0-10.0-1.53","A573","""event"",""trial"",""time""
""fullscreenenter"",""0"",""2069""
","
","
","""event"",""trial"",""time""
""fullscreenenter"",""0"",""2069""
","
","624.8599999817088","<img style='border: 4px solid darkgrey;' src='img/tf1_54_M_ss2.jpeg'></img>","0","","exp","","3","<img src='img/tf1_54_T1_ss2_md.jpeg'></img>","0","false",""
"","html-keyboard-response","123","328977","0.0-10.0-0.54","A573","""event"",""trial"",""time""
""fullscreenenter"",""0"",""2069""
","
","
","""event"",""trial"",""time""
""fullscreenenter"",""0"",""2069""
","
","null","<div style=""font-size:60px;"">+</div>","","null","fixation","2021-04-12 13:27:48.362","","","","",""
"","mars-trial","124","330251","0.0-10.0-1.54","A573","""event"",""trial"",""time""
""fullscreenenter"",""0"",""2069""
","
","
","""event"",""trial"",""time""
""fullscreenenter"",""0"",""2069""
","
","669.8249999899417","<img style='border: 4px solid darkgrey;' src='img/tf1_55_M_ss3.jpeg'></img>","1","","exp","","0","<img src='img/tf1_55_T1_ss3_md.jpeg'></img>","0","true",""
"","html-keyboard-response","125","330752","0.0-10.0-0.55","A573","""event"",""trial"",""time""
""fullscreenenter"",""0"",""2069""
","
","
","""event"",""trial"",""time""
""fullscreenenter"",""0"",""2069""
","
","null","<div style=""font-size:60px;"">+</div>","","null","fixation","2021-04-12 13:27:50.137","","","","",""
"","mars-trial","126","331783","0.0-10.0-1.55","A573","""event"",""trial"",""time""
""fullscreenenter"",""0"",""2069""
","
","
","""event"",""trial"",""time""
""fullscreenenter"",""0"",""2069""
","
","426.73499998636544","<img style='border: 4px solid darkgrey;' src='img/tf1_56_M_ss1.jpeg'></img>","2","","exp","","0","<img src='img/tf1_56_T1_ss1_md.jpeg'></img>","0","true",""
"","html-keyboard-response","127","332286","0.0-10.0-0.56","A573","""event"",""trial"",""time""
""fullscreenenter"",""0"",""2069""
","
","
","""event"",""trial"",""time""
""fullscreenenter"",""0"",""2069""
","
","null","<div style=""font-size:60px;"">+</div>","","null","fixation","2021-04-12 13:27:51.671","","","","",""
"","mars-trial","128","333151","0.0-10.0-1.56","A573","""event"",""trial"",""time""
""fullscreenenter"",""0"",""2069""
","
","
","""event"",""trial"",""time""
""fullscreenenter"",""0"",""2069""
","
","259.7650000243448","<img style='border: 4px solid darkgrey;' src='img/tf1_57_M_ss2.jpeg'></img>","3","","exp","","1","<img src='img/tf1_57_T1_ss2_md.jpeg'></img>","0","false",""
"","html-keyboard-response","129","333652","0.0-10.0-0.57","A573","""event"",""trial"",""time""
""fullscreenenter"",""0"",""2069""
","
","
","""event"",""trial"",""time""
""fullscreenenter"",""0"",""2069""
","
","null","<div style=""font-size:60px;"">+</div>","","null","fixation","2021-04-12 13:27:53.037","","","","",""
"","mars-trial","130","334519","0.0-10.0-1.57","A573","""event"",""trial"",""time""
""fullscreenenter"",""0"",""2069""
","
","
","""event"",""trial"",""time""
""fullscreenenter"",""0"",""2069""
","
","264.47499997448176","<img style='border: 4px solid darkgrey;' src='img/tf1_58_M_ss3.jpeg'></img>","1","","exp","","1","<img src='img/tf1_58_T1_ss3_md.jpeg'></img>","0","false",""
"","html-keyboard-response","131","335020","0.0-10.0-0.58","A573","""event"",""trial"",""time""
""fullscreenenter"",""0"",""2069""
","
","
","""event"",""trial"",""time""
""fullscreenenter"",""0"",""2069""
","
","null","<div style=""font-size:60px;"">+</div>","","null","fixation","2021-04-12 13:27:54.405","","","","",""
"","mars-trial","132","335869","0.0-10.0-1.58","A573","""event"",""trial"",""time""
""fullscreenenter"",""0"",""2069""
","
","
","""event"",""trial"",""time""
""fullscreenenter"",""0"",""2069""
","
","245.40000001434237","<img style='border: 4px solid darkgrey;' src='img/tf1_59_M_ss1.jpeg'></img>","2","","exp","","3","<img src='img/tf1_59_T1_ss1_md.jpeg'></img>","0","false",""
"","html-keyboard-response","133","336370","0.0-10.0-0.59","A573","""event"",""trial"",""time""
""fullscreenenter"",""0"",""2069""
","
","
","""event"",""trial"",""time""
""fullscreenenter"",""0"",""2069""
","
","null","<div style=""font-size:60px;"">+</div>","","null","fixation","2021-04-12 13:27:55.755","","","","",""
"","mars-trial","134","337184","0.0-10.0-1.59","A573","""event"",""trial"",""time""
""fullscreenenter"",""0"",""2069""
","
","
","""event"",""trial"",""time""
""fullscreenenter"",""0"",""2069""
","
","210.22999996785074","<img style='border: 4px solid darkgrey;' src='img/tf1_60_M_ss2.jpeg'></img>","0","","exp","","1","<img src='img/tf1_60_T1_ss2_md.jpeg'></img>","0","false",""
"","html-keyboard-response","135","337685","0.0-10.0-0.60","A573","""event"",""trial"",""time""
""fullscreenenter"",""0"",""2069""
","
","
","""event"",""trial"",""time""
""fullscreenenter"",""0"",""2069""
","
","null","<div style=""font-size:60px;"">+</div>","","null","fixation","2021-04-12 13:27:57.070","","","","",""
"","mars-trial","136","338528","0.0-10.0-1.60","A573","""event"",""trial"",""time""
""fullscreenenter"",""0"",""2069""
","
","
","""event"",""trial"",""time""
""fullscreenenter"",""0"",""2069""
","
","239.9050000240095","<img style='border: 4px solid darkgrey;' src='img/tf1_61_M_ss3.jpeg'></img>","1","","exp","","1","<img src='img/tf1_61_T1_ss3_md.jpeg'></img>","0","false",""
"","html-keyboard-response","137","339029","0.0-10.0-0.61","A573","""event"",""trial"",""time""
""fullscreenenter"",""0"",""2069""
","
","
","""event"",""trial"",""time""
""fullscreenenter"",""0"",""2069""
","
","null","<div style=""font-size:60px;"">+</div>","","null","fixation","2021-04-12 13:27:58.414","","","","",""
"","mars-trial","138","340621","0.0-10.0-1.61","A573","""event"",""trial"",""time""
""fullscreenenter"",""0"",""2069""
","
","
","""event"",""trial"",""time""
""fullscreenenter"",""0"",""2069""
","
","989.6849999786355","<img style='border: 4px solid darkgrey;' src='img/tf1_62_M_ss1.jpeg'></img>","2","","exp","","3","<img src='img/tf1_62_T1_ss1_md.jpeg'></img>","0","false",""
"","html-keyboard-response","139","341122","0.0-10.0-0.62","A573","""event"",""trial"",""time""
""fullscreenenter"",""0"",""2069""
","
","
","""event"",""trial"",""time""
""fullscreenenter"",""0"",""2069""
","
","null","<div style=""font-size:60px;"">+</div>","","null","fixation","2021-04-12 13:28:00.507","","","","",""
"","mars-trial","140","342929","0.0-10.0-1.62","A573","""event"",""trial"",""time""
""fullscreenenter"",""0"",""2069""
","
","
","""event"",""trial"",""time""
""fullscreenenter"",""0"",""2069""
","
","1203.9649999933317","<img style='border: 4px solid darkgrey;' src='img/tf1_63_M_ss2.jpeg'></img>","3","","exp","","1","<img src='img/tf1_63_T1_ss2_md.jpeg'></img>","0","false",""
"","html-keyboard-response","141","343430","0.0-10.0-0.63","A573","""event"",""trial"",""time""
""fullscreenenter"",""0"",""2069""
","
","
","""event"",""trial"",""time""
""fullscreenenter"",""0"",""2069""
","
","null","<div style=""font-size:60px;"">+</div>","","null","fixation","2021-04-12 13:28:02.815","","","","",""
"","mars-trial","142","344796","0.0-10.0-1.63","A573","""event"",""trial"",""time""
""fullscreenenter"",""0"",""2069""
","
","
","""event"",""trial"",""time""
""fullscreenenter"",""0"",""2069""
","
","762.0250000036322","<img style='border: 4px solid darkgrey;' src='img/tf1_64_M_ss3.jpeg'></img>","1","","exp","","0","<img src='img/tf1_64_T1_ss3_md.jpeg'></img>","0","true",""
"","html-keyboard-response","143","345297","0.0-10.0-0.64","A573","""event"",""trial"",""time""
""fullscreenenter"",""0"",""2069""
","
","
","""event"",""trial"",""time""
""fullscreenenter"",""0"",""2069""
","
","null","<div style=""font-size:60px;"">+</div>","","null","fixation","2021-04-12 13:28:04.682","","","","",""
"","mars-trial","144","346945","0.0-10.0-1.64","A573","""event"",""trial"",""time""
""fullscreenenter"",""0"",""2069""
","
","
","""event"",""trial"",""time""
""fullscreenenter"",""0"",""2069""
","
","1042.7500000223517","<img style='border: 4px solid darkgrey;' src='img/tf1_65_M_ss1.jpeg'></img>","1","","exp","","0","<img src='img/tf1_65_T1_ss1_md.jpeg'></img>","0","true",""
"","html-keyboard-response","145","347446","0.0-10.0-0.65","A573","""event"",""trial"",""time""
""fullscreenenter"",""0"",""2069""
","
","
","""event"",""trial"",""time""
""fullscreenenter"",""0"",""2069""
","
","null","<div style=""font-size:60px;"">+</div>","","null","fixation","2021-04-12 13:28:06.831","","","","",""
"","mars-trial","146","349075","0.0-10.0-1.65","A573","""event"",""trial"",""time""
""fullscreenenter"",""0"",""2069""
","
","
","""event"",""trial"",""time""
""fullscreenenter"",""0"",""2069""
","
","1026.0750000015832","<img style='border: 4px solid darkgrey;' src='img/tf1_66_M_ss2.jpeg'></img>","3","","exp","","1","<img src='img/tf1_66_T1_ss2_md.jpeg'></img>","0","false",""
"","html-keyboard-response","147","349576","0.0-10.0-0.66","A573","""event"",""trial"",""time""
""fullscreenenter"",""0"",""2069""
","
","
","""event"",""trial"",""time""
""fullscreenenter"",""0"",""2069""
","
","null","<div style=""font-size:60px;"">+</div>","","null","fixation","2021-04-12 13:28:08.961","","","","",""
"","mars-trial","148","350927","0.0-10.0-1.66","A573","""event"",""trial"",""time""
""fullscreenenter"",""0"",""2069""
","
","
","""event"",""trial"",""time""
""fullscreenenter"",""0"",""2069""
","
","745.9749999688938","<img style='border: 4px solid darkgrey;' src='img/tf1_67_M_ss3.jpeg'></img>","2","","exp","","0","<img src='img/tf1_67_T1_ss3_md.jpeg'></img>","0","true",""
"","html-keyboard-response","149","351428","0.0-10.0-0.67","A573","""event"",""trial"",""time""
""fullscreenenter"",""0"",""2069""
","
","
","""event"",""trial"",""time""
""fullscreenenter"",""0"",""2069""
","
","null","<div style=""font-size:60px;"">+</div>","","null","fixation","2021-04-12 13:28:10.813","","","","",""
"","mars-trial","150","354080","0.0-10.0-1.67","A573","""event"",""trial"",""time""
""fullscreenenter"",""0"",""2069""
","
","
","""event"",""trial"",""time""
""fullscreenenter"",""0"",""2069""
","
","2049.010000017006","<img style='border: 4px solid darkgrey;' src='img/tf1_68_M_ss1.jpeg'></img>","2","","exp","","0","<img src='img/tf1_68_T1_ss1_md.jpeg'></img>","0","true",""
"","html-keyboard-response","151","354581","0.0-10.0-0.68","A573","""event"",""trial"",""time""
""fullscreenenter"",""0"",""2069""
","
","
","""event"",""trial"",""time""
""fullscreenenter"",""0"",""2069""
","
","null","<div style=""font-size:60px;"">+</div>","","null","fixation","2021-04-12 13:28:13.966","","","","",""
"","mars-trial","152","356927","0.0-10.0-1.68","A573","""event"",""trial"",""time""
""fullscreenenter"",""0"",""2069""
","
","
","""event"",""trial"",""time""
""fullscreenenter"",""0"",""2069""
","
","1741.8799999868497","<img style='border: 4px solid darkgrey;' src='img/tf1_69_M_ss2.jpeg'></img>","1","","exp","","3","<img src='img/tf1_69_T1_ss2_md.jpeg'></img>","0","false",""
"","html-keyboard-response","153","357428","0.0-10.0-0.69","A573","""event"",""trial"",""time""
""fullscreenenter"",""0"",""2069""
","
","
","""event"",""trial"",""time""
""fullscreenenter"",""0"",""2069""
","
","null","<div style=""font-size:60px;"">+</div>","","null","fixation","2021-04-12 13:28:16.813","","","","",""
"","mars-trial","154","366283","0.0-10.0-1.69","A573","""event"",""trial"",""time""
""fullscreenenter"",""0"",""2069""
","
","
","""event"",""trial"",""time""
""fullscreenenter"",""0"",""2069""
","
","8250.509999983478","<img style='border: 4px solid darkgrey;' src='img/tf1_70_M_ss3.jpeg'></img>","0","","exp","","0","<img src='img/tf1_70_T1_ss3_md.jpeg'></img>","0","true",""
"","html-keyboard-response","155","366785","0.0-10.0-0.70","A573","""event"",""trial"",""time""
""fullscreenenter"",""0"",""2069""
","
","
","""event"",""trial"",""time""
""fullscreenenter"",""0"",""2069""
","
","null","<div style=""font-size:60px;"">+</div>","","null","fixation","2021-04-12 13:28:26.170","","","","",""
"","mars-trial","156","377658","0.0-10.0-1.70","A573","""event"",""trial"",""time""
""fullscreenenter"",""0"",""2069""
","
","
","""event"",""trial"",""time""
""fullscreenenter"",""0"",""2069""
","
","10267.579999985173","<img style='border: 4px solid darkgrey;' src='img/tf1_71_M_ss1.jpeg'></img>","2","","exp","","0","<img src='img/tf1_71_T1_ss1_md.jpeg'></img>","0","true",""
"","html-keyboard-response","157","378159","0.0-10.0-0.71","A573","""event"",""trial"",""time""
""fullscreenenter"",""0"",""2069""
","
","
","""event"",""trial"",""time""
""fullscreenenter"",""0"",""2069""
","
","null","<div style=""font-size:60px;"">+</div>","","null","fixation","2021-04-12 13:28:37.544","","","","",""
"","mars-trial","158","381218","0.0-10.0-1.71","A573","""event"",""trial"",""time""
""fullscreenenter"",""0"",""2069""
","
","
","""event"",""trial"",""time""
""fullscreenenter"",""0"",""2069""
","
","2455.5099999997765","<img style='border: 4px solid darkgrey;' src='img/tf1_72_M_ss2.jpeg'></img>","2","","exp","","1","<img src='img/tf1_72_T1_ss2_md.jpeg'></img>","0","false",""
"","html-keyboard-response","159","381719","0.0-10.0-0.72","A573","""event"",""trial"",""time""
""fullscreenenter"",""0"",""2069""
","
","
","""event"",""trial"",""time""
""fullscreenenter"",""0"",""2069""
","
","null","<div style=""font-size:60px;"">+</div>","","null","fixation","2021-04-12 13:28:41.104","","","","",""
"","mars-trial","160","386521","0.0-10.0-1.72","A573","""event"",""trial"",""time""
""fullscreenenter"",""0"",""2069""
","
","
","""event"",""trial"",""time""
""fullscreenenter"",""0"",""2069""
","
","4198.4449999872595","<img style='border: 4px solid darkgrey;' src='img/tf1_73_M_ss3.jpeg'></img>","3","","exp","","0","<img src='img/tf1_73_T1_ss3_md.jpeg'></img>","0","true",""
"","html-keyboard-response","161","387022","0.0-10.0-0.73","A573","""event"",""trial"",""time""
""fullscreenenter"",""0"",""2069""
","
","
","""event"",""trial"",""time""
""fullscreenenter"",""0"",""2069""
","
","null","<div style=""font-size:60px;"">+</div>","","null","fixation","2021-04-12 13:28:46.407","","","","",""
"","mars-trial","162","391334","0.0-10.0-1.73","A573","""event"",""trial"",""time""
""fullscreenenter"",""0"",""2069""
","
","
","""event"",""trial"",""time""
""fullscreenenter"",""0"",""2069""
","
","3708.5599999991246","<img style='border: 4px solid darkgrey;' src='img/tf1_74_M_ss1.jpeg'></img>","0","","exp","","1","<img src='img/tf1_74_T1_ss1_md.jpeg'></img>","0","false",""
"","html-keyboard-response","163","391835","0.0-10.0-0.74","A573","""event"",""trial"",""time""
""fullscreenenter"",""0"",""2069""
","
","
","""event"",""trial"",""time""
""fullscreenenter"",""0"",""2069""
","
","null","<div style=""font-size:60px;"">+</div>","","null","fixation","2021-04-12 13:28:51.220","","","","",""
"","mars-trial","164","393117","0.0-10.0-1.74","A573","""event"",""trial"",""time""
""fullscreenenter"",""0"",""2069""
","
","
","""event"",""trial"",""time""
""fullscreenenter"",""0"",""2069""
","
","678.8250000099652","<img style='border: 4px solid darkgrey;' src='img/tf1_75_M_ss2.jpeg'></img>","1","","exp","","3","<img src='img/tf1_75_T1_ss2_md.jpeg'></img>","0","false",""
"","html-keyboard-response","165","393619","0.0-10.0-0.75","A573","""event"",""trial"",""time""
""fullscreenenter"",""0"",""2069""
","
","
","""event"",""trial"",""time""
""fullscreenenter"",""0"",""2069""
","
","null","<div style=""font-size:60px;"">+</div>","","null","fixation","2021-04-12 13:28:53.004","","","","",""
"","mars-trial","166","395464","0.0-10.0-1.75","A573","""event"",""trial"",""time""
""fullscreenenter"",""0"",""2069""
","
","
","""event"",""trial"",""time""
""fullscreenenter"",""0"",""2069""
","
","1241.7349999886937","<img style='border: 4px solid darkgrey;' src='img/tf1_76_M_ss3.jpeg'></img>","2","","exp","","1","<img src='img/tf1_76_T1_ss3_md.jpeg'></img>","0","false",""
"","html-keyboard-response","167","395965","0.0-10.0-0.76","A573","""event"",""trial"",""time""
""fullscreenenter"",""0"",""2069""
","
","
","""event"",""trial"",""time""
""fullscreenenter"",""0"",""2069""
","
","null","<div style=""font-size:60px;"">+</div>","","null","fixation","2021-04-12 13:28:55.350","","","","",""
"","mars-trial","168","397726","0.0-10.0-1.76","A573","""event"",""trial"",""time""
""fullscreenenter"",""0"",""2069""
","
","
","""event"",""trial"",""time""
""fullscreenenter"",""0"",""2069""
","
","1157.8599999775179","<img style='border: 4px solid darkgrey;' src='img/tf1_77_M_ss1.jpeg'></img>","3","","exp","","3","<img src='img/tf1_77_T1_ss1_md.jpeg'></img>","0","false",""
"","html-keyboard-response","169","398227","0.0-10.0-0.77","A573","""event"",""trial"",""time""
""fullscreenenter"",""0"",""2069""
","
","
","""event"",""trial"",""time""
""fullscreenenter"",""0"",""2069""
","
","null","<div style=""font-size:60px;"">+</div>","","null","fixation","2021-04-12 13:28:57.612","","","","",""
"","mars-trial","170","399402","0.0-10.0-1.77","A573","""event"",""trial"",""time""
""fullscreenenter"",""0"",""2069""
","
","
","""event"",""trial"",""time""
""fullscreenenter"",""0"",""2069""
","
","570.8699999959208","<img style='border: 4px solid darkgrey;' src='img/tf1_78_M_ss2.jpeg'></img>","2","","exp","","0","<img src='img/tf1_78_T1_ss2_md.jpeg'></img>","0","true",""
"","html-keyboard-response","171","399903","0.0-10.0-0.78","A573","""event"",""trial"",""time""
""fullscreenenter"",""0"",""2069""
","
","
","""event"",""trial"",""time""
""fullscreenenter"",""0"",""2069""
","
","null","<div style=""font-size:60px;"">+</div>","","null","fixation","2021-04-12 13:28:59.288","","","","",""
"","mars-trial","172","401819","0.0-10.0-1.78","A573","""event"",""trial"",""time""
""fullscreenenter"",""0"",""2069""
","
","
","""event"",""trial"",""time""
""fullscreenenter"",""0"",""2069""
","
","1310.8699999866076","<img style='border: 4px solid darkgrey;' src='img/tf1_79_M_ss3.jpeg'></img>","2","","exp","","1","<img src='img/tf1_79_T1_ss3_md.jpeg'></img>","0","false",""
"","html-keyboard-response","173","402319","0.0-10.0-0.79","A573","""event"",""trial"",""time""
""fullscreenenter"",""0"",""2069""
","
","
","""event"",""trial"",""time""
""fullscreenenter"",""0"",""2069""
","
","null","<div style=""font-size:60px;"">+</div>","","null","fixation","2021-04-12 13:29:01.704","","","","",""
"","mars-trial","174","404465","0.0-10.0-1.79","A573","""event"",""trial"",""time""
""fullscreenenter"",""0"",""2069""
","
","
","""event"",""trial"",""time""
""fullscreenenter"",""0"",""2069""
","
","1542.859999986831","<img style='border: 4px solid darkgrey;' src='img/tf1_80_M_ss1.jpeg'></img>","1","","exp","","2","<img src='img/tf1_80_T1_ss1_md.jpeg'></img>","0","false",""
"","audio-button-response","175","405852","0.0-11.0","A573","""event"",""trial"",""time""
""fullscreenenter"",""0"",""2069""
","
","
","""event"",""trial"",""time""
""fullscreenenter"",""0"",""2069""
","
","1385.4349999455735","audio/mars_instructions_slide5.wav","0","","","","","","","",""
