"success","trial_type","trial_index","time_elapsed","internal_node_id","subject_id","interactions","blur_events","focus_events","fullscreenenter_events","fullscreenexit_events","rt","stimulus","button_pressed","key_press","part","timestamp","unshuffled_button","correct_response","correct_button","correct","value"
"true","fullscreen","0","2963","0.0-0.0","231","""event"",""trial"",""time""
""fullscreenenter"",""0"",""1965""
","
","
","""event"",""trial"",""time""
""fullscreenenter"",""0"",""1965""
","
","","","","","","","","","","",""
"","pavlovia","1","2971","0.0-1.0","231","""event"",""trial"",""time""
""fullscreenenter"",""0"",""1965""
","
","
","""event"",""trial"",""time""
""fullscreenenter"",""0"",""1965""
","
","","","","","","","","","","",""
"","html-button-response","2","4216","0.0-2.0","231","""event"",""trial"",""time""
""fullscreenenter"",""0"",""1965""
","
","
","""event"",""trial"",""time""
""fullscreenenter"",""0"",""1965""
","
","1243.199999988079","<p>Welcome! Press START to begin.</p><br>","0","","","","","","","",""
"","audio-button-response","3","8670","0.0-3.0","231","""event"",""trial"",""time""
""fullscreenenter"",""0"",""1965""
","
","
","""event"",""trial"",""time""
""fullscreenenter"",""0"",""1965""
","
","4452.599999964237","audio/mars_instructions_slide2.wav","0","","","","","","","",""
"","audio-button-response","4","14954","0.0-4.0","231","""event"",""trial"",""time""
""fullscreenenter"",""0"",""1965""
","
","
","""event"",""trial"",""time""
""fullscreenenter"",""0"",""1965""
","
","6283.399999976158","audio/mars_instructions_slide3.wav","0","","","","","","","",""
"","html-keyboard-response","5","15463","0.0-5.0-0.0","231","""event"",""trial"",""time""
""fullscreenenter"",""0"",""1965""
","
","
","""event"",""trial"",""time""
""fullscreenenter"",""0"",""1965""
","
","null","<div style=""font-size:60px;"">+</div>","","null","fixation","2021-07-27 12:23:59.046","","","","",""
"","mars-trial","6","21413","0.0-5.0-1.0","231","""event"",""trial"",""time""
""fullscreenenter"",""0"",""1965""
","
","
","""event"",""trial"",""time""
""fullscreenenter"",""0"",""1965""
","
","3816","<img style='border: 4px solid darkgrey;' src='practice/pt1_M1.png'></img>","2","","practice","","0","<img src='practice/pt1_T1.png'></img>","0","true",""
"","html-keyboard-response","7","21923","0.0-6.0-0.0","231","""event"",""trial"",""time""
""fullscreenenter"",""0"",""1965""
","
","
","""event"",""trial"",""time""
""fullscreenenter"",""0"",""1965""
","
","null","<div style=""font-size:60px;"">+</div>","","null","fixation","2021-07-27 12:24:05.506","","","","",""
"","mars-trial","8","25983","0.0-6.0-1.0","231","""event"",""trial"",""time""
""fullscreenenter"",""0"",""1965""
","
","
","""event"",""trial"",""time""
""fullscreenenter"",""0"",""1965""
","
","1931.2999999523163","<img style='border: 4px solid darkgrey;' src='practice/pt2_M1.png'></img>","3","","practice","","0","<img src='practice/pt2_T1.png'></img>","0","true",""
"","html-keyboard-response","9","26493","0.0-7.0-0.0","231","""event"",""trial"",""time""
""fullscreenenter"",""0"",""1965""
","
","
","""event"",""trial"",""time""
""fullscreenenter"",""0"",""1965""
","
","null","<div style=""font-size:60px;"">+</div>","","null","fixation","2021-07-27 12:24:10.076","","","","",""
"","mars-trial","10","29923","0.0-7.0-1.0","231","""event"",""trial"",""time""
""fullscreenenter"",""0"",""1965""
","
","
","""event"",""trial"",""time""
""fullscreenenter"",""0"",""1965""
","
","1290.300000011921","<img style='border: 4px solid darkgrey;' src='practice/pt3_M1.png'></img>","2","","practice","","0","<img src='practice/pt3_T1.png'></img>","0","true",""
"","audio-button-response","11","31410","0.0-8.0","231","""event"",""trial"",""time""
""fullscreenenter"",""0"",""1965""
","
","
","""event"",""trial"",""time""
""fullscreenenter"",""0"",""1965""
","
","1485.5","audio/mars_instructions_slide4.wav","0","","","","","","","",""
"","call-function","12","31411","0.0-9.0","231","""event"",""trial"",""time""
""fullscreenenter"",""0"",""1965""
","
","
","""event"",""trial"",""time""
""fullscreenenter"",""0"",""1965""
","
","","","","","","","","","","",""
"","html-keyboard-response","13","31922","0.0-10.0-0.0","231","""event"",""trial"",""time""
""fullscreenenter"",""0"",""1965""
","
","
","""event"",""trial"",""time""
""fullscreenenter"",""0"",""1965""
","
","null","<div style=""font-size:60px;"">+</div>","","null","fixation","2021-07-27 12:24:15.506","","","","",""
"","mars-trial","14","33993","0.0-10.0-1.0","231","""event"",""trial"",""time""
""fullscreenenter"",""0"",""1965""
","
","
","""event"",""trial"",""time""
""fullscreenenter"",""0"",""1965""
","
","1438","<img style='border: 4px solid darkgrey;' src='img/tf1_1_M_ss3.jpeg'></img>","3","","exp","","0","<img src='img/tf1_1_T1_ss3_md.jpeg'></img>","0","true",""
"","html-keyboard-response","15","34496","0.0-10.0-0.1","231","""event"",""trial"",""time""
""fullscreenenter"",""0"",""1965""
","
","
","""event"",""trial"",""time""
""fullscreenenter"",""0"",""1965""
","
","null","<div style=""font-size:60px;"">+</div>","","null","fixation","2021-07-27 12:24:18.079","","","","",""
"","mars-trial","16","38394","0.0-10.0-1.1","231","""event"",""trial"",""time""
""fullscreenenter"",""0"",""1965""
","
","
","""event"",""trial"",""time""
""fullscreenenter"",""0"",""1965""
","
","3294.100000023842","<img style='border: 4px solid darkgrey;' src='img/tf1_2_M_ss1.jpeg'></img>","2","","exp","","0","<img src='img/tf1_2_T1_ss1_md.jpeg'></img>","0","true",""
"","html-keyboard-response","17","38896","0.0-10.0-0.2","231","""event"",""trial"",""time""
""fullscreenenter"",""0"",""1965""
","
","
","""event"",""trial"",""time""
""fullscreenenter"",""0"",""1965""
","
","null","<div style=""font-size:60px;"">+</div>","","null","fixation","2021-07-27 12:24:22.480","","","","",""
"","mars-trial","18","41523","0.0-10.0-1.2","231","""event"",""trial"",""time""
""fullscreenenter"",""0"",""1965""
","
","
","""event"",""trial"",""time""
""fullscreenenter"",""0"",""1965""
","
","1992.9000000357628","<img style='border: 4px solid darkgrey;' src='img/tf1_3_M_ss2.jpeg'></img>","1","","exp","","0","<img src='img/tf1_3_T1_ss2_md.jpeg'></img>","0","true",""
"","html-keyboard-response","19","42033","0.0-10.0-0.3","231","""event"",""trial"",""time""
""fullscreenenter"",""0"",""1965""
","
","
","""event"",""trial"",""time""
""fullscreenenter"",""0"",""1965""
","
","null","<div style=""font-size:60px;"">+</div>","","null","fixation","2021-07-27 12:24:25.616","","","","",""
"","mars-trial","20","46242","0.0-10.0-1.3","231","""event"",""trial"",""time""
""fullscreenenter"",""0"",""1965""
","
","
","""event"",""trial"",""time""
""fullscreenenter"",""0"",""1965""
","
","3570.7999999523163","<img style='border: 4px solid darkgrey;' src='img/tf1_4_M_ss3.jpeg'></img>","2","","exp","","0","<img src='img/tf1_4_T1_ss3_md.jpeg'></img>","0","true",""
"","html-keyboard-response","21","46752","0.0-10.0-0.4","231","""event"",""trial"",""time""
""fullscreenenter"",""0"",""1965""
","
","
","""event"",""trial"",""time""
""fullscreenenter"",""0"",""1965""
","
","null","<div style=""font-size:60px;"">+</div>","","null","fixation","2021-07-27 12:24:30.335","","","","",""
"","mars-trial","22","49563","0.0-10.0-1.4","231","""event"",""trial"",""time""
""fullscreenenter"",""0"",""1965""
","
","
","""event"",""trial"",""time""
""fullscreenenter"",""0"",""1965""
","
","2190.100000023842","<img style='border: 4px solid darkgrey;' src='img/tf1_5_M_ss1.jpeg'></img>","3","","exp","","0","<img src='img/tf1_5_T1_ss1_md.jpeg'></img>","0","true",""
"","html-keyboard-response","23","50073","0.0-10.0-0.5","231","""event"",""trial"",""time""
""fullscreenenter"",""0"",""1965""
","
","
","""event"",""trial"",""time""
""fullscreenenter"",""0"",""1965""
","
","null","<div style=""font-size:60px;"">+</div>","","null","fixation","2021-07-27 12:24:33.656","","","","",""
"","mars-trial","24","53784","0.0-10.0-1.5","231","""event"",""trial"",""time""
""fullscreenenter"",""0"",""1965""
","
","
","""event"",""trial"",""time""
""fullscreenenter"",""0"",""1965""
","
","3076.899999976158","<img style='border: 4px solid darkgrey;' src='img/tf1_6_M_ss2.jpeg'></img>","1","","exp","","3","<img src='img/tf1_6_T1_ss2_md.jpeg'></img>","0","false",""
"","html-keyboard-response","25","54293","0.0-10.0-0.6","231","""event"",""trial"",""time""
""fullscreenenter"",""0"",""1965""
","
","
","""event"",""trial"",""time""
""fullscreenenter"",""0"",""1965""
","
","null","<div style=""font-size:60px;"">+</div>","","null","fixation","2021-07-27 12:24:37.876","","","","",""
"","mars-trial","26","58956","0.0-10.0-1.6","231","""event"",""trial"",""time""
""fullscreenenter"",""0"",""1965""
","
","
","""event"",""trial"",""time""
""fullscreenenter"",""0"",""1965""
","
","4052","<img style='border: 4px solid darkgrey;' src='img/tf1_7_M_ss3.jpeg'></img>","0","","exp","","0","<img src='img/tf1_7_T1_ss3_md.jpeg'></img>","0","true",""
"","html-keyboard-response","27","59457","0.0-10.0-0.7","231","""event"",""trial"",""time""
""fullscreenenter"",""0"",""1965""
","
","
","""event"",""trial"",""time""
""fullscreenenter"",""0"",""1965""
","
","null","<div style=""font-size:60px;"">+</div>","","null","fixation","2021-07-27 12:24:43.041","","","","",""
"","mars-trial","28","63406","0.0-10.0-1.7","231","""event"",""trial"",""time""
""fullscreenenter"",""0"",""1965""
","
","
","""event"",""trial"",""time""
""fullscreenenter"",""0"",""1965""
","
","3330.300000011921","<img style='border: 4px solid darkgrey;' src='img/tf1_8_M_ss1.jpeg'></img>","1","","exp","","0","<img src='img/tf1_8_T1_ss1_md.jpeg'></img>","0","true",""
"","html-keyboard-response","29","63908","0.0-10.0-0.8","231","""event"",""trial"",""time""
""fullscreenenter"",""0"",""1965""
","
","
","""event"",""trial"",""time""
""fullscreenenter"",""0"",""1965""
","
","null","<div style=""font-size:60px;"">+</div>","","null","fixation","2021-07-27 12:24:47.491","","","","",""
"","mars-trial","30","67788","0.0-10.0-1.8","231","""event"",""trial"",""time""
""fullscreenenter"",""0"",""1965""
","
","
","""event"",""trial"",""time""
""fullscreenenter"",""0"",""1965""
","
","3275.800000011921","<img style='border: 4px solid darkgrey;' src='img/tf1_9_M_ss2.jpeg'></img>","2","","exp","","0","<img src='img/tf1_9_T1_ss2_md.jpeg'></img>","0","true",""
"","html-keyboard-response","31","68290","0.0-10.0-0.9","231","""event"",""trial"",""time""
""fullscreenenter"",""0"",""1965""
","
","
","""event"",""trial"",""time""
""fullscreenenter"",""0"",""1965""
","
","null","<div style=""font-size:60px;"">+</div>","","null","fixation","2021-07-27 12:24:51.873","","","","",""
"","mars-trial","32","77618","0.0-10.0-1.9","231","""event"",""trial"",""time""
""fullscreenenter"",""0"",""1965""
","
","
","""event"",""trial"",""time""
""fullscreenenter"",""0"",""1965""
","
","8724.5","<img style='border: 4px solid darkgrey;' src='img/tf1_10_M_ss3.jpeg'></img>","3","","exp","","0","<img src='img/tf1_10_T1_ss3_md.jpeg'></img>","0","true",""
"","html-keyboard-response","33","78120","0.0-10.0-0.10","231","""event"",""trial"",""time""
""fullscreenenter"",""0"",""1965""
","
","
","""event"",""trial"",""time""
""fullscreenenter"",""0"",""1965""
","
","null","<div style=""font-size:60px;"">+</div>","","null","fixation","2021-07-27 12:25:01.703","","","","",""
"","mars-trial","34","87050","0.0-10.0-1.10","231","""event"",""trial"",""time""
""fullscreenenter"",""0"",""1965""
","
","
","""event"",""trial"",""time""
""fullscreenenter"",""0"",""1965""
","
","8323.699999988079","<img style='border: 4px solid darkgrey;' src='img/tf1_11_M_ss1.jpeg'></img>","2","","exp","","2","<img src='img/tf1_11_T1_ss1_md.jpeg'></img>","0","false",""
"","html-keyboard-response","35","87553","0.0-10.0-0.11","231","""event"",""trial"",""time""
""fullscreenenter"",""0"",""1965""
","
","
","""event"",""trial"",""time""
""fullscreenenter"",""0"",""1965""
","
","null","<div style=""font-size:60px;"">+</div>","","null","fixation","2021-07-27 12:25:11.136","","","","",""
"","mars-trial","36","98399","0.0-10.0-1.11","231","""event"",""trial"",""time""
""fullscreenenter"",""0"",""1965""
","
","
","""event"",""trial"",""time""
""fullscreenenter"",""0"",""1965""
","
","10242.300000011921","<img style='border: 4px solid darkgrey;' src='img/tf1_12_M_ss2.jpeg'></img>","2","","exp","","0","<img src='img/tf1_12_T1_ss2_md.jpeg'></img>","0","true",""
"","html-keyboard-response","37","98902","0.0-10.0-0.12","231","""event"",""trial"",""time""
""fullscreenenter"",""0"",""1965""
","
","
","""event"",""trial"",""time""
""fullscreenenter"",""0"",""1965""
","
","null","<div style=""font-size:60px;"">+</div>","","null","fixation","2021-07-27 12:25:22.485","","","","",""
"","mars-trial","38","102276","0.0-10.0-1.12","231","""event"",""trial"",""time""
""fullscreenenter"",""0"",""1965""
","
","
","""event"",""trial"",""time""
""fullscreenenter"",""0"",""1965""
","
","2768.199999988079","<img style='border: 4px solid darkgrey;' src='img/tf1_13_M_ss3.jpeg'></img>","2","","exp","","0","<img src='img/tf1_13_T1_ss3_md.jpeg'></img>","0","true",""
"","html-keyboard-response","39","102778","0.0-10.0-0.13","231","""event"",""trial"",""time""
""fullscreenenter"",""0"",""1965""
","
","
","""event"",""trial"",""time""
""fullscreenenter"",""0"",""1965""
","
","null","<div style=""font-size:60px;"">+</div>","","null","fixation","2021-07-27 12:25:26.361","","","","",""
"","mars-trial","40","111092","0.0-10.0-1.13","231","""event"",""trial"",""time""
""fullscreenenter"",""0"",""1965""
","
","
","""event"",""trial"",""time""
""fullscreenenter"",""0"",""1965""
","
","7709.5","<img style='border: 4px solid darkgrey;' src='img/tf1_14_M_ss1.jpeg'></img>","3","","exp","","0","<img src='img/tf1_14_T1_ss1_md.jpeg'></img>","0","true",""
"","html-keyboard-response","41","111595","0.0-10.0-0.14","231","""event"",""trial"",""time""
""fullscreenenter"",""0"",""1965""
","
","
","""event"",""trial"",""time""
""fullscreenenter"",""0"",""1965""
","
","null","<div style=""font-size:60px;"">+</div>","","null","fixation","2021-07-27 12:25:35.178","","","","",""
"","mars-trial","42","118712","0.0-10.0-1.14","231","""event"",""trial"",""time""
""fullscreenenter"",""0"",""1965""
","
","
","""event"",""trial"",""time""
""fullscreenenter"",""0"",""1965""
","
","6509.800000011921","<img style='border: 4px solid darkgrey;' src='img/tf1_15_M_ss2.jpeg'></img>","2","","exp","","0","<img src='img/tf1_15_T1_ss2_md.jpeg'></img>","0","true",""
"","html-keyboard-response","43","119214","0.0-10.0-0.15","231","""event"",""trial"",""time""
""fullscreenenter"",""0"",""1965""
","
","
","""event"",""trial"",""time""
""fullscreenenter"",""0"",""1965""
","
","null","<div style=""font-size:60px;"">+</div>","","null","fixation","2021-07-27 12:25:42.797","","","","",""
"","mars-trial","44","132710","0.0-10.0-1.15","231","""event"",""trial"",""time""
""fullscreenenter"",""0"",""1965""
","
","
","""event"",""trial"",""time""
""fullscreenenter"",""0"",""1965""
","
","12890.699999988079","<img style='border: 4px solid darkgrey;' src='img/tf1_16_M_ss3.jpeg'></img>","0","","exp","","0","<img src='img/tf1_16_T1_ss3_md.jpeg'></img>","0","true",""
"","html-keyboard-response","45","133213","0.0-10.0-0.16","231","""event"",""trial"",""time""
""fullscreenenter"",""0"",""1965""
","
","
","""event"",""trial"",""time""
""fullscreenenter"",""0"",""1965""
","
","null","<div style=""font-size:60px;"">+</div>","","null","fixation","2021-07-27 12:25:56.797","","","","",""
"","mars-trial","46","137820","0.0-10.0-1.16","231","""event"",""trial"",""time""
""fullscreenenter"",""0"",""1965""
","
","
","""event"",""trial"",""time""
""fullscreenenter"",""0"",""1965""
","
","3999.899999976158","<img style='border: 4px solid darkgrey;' src='img/tf1_17_M_ss1.jpeg'></img>","2","","exp","","0","<img src='img/tf1_17_T1_ss1_md.jpeg'></img>","0","true",""
"","html-keyboard-response","47","138322","0.0-10.0-0.17","231","""event"",""trial"",""time""
""fullscreenenter"",""0"",""1965""
","
","
","""event"",""trial"",""time""
""fullscreenenter"",""0"",""1965""
","
","null","<div style=""font-size:60px;"">+</div>","","null","fixation","2021-07-27 12:26:01.905","","","","",""
"","mars-trial","48","140925","0.0-10.0-1.17","231","""event"",""trial"",""time""
""fullscreenenter"",""0"",""1965""
","
","
","""event"",""trial"",""time""
""fullscreenenter"",""0"",""1965""
","
","1996.4000000357628","<img style='border: 4px solid darkgrey;' src='img/tf1_18_M_ss2.jpeg'></img>","2","","exp","","2","<img src='img/tf1_18_T1_ss2_md.jpeg'></img>","0","false",""
"","html-keyboard-response","49","141428","0.0-10.0-0.18","231","""event"",""trial"",""time""
""fullscreenenter"",""0"",""1965""
","
","
","""event"",""trial"",""time""
""fullscreenenter"",""0"",""1965""
","
","null","<div style=""font-size:60px;"">+</div>","","null","fixation","2021-07-27 12:26:05.011","","","","",""
"","mars-trial","50","143926","0.0-10.0-1.18","231","""event"",""trial"",""time""
""fullscreenenter"",""0"",""1965""
","
","
","""event"",""trial"",""time""
""fullscreenenter"",""0"",""1965""
","
","1893.1000000238419","<img style='border: 4px solid darkgrey;' src='img/tf1_19_M_ss3.jpeg'></img>","3","","exp","","3","<img src='img/tf1_19_T1_ss3_md.jpeg'></img>","0","false",""
"","html-keyboard-response","51","144428","0.0-10.0-0.19","231","""event"",""trial"",""time""
""fullscreenenter"",""0"",""1965""
","
","
","""event"",""trial"",""time""
""fullscreenenter"",""0"",""1965""
","
","null","<div style=""font-size:60px;"">+</div>","","null","fixation","2021-07-27 12:26:08.011","","","","",""
"","mars-trial","52","147786","0.0-10.0-1.19","231","""event"",""trial"",""time""
""fullscreenenter"",""0"",""1965""
","
","
","""event"",""trial"",""time""
""fullscreenenter"",""0"",""1965""
","
","2753.199999988079","<img style='border: 4px solid darkgrey;' src='img/tf1_20_M_ss1.jpeg'></img>","1","","exp","","0","<img src='img/tf1_20_T1_ss1_md.jpeg'></img>","0","true",""
"","html-keyboard-response","53","148288","0.0-10.0-0.20","231","""event"",""trial"",""time""
""fullscreenenter"",""0"",""1965""
","
","
","""event"",""trial"",""time""
""fullscreenenter"",""0"",""1965""
","
","null","<div style=""font-size:60px;"">+</div>","","null","fixation","2021-07-27 12:26:11.872","","","","",""
"","mars-trial","54","151580","0.0-10.0-1.20","231","""event"",""trial"",""time""
""fullscreenenter"",""0"",""1965""
","
","
","""event"",""trial"",""time""
""fullscreenenter"",""0"",""1965""
","
","2686.100000023842","<img style='border: 4px solid darkgrey;' src='img/tf1_21_M_ss2.jpeg'></img>","1","","exp","","0","<img src='img/tf1_21_T1_ss2_md.jpeg'></img>","0","true",""
"","html-keyboard-response","55","152083","0.0-10.0-0.21","231","""event"",""trial"",""time""
""fullscreenenter"",""0"",""1965""
","
","
","""event"",""trial"",""time""
""fullscreenenter"",""0"",""1965""
","
","null","<div style=""font-size:60px;"">+</div>","","null","fixation","2021-07-27 12:26:15.666","","","","",""
"","mars-trial","56","155141","0.0-10.0-1.21","231","""event"",""trial"",""time""
""fullscreenenter"",""0"",""1965""
","
","
","""event"",""trial"",""time""
""fullscreenenter"",""0"",""1965""
","
","2452.400000035763","<img style='border: 4px solid darkgrey;' src='img/tf1_22_M_ss3.jpeg'></img>","3","","exp","","0","<img src='img/tf1_22_T1_ss3_md.jpeg'></img>","0","true",""
"","html-keyboard-response","57","155643","0.0-10.0-0.22","231","""event"",""trial"",""time""
""fullscreenenter"",""0"",""1965""
","
","
","""event"",""trial"",""time""
""fullscreenenter"",""0"",""1965""
","
","null","<div style=""font-size:60px;"">+</div>","","null","fixation","2021-07-27 12:26:19.227","","","","",""
"","mars-trial","58","161511","0.0-10.0-1.22","231","""event"",""trial"",""time""
""fullscreenenter"",""0"",""1965""
","
","
","""event"",""trial"",""time""
""fullscreenenter"",""0"",""1965""
","
","5262.799999952316","<img style='border: 4px solid darkgrey;' src='img/tf1_23_M_ss1.jpeg'></img>","3","","exp","","0","<img src='img/tf1_23_T1_ss1_md.jpeg'></img>","0","true",""
"","html-keyboard-response","59","162012","0.0-10.0-0.23","231","""event"",""trial"",""time""
""fullscreenenter"",""0"",""1965""
","
","
","""event"",""trial"",""time""
""fullscreenenter"",""0"",""1965""
","
","null","<div style=""font-size:60px;"">+</div>","","null","fixation","2021-07-27 12:26:25.595","","","","",""
"","mars-trial","60","168738","0.0-10.0-1.23","231","""event"",""trial"",""time""
""fullscreenenter"",""0"",""1965""
","
","
","""event"",""trial"",""time""
""fullscreenenter"",""0"",""1965""
","
","6120","<img style='border: 4px solid darkgrey;' src='img/tf1_24_M_ss2.jpeg'></img>","0","","exp","","3","<img src='img/tf1_24_T1_ss2_md.jpeg'></img>","0","false",""
"","html-keyboard-response","61","169242","0.0-10.0-0.24","231","""event"",""trial"",""time""
""fullscreenenter"",""0"",""1965""
","
","
","""event"",""trial"",""time""
""fullscreenenter"",""0"",""1965""
","
","null","<div style=""font-size:60px;"">+</div>","","null","fixation","2021-07-27 12:26:32.825","","","","",""
"","mars-trial","62","171972","0.0-10.0-1.24","231","""event"",""trial"",""time""
""fullscreenenter"",""0"",""1965""
","
","
","""event"",""trial"",""time""
""fullscreenenter"",""0"",""1965""
","
","2124.599999964237","<img style='border: 4px solid darkgrey;' src='img/tf1_25_M_ss3.jpeg'></img>","2","","exp","","0","<img src='img/tf1_25_T1_ss3_md.jpeg'></img>","0","true",""
"","html-keyboard-response","63","172478","0.0-10.0-0.25","231","""event"",""trial"",""time""
""fullscreenenter"",""0"",""1965""
","
","
","""event"",""trial"",""time""
""fullscreenenter"",""0"",""1965""
","
","null","<div style=""font-size:60px;"">+</div>","","null","fixation","2021-07-27 12:26:36.061","","","","",""
"","mars-trial","64","178084","0.0-10.0-1.25","231","""event"",""trial"",""time""
""fullscreenenter"",""0"",""1965""
","
","
","""event"",""trial"",""time""
""fullscreenenter"",""0"",""1965""
","
","5001.300000011921","<img style='border: 4px solid darkgrey;' src='img/tf1_26_M_ss1.jpeg'></img>","1","","exp","","2","<img src='img/tf1_26_T1_ss1_md.jpeg'></img>","0","false",""
"","html-keyboard-response","65","178587","0.0-10.0-0.26","231","""event"",""trial"",""time""
""fullscreenenter"",""0"",""1965""
","
","
","""event"",""trial"",""time""
""fullscreenenter"",""0"",""1965""
","
","null","<div style=""font-size:60px;"">+</div>","","null","fixation","2021-07-27 12:26:42.170","","","","",""
"","mars-trial","66","180732","0.0-10.0-1.26","231","""event"",""trial"",""time""
""fullscreenenter"",""0"",""1965""
","
","
","""event"",""trial"",""time""
""fullscreenenter"",""0"",""1965""
","
","1539.9000000357628","<img style='border: 4px solid darkgrey;' src='img/tf1_27_M_ss2.jpeg'></img>","1","","exp","","2","<img src='img/tf1_27_T1_ss2_md.jpeg'></img>","0","false",""
"","html-keyboard-response","67","181235","0.0-10.0-0.27","231","""event"",""trial"",""time""
""fullscreenenter"",""0"",""1965""
","
","
","""event"",""trial"",""time""
""fullscreenenter"",""0"",""1965""
","
","null","<div style=""font-size:60px;"">+</div>","","null","fixation","2021-07-27 12:26:44.818","","","","",""
"","mars-trial","68","183003","0.0-10.0-1.27","231","""event"",""trial"",""time""
""fullscreenenter"",""0"",""1965""
","
","
","""event"",""trial"",""time""
""fullscreenenter"",""0"",""1965""
","
","1163.0999999642372","<img style='border: 4px solid darkgrey;' src='img/tf1_28_M_ss3.jpeg'></img>","2","","exp","","1","<img src='img/tf1_28_T1_ss3_md.jpeg'></img>","0","false",""
"","html-keyboard-response","69","183505","0.0-10.0-0.28","231","""event"",""trial"",""time""
""fullscreenenter"",""0"",""1965""
","
","
","""event"",""trial"",""time""
""fullscreenenter"",""0"",""1965""
","
","null","<div style=""font-size:60px;"">+</div>","","null","fixation","2021-07-27 12:26:47.088","","","","",""
"","mars-trial","70","185475","0.0-10.0-1.28","231","""event"",""trial"",""time""
""fullscreenenter"",""0"",""1965""
","
","
","""event"",""trial"",""time""
""fullscreenenter"",""0"",""1965""
","
","1365.1000000238419","<img style='border: 4px solid darkgrey;' src='img/tf1_29_M_ss1.jpeg'></img>","3","","exp","","1","<img src='img/tf1_29_T1_ss1_md.jpeg'></img>","0","false",""
"","html-keyboard-response","71","185981","0.0-10.0-0.29","231","""event"",""trial"",""time""
""fullscreenenter"",""0"",""1965""
","
","
","""event"",""trial"",""time""
""fullscreenenter"",""0"",""1965""
","
","null","<div style=""font-size:60px;"">+</div>","","null","fixation","2021-07-27 12:26:49.564","","","","",""
"","mars-trial","72","188610","0.0-10.0-1.29","231","""event"",""trial"",""time""
""fullscreenenter"",""0"",""1965""
","
","
","""event"",""trial"",""time""
""fullscreenenter"",""0"",""1965""
","
","2024.199999988079","<img style='border: 4px solid darkgrey;' src='img/tf1_30_M_ss2.jpeg'></img>","2","","exp","","2","<img src='img/tf1_30_T1_ss2_md.jpeg'></img>","0","false",""
"","html-keyboard-response","73","189111","0.0-10.0-0.30","231","""event"",""trial"",""time""
""fullscreenenter"",""0"",""1965""
","
","
","""event"",""trial"",""time""
""fullscreenenter"",""0"",""1965""
","
","null","<div style=""font-size:60px;"">+</div>","","null","fixation","2021-07-27 12:26:52.695","","","","",""
"","mars-trial","74","191607","0.0-10.0-1.30","231","""event"",""trial"",""time""
""fullscreenenter"",""0"",""1965""
","
","
","""event"",""trial"",""time""
""fullscreenenter"",""0"",""1965""
","
","1889.3999999761581","<img style='border: 4px solid darkgrey;' src='img/tf1_31_M_ss3.jpeg'></img>","0","","exp","","1","<img src='img/tf1_31_T1_ss3_md.jpeg'></img>","0","false",""
"","html-keyboard-response","75","192108","0.0-10.0-0.31","231","""event"",""trial"",""time""
""fullscreenenter"",""0"",""1965""
","
","
","""event"",""trial"",""time""
""fullscreenenter"",""0"",""1965""
","
","null","<div style=""font-size:60px;"">+</div>","","null","fixation","2021-07-27 12:26:55.692","","","","",""
"","mars-trial","76","196299","0.0-10.0-1.31","231","""event"",""trial"",""time""
""fullscreenenter"",""0"",""1965""
","
","
","""event"",""trial"",""time""
""fullscreenenter"",""0"",""1965""
","
","3585.100000023842","<img style='border: 4px solid darkgrey;' src='img/tf1_32_M_ss1.jpeg'></img>","2","","exp","","1","<img src='img/tf1_32_T1_ss1_md.jpeg'></img>","0","false",""
"","html-keyboard-response","77","196801","0.0-10.0-0.32","231","""event"",""trial"",""time""
""fullscreenenter"",""0"",""1965""
","
","
","""event"",""trial"",""time""
""fullscreenenter"",""0"",""1965""
","
","null","<div style=""font-size:60px;"">+</div>","","null","fixation","2021-07-27 12:27:00.384","","","","",""
"","mars-trial","78","202100","0.0-10.0-1.32","231","""event"",""trial"",""time""
""fullscreenenter"",""0"",""1965""
","
","
","""event"",""trial"",""time""
""fullscreenenter"",""0"",""1965""
","
","4693.399999976158","<img style='border: 4px solid darkgrey;' src='img/tf1_33_M_ss2.jpeg'></img>","3","","exp","","0","<img src='img/tf1_33_T1_ss2_md.jpeg'></img>","0","true",""
"","html-keyboard-response","79","202602","0.0-10.0-0.33","231","""event"",""trial"",""time""
""fullscreenenter"",""0"",""1965""
","
","
","""event"",""trial"",""time""
""fullscreenenter"",""0"",""1965""
","
","null","<div style=""font-size:60px;"">+</div>","","null","fixation","2021-07-27 12:27:06.185","","","","",""
"","mars-trial","80","205730","0.0-10.0-1.33","231","""event"",""trial"",""time""
""fullscreenenter"",""0"",""1965""
","
","
","""event"",""trial"",""time""
""fullscreenenter"",""0"",""1965""
","
","2522.300000011921","<img style='border: 4px solid darkgrey;' src='img/tf1_34_M_ss3.jpeg'></img>","3","","exp","","0","<img src='img/tf1_34_T1_ss3_md.jpeg'></img>","0","true",""
"","html-keyboard-response","81","206232","0.0-10.0-0.34","231","""event"",""trial"",""time""
""fullscreenenter"",""0"",""1965""
","
","
","""event"",""trial"",""time""
""fullscreenenter"",""0"",""1965""
","
","null","<div style=""font-size:60px;"">+</div>","","null","fixation","2021-07-27 12:27:09.815","","","","",""
"","mars-trial","82","213790","0.0-10.0-1.34","231","""event"",""trial"",""time""
""fullscreenenter"",""0"",""1965""
","
","
","""event"",""trial"",""time""
""fullscreenenter"",""0"",""1965""
","
","6951.899999976158","<img style='border: 4px solid darkgrey;' src='img/tf1_35_M_ss1.jpeg'></img>","2","","exp","","0","<img src='img/tf1_35_T1_ss1_md.jpeg'></img>","0","true",""
"","html-keyboard-response","83","214293","0.0-10.0-0.35","231","""event"",""trial"",""time""
""fullscreenenter"",""0"",""1965""
","
","
","""event"",""trial"",""time""
""fullscreenenter"",""0"",""1965""
","
","null","<div style=""font-size:60px;"">+</div>","","null","fixation","2021-07-27 12:27:17.876","","","","",""
"","mars-trial","84","219898","0.0-10.0-1.35","231","""event"",""trial"",""time""
""fullscreenenter"",""0"",""1965""
","
","
","""event"",""trial"",""time""
""fullscreenenter"",""0"",""1965""
","
","4998.699999988079","<img style='border: 4px solid darkgrey;' src='img/tf1_36_M_ss2.jpeg'></img>","2","","exp","","0","<img src='img/tf1_36_T1_ss2_md.jpeg'></img>","0","true",""
"","html-keyboard-response","85","220401","0.0-10.0-0.36","231","""event"",""trial"",""time""
""fullscreenenter"",""0"",""1965""
","
","
","""event"",""trial"",""time""
""fullscreenenter"",""0"",""1965""
","
","null","<div style=""font-size:60px;"">+</div>","","null","fixation","2021-07-27 12:27:23.984","","","","",""
"","mars-trial","86","229046","0.0-10.0-1.36","231","""event"",""trial"",""time""
""fullscreenenter"",""0"",""1965""
","
","
","""event"",""trial"",""time""
""fullscreenenter"",""0"",""1965""
","
","8039.699999988079","<img style='border: 4px solid darkgrey;' src='img/tf1_37_M_ss3.jpeg'></img>","3","","exp","","1","<img src='img/tf1_37_T1_ss3_md.jpeg'></img>","0","false",""
"","html-keyboard-response","87","229549","0.0-10.0-0.37","231","""event"",""trial"",""time""
""fullscreenenter"",""0"",""1965""
","
","
","""event"",""trial"",""time""
""fullscreenenter"",""0"",""1965""
","
","null","<div style=""font-size:60px;"">+</div>","","null","fixation","2021-07-27 12:27:33.132","","","","",""
"","mars-trial","88","232764","0.0-10.0-1.37","231","""event"",""trial"",""time""
""fullscreenenter"",""0"",""1965""
","
","
","""event"",""trial"",""time""
""fullscreenenter"",""0"",""1965""
","
","2609","<img style='border: 4px solid darkgrey;' src='img/tf1_38_M_ss1.jpeg'></img>","3","","exp","","0","<img src='img/tf1_38_T1_ss1_md.jpeg'></img>","0","true",""
"","html-keyboard-response","89","233266","0.0-10.0-0.38","231","""event"",""trial"",""time""
""fullscreenenter"",""0"",""1965""
","
","
","""event"",""trial"",""time""
""fullscreenenter"",""0"",""1965""
","
","null","<div style=""font-size:60px;"">+</div>","","null","fixation","2021-07-27 12:27:36.849","","","","",""
"","mars-trial","90","240354","0.0-10.0-1.38","231","""event"",""trial"",""time""
""fullscreenenter"",""0"",""1965""
","
","
","""event"",""trial"",""time""
""fullscreenenter"",""0"",""1965""
","
","6482.400000035763","<img style='border: 4px solid darkgrey;' src='img/tf1_39_M_ss2.jpeg'></img>","1","","exp","","0","<img src='img/tf1_39_T1_ss2_md.jpeg'></img>","0","true",""
"","html-keyboard-response","91","240868","0.0-10.0-0.39","231","""event"",""trial"",""time""
""fullscreenenter"",""0"",""1965""
","
","
","""event"",""trial"",""time""
""fullscreenenter"",""0"",""1965""
","
","null","<div style=""font-size:60px;"">+</div>","","null","fixation","2021-07-27 12:27:44.451","","","","",""
"","mars-trial","92","246366","0.0-10.0-1.39","231","""event"",""trial"",""time""
""fullscreenenter"",""0"",""1965""
","
","
","""event"",""trial"",""time""
""fullscreenenter"",""0"",""1965""
","
","4891.899999976158","<img style='border: 4px solid darkgrey;' src='img/tf1_40_M_ss3.jpeg'></img>","2","","exp","","3","<img src='img/tf1_40_T1_ss3_md.jpeg'></img>","0","false",""
"","html-keyboard-response","93","246869","0.0-10.0-0.40","231","""event"",""trial"",""time""
""fullscreenenter"",""0"",""1965""
","
","
","""event"",""trial"",""time""
""fullscreenenter"",""0"",""1965""
","
","null","<div style=""font-size:60px;"">+</div>","","null","fixation","2021-07-27 12:27:50.452","","","","",""
"","mars-trial","94","251266","0.0-10.0-1.40","231","""event"",""trial"",""time""
""fullscreenenter"",""0"",""1965""
","
","
","""event"",""trial"",""time""
""fullscreenenter"",""0"",""1965""
","
","3791.100000023842","<img style='border: 4px solid darkgrey;' src='img/tf1_41_M_ss1.jpeg'></img>","3","","exp","","0","<img src='img/tf1_41_T1_ss1_md.jpeg'></img>","0","true",""
"","html-keyboard-response","95","251768","0.0-10.0-0.41","231","""event"",""trial"",""time""
""fullscreenenter"",""0"",""1965""
","
","
","""event"",""trial"",""time""
""fullscreenenter"",""0"",""1965""
","
","null","<div style=""font-size:60px;"">+</div>","","null","fixation","2021-07-27 12:27:55.351","","","","",""
"","mars-trial","96","265064","0.0-10.0-1.41","231","""event"",""trial"",""time""
""fullscreenenter"",""0"",""1965""
","
","
","""event"",""trial"",""time""
""fullscreenenter"",""0"",""1965""
","
","12689.399999976158","<img style='border: 4px solid darkgrey;' src='img/tf1_42_M_ss2.jpeg'></img>","2","","exp","","0","<img src='img/tf1_42_T1_ss2_md.jpeg'></img>","0","true",""
"","html-keyboard-response","97","265566","0.0-10.0-0.42","231","""event"",""trial"",""time""
""fullscreenenter"",""0"",""1965""
","
","
","""event"",""trial"",""time""
""fullscreenenter"",""0"",""1965""
","
","null","<div style=""font-size:60px;"">+</div>","","null","fixation","2021-07-27 12:28:09.149","","","","",""
"","mars-trial","98","275527","0.0-10.0-1.42","231","""event"",""trial"",""time""
""fullscreenenter"",""0"",""1965""
","
","
","""event"",""trial"",""time""
""fullscreenenter"",""0"",""1965""
","
","9354.900000035763","<img style='border: 4px solid darkgrey;' src='img/tf1_43_M_ss3.jpeg'></img>","0","","exp","","0","<img src='img/tf1_43_T1_ss3_md.jpeg'></img>","0","true",""
"","html-keyboard-response","99","276029","0.0-10.0-0.43","231","""event"",""trial"",""time""
""fullscreenenter"",""0"",""1965""
","
","
","""event"",""trial"",""time""
""fullscreenenter"",""0"",""1965""
","
","null","<div style=""font-size:60px;"">+</div>","","null","fixation","2021-07-27 12:28:19.613","","","","",""
"","mars-trial","100","287331","0.0-10.0-1.43","231","""event"",""trial"",""time""
""fullscreenenter"",""0"",""1965""
","
","
","""event"",""trial"",""time""
""fullscreenenter"",""0"",""1965""
","
","10695.199999988079","<img style='border: 4px solid darkgrey;' src='img/tf1_44_M_ss1.jpeg'></img>","1","","exp","","0","<img src='img/tf1_44_T1_ss1_md.jpeg'></img>","0","true",""
"","html-keyboard-response","101","287834","0.0-10.0-0.44","231","""event"",""trial"",""time""
""fullscreenenter"",""0"",""1965""
","
","
","""event"",""trial"",""time""
""fullscreenenter"",""0"",""1965""
","
","null","<div style=""font-size:60px;"">+</div>","","null","fixation","2021-07-27 12:28:31.417","","","","",""
"","mars-trial","102","295760","0.0-10.0-1.44","231","""event"",""trial"",""time""
""fullscreenenter"",""0"",""1965""
","
","
","""event"",""trial"",""time""
""fullscreenenter"",""0"",""1965""
","
","7317.299999952316","<img style='border: 4px solid darkgrey;' src='img/tf1_45_M_ss2.jpeg'></img>","3","","exp","","0","<img src='img/tf1_45_T1_ss2_md.jpeg'></img>","0","true",""
"","html-keyboard-response","103","296264","0.0-10.0-0.45","231","""event"",""trial"",""time""
""fullscreenenter"",""0"",""1965""
","
","
","""event"",""trial"",""time""
""fullscreenenter"",""0"",""1965""
","
","null","<div style=""font-size:60px;"">+</div>","","null","fixation","2021-07-27 12:28:39.848","","","","",""
"","mars-trial","104","304516","0.0-10.0-1.45","231","""event"",""trial"",""time""
""fullscreenenter"",""0"",""1965""
","
","
","""event"",""trial"",""time""
""fullscreenenter"",""0"",""1965""
","
","7644.299999952316","<img style='border: 4px solid darkgrey;' src='img/tf1_46_M_ss3.jpeg'></img>","1","","exp","","0","<img src='img/tf1_46_T1_ss3_md.jpeg'></img>","0","true",""
"","html-keyboard-response","105","305019","0.0-10.0-0.46","231","""event"",""trial"",""time""
""fullscreenenter"",""0"",""1965""
","
","
","""event"",""trial"",""time""
""fullscreenenter"",""0"",""1965""
","
","null","<div style=""font-size:60px;"">+</div>","","null","fixation","2021-07-27 12:28:48.602","","","","",""
"","mars-trial","106","317739","0.0-10.0-1.46","231","""event"",""trial"",""time""
""fullscreenenter"",""0"",""1965""
","
","
","""event"",""trial"",""time""
""fullscreenenter"",""0"",""1965""
","
","12113.300000011921","<img style='border: 4px solid darkgrey;' src='img/tf1_47_M_ss1.jpeg'></img>","2","","exp","","0","<img src='img/tf1_47_T1_ss1_md.jpeg'></img>","0","true",""
"","html-keyboard-response","107","318242","0.0-10.0-0.47","231","""event"",""trial"",""time""
""fullscreenenter"",""0"",""1965""
","
","
","""event"",""trial"",""time""
""fullscreenenter"",""0"",""1965""
","
","null","<div style=""font-size:60px;"">+</div>","","null","fixation","2021-07-27 12:29:01.825","","","","",""
"","mars-trial","108","323376","0.0-10.0-1.47","231","""event"",""trial"",""time""
""fullscreenenter"",""0"",""1965""
","
","
","""event"",""trial"",""time""
""fullscreenenter"",""0"",""1965""
","
","4525.399999976158","<img style='border: 4px solid darkgrey;' src='img/tf1_48_M_ss2.jpeg'></img>","3","","exp","","0","<img src='img/tf1_48_T1_ss2_md.jpeg'></img>","0","true",""
"","html-keyboard-response","109","323879","0.0-10.0-0.48","231","""event"",""trial"",""time""
""fullscreenenter"",""0"",""1965""
","
","
","""event"",""trial"",""time""
""fullscreenenter"",""0"",""1965""
","
","null","<div style=""font-size:60px;"">+</div>","","null","fixation","2021-07-27 12:29:07.462","","","","",""
"","mars-trial","110","327608","0.0-10.0-1.48","231","""event"",""trial"",""time""
""fullscreenenter"",""0"",""1965""
","
","
","""event"",""trial"",""time""
""fullscreenenter"",""0"",""1965""
","
","3122.699999988079","<img style='border: 4px solid darkgrey;' src='img/tf1_49_M_ss3.jpeg'></img>","1","","exp","","0","<img src='img/tf1_49_T1_ss3_md.jpeg'></img>","0","true",""
"","html-keyboard-response","111","328109","0.0-10.0-0.49","231","""event"",""trial"",""time""
""fullscreenenter"",""0"",""1965""
","
","
","""event"",""trial"",""time""
""fullscreenenter"",""0"",""1965""
","
","null","<div style=""font-size:60px;"">+</div>","","null","fixation","2021-07-27 12:29:11.693","","","","",""
"","mars-trial","112","333254","0.0-10.0-1.49","231","""event"",""trial"",""time""
""fullscreenenter"",""0"",""1965""
","
","
","""event"",""trial"",""time""
""fullscreenenter"",""0"",""1965""
","
","4539","<img style='border: 4px solid darkgrey;' src='img/tf1_50_M_ss1.jpeg'></img>","0","","exp","","0","<img src='img/tf1_50_T1_ss1_md.jpeg'></img>","0","true",""
"","html-keyboard-response","113","333760","0.0-10.0-0.50","231","""event"",""trial"",""time""
""fullscreenenter"",""0"",""1965""
","
","
","""event"",""trial"",""time""
""fullscreenenter"",""0"",""1965""
","
","null","<div style=""font-size:60px;"">+</div>","","null","fixation","2021-07-27 12:29:17.343","","","","",""
"","mars-trial","114","338765","0.0-10.0-1.50","231","""event"",""trial"",""time""
""fullscreenenter"",""0"",""1965""
","
","
","""event"",""trial"",""time""
""fullscreenenter"",""0"",""1965""
","
","4401.5","<img style='border: 4px solid darkgrey;' src='img/tf1_51_M_ss2.jpeg'></img>","3","","exp","","0","<img src='img/tf1_51_T1_ss2_md.jpeg'></img>","0","true",""
"","html-keyboard-response","115","339266","0.0-10.0-0.51","231","""event"",""trial"",""time""
""fullscreenenter"",""0"",""1965""
","
","
","""event"",""trial"",""time""
""fullscreenenter"",""0"",""1965""
","
","null","<div style=""font-size:60px;"">+</div>","","null","fixation","2021-07-27 12:29:22.849","","","","",""
"","mars-trial","116","342836","0.0-10.0-1.51","231","""event"",""trial"",""time""
""fullscreenenter"",""0"",""1965""
","
","
","""event"",""trial"",""time""
""fullscreenenter"",""0"",""1965""
","
","2964.400000035763","<img style='border: 4px solid darkgrey;' src='img/tf1_52_M_ss3.jpeg'></img>","2","","exp","","2","<img src='img/tf1_52_T1_ss3_md.jpeg'></img>","0","false",""
"","html-keyboard-response","117","343338","0.0-10.0-0.52","231","""event"",""trial"",""time""
""fullscreenenter"",""0"",""1965""
","
","
","""event"",""trial"",""time""
""fullscreenenter"",""0"",""1965""
","
","null","<div style=""font-size:60px;"">+</div>","","null","fixation","2021-07-27 12:29:26.922","","","","",""
"","mars-trial","118","355381","0.0-10.0-1.52","231","""event"",""trial"",""time""
""fullscreenenter"",""0"",""1965""
","
","
","""event"",""trial"",""time""
""fullscreenenter"",""0"",""1965""
","
","11439.099999964237","<img style='border: 4px solid darkgrey;' src='img/tf1_53_M_ss1.jpeg'></img>","2","","exp","","0","<img src='img/tf1_53_T1_ss1_md.jpeg'></img>","0","true",""
"","html-keyboard-response","119","355882","0.0-10.0-0.53","231","""event"",""trial"",""time""
""fullscreenenter"",""0"",""1965""
","
","
","""event"",""trial"",""time""
""fullscreenenter"",""0"",""1965""
","
","null","<div style=""font-size:60px;"">+</div>","","null","fixation","2021-07-27 12:29:39.465","","","","",""
"","mars-trial","120","364491","0.0-10.0-1.53","231","""event"",""trial"",""time""
""fullscreenenter"",""0"",""1965""
","
","
","""event"",""trial"",""time""
""fullscreenenter"",""0"",""1965""
","
","8004.699999988079","<img style='border: 4px solid darkgrey;' src='img/tf1_54_M_ss2.jpeg'></img>","0","","exp","","0","<img src='img/tf1_54_T1_ss2_md.jpeg'></img>","0","true",""
"","html-keyboard-response","121","364993","0.0-10.0-0.54","231","""event"",""trial"",""time""
""fullscreenenter"",""0"",""1965""
","
","
","""event"",""trial"",""time""
""fullscreenenter"",""0"",""1965""
","
","null","<div style=""font-size:60px;"">+</div>","","null","fixation","2021-07-27 12:29:48.576","","","","",""
"","mars-trial","122","375283","0.0-10.0-1.54","231","""event"",""trial"",""time""
""fullscreenenter"",""0"",""1965""
","
","
","""event"",""trial"",""time""
""fullscreenenter"",""0"",""1965""
","
","9687.199999988079","<img style='border: 4px solid darkgrey;' src='img/tf1_55_M_ss3.jpeg'></img>","3","","exp","","2","<img src='img/tf1_55_T1_ss3_md.jpeg'></img>","0","false",""
"","html-keyboard-response","123","375786","0.0-10.0-0.55","231","""event"",""trial"",""time""
""fullscreenenter"",""0"",""1965""
","
","
","""event"",""trial"",""time""
""fullscreenenter"",""0"",""1965""
","
","null","<div style=""font-size:60px;"">+</div>","","null","fixation","2021-07-27 12:29:59.369","","","","",""
"","mars-trial","124","381161","0.0-10.0-1.55","231","""event"",""trial"",""time""
""fullscreenenter"",""0"",""1965""
","
","
","""event"",""trial"",""time""
""fullscreenenter"",""0"",""1965""
","
","4769.5","<img style='border: 4px solid darkgrey;' src='img/tf1_56_M_ss1.jpeg'></img>","3","","exp","","0","<img src='img/tf1_56_T1_ss1_md.jpeg'></img>","0","true",""
"","html-keyboard-response","125","381663","0.0-10.0-0.56","231","""event"",""trial"",""time""
""fullscreenenter"",""0"",""1965""
","
","
","""event"",""trial"",""time""
""fullscreenenter"",""0"",""1965""
","
","null","<div style=""font-size:60px;"">+</div>","","null","fixation","2021-07-27 12:30:05.246","","","","",""
"","mars-trial","126","385094","0.0-10.0-1.56","231","""event"",""trial"",""time""
""fullscreenenter"",""0"",""1965""
","
","
","""event"",""trial"",""time""
""fullscreenenter"",""0"",""1965""
","
","2827.199999988079","<img style='border: 4px solid darkgrey;' src='img/tf1_57_M_ss2.jpeg'></img>","2","","exp","","0","<img src='img/tf1_57_T1_ss2_md.jpeg'></img>","0","true",""
"","html-keyboard-response","127","385596","0.0-10.0-0.57","231","""event"",""trial"",""time""
""fullscreenenter"",""0"",""1965""
","
","
","""event"",""trial"",""time""
""fullscreenenter"",""0"",""1965""
","
","null","<div style=""font-size:60px;"">+</div>","","null","fixation","2021-07-27 12:30:09.179","","","","",""
"","mars-trial","128","390068","0.0-10.0-1.57","231","""event"",""trial"",""time""
""fullscreenenter"",""0"",""1965""
","
","
","""event"",""trial"",""time""
""fullscreenenter"",""0"",""1965""
","
","3869.199999988079","<img style='border: 4px solid darkgrey;' src='img/tf1_58_M_ss3.jpeg'></img>","1","","exp","","0","<img src='img/tf1_58_T1_ss3_md.jpeg'></img>","0","true",""
"","html-keyboard-response","129","390570","0.0-10.0-0.58","231","""event"",""trial"",""time""
""fullscreenenter"",""0"",""1965""
","
","
","""event"",""trial"",""time""
""fullscreenenter"",""0"",""1965""
","
","null","<div style=""font-size:60px;"">+</div>","","null","fixation","2021-07-27 12:30:14.154","","","","",""
"","mars-trial","130","394850","0.0-10.0-1.58","231","""event"",""trial"",""time""
""fullscreenenter"",""0"",""1965""
","
","
","""event"",""trial"",""time""
""fullscreenenter"",""0"",""1965""
","
","3674.599999964237","<img style='border: 4px solid darkgrey;' src='img/tf1_59_M_ss1.jpeg'></img>","2","","exp","","3","<img src='img/tf1_59_T1_ss1_md.jpeg'></img>","0","false",""
"","html-keyboard-response","131","395352","0.0-10.0-0.59","231","""event"",""trial"",""time""
""fullscreenenter"",""0"",""1965""
","
","
","""event"",""trial"",""time""
""fullscreenenter"",""0"",""1965""
","
","null","<div style=""font-size:60px;"">+</div>","","null","fixation","2021-07-27 12:30:18.935","","","","",""
"","mars-trial","132","403237","0.0-10.0-1.59","231","""event"",""trial"",""time""
""fullscreenenter"",""0"",""1965""
","
","
","""event"",""trial"",""time""
""fullscreenenter"",""0"",""1965""
","
","7280.900000035763","<img style='border: 4px solid darkgrey;' src='img/tf1_60_M_ss2.jpeg'></img>","2","","exp","","0","<img src='img/tf1_60_T1_ss2_md.jpeg'></img>","0","true",""
"","html-keyboard-response","133","403738","0.0-10.0-0.60","231","""event"",""trial"",""time""
""fullscreenenter"",""0"",""1965""
","
","
","""event"",""trial"",""time""
""fullscreenenter"",""0"",""1965""
","
","null","<div style=""font-size:60px;"">+</div>","","null","fixation","2021-07-27 12:30:27.321","","","","",""
"","mars-trial","134","408576","0.0-10.0-1.60","231","""event"",""trial"",""time""
""fullscreenenter"",""0"",""1965""
","
","
","""event"",""trial"",""time""
""fullscreenenter"",""0"",""1965""
","
","4234.300000011921","<img style='border: 4px solid darkgrey;' src='img/tf1_61_M_ss3.jpeg'></img>","0","","exp","","0","<img src='img/tf1_61_T1_ss3_md.jpeg'></img>","0","true",""
"","html-keyboard-response","135","409079","0.0-10.0-0.61","231","""event"",""trial"",""time""
""fullscreenenter"",""0"",""1965""
","
","
","""event"",""trial"",""time""
""fullscreenenter"",""0"",""1965""
","
","null","<div style=""font-size:60px;"">+</div>","","null","fixation","2021-07-27 12:30:32.662","","","","",""
"","mars-trial","136","416109","0.0-10.0-1.61","231","""event"",""trial"",""time""
""fullscreenenter"",""0"",""1965""
","
","
","""event"",""trial"",""time""
""fullscreenenter"",""0"",""1965""
","
","6423.900000035763","<img style='border: 4px solid darkgrey;' src='img/tf1_62_M_ss1.jpeg'></img>","2","","exp","","0","<img src='img/tf1_62_T1_ss1_md.jpeg'></img>","0","true",""
"","html-keyboard-response","137","416612","0.0-10.0-0.62","231","""event"",""trial"",""time""
""fullscreenenter"",""0"",""1965""
","
","
","""event"",""trial"",""time""
""fullscreenenter"",""0"",""1965""
","
","null","<div style=""font-size:60px;"">+</div>","","null","fixation","2021-07-27 12:30:40.195","","","","",""
"","mars-trial","138","423198","0.0-10.0-1.62","231","""event"",""trial"",""time""
""fullscreenenter"",""0"",""1965""
","
","
","""event"",""trial"",""time""
""fullscreenenter"",""0"",""1965""
","
","5979.199999988079","<img style='border: 4px solid darkgrey;' src='img/tf1_63_M_ss2.jpeg'></img>","2","","exp","","0","<img src='img/tf1_63_T1_ss2_md.jpeg'></img>","0","true",""
"","html-keyboard-response","139","423701","0.0-10.0-0.63","231","""event"",""trial"",""time""
""fullscreenenter"",""0"",""1965""
","
","
","""event"",""trial"",""time""
""fullscreenenter"",""0"",""1965""
","
","null","<div style=""font-size:60px;"">+</div>","","null","fixation","2021-07-27 12:30:47.284","","","","",""
"","mars-trial","140","426455","0.0-10.0-1.63","231","""event"",""trial"",""time""
""fullscreenenter"",""0"",""1965""
","
","
","""event"",""trial"",""time""
""fullscreenenter"",""0"",""1965""
","
","2146.599999964237","<img style='border: 4px solid darkgrey;' src='img/tf1_64_M_ss3.jpeg'></img>","2","","exp","","2","<img src='img/tf1_64_T1_ss3_md.jpeg'></img>","0","false",""
"","html-keyboard-response","141","426970","0.0-10.0-0.64","231","""event"",""trial"",""time""
""fullscreenenter"",""0"",""1965""
","
","
","""event"",""trial"",""time""
""fullscreenenter"",""0"",""1965""
","
","null","<div style=""font-size:60px;"">+</div>","","null","fixation","2021-07-27 12:30:50.553","","","","",""
"","mars-trial","142","431569","0.0-10.0-1.64","231","""event"",""trial"",""time""
""fullscreenenter"",""0"",""1965""
","
","
","""event"",""trial"",""time""
""fullscreenenter"",""0"",""1965""
","
","3991.699999988079","<img style='border: 4px solid darkgrey;' src='img/tf1_65_M_ss1.jpeg'></img>","1","","exp","","0","<img src='img/tf1_65_T1_ss1_md.jpeg'></img>","0","true",""
"","html-keyboard-response","143","432073","0.0-10.0-0.65","231","""event"",""trial"",""time""
""fullscreenenter"",""0"",""1965""
","
","
","""event"",""trial"",""time""
""fullscreenenter"",""0"",""1965""
","
","null","<div style=""font-size:60px;"">+</div>","","null","fixation","2021-07-27 12:30:55.656","","","","",""
"","mars-trial","144","437457","0.0-10.0-1.65","231","""event"",""trial"",""time""
""fullscreenenter"",""0"",""1965""
","
","
","""event"",""trial"",""time""
""fullscreenenter"",""0"",""1965""
","
","4778.399999976158","<img style='border: 4px solid darkgrey;' src='img/tf1_66_M_ss2.jpeg'></img>","1","","exp","","2","<img src='img/tf1_66_T1_ss2_md.jpeg'></img>","0","false",""
"","html-keyboard-response","145","437960","0.0-10.0-0.66","231","""event"",""trial"",""time""
""fullscreenenter"",""0"",""1965""
","
","
","""event"",""trial"",""time""
""fullscreenenter"",""0"",""1965""
","
","null","<div style=""font-size:60px;"">+</div>","","null","fixation","2021-07-27 12:31:01.543","","","","",""
"","mars-trial","146","442405","0.0-10.0-1.66","231","""event"",""trial"",""time""
""fullscreenenter"",""0"",""1965""
","
","
","""event"",""trial"",""time""
""fullscreenenter"",""0"",""1965""
","
","3839.300000011921","<img style='border: 4px solid darkgrey;' src='img/tf1_67_M_ss3.jpeg'></img>","3","","exp","","1","<img src='img/tf1_67_T1_ss3_md.jpeg'></img>","0","false",""
"","html-keyboard-response","147","442908","0.0-10.0-0.67","231","""event"",""trial"",""time""
""fullscreenenter"",""0"",""1965""
","
","
","""event"",""trial"",""time""
""fullscreenenter"",""0"",""1965""
","
","null","<div style=""font-size:60px;"">+</div>","","null","fixation","2021-07-27 12:31:06.491","","","","",""
"","mars-trial","148","444798","0.0-10.0-1.67","231","""event"",""trial"",""time""
""fullscreenenter"",""0"",""1965""
","
","
","""event"",""trial"",""time""
""fullscreenenter"",""0"",""1965""
","
","1283","<img style='border: 4px solid darkgrey;' src='img/tf1_68_M_ss1.jpeg'></img>","1","","exp","","0","<img src='img/tf1_68_T1_ss1_md.jpeg'></img>","0","true",""
"","html-keyboard-response","149","445301","0.0-10.0-0.68","231","""event"",""trial"",""time""
""fullscreenenter"",""0"",""1965""
","
","
","""event"",""trial"",""time""
""fullscreenenter"",""0"",""1965""
","
","null","<div style=""font-size:60px;"">+</div>","","null","fixation","2021-07-27 12:31:08.884","","","","",""
"","mars-trial","150","447634","0.0-10.0-1.68","231","""event"",""trial"",""time""
""fullscreenenter"",""0"",""1965""
","
","
","""event"",""trial"",""time""
""fullscreenenter"",""0"",""1965""
","
","1728.5999999642372","<img style='border: 4px solid darkgrey;' src='img/tf1_69_M_ss2.jpeg'></img>","2","","exp","","3","<img src='img/tf1_69_T1_ss2_md.jpeg'></img>","0","false",""
"","html-keyboard-response","151","448136","0.0-10.0-0.69","231","""event"",""trial"",""time""
""fullscreenenter"",""0"",""1965""
","
","
","""event"",""trial"",""time""
""fullscreenenter"",""0"",""1965""
","
","null","<div style=""font-size:60px;"">+</div>","","null","fixation","2021-07-27 12:31:11.719","","","","",""
"","mars-trial","152","452696","0.0-10.0-1.69","231","""event"",""trial"",""time""
""fullscreenenter"",""0"",""1965""
","
","
","""event"",""trial"",""time""
""fullscreenenter"",""0"",""1965""
","
","3954.5","<img style='border: 4px solid darkgrey;' src='img/tf1_70_M_ss3.jpeg'></img>","2","","exp","","0","<img src='img/tf1_70_T1_ss3_md.jpeg'></img>","0","true",""
"","html-keyboard-response","153","453204","0.0-10.0-0.70","231","""event"",""trial"",""time""
""fullscreenenter"",""0"",""1965""
","
","
","""event"",""trial"",""time""
""fullscreenenter"",""0"",""1965""
","
","null","<div style=""font-size:60px;"">+</div>","","null","fixation","2021-07-27 12:31:16.787","","","","",""
"","mars-trial","154","457782","0.0-10.0-1.70","231","""event"",""trial"",""time""
""fullscreenenter"",""0"",""1965""
","
","
","""event"",""trial"",""time""
""fullscreenenter"",""0"",""1965""
","
","3971.100000023842","<img style='border: 4px solid darkgrey;' src='img/tf1_71_M_ss1.jpeg'></img>","3","","exp","","0","<img src='img/tf1_71_T1_ss1_md.jpeg'></img>","0","true",""
"","html-keyboard-response","155","458284","0.0-10.0-0.71","231","""event"",""trial"",""time""
""fullscreenenter"",""0"",""1965""
","
","
","""event"",""trial"",""time""
""fullscreenenter"",""0"",""1965""
","
","null","<div style=""font-size:60px;"">+</div>","","null","fixation","2021-07-27 12:31:21.867","","","","",""
"","mars-trial","156","465359","0.0-10.0-1.71","231","""event"",""trial"",""time""
""fullscreenenter"",""0"",""1965""
","
","
","""event"",""trial"",""time""
""fullscreenenter"",""0"",""1965""
","
","6468.400000035763","<img style='border: 4px solid darkgrey;' src='img/tf1_72_M_ss2.jpeg'></img>","0","","exp","","0","<img src='img/tf1_72_T1_ss2_md.jpeg'></img>","0","true",""
"","html-keyboard-response","157","465861","0.0-10.0-0.72","231","""event"",""trial"",""time""
""fullscreenenter"",""0"",""1965""
","
","
","""event"",""trial"",""time""
""fullscreenenter"",""0"",""1965""
","
","null","<div style=""font-size:60px;"">+</div>","","null","fixation","2021-07-27 12:31:29.444","","","","",""
"","mars-trial","158","471359","0.0-10.0-1.72","231","""event"",""trial"",""time""
""fullscreenenter"",""0"",""1965""
","
","
","""event"",""trial"",""time""
""fullscreenenter"",""0"",""1965""
","
","4892.100000023842","<img style='border: 4px solid darkgrey;' src='img/tf1_73_M_ss3.jpeg'></img>","2","","exp","","0","<img src='img/tf1_73_T1_ss3_md.jpeg'></img>","0","true",""
"","html-keyboard-response","159","471862","0.0-10.0-0.73","231","""event"",""trial"",""time""
""fullscreenenter"",""0"",""1965""
","
","
","""event"",""trial"",""time""
""fullscreenenter"",""0"",""1965""
","
","null","<div style=""font-size:60px;"">+</div>","","null","fixation","2021-07-27 12:31:35.445","","","","",""
"","mars-trial","160","478942","0.0-10.0-1.73","231","""event"",""trial"",""time""
""fullscreenenter"",""0"",""1965""
","
","
","""event"",""trial"",""time""
""fullscreenenter"",""0"",""1965""
","
","6473.300000011921","<img style='border: 4px solid darkgrey;' src='img/tf1_74_M_ss1.jpeg'></img>","3","","exp","","0","<img src='img/tf1_74_T1_ss1_md.jpeg'></img>","0","true",""
"","html-keyboard-response","161","479444","0.0-10.0-0.74","231","""event"",""trial"",""time""
""fullscreenenter"",""0"",""1965""
","
","
","""event"",""trial"",""time""
""fullscreenenter"",""0"",""1965""
","
","null","<div style=""font-size:60px;"">+</div>","","null","fixation","2021-07-27 12:31:43.027","","","","",""
"","mars-trial","162","483299","0.0-10.0-1.74","231","""event"",""trial"",""time""
""fullscreenenter"",""0"",""1965""
","
","
","""event"",""trial"",""time""
""fullscreenenter"",""0"",""1965""
","
","3246.800000011921","<img style='border: 4px solid darkgrey;' src='img/tf1_75_M_ss2.jpeg'></img>","2","","exp","","0","<img src='img/tf1_75_T1_ss2_md.jpeg'></img>","0","true",""
"","html-keyboard-response","163","483802","0.0-10.0-0.75","231","""event"",""trial"",""time""
""fullscreenenter"",""0"",""1965""
","
","
","""event"",""trial"",""time""
""fullscreenenter"",""0"",""1965""
","
","null","<div style=""font-size:60px;"">+</div>","","null","fixation","2021-07-27 12:31:47.385","","","","",""
"","mars-trial","164","487530","0.0-10.0-1.75","231","""event"",""trial"",""time""
""fullscreenenter"",""0"",""1965""
","
","
","""event"",""trial"",""time""
""fullscreenenter"",""0"",""1965""
","
","3121.800000011921","<img style='border: 4px solid darkgrey;' src='img/tf1_76_M_ss3.jpeg'></img>","1","","exp","","0","<img src='img/tf1_76_T1_ss3_md.jpeg'></img>","0","true",""
"","html-keyboard-response","165","488032","0.0-10.0-0.76","231","""event"",""trial"",""time""
""fullscreenenter"",""0"",""1965""
","
","
","""event"",""trial"",""time""
""fullscreenenter"",""0"",""1965""
","
","null","<div style=""font-size:60px;"">+</div>","","null","fixation","2021-07-27 12:31:51.616","","","","",""
"","mars-trial","166","496256","0.0-10.0-1.76","231","""event"",""trial"",""time""
""fullscreenenter"",""0"",""1965""
","
","
","""event"",""trial"",""time""
""fullscreenenter"",""0"",""1965""
","
","7617","<img style='border: 4px solid darkgrey;' src='img/tf1_77_M_ss1.jpeg'></img>","1","","exp","","0","<img src='img/tf1_77_T1_ss1_md.jpeg'></img>","0","true",""
"","html-keyboard-response","167","496758","0.0-10.0-0.77","231","""event"",""trial"",""time""
""fullscreenenter"",""0"",""1965""
","
","
","""event"",""trial"",""time""
""fullscreenenter"",""0"",""1965""
","
","null","<div style=""font-size:60px;"">+</div>","","null","fixation","2021-07-27 12:32:00.341","","","","",""
"","mars-trial","168","500228","0.0-10.0-1.77","231","""event"",""trial"",""time""
""fullscreenenter"",""0"",""1965""
","
","
","""event"",""trial"",""time""
""fullscreenenter"",""0"",""1965""
","
","2862.5","<img style='border: 4px solid darkgrey;' src='img/tf1_78_M_ss2.jpeg'></img>","2","","exp","","3","<img src='img/tf1_78_T1_ss2_md.jpeg'></img>","0","false",""
"","html-keyboard-response","169","500730","0.0-10.0-0.78","231","""event"",""trial"",""time""
""fullscreenenter"",""0"",""1965""
","
","
","""event"",""trial"",""time""
""fullscreenenter"",""0"",""1965""
","
","null","<div style=""font-size:60px;"">+</div>","","null","fixation","2021-07-27 12:32:04.313","","","","",""
"","mars-trial","170","508488","0.0-10.0-1.78","231","""event"",""trial"",""time""
""fullscreenenter"",""0"",""1965""
","
","
","""event"",""trial"",""time""
""fullscreenenter"",""0"",""1965""
","
","7150","<img style='border: 4px solid darkgrey;' src='img/tf1_79_M_ss3.jpeg'></img>","3","","exp","","3","<img src='img/tf1_79_T1_ss3_md.jpeg'></img>","0","false",""
"","html-keyboard-response","171","508990","0.0-10.0-0.79","231","""event"",""trial"",""time""
""fullscreenenter"",""0"",""1965""
","
","
","""event"",""trial"",""time""
""fullscreenenter"",""0"",""1965""
","
","null","<div style=""font-size:60px;"">+</div>","","null","fixation","2021-07-27 12:32:12.573","","","","",""
"","mars-trial","172","511412","0.0-10.0-1.79","231","""event"",""trial"",""time""
""fullscreenenter"",""0"",""1965""
","
","
","""event"",""trial"",""time""
""fullscreenenter"",""0"",""1965""
","
","","","","","exp","","","<img src='img/tf1_80_T1_ss1_md.jpeg'></img>","0","false",""
"","audio-button-response","173","514156","0.0-11.0","231","""event"",""trial"",""time""
""fullscreenenter"",""0"",""1965""
""blur"",""174"",""526729""
""fullscreenexit"",""174"",""526740""
""focus"",""174"",""526747""
","""event"",""trial"",""time""
""blur"",""174"",""526729""
","""event"",""trial"",""time""
""focus"",""174"",""526747""
","""event"",""trial"",""time""
""fullscreenenter"",""0"",""1965""
","""event"",""trial"",""time""
""fullscreenexit"",""174"",""526740""
","2739.699999988079","audio/mars_instructions_slide5.wav","0","","","","","","","",""
