"success","trial_type","trial_index","time_elapsed","internal_node_id","subject_id","interactions","blur_events","focus_events","fullscreenenter_events","fullscreenexit_events","rt","stimulus","button_pressed","key_press","part","timestamp","unshuffled_button","correct_response","correct_button","correct","value"
"true","fullscreen","0","9827","0.0-0.0","1030","""event"",""trial"",""time""
""blur"",""0"",""0""
""focus"",""0"",""0""
""blur"",""0"",""0""
""focus"",""0"",""3072""
""blur"",""0"",""6043""
""focus"",""0"",""8552""
""fullscreenenter"",""0"",""8839""
","""event"",""trial"",""time""
""blur"",""0"",""0""
""blur"",""0"",""0""
""blur"",""0"",""6043""
","""event"",""trial"",""time""
""focus"",""0"",""0""
""focus"",""0"",""3072""
""focus"",""0"",""8552""
","""event"",""trial"",""time""
""fullscreenenter"",""0"",""8839""
","
","","","","","","","","","","",""
"","pavlovia","1","9836","0.0-1.0","1030","""event"",""trial"",""time""
""blur"",""0"",""0""
""focus"",""0"",""0""
""blur"",""0"",""0""
""focus"",""0"",""3072""
""blur"",""0"",""6043""
""focus"",""0"",""8552""
""fullscreenenter"",""0"",""8839""
","""event"",""trial"",""time""
""blur"",""0"",""0""
""blur"",""0"",""0""
""blur"",""0"",""6043""
","""event"",""trial"",""time""
""focus"",""0"",""0""
""focus"",""0"",""3072""
""focus"",""0"",""8552""
","""event"",""trial"",""time""
""fullscreenenter"",""0"",""8839""
","
","","","","","","","","","","",""
"","html-button-response","2","11660","0.0-2.0","1030","""event"",""trial"",""time""
""blur"",""0"",""0""
""focus"",""0"",""0""
""blur"",""0"",""0""
""focus"",""0"",""3072""
""blur"",""0"",""6043""
""focus"",""0"",""8552""
""fullscreenenter"",""0"",""8839""
","""event"",""trial"",""time""
""blur"",""0"",""0""
""blur"",""0"",""0""
""blur"",""0"",""6043""
","""event"",""trial"",""time""
""focus"",""0"",""0""
""focus"",""0"",""3072""
""focus"",""0"",""8552""
","""event"",""trial"",""time""
""fullscreenenter"",""0"",""8839""
","
","1821.2000000178814","<p>Welcome! Press START to begin.</p><br>","0","","","","","","","",""
"","audio-button-response","3","20742","0.0-3.0","1030","""event"",""trial"",""time""
""blur"",""0"",""0""
""focus"",""0"",""0""
""blur"",""0"",""0""
""focus"",""0"",""3072""
""blur"",""0"",""6043""
""focus"",""0"",""8552""
""fullscreenenter"",""0"",""8839""
","""event"",""trial"",""time""
""blur"",""0"",""0""
""blur"",""0"",""0""
""blur"",""0"",""6043""
","""event"",""trial"",""time""
""focus"",""0"",""0""
""focus"",""0"",""3072""
""focus"",""0"",""8552""
","""event"",""trial"",""time""
""fullscreenenter"",""0"",""8839""
","
","9079.299999982119","audio/mars_instructions_slide2.wav","0","","","","","","","",""
"","audio-button-response","4","36425","0.0-4.0","1030","""event"",""trial"",""time""
""blur"",""0"",""0""
""focus"",""0"",""0""
""blur"",""0"",""0""
""focus"",""0"",""3072""
""blur"",""0"",""6043""
""focus"",""0"",""8552""
""fullscreenenter"",""0"",""8839""
","""event"",""trial"",""time""
""blur"",""0"",""0""
""blur"",""0"",""0""
""blur"",""0"",""6043""
","""event"",""trial"",""time""
""focus"",""0"",""0""
""focus"",""0"",""3072""
""focus"",""0"",""8552""
","""event"",""trial"",""time""
""fullscreenenter"",""0"",""8839""
","
","15680.700000017881","audio/mars_instructions_slide3.wav","0","","","","","","","",""
"","html-keyboard-response","5","36931","0.0-5.0-0.0","1030","""event"",""trial"",""time""
""blur"",""0"",""0""
""focus"",""0"",""0""
""blur"",""0"",""0""
""focus"",""0"",""3072""
""blur"",""0"",""6043""
""focus"",""0"",""8552""
""fullscreenenter"",""0"",""8839""
","""event"",""trial"",""time""
""blur"",""0"",""0""
""blur"",""0"",""0""
""blur"",""0"",""6043""
","""event"",""trial"",""time""
""focus"",""0"",""0""
""focus"",""0"",""3072""
""focus"",""0"",""8552""
","""event"",""trial"",""time""
""fullscreenenter"",""0"",""8839""
","
","null","<div style=""font-size:60px;"">+</div>","","null","fixation","2021-08-09 17:41:32.770","","","","",""
"","mars-trial","6","52536","0.0-5.0-1.0","1030","""event"",""trial"",""time""
""blur"",""0"",""0""
""focus"",""0"",""0""
""blur"",""0"",""0""
""focus"",""0"",""3072""
""blur"",""0"",""6043""
""focus"",""0"",""8552""
""fullscreenenter"",""0"",""8839""
","""event"",""trial"",""time""
""blur"",""0"",""0""
""blur"",""0"",""0""
""blur"",""0"",""6043""
","""event"",""trial"",""time""
""focus"",""0"",""0""
""focus"",""0"",""3072""
""focus"",""0"",""8552""
","""event"",""trial"",""time""
""fullscreenenter"",""0"",""8839""
","
","13496.40000000596","<img style='border: 4px solid darkgrey;' src='practice/pt1_M1.png'></img>","1","","practice","","0","<img src='practice/pt1_T1.png'></img>","0","true",""
"","html-keyboard-response","7","53044","0.0-6.0-0.0","1030","""event"",""trial"",""time""
""blur"",""0"",""0""
""focus"",""0"",""0""
""blur"",""0"",""0""
""focus"",""0"",""3072""
""blur"",""0"",""6043""
""focus"",""0"",""8552""
""fullscreenenter"",""0"",""8839""
","""event"",""trial"",""time""
""blur"",""0"",""0""
""blur"",""0"",""0""
""blur"",""0"",""6043""
","""event"",""trial"",""time""
""focus"",""0"",""0""
""focus"",""0"",""3072""
""focus"",""0"",""8552""
","""event"",""trial"",""time""
""fullscreenenter"",""0"",""8839""
","
","null","<div style=""font-size:60px;"">+</div>","","null","fixation","2021-08-09 17:41:48.883","","","","",""
"","mars-trial","8","58166","0.0-6.0-1.0","1030","""event"",""trial"",""time""
""blur"",""0"",""0""
""focus"",""0"",""0""
""blur"",""0"",""0""
""focus"",""0"",""3072""
""blur"",""0"",""6043""
""focus"",""0"",""8552""
""fullscreenenter"",""0"",""8839""
","""event"",""trial"",""time""
""blur"",""0"",""0""
""blur"",""0"",""0""
""blur"",""0"",""6043""
","""event"",""trial"",""time""
""focus"",""0"",""0""
""focus"",""0"",""3072""
""focus"",""0"",""8552""
","""event"",""trial"",""time""
""fullscreenenter"",""0"",""8839""
","
","3013","<img style='border: 4px solid darkgrey;' src='practice/pt2_M1.png'></img>","3","","practice","","0","<img src='practice/pt2_T1.png'></img>","0","true",""
"","html-keyboard-response","9","58671","0.0-7.0-0.0","1030","""event"",""trial"",""time""
""blur"",""0"",""0""
""focus"",""0"",""0""
""blur"",""0"",""0""
""focus"",""0"",""3072""
""blur"",""0"",""6043""
""focus"",""0"",""8552""
""fullscreenenter"",""0"",""8839""
","""event"",""trial"",""time""
""blur"",""0"",""0""
""blur"",""0"",""0""
""blur"",""0"",""6043""
","""event"",""trial"",""time""
""focus"",""0"",""0""
""focus"",""0"",""3072""
""focus"",""0"",""8552""
","""event"",""trial"",""time""
""fullscreenenter"",""0"",""8839""
","
","null","<div style=""font-size:60px;"">+</div>","","null","fixation","2021-08-09 17:41:54.510","","","","",""
"","mars-trial","10","62190","0.0-7.0-1.0","1030","""event"",""trial"",""time""
""blur"",""0"",""0""
""focus"",""0"",""0""
""blur"",""0"",""0""
""focus"",""0"",""3072""
""blur"",""0"",""6043""
""focus"",""0"",""8552""
""fullscreenenter"",""0"",""8839""
","""event"",""trial"",""time""
""blur"",""0"",""0""
""blur"",""0"",""0""
""blur"",""0"",""6043""
","""event"",""trial"",""time""
""focus"",""0"",""0""
""focus"",""0"",""3072""
""focus"",""0"",""8552""
","""event"",""trial"",""time""
""fullscreenenter"",""0"",""8839""
","
","1405.800000011921","<img style='border: 4px solid darkgrey;' src='practice/pt3_M1.png'></img>","2","","practice","","0","<img src='practice/pt3_T1.png'></img>","0","true",""
"","audio-button-response","11","67053","0.0-8.0","1030","""event"",""trial"",""time""
""blur"",""0"",""0""
""focus"",""0"",""0""
""blur"",""0"",""0""
""focus"",""0"",""3072""
""blur"",""0"",""6043""
""focus"",""0"",""8552""
""fullscreenenter"",""0"",""8839""
","""event"",""trial"",""time""
""blur"",""0"",""0""
""blur"",""0"",""0""
""blur"",""0"",""6043""
","""event"",""trial"",""time""
""focus"",""0"",""0""
""focus"",""0"",""3072""
""focus"",""0"",""8552""
","""event"",""trial"",""time""
""fullscreenenter"",""0"",""8839""
","
","4859.9000000059605","audio/mars_instructions_slide4.wav","0","","","","","","","",""
"","call-function","12","67055","0.0-9.0","1030","""event"",""trial"",""time""
""blur"",""0"",""0""
""focus"",""0"",""0""
""blur"",""0"",""0""
""focus"",""0"",""3072""
""blur"",""0"",""6043""
""focus"",""0"",""8552""
""fullscreenenter"",""0"",""8839""
","""event"",""trial"",""time""
""blur"",""0"",""0""
""blur"",""0"",""0""
""blur"",""0"",""6043""
","""event"",""trial"",""time""
""focus"",""0"",""0""
""focus"",""0"",""3072""
""focus"",""0"",""8552""
","""event"",""trial"",""time""
""fullscreenenter"",""0"",""8839""
","
","","","","","","","","","","",""
"","html-keyboard-response","13","67558","0.0-10.0-0.0","1030","""event"",""trial"",""time""
""blur"",""0"",""0""
""focus"",""0"",""0""
""blur"",""0"",""0""
""focus"",""0"",""3072""
""blur"",""0"",""6043""
""focus"",""0"",""8552""
""fullscreenenter"",""0"",""8839""
","""event"",""trial"",""time""
""blur"",""0"",""0""
""blur"",""0"",""0""
""blur"",""0"",""6043""
","""event"",""trial"",""time""
""focus"",""0"",""0""
""focus"",""0"",""3072""
""focus"",""0"",""8552""
","""event"",""trial"",""time""
""fullscreenenter"",""0"",""8839""
","
","null","<div style=""font-size:60px;"">+</div>","","null","fixation","2021-08-09 17:42:03.397","","","","",""
"","mars-trial","14","69554","0.0-10.0-1.0","1030","""event"",""trial"",""time""
""blur"",""0"",""0""
""focus"",""0"",""0""
""blur"",""0"",""0""
""focus"",""0"",""3072""
""blur"",""0"",""6043""
""focus"",""0"",""8552""
""fullscreenenter"",""0"",""8839""
","""event"",""trial"",""time""
""blur"",""0"",""0""
""blur"",""0"",""0""
""blur"",""0"",""6043""
","""event"",""trial"",""time""
""focus"",""0"",""0""
""focus"",""0"",""3072""
""focus"",""0"",""8552""
","""event"",""trial"",""time""
""fullscreenenter"",""0"",""8839""
","
","1382.5999999940395","<img style='border: 4px solid darkgrey;' src='img/tf1_1_M_ss3.jpeg'></img>","2","","exp","","0","<img src='img/tf1_1_T1_ss3_md.jpeg'></img>","0","true",""
"","html-keyboard-response","15","70059","0.0-10.0-0.1","1030","""event"",""trial"",""time""
""blur"",""0"",""0""
""focus"",""0"",""0""
""blur"",""0"",""0""
""focus"",""0"",""3072""
""blur"",""0"",""6043""
""focus"",""0"",""8552""
""fullscreenenter"",""0"",""8839""
","""event"",""trial"",""time""
""blur"",""0"",""0""
""blur"",""0"",""0""
""blur"",""0"",""6043""
","""event"",""trial"",""time""
""focus"",""0"",""0""
""focus"",""0"",""3072""
""focus"",""0"",""8552""
","""event"",""trial"",""time""
""fullscreenenter"",""0"",""8839""
","
","null","<div style=""font-size:60px;"">+</div>","","null","fixation","2021-08-09 17:42:05.898","","","","",""
"","mars-trial","16","73782","0.0-10.0-1.1","1030","""event"",""trial"",""time""
""blur"",""0"",""0""
""focus"",""0"",""0""
""blur"",""0"",""0""
""focus"",""0"",""3072""
""blur"",""0"",""6043""
""focus"",""0"",""8552""
""fullscreenenter"",""0"",""8839""
","""event"",""trial"",""time""
""blur"",""0"",""0""
""blur"",""0"",""0""
""blur"",""0"",""6043""
","""event"",""trial"",""time""
""focus"",""0"",""0""
""focus"",""0"",""3072""
""focus"",""0"",""8552""
","""event"",""trial"",""time""
""fullscreenenter"",""0"",""8839""
","
","3110.4000000059605","<img style='border: 4px solid darkgrey;' src='img/tf1_2_M_ss1.jpeg'></img>","3","","exp","","0","<img src='img/tf1_2_T1_ss1_md.jpeg'></img>","0","true",""
"","html-keyboard-response","17","74288","0.0-10.0-0.2","1030","""event"",""trial"",""time""
""blur"",""0"",""0""
""focus"",""0"",""0""
""blur"",""0"",""0""
""focus"",""0"",""3072""
""blur"",""0"",""6043""
""focus"",""0"",""8552""
""fullscreenenter"",""0"",""8839""
","""event"",""trial"",""time""
""blur"",""0"",""0""
""blur"",""0"",""0""
""blur"",""0"",""6043""
","""event"",""trial"",""time""
""focus"",""0"",""0""
""focus"",""0"",""3072""
""focus"",""0"",""8552""
","""event"",""trial"",""time""
""fullscreenenter"",""0"",""8839""
","
","null","<div style=""font-size:60px;"">+</div>","","null","fixation","2021-08-09 17:42:10.127","","","","",""
"","mars-trial","18","77088","0.0-10.0-1.2","1030","""event"",""trial"",""time""
""blur"",""0"",""0""
""focus"",""0"",""0""
""blur"",""0"",""0""
""focus"",""0"",""3072""
""blur"",""0"",""6043""
""focus"",""0"",""8552""
""fullscreenenter"",""0"",""8839""
","""event"",""trial"",""time""
""blur"",""0"",""0""
""blur"",""0"",""0""
""blur"",""0"",""6043""
","""event"",""trial"",""time""
""focus"",""0"",""0""
""focus"",""0"",""3072""
""focus"",""0"",""8552""
","""event"",""trial"",""time""
""fullscreenenter"",""0"",""8839""
","
","2189","<img style='border: 4px solid darkgrey;' src='img/tf1_3_M_ss2.jpeg'></img>","3","","exp","","0","<img src='img/tf1_3_T1_ss2_md.jpeg'></img>","0","true",""
"","html-keyboard-response","19","77594","0.0-10.0-0.3","1030","""event"",""trial"",""time""
""blur"",""0"",""0""
""focus"",""0"",""0""
""blur"",""0"",""0""
""focus"",""0"",""3072""
""blur"",""0"",""6043""
""focus"",""0"",""8552""
""fullscreenenter"",""0"",""8839""
","""event"",""trial"",""time""
""blur"",""0"",""0""
""blur"",""0"",""0""
""blur"",""0"",""6043""
","""event"",""trial"",""time""
""focus"",""0"",""0""
""focus"",""0"",""3072""
""focus"",""0"",""8552""
","""event"",""trial"",""time""
""fullscreenenter"",""0"",""8839""
","
","null","<div style=""font-size:60px;"">+</div>","","null","fixation","2021-08-09 17:42:13.433","","","","",""
"","mars-trial","20","80155","0.0-10.0-1.3","1030","""event"",""trial"",""time""
""blur"",""0"",""0""
""focus"",""0"",""0""
""blur"",""0"",""0""
""focus"",""0"",""3072""
""blur"",""0"",""6043""
""focus"",""0"",""8552""
""fullscreenenter"",""0"",""8839""
","""event"",""trial"",""time""
""blur"",""0"",""0""
""blur"",""0"",""0""
""blur"",""0"",""6043""
","""event"",""trial"",""time""
""focus"",""0"",""0""
""focus"",""0"",""3072""
""focus"",""0"",""8552""
","""event"",""trial"",""time""
""fullscreenenter"",""0"",""8839""
","
","1947.3999999761581","<img style='border: 4px solid darkgrey;' src='img/tf1_4_M_ss3.jpeg'></img>","3","","exp","","0","<img src='img/tf1_4_T1_ss3_md.jpeg'></img>","0","true",""
"","html-keyboard-response","21","80657","0.0-10.0-0.4","1030","""event"",""trial"",""time""
""blur"",""0"",""0""
""focus"",""0"",""0""
""blur"",""0"",""0""
""focus"",""0"",""3072""
""blur"",""0"",""6043""
""focus"",""0"",""8552""
""fullscreenenter"",""0"",""8839""
","""event"",""trial"",""time""
""blur"",""0"",""0""
""blur"",""0"",""0""
""blur"",""0"",""6043""
","""event"",""trial"",""time""
""focus"",""0"",""0""
""focus"",""0"",""3072""
""focus"",""0"",""8552""
","""event"",""trial"",""time""
""fullscreenenter"",""0"",""8839""
","
","null","<div style=""font-size:60px;"">+</div>","","null","fixation","2021-08-09 17:42:16.496","","","","",""
"","mars-trial","22","82693","0.0-10.0-1.4","1030","""event"",""trial"",""time""
""blur"",""0"",""0""
""focus"",""0"",""0""
""blur"",""0"",""0""
""focus"",""0"",""3072""
""blur"",""0"",""6043""
""focus"",""0"",""8552""
""fullscreenenter"",""0"",""8839""
","""event"",""trial"",""time""
""blur"",""0"",""0""
""blur"",""0"",""0""
""blur"",""0"",""6043""
","""event"",""trial"",""time""
""focus"",""0"",""0""
""focus"",""0"",""3072""
""focus"",""0"",""8552""
","""event"",""trial"",""time""
""fullscreenenter"",""0"",""8839""
","
","1425.199999988079","<img style='border: 4px solid darkgrey;' src='img/tf1_5_M_ss1.jpeg'></img>","1","","exp","","0","<img src='img/tf1_5_T1_ss1_md.jpeg'></img>","0","true",""
"","html-keyboard-response","23","83197","0.0-10.0-0.5","1030","""event"",""trial"",""time""
""blur"",""0"",""0""
""focus"",""0"",""0""
""blur"",""0"",""0""
""focus"",""0"",""3072""
""blur"",""0"",""6043""
""focus"",""0"",""8552""
""fullscreenenter"",""0"",""8839""
","""event"",""trial"",""time""
""blur"",""0"",""0""
""blur"",""0"",""0""
""blur"",""0"",""6043""
","""event"",""trial"",""time""
""focus"",""0"",""0""
""focus"",""0"",""3072""
""focus"",""0"",""8552""
","""event"",""trial"",""time""
""fullscreenenter"",""0"",""8839""
","
","null","<div style=""font-size:60px;"">+</div>","","null","fixation","2021-08-09 17:42:19.037","","","","",""
"","mars-trial","24","93199","0.0-10.0-1.5","1030","""event"",""trial"",""time""
""blur"",""0"",""0""
""focus"",""0"",""0""
""blur"",""0"",""0""
""focus"",""0"",""3072""
""blur"",""0"",""6043""
""focus"",""0"",""8552""
""fullscreenenter"",""0"",""8839""
","""event"",""trial"",""time""
""blur"",""0"",""0""
""blur"",""0"",""0""
""blur"",""0"",""6043""
","""event"",""trial"",""time""
""focus"",""0"",""0""
""focus"",""0"",""3072""
""focus"",""0"",""8552""
","""event"",""trial"",""time""
""fullscreenenter"",""0"",""8839""
","
","9388.699999988079","<img style='border: 4px solid darkgrey;' src='img/tf1_6_M_ss2.jpeg'></img>","2","","exp","","3","<img src='img/tf1_6_T1_ss2_md.jpeg'></img>","0","false",""
"","html-keyboard-response","25","93705","0.0-10.0-0.6","1030","""event"",""trial"",""time""
""blur"",""0"",""0""
""focus"",""0"",""0""
""blur"",""0"",""0""
""focus"",""0"",""3072""
""blur"",""0"",""6043""
""focus"",""0"",""8552""
""fullscreenenter"",""0"",""8839""
","""event"",""trial"",""time""
""blur"",""0"",""0""
""blur"",""0"",""0""
""blur"",""0"",""6043""
","""event"",""trial"",""time""
""focus"",""0"",""0""
""focus"",""0"",""3072""
""focus"",""0"",""8552""
","""event"",""trial"",""time""
""fullscreenenter"",""0"",""8839""
","
","null","<div style=""font-size:60px;"">+</div>","","null","fixation","2021-08-09 17:42:29.544","","","","",""
"","mars-trial","26","98614","0.0-10.0-1.6","1030","""event"",""trial"",""time""
""blur"",""0"",""0""
""focus"",""0"",""0""
""blur"",""0"",""0""
""focus"",""0"",""3072""
""blur"",""0"",""6043""
""focus"",""0"",""8552""
""fullscreenenter"",""0"",""8839""
","""event"",""trial"",""time""
""blur"",""0"",""0""
""blur"",""0"",""0""
""blur"",""0"",""6043""
","""event"",""trial"",""time""
""focus"",""0"",""0""
""focus"",""0"",""3072""
""focus"",""0"",""8552""
","""event"",""trial"",""time""
""fullscreenenter"",""0"",""8839""
","
","4297.5","<img style='border: 4px solid darkgrey;' src='img/tf1_7_M_ss3.jpeg'></img>","3","","exp","","0","<img src='img/tf1_7_T1_ss3_md.jpeg'></img>","0","true",""
"","html-keyboard-response","27","99119","0.0-10.0-0.7","1030","""event"",""trial"",""time""
""blur"",""0"",""0""
""focus"",""0"",""0""
""blur"",""0"",""0""
""focus"",""0"",""3072""
""blur"",""0"",""6043""
""focus"",""0"",""8552""
""fullscreenenter"",""0"",""8839""
","""event"",""trial"",""time""
""blur"",""0"",""0""
""blur"",""0"",""0""
""blur"",""0"",""6043""
","""event"",""trial"",""time""
""focus"",""0"",""0""
""focus"",""0"",""3072""
""focus"",""0"",""8552""
","""event"",""trial"",""time""
""fullscreenenter"",""0"",""8839""
","
","null","<div style=""font-size:60px;"">+</div>","","null","fixation","2021-08-09 17:42:34.958","","","","",""
"","mars-trial","28","106625","0.0-10.0-1.7","1030","""event"",""trial"",""time""
""blur"",""0"",""0""
""focus"",""0"",""0""
""blur"",""0"",""0""
""focus"",""0"",""3072""
""blur"",""0"",""6043""
""focus"",""0"",""8552""
""fullscreenenter"",""0"",""8839""
","""event"",""trial"",""time""
""blur"",""0"",""0""
""blur"",""0"",""0""
""blur"",""0"",""6043""
","""event"",""trial"",""time""
""focus"",""0"",""0""
""focus"",""0"",""3072""
""focus"",""0"",""8552""
","""event"",""trial"",""time""
""fullscreenenter"",""0"",""8839""
","
","6897.200000017881","<img style='border: 4px solid darkgrey;' src='img/tf1_8_M_ss1.jpeg'></img>","0","","exp","","0","<img src='img/tf1_8_T1_ss1_md.jpeg'></img>","0","true",""
"","html-keyboard-response","29","107132","0.0-10.0-0.8","1030","""event"",""trial"",""time""
""blur"",""0"",""0""
""focus"",""0"",""0""
""blur"",""0"",""0""
""focus"",""0"",""3072""
""blur"",""0"",""6043""
""focus"",""0"",""8552""
""fullscreenenter"",""0"",""8839""
","""event"",""trial"",""time""
""blur"",""0"",""0""
""blur"",""0"",""0""
""blur"",""0"",""6043""
","""event"",""trial"",""time""
""focus"",""0"",""0""
""focus"",""0"",""3072""
""focus"",""0"",""8552""
","""event"",""trial"",""time""
""fullscreenenter"",""0"",""8839""
","
","null","<div style=""font-size:60px;"">+</div>","","null","fixation","2021-08-09 17:42:42.971","","","","",""
"","mars-trial","30","113471","0.0-10.0-1.8","1030","""event"",""trial"",""time""
""blur"",""0"",""0""
""focus"",""0"",""0""
""blur"",""0"",""0""
""focus"",""0"",""3072""
""blur"",""0"",""6043""
""focus"",""0"",""8552""
""fullscreenenter"",""0"",""8839""
","""event"",""trial"",""time""
""blur"",""0"",""0""
""blur"",""0"",""0""
""blur"",""0"",""6043""
","""event"",""trial"",""time""
""focus"",""0"",""0""
""focus"",""0"",""3072""
""focus"",""0"",""8552""
","""event"",""trial"",""time""
""fullscreenenter"",""0"",""8839""
","
","5729.200000017881","<img style='border: 4px solid darkgrey;' src='img/tf1_9_M_ss2.jpeg'></img>","2","","exp","","0","<img src='img/tf1_9_T1_ss2_md.jpeg'></img>","0","true",""
"","html-keyboard-response","31","113977","0.0-10.0-0.9","1030","""event"",""trial"",""time""
""blur"",""0"",""0""
""focus"",""0"",""0""
""blur"",""0"",""0""
""focus"",""0"",""3072""
""blur"",""0"",""6043""
""focus"",""0"",""8552""
""fullscreenenter"",""0"",""8839""
","""event"",""trial"",""time""
""blur"",""0"",""0""
""blur"",""0"",""0""
""blur"",""0"",""6043""
","""event"",""trial"",""time""
""focus"",""0"",""0""
""focus"",""0"",""3072""
""focus"",""0"",""8552""
","""event"",""trial"",""time""
""fullscreenenter"",""0"",""8839""
","
","null","<div style=""font-size:60px;"">+</div>","","null","fixation","2021-08-09 17:42:49.817","","","","",""
"","mars-trial","32","128862","0.0-10.0-1.9","1030","""event"",""trial"",""time""
""blur"",""0"",""0""
""focus"",""0"",""0""
""blur"",""0"",""0""
""focus"",""0"",""3072""
""blur"",""0"",""6043""
""focus"",""0"",""8552""
""fullscreenenter"",""0"",""8839""
","""event"",""trial"",""time""
""blur"",""0"",""0""
""blur"",""0"",""0""
""blur"",""0"",""6043""
","""event"",""trial"",""time""
""focus"",""0"",""0""
""focus"",""0"",""3072""
""focus"",""0"",""8552""
","""event"",""trial"",""time""
""fullscreenenter"",""0"",""8839""
","
","14277","<img style='border: 4px solid darkgrey;' src='img/tf1_10_M_ss3.jpeg'></img>","0","","exp","","3","<img src='img/tf1_10_T1_ss3_md.jpeg'></img>","0","false",""
"","html-keyboard-response","33","129369","0.0-10.0-0.10","1030","""event"",""trial"",""time""
""blur"",""0"",""0""
""focus"",""0"",""0""
""blur"",""0"",""0""
""focus"",""0"",""3072""
""blur"",""0"",""6043""
""focus"",""0"",""8552""
""fullscreenenter"",""0"",""8839""
","""event"",""trial"",""time""
""blur"",""0"",""0""
""blur"",""0"",""0""
""blur"",""0"",""6043""
","""event"",""trial"",""time""
""focus"",""0"",""0""
""focus"",""0"",""3072""
""focus"",""0"",""8552""
","""event"",""trial"",""time""
""fullscreenenter"",""0"",""8839""
","
","null","<div style=""font-size:60px;"">+</div>","","null","fixation","2021-08-09 17:43:05.208","","","","",""
"","mars-trial","34","135355","0.0-10.0-1.10","1030","""event"",""trial"",""time""
""blur"",""0"",""0""
""focus"",""0"",""0""
""blur"",""0"",""0""
""focus"",""0"",""3072""
""blur"",""0"",""6043""
""focus"",""0"",""8552""
""fullscreenenter"",""0"",""8839""
","""event"",""trial"",""time""
""blur"",""0"",""0""
""blur"",""0"",""0""
""blur"",""0"",""6043""
","""event"",""trial"",""time""
""focus"",""0"",""0""
""focus"",""0"",""3072""
""focus"",""0"",""8552""
","""event"",""trial"",""time""
""fullscreenenter"",""0"",""8839""
","
","5378.5999999940395","<img style='border: 4px solid darkgrey;' src='img/tf1_11_M_ss1.jpeg'></img>","2","","exp","","3","<img src='img/tf1_11_T1_ss1_md.jpeg'></img>","0","false",""
"","html-keyboard-response","35","135858","0.0-10.0-0.11","1030","""event"",""trial"",""time""
""blur"",""0"",""0""
""focus"",""0"",""0""
""blur"",""0"",""0""
""focus"",""0"",""3072""
""blur"",""0"",""6043""
""focus"",""0"",""8552""
""fullscreenenter"",""0"",""8839""
","""event"",""trial"",""time""
""blur"",""0"",""0""
""blur"",""0"",""0""
""blur"",""0"",""6043""
","""event"",""trial"",""time""
""focus"",""0"",""0""
""focus"",""0"",""3072""
""focus"",""0"",""8552""
","""event"",""trial"",""time""
""fullscreenenter"",""0"",""8839""
","
","null","<div style=""font-size:60px;"">+</div>","","null","fixation","2021-08-09 17:43:11.698","","","","",""
"","mars-trial","36","146824","0.0-10.0-1.11","1030","""event"",""trial"",""time""
""blur"",""0"",""0""
""focus"",""0"",""0""
""blur"",""0"",""0""
""focus"",""0"",""3072""
""blur"",""0"",""6043""
""focus"",""0"",""8552""
""fullscreenenter"",""0"",""8839""
","""event"",""trial"",""time""
""blur"",""0"",""0""
""blur"",""0"",""0""
""blur"",""0"",""6043""
","""event"",""trial"",""time""
""focus"",""0"",""0""
""focus"",""0"",""3072""
""focus"",""0"",""8552""
","""event"",""trial"",""time""
""fullscreenenter"",""0"",""8839""
","
","10358.09999999404","<img style='border: 4px solid darkgrey;' src='img/tf1_12_M_ss2.jpeg'></img>","0","","exp","","1","<img src='img/tf1_12_T1_ss2_md.jpeg'></img>","0","false",""
"","html-keyboard-response","37","147328","0.0-10.0-0.12","1030","""event"",""trial"",""time""
""blur"",""0"",""0""
""focus"",""0"",""0""
""blur"",""0"",""0""
""focus"",""0"",""3072""
""blur"",""0"",""6043""
""focus"",""0"",""8552""
""fullscreenenter"",""0"",""8839""
","""event"",""trial"",""time""
""blur"",""0"",""0""
""blur"",""0"",""0""
""blur"",""0"",""6043""
","""event"",""trial"",""time""
""focus"",""0"",""0""
""focus"",""0"",""3072""
""focus"",""0"",""8552""
","""event"",""trial"",""time""
""fullscreenenter"",""0"",""8839""
","
","null","<div style=""font-size:60px;"">+</div>","","null","fixation","2021-08-09 17:43:23.168","","","","",""
"","mars-trial","38","169160","0.0-10.0-1.12","1030","""event"",""trial"",""time""
""blur"",""0"",""0""
""focus"",""0"",""0""
""blur"",""0"",""0""
""focus"",""0"",""3072""
""blur"",""0"",""6043""
""focus"",""0"",""8552""
""fullscreenenter"",""0"",""8839""
","""event"",""trial"",""time""
""blur"",""0"",""0""
""blur"",""0"",""0""
""blur"",""0"",""6043""
","""event"",""trial"",""time""
""focus"",""0"",""0""
""focus"",""0"",""3072""
""focus"",""0"",""8552""
","""event"",""trial"",""time""
""fullscreenenter"",""0"",""8839""
","
","21227.69999998808","<img style='border: 4px solid darkgrey;' src='img/tf1_13_M_ss3.jpeg'></img>","1","","exp","","1","<img src='img/tf1_13_T1_ss3_md.jpeg'></img>","0","false",""
"","html-keyboard-response","39","169664","0.0-10.0-0.13","1030","""event"",""trial"",""time""
""blur"",""0"",""0""
""focus"",""0"",""0""
""blur"",""0"",""0""
""focus"",""0"",""3072""
""blur"",""0"",""6043""
""focus"",""0"",""8552""
""fullscreenenter"",""0"",""8839""
","""event"",""trial"",""time""
""blur"",""0"",""0""
""blur"",""0"",""0""
""blur"",""0"",""6043""
","""event"",""trial"",""time""
""focus"",""0"",""0""
""focus"",""0"",""3072""
""focus"",""0"",""8552""
","""event"",""trial"",""time""
""fullscreenenter"",""0"",""8839""
","
","null","<div style=""font-size:60px;"">+</div>","","null","fixation","2021-08-09 17:43:45.503","","","","",""
"","mars-trial","40","196893","0.0-10.0-1.13","1030","""event"",""trial"",""time""
""blur"",""0"",""0""
""focus"",""0"",""0""
""blur"",""0"",""0""
""focus"",""0"",""3072""
""blur"",""0"",""6043""
""focus"",""0"",""8552""
""fullscreenenter"",""0"",""8839""
","""event"",""trial"",""time""
""blur"",""0"",""0""
""blur"",""0"",""0""
""blur"",""0"",""6043""
","""event"",""trial"",""time""
""focus"",""0"",""0""
""focus"",""0"",""3072""
""focus"",""0"",""8552""
","""event"",""trial"",""time""
""fullscreenenter"",""0"",""8839""
","
","26623.80000001192","<img style='border: 4px solid darkgrey;' src='img/tf1_14_M_ss1.jpeg'></img>","1","","exp","","1","<img src='img/tf1_14_T1_ss1_md.jpeg'></img>","0","false",""
"","html-keyboard-response","41","197396","0.0-10.0-0.14","1030","""event"",""trial"",""time""
""blur"",""0"",""0""
""focus"",""0"",""0""
""blur"",""0"",""0""
""focus"",""0"",""3072""
""blur"",""0"",""6043""
""focus"",""0"",""8552""
""fullscreenenter"",""0"",""8839""
","""event"",""trial"",""time""
""blur"",""0"",""0""
""blur"",""0"",""0""
""blur"",""0"",""6043""
","""event"",""trial"",""time""
""focus"",""0"",""0""
""focus"",""0"",""3072""
""focus"",""0"",""8552""
","""event"",""trial"",""time""
""fullscreenenter"",""0"",""8839""
","
","null","<div style=""font-size:60px;"">+</div>","","null","fixation","2021-08-09 17:44:13.236","","","","",""
"","mars-trial","42","213584","0.0-10.0-1.14","1030","""event"",""trial"",""time""
""blur"",""0"",""0""
""focus"",""0"",""0""
""blur"",""0"",""0""
""focus"",""0"",""3072""
""blur"",""0"",""6043""
""focus"",""0"",""8552""
""fullscreenenter"",""0"",""8839""
","""event"",""trial"",""time""
""blur"",""0"",""0""
""blur"",""0"",""0""
""blur"",""0"",""6043""
","""event"",""trial"",""time""
""focus"",""0"",""0""
""focus"",""0"",""3072""
""focus"",""0"",""8552""
","""event"",""trial"",""time""
""fullscreenenter"",""0"",""8839""
","
","15582.200000017881","<img style='border: 4px solid darkgrey;' src='img/tf1_15_M_ss2.jpeg'></img>","0","","exp","","0","<img src='img/tf1_15_T1_ss2_md.jpeg'></img>","0","true",""
"","html-keyboard-response","43","214086","0.0-10.0-0.15","1030","""event"",""trial"",""time""
""blur"",""0"",""0""
""focus"",""0"",""0""
""blur"",""0"",""0""
""focus"",""0"",""3072""
""blur"",""0"",""6043""
""focus"",""0"",""8552""
""fullscreenenter"",""0"",""8839""
","""event"",""trial"",""time""
""blur"",""0"",""0""
""blur"",""0"",""0""
""blur"",""0"",""6043""
","""event"",""trial"",""time""
""focus"",""0"",""0""
""focus"",""0"",""3072""
""focus"",""0"",""8552""
","""event"",""trial"",""time""
""fullscreenenter"",""0"",""8839""
","
","null","<div style=""font-size:60px;"">+</div>","","null","fixation","2021-08-09 17:44:29.925","","","","",""
"","mars-trial","44","228099","0.0-10.0-1.15","1030","""event"",""trial"",""time""
""blur"",""0"",""0""
""focus"",""0"",""0""
""blur"",""0"",""0""
""focus"",""0"",""3072""
""blur"",""0"",""6043""
""focus"",""0"",""8552""
""fullscreenenter"",""0"",""8839""
","""event"",""trial"",""time""
""blur"",""0"",""0""
""blur"",""0"",""0""
""blur"",""0"",""6043""
","""event"",""trial"",""time""
""focus"",""0"",""0""
""focus"",""0"",""3072""
""focus"",""0"",""8552""
","""event"",""trial"",""time""
""fullscreenenter"",""0"",""8839""
","
","13403.5","<img style='border: 4px solid darkgrey;' src='img/tf1_16_M_ss3.jpeg'></img>","3","","exp","","3","<img src='img/tf1_16_T1_ss3_md.jpeg'></img>","0","false",""
"","html-keyboard-response","45","228604","0.0-10.0-0.16","1030","""event"",""trial"",""time""
""blur"",""0"",""0""
""focus"",""0"",""0""
""blur"",""0"",""0""
""focus"",""0"",""3072""
""blur"",""0"",""6043""
""focus"",""0"",""8552""
""fullscreenenter"",""0"",""8839""
","""event"",""trial"",""time""
""blur"",""0"",""0""
""blur"",""0"",""0""
""blur"",""0"",""6043""
","""event"",""trial"",""time""
""focus"",""0"",""0""
""focus"",""0"",""3072""
""focus"",""0"",""8552""
","""event"",""trial"",""time""
""fullscreenenter"",""0"",""8839""
","
","null","<div style=""font-size:60px;"">+</div>","","null","fixation","2021-08-09 17:44:44.443","","","","",""
"","mars-trial","46","255286","0.0-10.0-1.16","1030","""event"",""trial"",""time""
""blur"",""0"",""0""
""focus"",""0"",""0""
""blur"",""0"",""0""
""focus"",""0"",""3072""
""blur"",""0"",""6043""
""focus"",""0"",""8552""
""fullscreenenter"",""0"",""8839""
","""event"",""trial"",""time""
""blur"",""0"",""0""
""blur"",""0"",""0""
""blur"",""0"",""6043""
","""event"",""trial"",""time""
""focus"",""0"",""0""
""focus"",""0"",""3072""
""focus"",""0"",""8552""
","""event"",""trial"",""time""
""fullscreenenter"",""0"",""8839""
","
","26077.100000023842","<img style='border: 4px solid darkgrey;' src='img/tf1_17_M_ss1.jpeg'></img>","2","","exp","","0","<img src='img/tf1_17_T1_ss1_md.jpeg'></img>","0","true",""
"","html-keyboard-response","47","255793","0.0-10.0-0.17","1030","""event"",""trial"",""time""
""blur"",""0"",""0""
""focus"",""0"",""0""
""blur"",""0"",""0""
""focus"",""0"",""3072""
""blur"",""0"",""6043""
""focus"",""0"",""8552""
""fullscreenenter"",""0"",""8839""
","""event"",""trial"",""time""
""blur"",""0"",""0""
""blur"",""0"",""0""
""blur"",""0"",""6043""
","""event"",""trial"",""time""
""focus"",""0"",""0""
""focus"",""0"",""3072""
""focus"",""0"",""8552""
","""event"",""trial"",""time""
""fullscreenenter"",""0"",""8839""
","
","null","<div style=""font-size:60px;"">+</div>","","null","fixation","2021-08-09 17:45:11.632","","","","",""
"","mars-trial","48","285455","0.0-10.0-1.17","1030","""event"",""trial"",""time""
""blur"",""0"",""0""
""focus"",""0"",""0""
""blur"",""0"",""0""
""focus"",""0"",""3072""
""blur"",""0"",""6043""
""focus"",""0"",""8552""
""fullscreenenter"",""0"",""8839""
","""event"",""trial"",""time""
""blur"",""0"",""0""
""blur"",""0"",""0""
""blur"",""0"",""6043""
","""event"",""trial"",""time""
""focus"",""0"",""0""
""focus"",""0"",""3072""
""focus"",""0"",""8552""
","""event"",""trial"",""time""
""fullscreenenter"",""0"",""8839""
","
","29056.69999998808","<img style='border: 4px solid darkgrey;' src='img/tf1_18_M_ss2.jpeg'></img>","1","","exp","","2","<img src='img/tf1_18_T1_ss2_md.jpeg'></img>","0","false",""
"","html-keyboard-response","49","285961","0.0-10.0-0.18","1030","""event"",""trial"",""time""
""blur"",""0"",""0""
""focus"",""0"",""0""
""blur"",""0"",""0""
""focus"",""0"",""3072""
""blur"",""0"",""6043""
""focus"",""0"",""8552""
""fullscreenenter"",""0"",""8839""
","""event"",""trial"",""time""
""blur"",""0"",""0""
""blur"",""0"",""0""
""blur"",""0"",""6043""
","""event"",""trial"",""time""
""focus"",""0"",""0""
""focus"",""0"",""3072""
""focus"",""0"",""8552""
","""event"",""trial"",""time""
""fullscreenenter"",""0"",""8839""
","
","null","<div style=""font-size:60px;"">+</div>","","null","fixation","2021-08-09 17:45:41.800","","","","",""
"","mars-trial","50","289049","0.0-10.0-1.18","1030","""event"",""trial"",""time""
""blur"",""0"",""0""
""focus"",""0"",""0""
""blur"",""0"",""0""
""focus"",""0"",""3072""
""blur"",""0"",""6043""
""focus"",""0"",""8552""
""fullscreenenter"",""0"",""8839""
","""event"",""trial"",""time""
""blur"",""0"",""0""
""blur"",""0"",""0""
""blur"",""0"",""6043""
","""event"",""trial"",""time""
""focus"",""0"",""0""
""focus"",""0"",""3072""
""focus"",""0"",""8552""
","""event"",""trial"",""time""
""fullscreenenter"",""0"",""8839""
","
","2481","<img style='border: 4px solid darkgrey;' src='img/tf1_19_M_ss3.jpeg'></img>","1","","exp","","3","<img src='img/tf1_19_T1_ss3_md.jpeg'></img>","0","false",""
"","html-keyboard-response","51","289551","0.0-10.0-0.19","1030","""event"",""trial"",""time""
""blur"",""0"",""0""
""focus"",""0"",""0""
""blur"",""0"",""0""
""focus"",""0"",""3072""
""blur"",""0"",""6043""
""focus"",""0"",""8552""
""fullscreenenter"",""0"",""8839""
","""event"",""trial"",""time""
""blur"",""0"",""0""
""blur"",""0"",""0""
""blur"",""0"",""6043""
","""event"",""trial"",""time""
""focus"",""0"",""0""
""focus"",""0"",""3072""
""focus"",""0"",""8552""
","""event"",""trial"",""time""
""fullscreenenter"",""0"",""8839""
","
","null","<div style=""font-size:60px;"">+</div>","","null","fixation","2021-08-09 17:45:45.390","","","","",""
"","mars-trial","52","298614","0.0-10.0-1.19","1030","""event"",""trial"",""time""
""blur"",""0"",""0""
""focus"",""0"",""0""
""blur"",""0"",""0""
""focus"",""0"",""3072""
""blur"",""0"",""6043""
""focus"",""0"",""8552""
""fullscreenenter"",""0"",""8839""
","""event"",""trial"",""time""
""blur"",""0"",""0""
""blur"",""0"",""0""
""blur"",""0"",""6043""
","""event"",""trial"",""time""
""focus"",""0"",""0""
""focus"",""0"",""3072""
""focus"",""0"",""8552""
","""event"",""trial"",""time""
""fullscreenenter"",""0"",""8839""
","
","8458.699999988079","<img style='border: 4px solid darkgrey;' src='img/tf1_20_M_ss1.jpeg'></img>","2","","exp","","0","<img src='img/tf1_20_T1_ss1_md.jpeg'></img>","0","true",""
"","html-keyboard-response","53","299118","0.0-10.0-0.20","1030","""event"",""trial"",""time""
""blur"",""0"",""0""
""focus"",""0"",""0""
""blur"",""0"",""0""
""focus"",""0"",""3072""
""blur"",""0"",""6043""
""focus"",""0"",""8552""
""fullscreenenter"",""0"",""8839""
","""event"",""trial"",""time""
""blur"",""0"",""0""
""blur"",""0"",""0""
""blur"",""0"",""6043""
","""event"",""trial"",""time""
""focus"",""0"",""0""
""focus"",""0"",""3072""
""focus"",""0"",""8552""
","""event"",""trial"",""time""
""fullscreenenter"",""0"",""8839""
","
","null","<div style=""font-size:60px;"">+</div>","","null","fixation","2021-08-09 17:45:54.957","","","","",""
"","mars-trial","54","326019","0.0-10.0-1.20","1030","""event"",""trial"",""time""
""blur"",""0"",""0""
""focus"",""0"",""0""
""blur"",""0"",""0""
""focus"",""0"",""3072""
""blur"",""0"",""6043""
""focus"",""0"",""8552""
""fullscreenenter"",""0"",""8839""
","""event"",""trial"",""time""
""blur"",""0"",""0""
""blur"",""0"",""0""
""blur"",""0"",""6043""
","""event"",""trial"",""time""
""focus"",""0"",""0""
""focus"",""0"",""3072""
""focus"",""0"",""8552""
","""event"",""trial"",""time""
""fullscreenenter"",""0"",""8839""
","
","26296.59999999404","<img style='border: 4px solid darkgrey;' src='img/tf1_21_M_ss2.jpeg'></img>","1","","exp","","1","<img src='img/tf1_21_T1_ss2_md.jpeg'></img>","0","false",""
"","html-keyboard-response","55","326522","0.0-10.0-0.21","1030","""event"",""trial"",""time""
""blur"",""0"",""0""
""focus"",""0"",""0""
""blur"",""0"",""0""
""focus"",""0"",""3072""
""blur"",""0"",""6043""
""focus"",""0"",""8552""
""fullscreenenter"",""0"",""8839""
","""event"",""trial"",""time""
""blur"",""0"",""0""
""blur"",""0"",""0""
""blur"",""0"",""6043""
","""event"",""trial"",""time""
""focus"",""0"",""0""
""focus"",""0"",""3072""
""focus"",""0"",""8552""
","""event"",""trial"",""time""
""fullscreenenter"",""0"",""8839""
","
","null","<div style=""font-size:60px;"">+</div>","","null","fixation","2021-08-09 17:46:22.361","","","","",""
"","mars-trial","56","354054","0.0-10.0-1.21","1030","""event"",""trial"",""time""
""blur"",""0"",""0""
""focus"",""0"",""0""
""blur"",""0"",""0""
""focus"",""0"",""3072""
""blur"",""0"",""6043""
""focus"",""0"",""8552""
""fullscreenenter"",""0"",""8839""
","""event"",""trial"",""time""
""blur"",""0"",""0""
""blur"",""0"",""0""
""blur"",""0"",""6043""
","""event"",""trial"",""time""
""focus"",""0"",""0""
""focus"",""0"",""3072""
""focus"",""0"",""8552""
","""event"",""trial"",""time""
""fullscreenenter"",""0"",""8839""
","
","26924.59999999404","<img style='border: 4px solid darkgrey;' src='img/tf1_22_M_ss3.jpeg'></img>","0","","exp","","3","<img src='img/tf1_22_T1_ss3_md.jpeg'></img>","0","false",""
"","html-keyboard-response","57","354558","0.0-10.0-0.22","1030","""event"",""trial"",""time""
""blur"",""0"",""0""
""focus"",""0"",""0""
""blur"",""0"",""0""
""focus"",""0"",""3072""
""blur"",""0"",""6043""
""focus"",""0"",""8552""
""fullscreenenter"",""0"",""8839""
","""event"",""trial"",""time""
""blur"",""0"",""0""
""blur"",""0"",""0""
""blur"",""0"",""6043""
","""event"",""trial"",""time""
""focus"",""0"",""0""
""focus"",""0"",""3072""
""focus"",""0"",""8552""
","""event"",""trial"",""time""
""fullscreenenter"",""0"",""8839""
","
","null","<div style=""font-size:60px;"">+</div>","","null","fixation","2021-08-09 17:46:50.397","","","","",""
"","mars-trial","58","365779","0.0-10.0-1.22","1030","""event"",""trial"",""time""
""blur"",""0"",""0""
""focus"",""0"",""0""
""blur"",""0"",""0""
""focus"",""0"",""3072""
""blur"",""0"",""6043""
""focus"",""0"",""8552""
""fullscreenenter"",""0"",""8839""
","""event"",""trial"",""time""
""blur"",""0"",""0""
""blur"",""0"",""0""
""blur"",""0"",""6043""
","""event"",""trial"",""time""
""focus"",""0"",""0""
""focus"",""0"",""3072""
""focus"",""0"",""8552""
","""event"",""trial"",""time""
""fullscreenenter"",""0"",""8839""
","
","10613.59999999404","<img style='border: 4px solid darkgrey;' src='img/tf1_23_M_ss1.jpeg'></img>","0","","exp","","3","<img src='img/tf1_23_T1_ss1_md.jpeg'></img>","0","false",""
"","html-keyboard-response","59","366282","0.0-10.0-0.23","1030","""event"",""trial"",""time""
""blur"",""0"",""0""
""focus"",""0"",""0""
""blur"",""0"",""0""
""focus"",""0"",""3072""
""blur"",""0"",""6043""
""focus"",""0"",""8552""
""fullscreenenter"",""0"",""8839""
","""event"",""trial"",""time""
""blur"",""0"",""0""
""blur"",""0"",""0""
""blur"",""0"",""6043""
","""event"",""trial"",""time""
""focus"",""0"",""0""
""focus"",""0"",""3072""
""focus"",""0"",""8552""
","""event"",""trial"",""time""
""fullscreenenter"",""0"",""8839""
","
","null","<div style=""font-size:60px;"">+</div>","","null","fixation","2021-08-09 17:47:02.121","","","","",""
"","mars-trial","60","392049","0.0-10.0-1.23","1030","""event"",""trial"",""time""
""blur"",""0"",""0""
""focus"",""0"",""0""
""blur"",""0"",""0""
""focus"",""0"",""3072""
""blur"",""0"",""6043""
""focus"",""0"",""8552""
""fullscreenenter"",""0"",""8839""
","""event"",""trial"",""time""
""blur"",""0"",""0""
""blur"",""0"",""0""
""blur"",""0"",""6043""
","""event"",""trial"",""time""
""focus"",""0"",""0""
""focus"",""0"",""3072""
""focus"",""0"",""8552""
","""event"",""trial"",""time""
""fullscreenenter"",""0"",""8839""
","
","25160.19999998808","<img style='border: 4px solid darkgrey;' src='img/tf1_24_M_ss2.jpeg'></img>","3","","exp","","1","<img src='img/tf1_24_T1_ss2_md.jpeg'></img>","0","false",""
"","html-keyboard-response","61","392553","0.0-10.0-0.24","1030","""event"",""trial"",""time""
""blur"",""0"",""0""
""focus"",""0"",""0""
""blur"",""0"",""0""
""focus"",""0"",""3072""
""blur"",""0"",""6043""
""focus"",""0"",""8552""
""fullscreenenter"",""0"",""8839""
","""event"",""trial"",""time""
""blur"",""0"",""0""
""blur"",""0"",""0""
""blur"",""0"",""6043""
","""event"",""trial"",""time""
""focus"",""0"",""0""
""focus"",""0"",""3072""
""focus"",""0"",""8552""
","""event"",""trial"",""time""
""fullscreenenter"",""0"",""8839""
","
","null","<div style=""font-size:60px;"">+</div>","","null","fixation","2021-08-09 17:47:28.392","","","","",""
"","mars-trial","62","397110","0.0-10.0-1.24","1030","""event"",""trial"",""time""
""blur"",""0"",""0""
""focus"",""0"",""0""
""blur"",""0"",""0""
""focus"",""0"",""3072""
""blur"",""0"",""6043""
""focus"",""0"",""8552""
""fullscreenenter"",""0"",""8839""
","""event"",""trial"",""time""
""blur"",""0"",""0""
""blur"",""0"",""0""
""blur"",""0"",""6043""
","""event"",""trial"",""time""
""focus"",""0"",""0""
""focus"",""0"",""3072""
""focus"",""0"",""8552""
","""event"",""trial"",""time""
""fullscreenenter"",""0"",""8839""
","
","3951.0999999940395","<img style='border: 4px solid darkgrey;' src='img/tf1_25_M_ss3.jpeg'></img>","1","","exp","","0","<img src='img/tf1_25_T1_ss3_md.jpeg'></img>","0","true",""
"","html-keyboard-response","63","397613","0.0-10.0-0.25","1030","""event"",""trial"",""time""
""blur"",""0"",""0""
""focus"",""0"",""0""
""blur"",""0"",""0""
""focus"",""0"",""3072""
""blur"",""0"",""6043""
""focus"",""0"",""8552""
""fullscreenenter"",""0"",""8839""
","""event"",""trial"",""time""
""blur"",""0"",""0""
""blur"",""0"",""0""
""blur"",""0"",""6043""
","""event"",""trial"",""time""
""focus"",""0"",""0""
""focus"",""0"",""3072""
""focus"",""0"",""8552""
","""event"",""trial"",""time""
""fullscreenenter"",""0"",""8839""
","
","null","<div style=""font-size:60px;"">+</div>","","null","fixation","2021-08-09 17:47:33.452","","","","",""
"","mars-trial","64","427666","0.0-10.0-1.25","1030","""event"",""trial"",""time""
""blur"",""0"",""0""
""focus"",""0"",""0""
""blur"",""0"",""0""
""focus"",""0"",""3072""
""blur"",""0"",""6043""
""focus"",""0"",""8552""
""fullscreenenter"",""0"",""8839""
","""event"",""trial"",""time""
""blur"",""0"",""0""
""blur"",""0"",""0""
""blur"",""0"",""6043""
","""event"",""trial"",""time""
""focus"",""0"",""0""
""focus"",""0"",""3072""
""focus"",""0"",""8552""
","""event"",""trial"",""time""
""fullscreenenter"",""0"",""8839""
","
","29446.79999998212","<img style='border: 4px solid darkgrey;' src='img/tf1_26_M_ss1.jpeg'></img>","0","","exp","","2","<img src='img/tf1_26_T1_ss1_md.jpeg'></img>","0","false",""
"","html-keyboard-response","65","428173","0.0-10.0-0.26","1030","""event"",""trial"",""time""
""blur"",""0"",""0""
""focus"",""0"",""0""
""blur"",""0"",""0""
""focus"",""0"",""3072""
""blur"",""0"",""6043""
""focus"",""0"",""8552""
""fullscreenenter"",""0"",""8839""
","""event"",""trial"",""time""
""blur"",""0"",""0""
""blur"",""0"",""0""
""blur"",""0"",""6043""
","""event"",""trial"",""time""
""focus"",""0"",""0""
""focus"",""0"",""3072""
""focus"",""0"",""8552""
","""event"",""trial"",""time""
""fullscreenenter"",""0"",""8839""
","
","null","<div style=""font-size:60px;"">+</div>","","null","fixation","2021-08-09 17:48:04.012","","","","",""
"","mars-trial","66","443864","0.0-10.0-1.26","1030","""event"",""trial"",""time""
""blur"",""0"",""0""
""focus"",""0"",""0""
""blur"",""0"",""0""
""focus"",""0"",""3072""
""blur"",""0"",""6043""
""focus"",""0"",""8552""
""fullscreenenter"",""0"",""8839""
","""event"",""trial"",""time""
""blur"",""0"",""0""
""blur"",""0"",""0""
""blur"",""0"",""6043""
","""event"",""trial"",""time""
""focus"",""0"",""0""
""focus"",""0"",""3072""
""focus"",""0"",""8552""
","""event"",""trial"",""time""
""fullscreenenter"",""0"",""8839""
","
","15082","<img style='border: 4px solid darkgrey;' src='img/tf1_27_M_ss2.jpeg'></img>","0","","exp","","0","<img src='img/tf1_27_T1_ss2_md.jpeg'></img>","0","true",""
"","html-keyboard-response","67","444367","0.0-10.0-0.27","1030","""event"",""trial"",""time""
""blur"",""0"",""0""
""focus"",""0"",""0""
""blur"",""0"",""0""
""focus"",""0"",""3072""
""blur"",""0"",""6043""
""focus"",""0"",""8552""
""fullscreenenter"",""0"",""8839""
","""event"",""trial"",""time""
""blur"",""0"",""0""
""blur"",""0"",""0""
""blur"",""0"",""6043""
","""event"",""trial"",""time""
""focus"",""0"",""0""
""focus"",""0"",""3072""
""focus"",""0"",""8552""
","""event"",""trial"",""time""
""fullscreenenter"",""0"",""8839""
","
","null","<div style=""font-size:60px;"">+</div>","","null","fixation","2021-08-09 17:48:20.207","","","","",""
"","mars-trial","68","464460","0.0-10.0-1.27","1030","""event"",""trial"",""time""
""blur"",""0"",""0""
""focus"",""0"",""0""
""blur"",""0"",""0""
""focus"",""0"",""3072""
""blur"",""0"",""6043""
""focus"",""0"",""8552""
""fullscreenenter"",""0"",""8839""
","""event"",""trial"",""time""
""blur"",""0"",""0""
""blur"",""0"",""0""
""blur"",""0"",""6043""
","""event"",""trial"",""time""
""focus"",""0"",""0""
""focus"",""0"",""3072""
""focus"",""0"",""8552""
","""event"",""trial"",""time""
""fullscreenenter"",""0"",""8839""
","
","19485.90000000596","<img style='border: 4px solid darkgrey;' src='img/tf1_28_M_ss3.jpeg'></img>","2","","exp","","0","<img src='img/tf1_28_T1_ss3_md.jpeg'></img>","0","true",""
"","html-keyboard-response","69","464964","0.0-10.0-0.28","1030","""event"",""trial"",""time""
""blur"",""0"",""0""
""focus"",""0"",""0""
""blur"",""0"",""0""
""focus"",""0"",""3072""
""blur"",""0"",""6043""
""focus"",""0"",""8552""
""fullscreenenter"",""0"",""8839""
","""event"",""trial"",""time""
""blur"",""0"",""0""
""blur"",""0"",""0""
""blur"",""0"",""6043""
","""event"",""trial"",""time""
""focus"",""0"",""0""
""focus"",""0"",""3072""
""focus"",""0"",""8552""
","""event"",""trial"",""time""
""fullscreenenter"",""0"",""8839""
","
","null","<div style=""font-size:60px;"">+</div>","","null","fixation","2021-08-09 17:48:40.803","","","","",""
"","mars-trial","70","490259","0.0-10.0-1.28","1030","""event"",""trial"",""time""
""blur"",""0"",""0""
""focus"",""0"",""0""
""blur"",""0"",""0""
""focus"",""0"",""3072""
""blur"",""0"",""6043""
""focus"",""0"",""8552""
""fullscreenenter"",""0"",""8839""
","""event"",""trial"",""time""
""blur"",""0"",""0""
""blur"",""0"",""0""
""blur"",""0"",""6043""
","""event"",""trial"",""time""
""focus"",""0"",""0""
""focus"",""0"",""3072""
""focus"",""0"",""8552""
","""event"",""trial"",""time""
""fullscreenenter"",""0"",""8839""
","
","24686.29999998212","<img style='border: 4px solid darkgrey;' src='img/tf1_29_M_ss1.jpeg'></img>","1","","exp","","0","<img src='img/tf1_29_T1_ss1_md.jpeg'></img>","0","true",""
"","html-keyboard-response","71","490762","0.0-10.0-0.29","1030","""event"",""trial"",""time""
""blur"",""0"",""0""
""focus"",""0"",""0""
""blur"",""0"",""0""
""focus"",""0"",""3072""
""blur"",""0"",""6043""
""focus"",""0"",""8552""
""fullscreenenter"",""0"",""8839""
","""event"",""trial"",""time""
""blur"",""0"",""0""
""blur"",""0"",""0""
""blur"",""0"",""6043""
","""event"",""trial"",""time""
""focus"",""0"",""0""
""focus"",""0"",""3072""
""focus"",""0"",""8552""
","""event"",""trial"",""time""
""fullscreenenter"",""0"",""8839""
","
","null","<div style=""font-size:60px;"">+</div>","","null","fixation","2021-08-09 17:49:06.601","","","","",""
"","mars-trial","72","506381","0.0-10.0-1.29","1030","""event"",""trial"",""time""
""blur"",""0"",""0""
""focus"",""0"",""0""
""blur"",""0"",""0""
""focus"",""0"",""3072""
""blur"",""0"",""6043""
""focus"",""0"",""8552""
""fullscreenenter"",""0"",""8839""
","""event"",""trial"",""time""
""blur"",""0"",""0""
""blur"",""0"",""0""
""blur"",""0"",""6043""
","""event"",""trial"",""time""
""focus"",""0"",""0""
""focus"",""0"",""3072""
""focus"",""0"",""8552""
","""event"",""trial"",""time""
""fullscreenenter"",""0"",""8839""
","
","15013.59999999404","<img style='border: 4px solid darkgrey;' src='img/tf1_30_M_ss2.jpeg'></img>","1","","exp","","0","<img src='img/tf1_30_T1_ss2_md.jpeg'></img>","0","true",""
"","html-keyboard-response","73","506884","0.0-10.0-0.30","1030","""event"",""trial"",""time""
""blur"",""0"",""0""
""focus"",""0"",""0""
""blur"",""0"",""0""
""focus"",""0"",""3072""
""blur"",""0"",""6043""
""focus"",""0"",""8552""
""fullscreenenter"",""0"",""8839""
","""event"",""trial"",""time""
""blur"",""0"",""0""
""blur"",""0"",""0""
""blur"",""0"",""6043""
","""event"",""trial"",""time""
""focus"",""0"",""0""
""focus"",""0"",""3072""
""focus"",""0"",""8552""
","""event"",""trial"",""time""
""fullscreenenter"",""0"",""8839""
","
","null","<div style=""font-size:60px;"">+</div>","","null","fixation","2021-08-09 17:49:22.723","","","","",""
"","mars-trial","74","522648","0.0-10.0-1.30","1030","""event"",""trial"",""time""
""blur"",""0"",""0""
""focus"",""0"",""0""
""blur"",""0"",""0""
""focus"",""0"",""3072""
""blur"",""0"",""6043""
""focus"",""0"",""8552""
""fullscreenenter"",""0"",""8839""
","""event"",""trial"",""time""
""blur"",""0"",""0""
""blur"",""0"",""0""
""blur"",""0"",""6043""
","""event"",""trial"",""time""
""focus"",""0"",""0""
""focus"",""0"",""3072""
""focus"",""0"",""8552""
","""event"",""trial"",""time""
""fullscreenenter"",""0"",""8839""
","
","15156.699999988079","<img style='border: 4px solid darkgrey;' src='img/tf1_31_M_ss3.jpeg'></img>","1","","exp","","2","<img src='img/tf1_31_T1_ss3_md.jpeg'></img>","0","false",""
"","html-keyboard-response","75","523152","0.0-10.0-0.31","1030","""event"",""trial"",""time""
""blur"",""0"",""0""
""focus"",""0"",""0""
""blur"",""0"",""0""
""focus"",""0"",""3072""
""blur"",""0"",""6043""
""focus"",""0"",""8552""
""fullscreenenter"",""0"",""8839""
","""event"",""trial"",""time""
""blur"",""0"",""0""
""blur"",""0"",""0""
""blur"",""0"",""6043""
","""event"",""trial"",""time""
""focus"",""0"",""0""
""focus"",""0"",""3072""
""focus"",""0"",""8552""
","""event"",""trial"",""time""
""fullscreenenter"",""0"",""8839""
","
","null","<div style=""font-size:60px;"">+</div>","","null","fixation","2021-08-09 17:49:38.992","","","","",""
"","mars-trial","76","531261","0.0-10.0-1.31","1030","""event"",""trial"",""time""
""blur"",""0"",""0""
""focus"",""0"",""0""
""blur"",""0"",""0""
""focus"",""0"",""3072""
""blur"",""0"",""6043""
""focus"",""0"",""8552""
""fullscreenenter"",""0"",""8839""
","""event"",""trial"",""time""
""blur"",""0"",""0""
""blur"",""0"",""0""
""blur"",""0"",""6043""
","""event"",""trial"",""time""
""focus"",""0"",""0""
""focus"",""0"",""3072""
""focus"",""0"",""8552""
","""event"",""trial"",""time""
""fullscreenenter"",""0"",""8839""
","
","7500.199999988079","<img style='border: 4px solid darkgrey;' src='img/tf1_32_M_ss1.jpeg'></img>","2","","exp","","0","<img src='img/tf1_32_T1_ss1_md.jpeg'></img>","0","true",""
"","html-keyboard-response","77","531764","0.0-10.0-0.32","1030","""event"",""trial"",""time""
""blur"",""0"",""0""
""focus"",""0"",""0""
""blur"",""0"",""0""
""focus"",""0"",""3072""
""blur"",""0"",""6043""
""focus"",""0"",""8552""
""fullscreenenter"",""0"",""8839""
","""event"",""trial"",""time""
""blur"",""0"",""0""
""blur"",""0"",""0""
""blur"",""0"",""6043""
","""event"",""trial"",""time""
""focus"",""0"",""0""
""focus"",""0"",""3072""
""focus"",""0"",""8552""
","""event"",""trial"",""time""
""fullscreenenter"",""0"",""8839""
","
","null","<div style=""font-size:60px;"">+</div>","","null","fixation","2021-08-09 17:49:47.603","","","","",""
"","mars-trial","78","538782","0.0-10.0-1.32","1030","""event"",""trial"",""time""
""blur"",""0"",""0""
""focus"",""0"",""0""
""blur"",""0"",""0""
""focus"",""0"",""3072""
""blur"",""0"",""6043""
""focus"",""0"",""8552""
""fullscreenenter"",""0"",""8839""
","""event"",""trial"",""time""
""blur"",""0"",""0""
""blur"",""0"",""0""
""blur"",""0"",""6043""
","""event"",""trial"",""time""
""focus"",""0"",""0""
""focus"",""0"",""3072""
""focus"",""0"",""8552""
","""event"",""trial"",""time""
""fullscreenenter"",""0"",""8839""
","
","6412.4000000059605","<img style='border: 4px solid darkgrey;' src='img/tf1_33_M_ss2.jpeg'></img>","0","","exp","","0","<img src='img/tf1_33_T1_ss2_md.jpeg'></img>","0","true",""
"","html-keyboard-response","79","539285","0.0-10.0-0.33","1030","""event"",""trial"",""time""
""blur"",""0"",""0""
""focus"",""0"",""0""
""blur"",""0"",""0""
""focus"",""0"",""3072""
""blur"",""0"",""6043""
""focus"",""0"",""8552""
""fullscreenenter"",""0"",""8839""
","""event"",""trial"",""time""
""blur"",""0"",""0""
""blur"",""0"",""0""
""blur"",""0"",""6043""
","""event"",""trial"",""time""
""focus"",""0"",""0""
""focus"",""0"",""3072""
""focus"",""0"",""8552""
","""event"",""trial"",""time""
""fullscreenenter"",""0"",""8839""
","
","null","<div style=""font-size:60px;"">+</div>","","null","fixation","2021-08-09 17:49:55.124","","","","",""
"","mars-trial","80","547026","0.0-10.0-1.33","1030","""event"",""trial"",""time""
""blur"",""0"",""0""
""focus"",""0"",""0""
""blur"",""0"",""0""
""focus"",""0"",""3072""
""blur"",""0"",""6043""
""focus"",""0"",""8552""
""fullscreenenter"",""0"",""8839""
","""event"",""trial"",""time""
""blur"",""0"",""0""
""blur"",""0"",""0""
""blur"",""0"",""6043""
","""event"",""trial"",""time""
""focus"",""0"",""0""
""focus"",""0"",""3072""
""focus"",""0"",""8552""
","""event"",""trial"",""time""
""fullscreenenter"",""0"",""8839""
","
","","","","","exp","","","<img src='img/tf1_34_T1_ss3_md.jpeg'></img>","0","false",""
"","html-keyboard-response","81","547529","0.0-10.0-0.34","1030","""event"",""trial"",""time""
""blur"",""0"",""0""
""focus"",""0"",""0""
""blur"",""0"",""0""
""focus"",""0"",""3072""
""blur"",""0"",""6043""
""focus"",""0"",""8552""
""fullscreenenter"",""0"",""8839""
","""event"",""trial"",""time""
""blur"",""0"",""0""
""blur"",""0"",""0""
""blur"",""0"",""6043""
","""event"",""trial"",""time""
""focus"",""0"",""0""
""focus"",""0"",""3072""
""focus"",""0"",""8552""
","""event"",""trial"",""time""
""fullscreenenter"",""0"",""8839""
","
","null","<div style=""font-size:60px;"">+</div>","","null","fixation","2021-08-09 17:50:03.369","","","","",""
"","audio-button-response","82","551479","0.0-11.0","1030","""event"",""trial"",""time""
""blur"",""0"",""0""
""focus"",""0"",""0""
""blur"",""0"",""0""
""focus"",""0"",""3072""
""blur"",""0"",""6043""
""focus"",""0"",""8552""
""fullscreenenter"",""0"",""8839""
","""event"",""trial"",""time""
""blur"",""0"",""0""
""blur"",""0"",""0""
""blur"",""0"",""6043""
","""event"",""trial"",""time""
""focus"",""0"",""0""
""focus"",""0"",""3072""
""focus"",""0"",""8552""
","""event"",""trial"",""time""
""fullscreenenter"",""0"",""8839""
","
","3846.399999976158","audio/mars_instructions_slide5.wav","0","","","","","","","",""
