"success","trial_type","trial_index","time_elapsed","internal_node_id","subject_id","interactions","blur_events","focus_events","fullscreenenter_events","fullscreenexit_events","rt","stimulus","button_pressed","key_press","part","timestamp","unshuffled_button","correct_response","correct_button","correct","value"
"true","fullscreen","0","4809","0.0-0.0","A927","
","
","
","
","
","","","","","","","","","","",""
"","pavlovia","1","4812","0.0-1.0","A927","
","
","
","
","
","","","","","","","","","","",""
"","html-button-response","2","5969","0.0-2.0","A927","
","
","
","
","
","1155","<p>Welcome! Press START to begin.</p><br>","0","","","","","","","",""
"","audio-button-response","3","11022","0.0-3.0","A927","
","
","
","
","
","4995.999999999998","audio/mars_instructions_slide2.wav","0","","","","","","","",""
"","audio-button-response","4","12572","0.0-4.0","A927","
","
","
","
","
","1550.0000000000036","audio/mars_instructions_slide3.wav","0","","","","","","","",""
"","html-keyboard-response","5","13074","0.0-5.0-0.0","A927","
","
","
","
","
","null","<div style=""font-size:60px;"">+</div>","","null","fixation","2021-07-08 16:46:30.342","","","","",""
"","mars-trial","6","19791","0.0-5.0-1.0","A927","
","
","
","
","
","4533","<img style='border: 4px solid darkgrey;' src='practice/pt1_M1.png'></img>","0","","practice","","2","<img src='practice/pt1_T1.png'></img>","0","false",""
"","html-keyboard-response","7","20292","0.0-5.1-0.1","A927","
","
","
","
","
","null","<div style=""font-size:60px;"">+</div>","","null","fixation","2021-07-08 16:46:37.560","","","","",""
"","mars-trial","8","28017","0.0-5.1-1.1","A927","
","
","
","
","
","5616","<img style='border: 4px solid darkgrey;' src='practice/pt1_M1.png'></img>","2","","practice","","0","<img src='practice/pt1_T1.png'></img>","0","true",""
"","html-keyboard-response","9","28517","0.0-6.0-0.0","A927","
","
","
","
","
","null","<div style=""font-size:60px;"">+</div>","","null","fixation","2021-07-08 16:46:45.785","","","","",""
"","mars-trial","10","32626","0.0-6.0-1.0","A927","
","
","
","
","
","2000","<img style='border: 4px solid darkgrey;' src='practice/pt2_M1.png'></img>","0","","practice","","0","<img src='practice/pt2_T1.png'></img>","0","true",""
"","html-keyboard-response","11","33127","0.0-7.0-0.0","A927","
","
","
","
","
","null","<div style=""font-size:60px;"">+</div>","","null","fixation","2021-07-08 16:46:50.395","","","","",""
"","mars-trial","12","36576","0.0-7.0-1.0","A927","
","
","
","
","
","1340.9999999999927","<img style='border: 4px solid darkgrey;' src='practice/pt3_M1.png'></img>","2","","practice","","0","<img src='practice/pt3_T1.png'></img>","0","true",""
"","audio-button-response","13","37895","0.0-8.0","A927","
","
","
","
","
","1318","audio/mars_instructions_slide4.wav","0","","","","","","","",""
"","call-function","14","37896","0.0-9.0","A927","
","
","
","
","
","","","","","","","","","","",""
"","html-keyboard-response","15","38397","0.0-10.0-0.0","A927","
","
","
","
","
","null","<div style=""font-size:60px;"">+</div>","","null","fixation","2021-07-08 16:46:55.665","","","","",""
"","mars-trial","16","40989","0.0-10.0-1.0","A927","
","
","
","
","
","1985","<img style='border: 4px solid darkgrey;' src='img/tf1_1_M_ss3.jpeg'></img>","0","","exp","","0","<img src='img/tf1_1_T1_ss3_md.jpeg'></img>","0","true",""
"","html-keyboard-response","17","41491","0.0-10.0-0.1","A927","
","
","
","
","
","null","<div style=""font-size:60px;"">+</div>","","null","fixation","2021-07-08 16:46:58.759","","","","",""
"","mars-trial","18","46147","0.0-10.0-1.1","A927","
","
","
","
","
","4047","<img style='border: 4px solid darkgrey;' src='img/tf1_2_M_ss1.jpeg'></img>","2","","exp","","0","<img src='img/tf1_2_T1_ss1_md.jpeg'></img>","0","true",""
"","html-keyboard-response","19","46649","0.0-10.0-0.2","A927","
","
","
","
","
","null","<div style=""font-size:60px;"">+</div>","","null","fixation","2021-07-08 16:47:03.917","","","","",""
"","mars-trial","20","48760","0.0-10.0-1.2","A927","
","
","
","
","
","1504","<img style='border: 4px solid darkgrey;' src='img/tf1_3_M_ss2.jpeg'></img>","3","","exp","","0","<img src='img/tf1_3_T1_ss2_md.jpeg'></img>","0","true",""
"","html-keyboard-response","21","49262","0.0-10.0-0.3","A927","
","
","
","
","
","null","<div style=""font-size:60px;"">+</div>","","null","fixation","2021-07-08 16:47:06.530","","","","",""
"","mars-trial","22","52790","0.0-10.0-1.3","A927","
","
","
","
","
","2919","<img style='border: 4px solid darkgrey;' src='img/tf1_4_M_ss3.jpeg'></img>","3","","exp","","0","<img src='img/tf1_4_T1_ss3_md.jpeg'></img>","0","true",""
"","html-keyboard-response","23","53292","0.0-10.0-0.4","A927","
","
","
","
","
","null","<div style=""font-size:60px;"">+</div>","","null","fixation","2021-07-08 16:47:10.560","","","","",""
"","mars-trial","24","55317","0.0-10.0-1.4","A927","
","
","
","
","
","1417","<img style='border: 4px solid darkgrey;' src='img/tf1_5_M_ss1.jpeg'></img>","0","","exp","","0","<img src='img/tf1_5_T1_ss1_md.jpeg'></img>","0","true",""
"","html-keyboard-response","25","55818","0.0-10.0-0.5","A927","
","
","
","
","
","null","<div style=""font-size:60px;"">+</div>","","null","fixation","2021-07-08 16:47:13.086","","","","",""
"","mars-trial","26","63121","0.0-10.0-1.5","A927","
","
","
","
","
","6694","<img style='border: 4px solid darkgrey;' src='img/tf1_6_M_ss2.jpeg'></img>","2","","exp","","2","<img src='img/tf1_6_T1_ss2_md.jpeg'></img>","0","false",""
"","html-keyboard-response","27","63621","0.0-10.0-0.6","A927","
","
","
","
","
","null","<div style=""font-size:60px;"">+</div>","","null","fixation","2021-07-08 16:47:20.889","","","","",""
"","mars-trial","28","67865","0.0-10.0-1.6","A927","
","
","
","
","
","3636","<img style='border: 4px solid darkgrey;' src='img/tf1_7_M_ss3.jpeg'></img>","3","","exp","","0","<img src='img/tf1_7_T1_ss3_md.jpeg'></img>","0","true",""
"","html-keyboard-response","29","68366","0.0-10.0-0.7","A927","
","
","
","
","
","null","<div style=""font-size:60px;"">+</div>","","null","fixation","2021-07-08 16:47:25.635","","","","",""
"","mars-trial","30","70392","0.0-10.0-1.7","A927","
","
","
","
","
","1418","<img style='border: 4px solid darkgrey;' src='img/tf1_8_M_ss1.jpeg'></img>","1","","exp","","2","<img src='img/tf1_8_T1_ss1_md.jpeg'></img>","0","false",""
"","html-keyboard-response","31","70894","0.0-10.0-0.8","A927","
","
","
","
","
","null","<div style=""font-size:60px;"">+</div>","","null","fixation","2021-07-08 16:47:28.162","","","","",""
"","mars-trial","32","74494","0.0-10.0-1.8","A927","
","
","
","
","
","2991","<img style='border: 4px solid darkgrey;' src='img/tf1_9_M_ss2.jpeg'></img>","2","","exp","","2","<img src='img/tf1_9_T1_ss2_md.jpeg'></img>","0","false",""
"","html-keyboard-response","33","74994","0.0-10.0-0.9","A927","
","
","
","
","
","null","<div style=""font-size:60px;"">+</div>","","null","fixation","2021-07-08 16:47:32.262","","","","",""
"","mars-trial","34","79207","0.0-10.0-1.9","A927","
","
","
","
","
","3605","<img style='border: 4px solid darkgrey;' src='img/tf1_10_M_ss3.jpeg'></img>","0","","exp","","1","<img src='img/tf1_10_T1_ss3_md.jpeg'></img>","0","false",""
"","html-keyboard-response","35","79708","0.0-10.0-0.10","A927","
","
","
","
","
","null","<div style=""font-size:60px;"">+</div>","","null","fixation","2021-07-08 16:47:36.976","","","","",""
"","mars-trial","36","84587","0.0-10.0-1.10","A927","
","
","
","
","
","4271","<img style='border: 4px solid darkgrey;' src='img/tf1_11_M_ss1.jpeg'></img>","2","","exp","","0","<img src='img/tf1_11_T1_ss1_md.jpeg'></img>","0","true",""
"","html-keyboard-response","37","85088","0.0-10.0-0.11","A927","
","
","
","
","
","null","<div style=""font-size:60px;"">+</div>","","null","fixation","2021-07-08 16:47:42.356","","","","",""
"","mars-trial","38","89434","0.0-10.0-1.11","A927","
","
","
","
","
","3739","<img style='border: 4px solid darkgrey;' src='img/tf1_12_M_ss2.jpeg'></img>","3","","exp","","1","<img src='img/tf1_12_T1_ss2_md.jpeg'></img>","0","false",""
"","html-keyboard-response","39","89935","0.0-10.0-0.12","A927","
","
","
","
","
","null","<div style=""font-size:60px;"">+</div>","","null","fixation","2021-07-08 16:47:47.203","","","","",""
"","mars-trial","40","99359","0.0-10.0-1.12","A927","
","
","
","
","
","8817.000000000015","<img style='border: 4px solid darkgrey;' src='img/tf1_13_M_ss3.jpeg'></img>","2","","exp","","0","<img src='img/tf1_13_T1_ss3_md.jpeg'></img>","0","true",""
"","html-keyboard-response","41","99861","0.0-10.0-0.13","A927","
","
","
","
","
","null","<div style=""font-size:60px;"">+</div>","","null","fixation","2021-07-08 16:47:57.129","","","","",""
"","mars-trial","42","103191","0.0-10.0-1.13","A927","
","
","
","
","
","2723","<img style='border: 4px solid darkgrey;' src='img/tf1_14_M_ss1.jpeg'></img>","0","","exp","","1","<img src='img/tf1_14_T1_ss1_md.jpeg'></img>","0","false",""
"","html-keyboard-response","43","103692","0.0-10.0-0.14","A927","
","
","
","
","
","null","<div style=""font-size:60px;"">+</div>","","null","fixation","2021-07-08 16:48:00.961","","","","",""
"","mars-trial","44","105034","0.0-10.0-1.14","A927","
","
","
","
","
","733","<img style='border: 4px solid darkgrey;' src='img/tf1_15_M_ss2.jpeg'></img>","1","","exp","","0","<img src='img/tf1_15_T1_ss2_md.jpeg'></img>","0","true",""
"","html-keyboard-response","45","105536","0.0-10.0-0.15","A927","
","
","
","
","
","null","<div style=""font-size:60px;"">+</div>","","null","fixation","2021-07-08 16:48:02.804","","","","",""
"","mars-trial","46","107315","0.0-10.0-1.15","A927","
","
","
","
","
","1171","<img style='border: 4px solid darkgrey;' src='img/tf1_16_M_ss3.jpeg'></img>","2","","exp","","3","<img src='img/tf1_16_T1_ss3_md.jpeg'></img>","0","false",""
"","html-keyboard-response","47","107816","0.0-10.0-0.16","A927","
","
","
","
","
","null","<div style=""font-size:60px;"">+</div>","","null","fixation","2021-07-08 16:48:05.084","","","","",""
"","mars-trial","48","109183","0.0-10.0-1.16","A927","
","
","
","
","
","756","<img style='border: 4px solid darkgrey;' src='img/tf1_17_M_ss1.jpeg'></img>","1","","exp","","3","<img src='img/tf1_17_T1_ss1_md.jpeg'></img>","0","false",""
"","html-keyboard-response","49","109684","0.0-10.0-0.17","A927","
","
","
","
","
","null","<div style=""font-size:60px;"">+</div>","","null","fixation","2021-07-08 16:48:06.952","","","","",""
"","mars-trial","50","113101","0.0-10.0-1.17","A927","
","
","
","
","
","2807","<img style='border: 4px solid darkgrey;' src='img/tf1_18_M_ss2.jpeg'></img>","0","","exp","","2","<img src='img/tf1_18_T1_ss2_md.jpeg'></img>","0","false",""
"","html-keyboard-response","51","113602","0.0-10.0-0.18","A927","
","
","
","
","
","null","<div style=""font-size:60px;"">+</div>","","null","fixation","2021-07-08 16:48:10.870","","","","",""
"","mars-trial","52","117369","0.0-10.0-1.18","A927","
","
","
","
","
","3159","<img style='border: 4px solid darkgrey;' src='img/tf1_19_M_ss3.jpeg'></img>","1","","exp","","3","<img src='img/tf1_19_T1_ss3_md.jpeg'></img>","0","false",""
"","html-keyboard-response","53","117870","0.0-10.0-0.19","A927","
","
","
","
","
","null","<div style=""font-size:60px;"">+</div>","","null","fixation","2021-07-08 16:48:15.138","","","","",""
"","mars-trial","54","123448","0.0-10.0-1.19","A927","
","
","
","
","
","4969.000000000015","<img style='border: 4px solid darkgrey;' src='img/tf1_20_M_ss1.jpeg'></img>","1","","exp","","0","<img src='img/tf1_20_T1_ss1_md.jpeg'></img>","0","true",""
"","html-keyboard-response","55","123949","0.0-10.0-0.20","A927","
","
","
","
","
","null","<div style=""font-size:60px;"">+</div>","","null","fixation","2021-07-08 16:48:21.217","","","","",""
"","mars-trial","56","126031","0.0-10.0-1.20","A927","
","
","
","
","
","1474.0000000000146","<img style='border: 4px solid darkgrey;' src='img/tf1_21_M_ss2.jpeg'></img>","3","","exp","","3","<img src='img/tf1_21_T1_ss2_md.jpeg'></img>","0","false",""
"","html-keyboard-response","57","126533","0.0-10.0-0.21","A927","
","
","
","
","
","null","<div style=""font-size:60px;"">+</div>","","null","fixation","2021-07-08 16:48:23.801","","","","",""
"","mars-trial","58","134360","0.0-10.0-1.21","A927","
","
","
","
","
","7217","<img style='border: 4px solid darkgrey;' src='img/tf1_22_M_ss3.jpeg'></img>","0","","exp","","0","<img src='img/tf1_22_T1_ss3_md.jpeg'></img>","0","true",""
"","html-keyboard-response","59","134862","0.0-10.0-0.22","A927","
","
","
","
","
","null","<div style=""font-size:60px;"">+</div>","","null","fixation","2021-07-08 16:48:32.130","","","","",""
"","mars-trial","60","136982","0.0-10.0-1.22","A927","
","
","
","
","
","1512","<img style='border: 4px solid darkgrey;' src='img/tf1_23_M_ss1.jpeg'></img>","2","","exp","","2","<img src='img/tf1_23_T1_ss1_md.jpeg'></img>","0","false",""
"","html-keyboard-response","61","137484","0.0-10.0-0.23","A927","
","
","
","
","
","null","<div style=""font-size:60px;"">+</div>","","null","fixation","2021-07-08 16:48:34.752","","","","",""
"","mars-trial","62","139232","0.0-10.0-1.23","A927","
","
","
","
","
","1138","<img style='border: 4px solid darkgrey;' src='img/tf1_24_M_ss2.jpeg'></img>","3","","exp","","3","<img src='img/tf1_24_T1_ss2_md.jpeg'></img>","0","false",""
"","html-keyboard-response","63","139733","0.0-10.0-0.24","A927","
","
","
","
","
","null","<div style=""font-size:60px;"">+</div>","","null","fixation","2021-07-08 16:48:37.001","","","","",""
"","mars-trial","64","142585","0.0-10.0-1.24","A927","
","
","
","
","
","2244","<img style='border: 4px solid darkgrey;' src='img/tf1_25_M_ss3.jpeg'></img>","0","","exp","","1","<img src='img/tf1_25_T1_ss3_md.jpeg'></img>","0","false",""
"","html-keyboard-response","65","143086","0.0-10.0-0.25","A927","
","
","
","
","
","null","<div style=""font-size:60px;"">+</div>","","null","fixation","2021-07-08 16:48:40.354","","","","",""
"","mars-trial","66","145128","0.0-10.0-1.25","A927","
","
","
","
","
","1434","<img style='border: 4px solid darkgrey;' src='img/tf1_26_M_ss1.jpeg'></img>","3","","exp","","3","<img src='img/tf1_26_T1_ss1_md.jpeg'></img>","0","false",""
"","html-keyboard-response","67","145629","0.0-10.0-0.26","A927","
","
","
","
","
","null","<div style=""font-size:60px;"">+</div>","","null","fixation","2021-07-08 16:48:42.898","","","","",""
"","mars-trial","68","147115","0.0-10.0-1.26","A927","
","
","
","
","
","877","<img style='border: 4px solid darkgrey;' src='img/tf1_27_M_ss2.jpeg'></img>","2","","exp","","3","<img src='img/tf1_27_T1_ss2_md.jpeg'></img>","0","false",""
"","html-keyboard-response","69","147616","0.0-10.0-0.27","A927","
","
","
","
","
","null","<div style=""font-size:60px;"">+</div>","","null","fixation","2021-07-08 16:48:44.884","","","","",""
"","mars-trial","70","149173","0.0-10.0-1.27","A927","
","
","
","
","
","949","<img style='border: 4px solid darkgrey;' src='img/tf1_28_M_ss3.jpeg'></img>","1","","exp","","0","<img src='img/tf1_28_T1_ss3_md.jpeg'></img>","0","true",""
"","html-keyboard-response","71","149675","0.0-10.0-0.28","A927","
","
","
","
","
","null","<div style=""font-size:60px;"">+</div>","","null","fixation","2021-07-08 16:48:46.943","","","","",""
"","mars-trial","72","151852","0.0-10.0-1.28","A927","
","
","
","
","
","1568","<img style='border: 4px solid darkgrey;' src='img/tf1_29_M_ss1.jpeg'></img>","3","","exp","","0","<img src='img/tf1_29_T1_ss1_md.jpeg'></img>","0","true",""
"","html-keyboard-response","73","152353","0.0-10.0-0.29","A927","
","
","
","
","
","null","<div style=""font-size:60px;"">+</div>","","null","fixation","2021-07-08 16:48:49.621","","","","",""
"","mars-trial","74","154476","0.0-10.0-1.29","A927","
","
","
","
","
","1512.999999999971","<img style='border: 4px solid darkgrey;' src='img/tf1_30_M_ss2.jpeg'></img>","0","","exp","","3","<img src='img/tf1_30_T1_ss2_md.jpeg'></img>","0","false",""
"","html-keyboard-response","75","154977","0.0-10.0-0.30","A927","
","
","
","
","
","null","<div style=""font-size:60px;"">+</div>","","null","fixation","2021-07-08 16:48:52.245","","","","",""
"","mars-trial","76","158686","0.0-10.0-1.30","A927","
","
","
","
","
","3100","<img style='border: 4px solid darkgrey;' src='img/tf1_31_M_ss3.jpeg'></img>","0","","exp","","0","<img src='img/tf1_31_T1_ss3_md.jpeg'></img>","0","true",""
"","html-keyboard-response","77","159188","0.0-10.0-0.31","A927","
","
","
","
","
","null","<div style=""font-size:60px;"">+</div>","","null","fixation","2021-07-08 16:48:56.456","","","","",""
"","mars-trial","78","163479","0.0-10.0-1.31","A927","
","
","
","
","
","3683","<img style='border: 4px solid darkgrey;' src='img/tf1_32_M_ss1.jpeg'></img>","2","","exp","","0","<img src='img/tf1_32_T1_ss1_md.jpeg'></img>","0","true",""
"","html-keyboard-response","79","163980","0.0-10.0-0.32","A927","
","
","
","
","
","null","<div style=""font-size:60px;"">+</div>","","null","fixation","2021-07-08 16:49:01.248","","","","",""
"","mars-trial","80","166976","0.0-10.0-1.32","A927","
","
","
","
","
","2388","<img style='border: 4px solid darkgrey;' src='img/tf1_33_M_ss2.jpeg'></img>","0","","exp","","0","<img src='img/tf1_33_T1_ss2_md.jpeg'></img>","0","true",""
"","html-keyboard-response","81","167478","0.0-10.0-0.33","A927","
","
","
","
","
","null","<div style=""font-size:60px;"">+</div>","","null","fixation","2021-07-08 16:49:04.746","","","","",""
"","mars-trial","82","169296","0.0-10.0-1.33","A927","
","
","
","
","
","1208.999999999971","<img style='border: 4px solid darkgrey;' src='img/tf1_34_M_ss3.jpeg'></img>","2","","exp","","0","<img src='img/tf1_34_T1_ss3_md.jpeg'></img>","0","true",""
"","html-keyboard-response","83","169798","0.0-10.0-0.34","A927","
","
","
","
","
","null","<div style=""font-size:60px;"">+</div>","","null","fixation","2021-07-08 16:49:07.066","","","","",""
"","mars-trial","84","171554","0.0-10.0-1.34","A927","
","
","
","
","
","1148","<img style='border: 4px solid darkgrey;' src='img/tf1_35_M_ss1.jpeg'></img>","0","","exp","","0","<img src='img/tf1_35_T1_ss1_md.jpeg'></img>","0","true",""
"","html-keyboard-response","85","172056","0.0-10.0-0.35","A927","
","
","
","
","
","null","<div style=""font-size:60px;"">+</div>","","null","fixation","2021-07-08 16:49:09.324","","","","",""
"","mars-trial","86","173398","0.0-10.0-1.35","A927","
","
","
","
","
","733.9999999999709","<img style='border: 4px solid darkgrey;' src='img/tf1_36_M_ss2.jpeg'></img>","2","","exp","","3","<img src='img/tf1_36_T1_ss2_md.jpeg'></img>","0","false",""
"","html-keyboard-response","87","173899","0.0-10.0-0.36","A927","
","
","
","
","
","null","<div style=""font-size:60px;"">+</div>","","null","fixation","2021-07-08 16:49:11.167","","","","",""
"","mars-trial","88","175210","0.0-10.0-1.36","A927","
","
","
","
","
","702","<img style='border: 4px solid darkgrey;' src='img/tf1_37_M_ss3.jpeg'></img>","1","","exp","","1","<img src='img/tf1_37_T1_ss3_md.jpeg'></img>","0","false",""
"","html-keyboard-response","89","175711","0.0-10.0-0.37","A927","
","
","
","
","
","null","<div style=""font-size:60px;"">+</div>","","null","fixation","2021-07-08 16:49:12.979","","","","",""
"","mars-trial","90","181737","0.0-10.0-1.37","A927","
","
","
","
","
","5416","<img style='border: 4px solid darkgrey;' src='img/tf1_38_M_ss1.jpeg'></img>","2","","exp","","0","<img src='img/tf1_38_T1_ss1_md.jpeg'></img>","0","true",""
"","html-keyboard-response","91","182238","0.0-10.0-0.38","A927","
","
","
","
","
","null","<div style=""font-size:60px;"">+</div>","","null","fixation","2021-07-08 16:49:19.506","","","","",""
"","mars-trial","92","183996","0.0-10.0-1.38","A927","
","
","
","
","
","1147","<img style='border: 4px solid darkgrey;' src='img/tf1_39_M_ss2.jpeg'></img>","2","","exp","","1","<img src='img/tf1_39_T1_ss2_md.jpeg'></img>","0","false",""
"","html-keyboard-response","93","184497","0.0-10.0-0.39","A927","
","
","
","
","
","null","<div style=""font-size:60px;"">+</div>","","null","fixation","2021-07-08 16:49:21.765","","","","",""
"","mars-trial","94","186014","0.0-10.0-1.39","A927","
","
","
","
","
","909","<img style='border: 4px solid darkgrey;' src='img/tf1_40_M_ss3.jpeg'></img>","1","","exp","","2","<img src='img/tf1_40_T1_ss3_md.jpeg'></img>","0","false",""
"","html-keyboard-response","95","186516","0.0-10.0-0.40","A927","
","
","
","
","
","null","<div style=""font-size:60px;"">+</div>","","null","fixation","2021-07-08 16:49:23.784","","","","",""
"","mars-trial","96","191346","0.0-10.0-1.40","A927","
","
","
","
","
","4223","<img style='border: 4px solid darkgrey;' src='img/tf1_41_M_ss1.jpeg'></img>","0","","exp","","0","<img src='img/tf1_41_T1_ss1_md.jpeg'></img>","0","true",""
"","html-keyboard-response","97","191847","0.0-10.0-0.41","A927","
","
","
","
","
","null","<div style=""font-size:60px;"">+</div>","","null","fixation","2021-07-08 16:49:29.115","","","","",""
"","mars-trial","98","194328","0.0-10.0-1.41","A927","
","
","
","
","
","1871","<img style='border: 4px solid darkgrey;' src='img/tf1_42_M_ss2.jpeg'></img>","0","","exp","","0","<img src='img/tf1_42_T1_ss2_md.jpeg'></img>","0","true",""
"","html-keyboard-response","99","194829","0.0-10.0-0.42","A927","
","
","
","
","
","null","<div style=""font-size:60px;"">+</div>","","null","fixation","2021-07-08 16:49:32.097","","","","",""
"","mars-trial","100","196910","0.0-10.0-1.42","A927","
","
","
","
","
","1473","<img style='border: 4px solid darkgrey;' src='img/tf1_43_M_ss3.jpeg'></img>","1","","exp","","0","<img src='img/tf1_43_T1_ss3_md.jpeg'></img>","0","true",""
"","html-keyboard-response","101","197412","0.0-10.0-0.43","A927","
","
","
","
","
","null","<div style=""font-size:60px;"">+</div>","","null","fixation","2021-07-08 16:49:34.680","","","","",""
"","mars-trial","102","198921","0.0-10.0-1.43","A927","
","
","
","
","
","901.0000000000291","<img style='border: 4px solid darkgrey;' src='img/tf1_44_M_ss1.jpeg'></img>","0","","exp","","1","<img src='img/tf1_44_T1_ss1_md.jpeg'></img>","0","false",""
"","html-keyboard-response","103","199423","0.0-10.0-0.44","A927","
","
","
","
","
","null","<div style=""font-size:60px;"">+</div>","","null","fixation","2021-07-08 16:49:36.691","","","","",""
"","mars-trial","104","201186","0.0-10.0-1.44","A927","
","
","
","
","
","1153","<img style='border: 4px solid darkgrey;' src='img/tf1_45_M_ss2.jpeg'></img>","1","","exp","","0","<img src='img/tf1_45_T1_ss2_md.jpeg'></img>","0","true",""
"","html-keyboard-response","105","201687","0.0-10.0-0.45","A927","
","
","
","
","
","null","<div style=""font-size:60px;"">+</div>","","null","fixation","2021-07-08 16:49:38.955","","","","",""
"","mars-trial","106","205740","0.0-10.0-1.45","A927","
","
","
","
","
","3443","<img style='border: 4px solid darkgrey;' src='img/tf1_46_M_ss3.jpeg'></img>","0","","exp","","2","<img src='img/tf1_46_T1_ss3_md.jpeg'></img>","0","false",""
"","html-keyboard-response","107","206242","0.0-10.0-0.46","A927","
","
","
","
","
","null","<div style=""font-size:60px;"">+</div>","","null","fixation","2021-07-08 16:49:43.510","","","","",""
"","mars-trial","108","207711","0.0-10.0-1.46","A927","
","
","
","
","
","859.9999999999709","<img style='border: 4px solid darkgrey;' src='img/tf1_47_M_ss1.jpeg'></img>","1","","exp","","0","<img src='img/tf1_47_T1_ss1_md.jpeg'></img>","0","true",""
"","html-keyboard-response","109","208212","0.0-10.0-0.47","A927","
","
","
","
","
","null","<div style=""font-size:60px;"">+</div>","","null","fixation","2021-07-08 16:49:45.480","","","","",""
"","mars-trial","110","209492","0.0-10.0-1.47","A927","
","
","
","
","
","670.9999999999709","<img style='border: 4px solid darkgrey;' src='img/tf1_48_M_ss2.jpeg'></img>","2","","exp","","1","<img src='img/tf1_48_T1_ss2_md.jpeg'></img>","0","false",""
"","html-keyboard-response","111","209993","0.0-10.0-0.48","A927","
","
","
","
","
","null","<div style=""font-size:60px;"">+</div>","","null","fixation","2021-07-08 16:49:47.261","","","","",""
"","mars-trial","112","211438","0.0-10.0-1.48","A927","
","
","
","
","
","837","<img style='border: 4px solid darkgrey;' src='img/tf1_49_M_ss3.jpeg'></img>","1","","exp","","2","<img src='img/tf1_49_T1_ss3_md.jpeg'></img>","0","false",""
"","html-keyboard-response","113","211940","0.0-10.0-0.49","A927","
","
","
","
","
","null","<div style=""font-size:60px;"">+</div>","","null","fixation","2021-07-08 16:49:49.208","","","","",""
"","mars-trial","114","215921","0.0-10.0-1.49","A927","
","
","
","
","
","3375","<img style='border: 4px solid darkgrey;' src='img/tf1_50_M_ss1.jpeg'></img>","3","","exp","","0","<img src='img/tf1_50_T1_ss1_md.jpeg'></img>","0","true",""
"","html-keyboard-response","115","216423","0.0-10.0-0.50","A927","
","
","
","
","
","null","<div style=""font-size:60px;"">+</div>","","null","fixation","2021-07-08 16:49:53.691","","","","",""
"","mars-trial","116","218448","0.0-10.0-1.50","A927","
","
","
","
","
","1417","<img style='border: 4px solid darkgrey;' src='img/tf1_51_M_ss2.jpeg'></img>","1","","exp","","2","<img src='img/tf1_51_T1_ss2_md.jpeg'></img>","0","false",""
"","html-keyboard-response","117","218949","0.0-10.0-0.51","A927","
","
","
","
","
","null","<div style=""font-size:60px;"">+</div>","","null","fixation","2021-07-08 16:49:56.218","","","","",""
"","mars-trial","118","222550","0.0-10.0-1.51","A927","
","
","
","
","
","2993","<img style='border: 4px solid darkgrey;' src='img/tf1_52_M_ss3.jpeg'></img>","0","","exp","","0","<img src='img/tf1_52_T1_ss3_md.jpeg'></img>","0","true",""
"","html-keyboard-response","119","223051","0.0-10.0-0.52","A927","
","
","
","
","
","null","<div style=""font-size:60px;"">+</div>","","null","fixation","2021-07-08 16:50:00.319","","","","",""
"","mars-trial","120","226604","0.0-10.0-1.52","A927","
","
","
","
","
","2945","<img style='border: 4px solid darkgrey;' src='img/tf1_53_M_ss1.jpeg'></img>","3","","exp","","1","<img src='img/tf1_53_T1_ss1_md.jpeg'></img>","0","false",""
"","html-keyboard-response","121","227105","0.0-10.0-0.53","A927","
","
","
","
","
","null","<div style=""font-size:60px;"">+</div>","","null","fixation","2021-07-08 16:50:04.373","","","","",""
"","mars-trial","122","230958","0.0-10.0-1.53","A927","
","
","
","
","
","3245.000000000029","<img style='border: 4px solid darkgrey;' src='img/tf1_54_M_ss2.jpeg'></img>","1","","exp","","2","<img src='img/tf1_54_T1_ss2_md.jpeg'></img>","0","false",""
"","html-keyboard-response","123","231459","0.0-10.0-0.54","A927","
","
","
","
","
","null","<div style=""font-size:60px;"">+</div>","","null","fixation","2021-07-08 16:50:08.727","","","","",""
"","mars-trial","124","233446","0.0-10.0-1.54","A927","
","
","
","
","
","1379.000000000029","<img style='border: 4px solid darkgrey;' src='img/tf1_55_M_ss3.jpeg'></img>","0","","exp","","0","<img src='img/tf1_55_T1_ss3_md.jpeg'></img>","0","true",""
"","html-keyboard-response","125","233948","0.0-10.0-0.55","A927","
","
","
","
","
","null","<div style=""font-size:60px;"">+</div>","","null","fixation","2021-07-08 16:50:11.216","","","","",""
"","mars-trial","126","237102","0.0-10.0-1.55","A927","
","
","
","
","
","2547","<img style='border: 4px solid darkgrey;' src='img/tf1_56_M_ss1.jpeg'></img>","2","","exp","","0","<img src='img/tf1_56_T1_ss1_md.jpeg'></img>","0","true",""
"","html-keyboard-response","127","237604","0.0-10.0-0.56","A927","
","
","
","
","
","null","<div style=""font-size:60px;"">+</div>","","null","fixation","2021-07-08 16:50:14.872","","","","",""
"","mars-trial","128","241378","0.0-10.0-1.56","A927","
","
","
","
","
","3167","<img style='border: 4px solid darkgrey;' src='img/tf1_57_M_ss2.jpeg'></img>","3","","exp","","2","<img src='img/tf1_57_T1_ss2_md.jpeg'></img>","0","false",""
"","html-keyboard-response","129","241879","0.0-10.0-0.57","A927","
","
","
","
","
","null","<div style=""font-size:60px;"">+</div>","","null","fixation","2021-07-08 16:50:19.148","","","","",""
"","mars-trial","130","244978","0.0-10.0-1.57","A927","
","
","
","
","
","2489.999999999971","<img style='border: 4px solid darkgrey;' src='img/tf1_58_M_ss3.jpeg'></img>","0","","exp","","3","<img src='img/tf1_58_T1_ss3_md.jpeg'></img>","0","false",""
"","html-keyboard-response","131","245480","0.0-10.0-0.58","A927","
","
","
","
","
","null","<div style=""font-size:60px;"">+</div>","","null","fixation","2021-07-08 16:50:22.748","","","","",""
"","mars-trial","132","249857","0.0-10.0-1.58","A927","
","
","
","
","
","3771.000000000029","<img style='border: 4px solid darkgrey;' src='img/tf1_59_M_ss1.jpeg'></img>","3","","exp","","3","<img src='img/tf1_59_T1_ss1_md.jpeg'></img>","0","false",""
"","html-keyboard-response","133","250358","0.0-10.0-0.59","A927","
","
","
","
","
","null","<div style=""font-size:60px;"">+</div>","","null","fixation","2021-07-08 16:50:27.627","","","","",""
"","mars-trial","134","252108","0.0-10.0-1.59","A927","
","
","
","
","
","1140.999999999971","<img style='border: 4px solid darkgrey;' src='img/tf1_60_M_ss2.jpeg'></img>","0","","exp","","2","<img src='img/tf1_60_T1_ss2_md.jpeg'></img>","0","false",""
"","html-keyboard-response","135","252609","0.0-10.0-0.60","A927","
","
","
","
","
","null","<div style=""font-size:60px;"">+</div>","","null","fixation","2021-07-08 16:50:29.877","","","","",""
"","mars-trial","136","253943","0.0-10.0-1.60","A927","
","
","
","
","
","726","<img style='border: 4px solid darkgrey;' src='img/tf1_61_M_ss3.jpeg'></img>","1","","exp","","3","<img src='img/tf1_61_T1_ss3_md.jpeg'></img>","0","false",""
"","html-keyboard-response","137","254444","0.0-10.0-0.61","A927","
","
","
","
","
","null","<div style=""font-size:60px;"">+</div>","","null","fixation","2021-07-08 16:50:31.712","","","","",""
"","mars-trial","138","255843","0.0-10.0-1.61","A927","
","
","
","
","
","791.9999999999709","<img style='border: 4px solid darkgrey;' src='img/tf1_62_M_ss1.jpeg'></img>","0","","exp","","1","<img src='img/tf1_62_T1_ss1_md.jpeg'></img>","0","false",""
"","html-keyboard-response","139","256345","0.0-10.0-0.62","A927","
","
","
","
","
","null","<div style=""font-size:60px;"">+</div>","","null","fixation","2021-07-08 16:50:33.613","","","","",""
"","mars-trial","140","257656","0.0-10.0-1.62","A927","
","
","
","
","
","702","<img style='border: 4px solid darkgrey;' src='img/tf1_63_M_ss2.jpeg'></img>","2","","exp","","0","<img src='img/tf1_63_T1_ss2_md.jpeg'></img>","0","true",""
"","html-keyboard-response","141","258158","0.0-10.0-0.63","A927","
","
","
","
","
","null","<div style=""font-size:60px;"">+</div>","","null","fixation","2021-07-08 16:50:35.426","","","","",""
"","mars-trial","142","259595","0.0-10.0-1.63","A927","
","
","
","
","
","827","<img style='border: 4px solid darkgrey;' src='img/tf1_64_M_ss3.jpeg'></img>","2","","exp","","3","<img src='img/tf1_64_T1_ss3_md.jpeg'></img>","0","false",""
"","html-keyboard-response","143","260097","0.0-10.0-0.64","A927","
","
","
","
","
","null","<div style=""font-size:60px;"">+</div>","","null","fixation","2021-07-08 16:50:37.365","","","","",""
"","mars-trial","144","261327","0.0-10.0-1.64","A927","
","
","
","
","
","621","<img style='border: 4px solid darkgrey;' src='img/tf1_65_M_ss1.jpeg'></img>","1","","exp","","2","<img src='img/tf1_65_T1_ss1_md.jpeg'></img>","0","false",""
"","html-keyboard-response","145","261828","0.0-10.0-0.65","A927","
","
","
","
","
","null","<div style=""font-size:60px;"">+</div>","","null","fixation","2021-07-08 16:50:39.096","","","","",""
"","mars-trial","146","263012","0.0-10.0-1.65","A927","
","
","
","
","
","577","<img style='border: 4px solid darkgrey;' src='img/tf1_66_M_ss2.jpeg'></img>","3","","exp","","1","<img src='img/tf1_66_T1_ss2_md.jpeg'></img>","0","false",""
"","html-keyboard-response","147","263514","0.0-10.0-0.66","A927","
","
","
","
","
","null","<div style=""font-size:60px;"">+</div>","","null","fixation","2021-07-08 16:50:40.782","","","","",""
"","mars-trial","148","264682","0.0-10.0-1.66","A927","
","
","
","
","
","561","<img style='border: 4px solid darkgrey;' src='img/tf1_67_M_ss3.jpeg'></img>","0","","exp","","2","<img src='img/tf1_67_T1_ss3_md.jpeg'></img>","0","false",""
"","html-keyboard-response","149","265183","0.0-10.0-0.67","A927","
","
","
","
","
","null","<div style=""font-size:60px;"">+</div>","","null","fixation","2021-07-08 16:50:42.451","","","","",""
"","mars-trial","150","267996","0.0-10.0-1.67","A927","
","
","
","
","
","2206","<img style='border: 4px solid darkgrey;' src='img/tf1_68_M_ss1.jpeg'></img>","0","","exp","","0","<img src='img/tf1_68_T1_ss1_md.jpeg'></img>","0","true",""
"","html-keyboard-response","151","268497","0.0-10.0-0.68","A927","
","
","
","
","
","null","<div style=""font-size:60px;"">+</div>","","null","fixation","2021-07-08 16:50:45.765","","","","",""
"","mars-trial","152","271659","0.0-10.0-1.68","A927","
","
","
","
","
","2555.000000000058","<img style='border: 4px solid darkgrey;' src='img/tf1_69_M_ss2.jpeg'></img>","1","","exp","","3","<img src='img/tf1_69_T1_ss2_md.jpeg'></img>","0","false",""
"","html-keyboard-response","153","272160","0.0-10.0-0.69","A927","
","
","
","
","
","null","<div style=""font-size:60px;"">+</div>","","null","fixation","2021-07-08 16:50:49.428","","","","",""
"","mars-trial","154","277224","0.0-10.0-1.69","A927","
","
","
","
","
","4454","<img style='border: 4px solid darkgrey;' src='img/tf1_70_M_ss3.jpeg'></img>","3","","exp","","0","<img src='img/tf1_70_T1_ss3_md.jpeg'></img>","0","true",""
"","html-keyboard-response","155","277726","0.0-10.0-0.70","A927","
","
","
","
","
","null","<div style=""font-size:60px;"">+</div>","","null","fixation","2021-07-08 16:50:54.994","","","","",""
"","mars-trial","156","281803","0.0-10.0-1.70","A927","
","
","
","
","
","3469","<img style='border: 4px solid darkgrey;' src='img/tf1_71_M_ss1.jpeg'></img>","0","","exp","","3","<img src='img/tf1_71_T1_ss1_md.jpeg'></img>","0","false",""
"","html-keyboard-response","157","282305","0.0-10.0-0.71","A927","
","
","
","
","
","null","<div style=""font-size:60px;"">+</div>","","null","fixation","2021-07-08 16:50:59.573","","","","",""
"","mars-trial","158","283567","0.0-10.0-1.71","A927","
","
","
","
","
","655","<img style='border: 4px solid darkgrey;' src='img/tf1_72_M_ss2.jpeg'></img>","1","","exp","","2","<img src='img/tf1_72_T1_ss2_md.jpeg'></img>","0","false",""
"","html-keyboard-response","159","284069","0.0-10.0-0.72","A927","
","
","
","
","
","null","<div style=""font-size:60px;"">+</div>","","null","fixation","2021-07-08 16:51:01.337","","","","",""
"","mars-trial","160","287010","0.0-10.0-1.72","A927","
","
","
","
","
","2334","<img style='border: 4px solid darkgrey;' src='img/tf1_73_M_ss3.jpeg'></img>","1","","exp","","0","<img src='img/tf1_73_T1_ss3_md.jpeg'></img>","0","true",""
"","html-keyboard-response","161","287511","0.0-10.0-0.73","A927","
","
","
","
","
","null","<div style=""font-size:60px;"">+</div>","","null","fixation","2021-07-08 16:51:04.779","","","","",""
"","mars-trial","162","289833","0.0-10.0-1.73","A927","
","
","
","
","
","1712","<img style='border: 4px solid darkgrey;' src='img/tf1_74_M_ss1.jpeg'></img>","3","","exp","","1","<img src='img/tf1_74_T1_ss1_md.jpeg'></img>","0","false",""
"","html-keyboard-response","163","290334","0.0-10.0-0.74","A927","
","
","
","
","
","null","<div style=""font-size:60px;"">+</div>","","null","fixation","2021-07-08 16:51:07.603","","","","",""
"","mars-trial","164","291787","0.0-10.0-1.74","A927","
","
","
","
","
","844","<img style='border: 4px solid darkgrey;' src='img/tf1_75_M_ss2.jpeg'></img>","1","","exp","","0","<img src='img/tf1_75_T1_ss2_md.jpeg'></img>","0","true",""
"","html-keyboard-response","165","292289","0.0-10.0-0.75","A927","
","
","
","
","
","null","<div style=""font-size:60px;"">+</div>","","null","fixation","2021-07-08 16:51:09.557","","","","",""
"","mars-trial","166","293949","0.0-10.0-1.75","A927","
","
","
","
","
","1052","<img style='border: 4px solid darkgrey;' src='img/tf1_76_M_ss3.jpeg'></img>","0","","exp","","1","<img src='img/tf1_76_T1_ss3_md.jpeg'></img>","0","false",""
"","html-keyboard-response","167","294450","0.0-10.0-0.76","A927","
","
","
","
","
","null","<div style=""font-size:60px;"">+</div>","","null","fixation","2021-07-08 16:51:11.718","","","","",""
"","mars-trial","168","296118","0.0-10.0-1.76","A927","
","
","
","
","
","1061","<img style='border: 4px solid darkgrey;' src='img/tf1_77_M_ss1.jpeg'></img>","2","","exp","","3","<img src='img/tf1_77_T1_ss1_md.jpeg'></img>","0","false",""
"","html-keyboard-response","169","296620","0.0-10.0-0.77","A927","
","
","
","
","
","null","<div style=""font-size:60px;"">+</div>","","null","fixation","2021-07-08 16:51:13.888","","","","",""
"","mars-trial","170","298050","0.0-10.0-1.77","A927","
","
","
","
","
","820","<img style='border: 4px solid darkgrey;' src='img/tf1_78_M_ss2.jpeg'></img>","3","","exp","","3","<img src='img/tf1_78_T1_ss2_md.jpeg'></img>","0","false",""
"","html-keyboard-response","171","298552","0.0-10.0-0.78","A927","
","
","
","
","
","null","<div style=""font-size:60px;"">+</div>","","null","fixation","2021-07-08 16:51:15.820","","","","",""
"","mars-trial","172","300788","0.0-10.0-1.78","A927","
","
","
","
","
","1628.9999999999418","<img style='border: 4px solid darkgrey;' src='img/tf1_79_M_ss3.jpeg'></img>","1","","exp","","3","<img src='img/tf1_79_T1_ss3_md.jpeg'></img>","0","false",""
"","html-keyboard-response","173","301290","0.0-10.0-0.79","A927","
","
","
","
","
","null","<div style=""font-size:60px;"">+</div>","","null","fixation","2021-07-08 16:51:18.558","","","","",""
"","mars-trial","174","303180","0.0-10.0-1.79","A927","
","
","
","
","
","1284","<img style='border: 4px solid darkgrey;' src='img/tf1_80_M_ss1.jpeg'></img>","0","","exp","","0","<img src='img/tf1_80_T1_ss1_md.jpeg'></img>","0","true",""
"","audio-button-response","175","305940","0.0-11.0","A927","
","
","
","
","
","2759","audio/mars_instructions_slide5.wav","0","","","","","","","",""
