"success","trial_type","trial_index","time_elapsed","internal_node_id","subject_id","interactions","blur_events","focus_events","fullscreenenter_events","fullscreenexit_events","rt","stimulus","button_pressed","key_press","part","timestamp","unshuffled_button","correct_response","correct_button","correct","value"
"true","fullscreen","0","3546","0.0-0.0","600","""event"",""trial"",""time""
""fullscreenenter"",""0"",""2541""
","
","
","""event"",""trial"",""time""
""fullscreenenter"",""0"",""2541""
","
","","","","","","","","","","",""
"","pavlovia","1","3550","0.0-1.0","600","""event"",""trial"",""time""
""fullscreenenter"",""0"",""2541""
","
","
","""event"",""trial"",""time""
""fullscreenenter"",""0"",""2541""
","
","","","","","","","","","","",""
"","html-button-response","2","5541","0.0-2.0","600","""event"",""trial"",""time""
""fullscreenenter"",""0"",""2541""
","
","
","""event"",""trial"",""time""
""fullscreenenter"",""0"",""2541""
","
","1989.2999999523163","<p>Welcome! Press START to begin.</p><br>","0","","","","","","","",""
"","audio-button-response","3","19301","0.0-3.0","600","""event"",""trial"",""time""
""fullscreenenter"",""0"",""2541""
","
","
","""event"",""trial"",""time""
""fullscreenenter"",""0"",""2541""
","
","13758.400000095367","audio/mars_instructions_slide2.wav","0","","","","","","","",""
"","audio-button-response","4","35649","0.0-4.0","600","""event"",""trial"",""time""
""fullscreenenter"",""0"",""2541""
","
","
","""event"",""trial"",""time""
""fullscreenenter"",""0"",""2541""
","
","16346.700000047684","audio/mars_instructions_slide3.wav","0","","","","","","","",""
"","html-keyboard-response","5","36156","0.0-5.0-0.0","600","""event"",""trial"",""time""
""fullscreenenter"",""0"",""2541""
","
","
","""event"",""trial"",""time""
""fullscreenenter"",""0"",""2541""
","
","null","<div style=""font-size:60px;"">+</div>","","null","fixation","2021-07-01 19:37:38.780","","","","",""
"","mars-trial","6","44426","0.0-5.0-1.0","600","""event"",""trial"",""time""
""fullscreenenter"",""0"",""2541""
","
","
","""event"",""trial"",""time""
""fullscreenenter"",""0"",""2541""
","
","6142.200000047684","<img style='border: 4px solid darkgrey;' src='practice/pt1_M1.png'></img>","1","","practice","","0","<img src='practice/pt1_T1.png'></img>","0","true",""
"","html-keyboard-response","7","44935","0.0-6.0-0.0","600","""event"",""trial"",""time""
""fullscreenenter"",""0"",""2541""
","
","
","""event"",""trial"",""time""
""fullscreenenter"",""0"",""2541""
","
","null","<div style=""font-size:60px;"">+</div>","","null","fixation","2021-07-01 19:37:47.558","","","","",""
"","mars-trial","8","49316","0.0-6.0-1.0","600","""event"",""trial"",""time""
""fullscreenenter"",""0"",""2541""
","
","
","""event"",""trial"",""time""
""fullscreenenter"",""0"",""2541""
","
","2257.0999999046326","<img style='border: 4px solid darkgrey;' src='practice/pt2_M1.png'></img>","2","","practice","","0","<img src='practice/pt2_T1.png'></img>","0","true",""
"","html-keyboard-response","9","49836","0.0-7.0-0.0","600","""event"",""trial"",""time""
""fullscreenenter"",""0"",""2541""
","
","
","""event"",""trial"",""time""
""fullscreenenter"",""0"",""2541""
","
","null","<div style=""font-size:60px;"">+</div>","","null","fixation","2021-07-01 19:37:52.459","","","","",""
"","mars-trial","10","54307","0.0-7.0-1.0","600","""event"",""trial"",""time""
""fullscreenenter"",""0"",""2541""
","
","
","""event"",""trial"",""time""
""fullscreenenter"",""0"",""2541""
","
","2347","<img style='border: 4px solid darkgrey;' src='practice/pt3_M1.png'></img>","0","","practice","","0","<img src='practice/pt3_T1.png'></img>","0","true",""
"","audio-button-response","11","61963","0.0-8.0","600","""event"",""trial"",""time""
""fullscreenenter"",""0"",""2541""
","
","
","""event"",""trial"",""time""
""fullscreenenter"",""0"",""2541""
","
","7654.600000143051","audio/mars_instructions_slide4.wav","0","","","","","","","",""
"","call-function","12","61963","0.0-9.0","600","""event"",""trial"",""time""
""fullscreenenter"",""0"",""2541""
","
","
","""event"",""trial"",""time""
""fullscreenenter"",""0"",""2541""
","
","","","","","","","","","","",""
"","html-keyboard-response","13","62466","0.0-10.0-0.0","600","""event"",""trial"",""time""
""fullscreenenter"",""0"",""2541""
","
","
","""event"",""trial"",""time""
""fullscreenenter"",""0"",""2541""
","
","null","<div style=""font-size:60px;"">+</div>","","null","fixation","2021-07-01 19:38:05.090","","","","",""
"","mars-trial","14","64916","0.0-10.0-1.0","600","""event"",""trial"",""time""
""fullscreenenter"",""0"",""2541""
","
","
","""event"",""trial"",""time""
""fullscreenenter"",""0"",""2541""
","
","1825.2000000476837","<img style='border: 4px solid darkgrey;' src='img/tf1_1_M_ss3.jpeg'></img>","1","","exp","","0","<img src='img/tf1_1_T1_ss3_md.jpeg'></img>","0","true",""
"","html-keyboard-response","15","65418","0.0-10.0-0.1","600","""event"",""trial"",""time""
""fullscreenenter"",""0"",""2541""
","
","
","""event"",""trial"",""time""
""fullscreenenter"",""0"",""2541""
","
","null","<div style=""font-size:60px;"">+</div>","","null","fixation","2021-07-01 19:38:08.041","","","","",""
"","mars-trial","16","68746","0.0-10.0-1.1","600","""event"",""trial"",""time""
""fullscreenenter"",""0"",""2541""
","
","
","""event"",""trial"",""time""
""fullscreenenter"",""0"",""2541""
","
","2703.5","<img style='border: 4px solid darkgrey;' src='img/tf1_2_M_ss1.jpeg'></img>","2","","exp","","0","<img src='img/tf1_2_T1_ss1_md.jpeg'></img>","0","true",""
"","html-keyboard-response","17","69251","0.0-10.0-0.2","600","""event"",""trial"",""time""
""fullscreenenter"",""0"",""2541""
","
","
","""event"",""trial"",""time""
""fullscreenenter"",""0"",""2541""
","
","null","<div style=""font-size:60px;"">+</div>","","null","fixation","2021-07-01 19:38:11.874","","","","",""
"","mars-trial","18","72437","0.0-10.0-1.2","600","""event"",""trial"",""time""
""fullscreenenter"",""0"",""2541""
","
","
","""event"",""trial"",""time""
""fullscreenenter"",""0"",""2541""
","
","2574","<img style='border: 4px solid darkgrey;' src='img/tf1_3_M_ss2.jpeg'></img>","1","","exp","","0","<img src='img/tf1_3_T1_ss2_md.jpeg'></img>","0","true",""
"","html-keyboard-response","19","72954","0.0-10.0-0.3","600","""event"",""trial"",""time""
""fullscreenenter"",""0"",""2541""
","
","
","""event"",""trial"",""time""
""fullscreenenter"",""0"",""2541""
","
","null","<div style=""font-size:60px;"">+</div>","","null","fixation","2021-07-01 19:38:15.577","","","","",""
"","mars-trial","20","76692","0.0-10.0-1.3","600","""event"",""trial"",""time""
""fullscreenenter"",""0"",""2541""
","
","
","""event"",""trial"",""time""
""fullscreenenter"",""0"",""2541""
","
","3127.2000000476837","<img style='border: 4px solid darkgrey;' src='img/tf1_4_M_ss3.jpeg'></img>","2","","exp","","0","<img src='img/tf1_4_T1_ss3_md.jpeg'></img>","0","true",""
"","html-keyboard-response","21","77194","0.0-10.0-0.4","600","""event"",""trial"",""time""
""fullscreenenter"",""0"",""2541""
","
","
","""event"",""trial"",""time""
""fullscreenenter"",""0"",""2541""
","
","null","<div style=""font-size:60px;"">+</div>","","null","fixation","2021-07-01 19:38:19.817","","","","",""
"","mars-trial","22","80194","0.0-10.0-1.4","600","""event"",""trial"",""time""
""fullscreenenter"",""0"",""2541""
","
","
","""event"",""trial"",""time""
""fullscreenenter"",""0"",""2541""
","
","2387","<img style='border: 4px solid darkgrey;' src='img/tf1_5_M_ss1.jpeg'></img>","0","","exp","","0","<img src='img/tf1_5_T1_ss1_md.jpeg'></img>","0","true",""
"","html-keyboard-response","23","80710","0.0-10.0-0.5","600","""event"",""trial"",""time""
""fullscreenenter"",""0"",""2541""
","
","
","""event"",""trial"",""time""
""fullscreenenter"",""0"",""2541""
","
","null","<div style=""font-size:60px;"">+</div>","","null","fixation","2021-07-01 19:38:23.333","","","","",""
"","mars-trial","24","93108","0.0-10.0-1.5","600","""event"",""trial"",""time""
""fullscreenenter"",""0"",""2541""
","
","
","""event"",""trial"",""time""
""fullscreenenter"",""0"",""2541""
","
","11794.5","<img style='border: 4px solid darkgrey;' src='img/tf1_6_M_ss2.jpeg'></img>","0","","exp","","0","<img src='img/tf1_6_T1_ss2_md.jpeg'></img>","0","true",""
"","html-keyboard-response","25","93610","0.0-10.0-0.6","600","""event"",""trial"",""time""
""fullscreenenter"",""0"",""2541""
","
","
","""event"",""trial"",""time""
""fullscreenenter"",""0"",""2541""
","
","null","<div style=""font-size:60px;"">+</div>","","null","fixation","2021-07-01 19:38:36.233","","","","",""
"","mars-trial","26","100182","0.0-10.0-1.6","600","""event"",""trial"",""time""
""fullscreenenter"",""0"",""2541""
","
","
","""event"",""trial"",""time""
""fullscreenenter"",""0"",""2541""
","
","5967.599999904633","<img style='border: 4px solid darkgrey;' src='img/tf1_7_M_ss3.jpeg'></img>","0","","exp","","0","<img src='img/tf1_7_T1_ss3_md.jpeg'></img>","0","true",""
"","html-keyboard-response","27","100683","0.0-10.0-0.7","600","""event"",""trial"",""time""
""fullscreenenter"",""0"",""2541""
","
","
","""event"",""trial"",""time""
""fullscreenenter"",""0"",""2541""
","
","null","<div style=""font-size:60px;"">+</div>","","null","fixation","2021-07-01 19:38:43.307","","","","",""
"","mars-trial","28","106056","0.0-10.0-1.7","600","""event"",""trial"",""time""
""fullscreenenter"",""0"",""2541""
","
","
","""event"",""trial"",""time""
""fullscreenenter"",""0"",""2541""
","
","4769","<img style='border: 4px solid darkgrey;' src='img/tf1_8_M_ss1.jpeg'></img>","1","","exp","","0","<img src='img/tf1_8_T1_ss1_md.jpeg'></img>","0","true",""
"","html-keyboard-response","29","106558","0.0-10.0-0.8","600","""event"",""trial"",""time""
""fullscreenenter"",""0"",""2541""
","
","
","""event"",""trial"",""time""
""fullscreenenter"",""0"",""2541""
","
","null","<div style=""font-size:60px;"">+</div>","","null","fixation","2021-07-01 19:38:49.181","","","","",""
"","mars-trial","30","112606","0.0-10.0-1.8","600","""event"",""trial"",""time""
""fullscreenenter"",""0"",""2541""
","
","
","""event"",""trial"",""time""
""fullscreenenter"",""0"",""2541""
","
","5443.900000095367","<img style='border: 4px solid darkgrey;' src='img/tf1_9_M_ss2.jpeg'></img>","1","","exp","","0","<img src='img/tf1_9_T1_ss2_md.jpeg'></img>","0","true",""
"","html-keyboard-response","31","113108","0.0-10.0-0.9","600","""event"",""trial"",""time""
""fullscreenenter"",""0"",""2541""
","
","
","""event"",""trial"",""time""
""fullscreenenter"",""0"",""2541""
","
","null","<div style=""font-size:60px;"">+</div>","","null","fixation","2021-07-01 19:38:55.731","","","","",""
"","mars-trial","32","118552","0.0-10.0-1.9","600","""event"",""trial"",""time""
""fullscreenenter"",""0"",""2541""
","
","
","""event"",""trial"",""time""
""fullscreenenter"",""0"",""2541""
","
","4839.400000095367","<img style='border: 4px solid darkgrey;' src='img/tf1_10_M_ss3.jpeg'></img>","2","","exp","","0","<img src='img/tf1_10_T1_ss3_md.jpeg'></img>","0","true",""
"","html-keyboard-response","33","119055","0.0-10.0-0.10","600","""event"",""trial"",""time""
""fullscreenenter"",""0"",""2541""
","
","
","""event"",""trial"",""time""
""fullscreenenter"",""0"",""2541""
","
","null","<div style=""font-size:60px;"">+</div>","","null","fixation","2021-07-01 19:39:01.678","","","","",""
"","mars-trial","34","130693","0.0-10.0-1.10","600","""event"",""trial"",""time""
""fullscreenenter"",""0"",""2541""
","
","
","""event"",""trial"",""time""
""fullscreenenter"",""0"",""2541""
","
","11030.200000047684","<img style='border: 4px solid darkgrey;' src='img/tf1_11_M_ss1.jpeg'></img>","1","","exp","","2","<img src='img/tf1_11_T1_ss1_md.jpeg'></img>","0","false",""
"","html-keyboard-response","35","131197","0.0-10.0-0.11","600","""event"",""trial"",""time""
""fullscreenenter"",""0"",""2541""
","
","
","""event"",""trial"",""time""
""fullscreenenter"",""0"",""2541""
","
","null","<div style=""font-size:60px;"">+</div>","","null","fixation","2021-07-01 19:39:13.820","","","","",""
"","mars-trial","36","161302","0.0-10.0-1.11","600","""event"",""trial"",""time""
""fullscreenenter"",""0"",""2541""
","
","
","""event"",""trial"",""time""
""fullscreenenter"",""0"",""2541""
","
","null","<img style='border: 4px solid darkgrey;' src='img/tf1_12_M_ss2.jpeg'></img>","null","","exp","","null","<img src='img/tf1_12_T1_ss2_md.jpeg'></img>","0","false",""
"","html-keyboard-response","37","161803","0.0-10.0-0.12","600","""event"",""trial"",""time""
""fullscreenenter"",""0"",""2541""
","
","
","""event"",""trial"",""time""
""fullscreenenter"",""0"",""2541""
","
","null","<div style=""font-size:60px;"">+</div>","","null","fixation","2021-07-01 19:39:44.426","","","","",""
"","mars-trial","38","171447","0.0-10.0-1.12","600","""event"",""trial"",""time""
""fullscreenenter"",""0"",""2541""
","
","
","""event"",""trial"",""time""
""fullscreenenter"",""0"",""2541""
","
","9038.099999904633","<img style='border: 4px solid darkgrey;' src='img/tf1_13_M_ss3.jpeg'></img>","1","","exp","","1","<img src='img/tf1_13_T1_ss3_md.jpeg'></img>","0","false",""
"","html-keyboard-response","39","171950","0.0-10.0-0.13","600","""event"",""trial"",""time""
""fullscreenenter"",""0"",""2541""
","
","
","""event"",""trial"",""time""
""fullscreenenter"",""0"",""2541""
","
","null","<div style=""font-size:60px;"">+</div>","","null","fixation","2021-07-01 19:39:54.573","","","","",""
"","mars-trial","40","185046","0.0-10.0-1.13","600","""event"",""trial"",""time""
""fullscreenenter"",""0"",""2541""
","
","
","""event"",""trial"",""time""
""fullscreenenter"",""0"",""2541""
","
","12492.299999952316","<img style='border: 4px solid darkgrey;' src='img/tf1_14_M_ss1.jpeg'></img>","1","","exp","","0","<img src='img/tf1_14_T1_ss1_md.jpeg'></img>","0","true",""
"","html-keyboard-response","41","185549","0.0-10.0-0.14","600","""event"",""trial"",""time""
""fullscreenenter"",""0"",""2541""
","
","
","""event"",""trial"",""time""
""fullscreenenter"",""0"",""2541""
","
","null","<div style=""font-size:60px;"">+</div>","","null","fixation","2021-07-01 19:40:08.172","","","","",""
"","mars-trial","42","199288","0.0-10.0-1.14","600","""event"",""trial"",""time""
""fullscreenenter"",""0"",""2541""
","
","
","""event"",""trial"",""time""
""fullscreenenter"",""0"",""2541""
","
","13136","<img style='border: 4px solid darkgrey;' src='img/tf1_15_M_ss2.jpeg'></img>","3","","exp","","0","<img src='img/tf1_15_T1_ss2_md.jpeg'></img>","0","true",""
"","html-keyboard-response","43","199790","0.0-10.0-0.15","600","""event"",""trial"",""time""
""fullscreenenter"",""0"",""2541""
","
","
","""event"",""trial"",""time""
""fullscreenenter"",""0"",""2541""
","
","null","<div style=""font-size:60px;"">+</div>","","null","fixation","2021-07-01 19:40:22.413","","","","",""
"","mars-trial","44","216543","0.0-10.0-1.15","600","""event"",""trial"",""time""
""fullscreenenter"",""0"",""2541""
","
","
","""event"",""trial"",""time""
""fullscreenenter"",""0"",""2541""
","
","16147.099999904633","<img style='border: 4px solid darkgrey;' src='img/tf1_16_M_ss3.jpeg'></img>","2","","exp","","0","<img src='img/tf1_16_T1_ss3_md.jpeg'></img>","0","true",""
"","html-keyboard-response","45","217044","0.0-10.0-0.16","600","""event"",""trial"",""time""
""fullscreenenter"",""0"",""2541""
","
","
","""event"",""trial"",""time""
""fullscreenenter"",""0"",""2541""
","
","null","<div style=""font-size:60px;"">+</div>","","null","fixation","2021-07-01 19:40:39.667","","","","",""
"","mars-trial","46","241796","0.0-10.0-1.16","600","""event"",""trial"",""time""
""fullscreenenter"",""0"",""2541""
","
","
","""event"",""trial"",""time""
""fullscreenenter"",""0"",""2541""
","
","24147.5","<img style='border: 4px solid darkgrey;' src='img/tf1_17_M_ss1.jpeg'></img>","2","","exp","","3","<img src='img/tf1_17_T1_ss1_md.jpeg'></img>","0","false",""
"","html-keyboard-response","47","242298","0.0-10.0-0.17","600","""event"",""trial"",""time""
""fullscreenenter"",""0"",""2541""
","
","
","""event"",""trial"",""time""
""fullscreenenter"",""0"",""2541""
","
","null","<div style=""font-size:60px;"">+</div>","","null","fixation","2021-07-01 19:41:04.922","","","","",""
"","mars-trial","48","263674","0.0-10.0-1.17","600","""event"",""trial"",""time""
""fullscreenenter"",""0"",""2541""
","
","
","""event"",""trial"",""time""
""fullscreenenter"",""0"",""2541""
","
","20771.39999985695","<img style='border: 4px solid darkgrey;' src='img/tf1_18_M_ss2.jpeg'></img>","0","","exp","","0","<img src='img/tf1_18_T1_ss2_md.jpeg'></img>","0","true",""
"","html-keyboard-response","49","264176","0.0-10.0-0.18","600","""event"",""trial"",""time""
""fullscreenenter"",""0"",""2541""
","
","
","""event"",""trial"",""time""
""fullscreenenter"",""0"",""2541""
","
","null","<div style=""font-size:60px;"">+</div>","","null","fixation","2021-07-01 19:41:26.799","","","","",""
"","mars-trial","50","273809","0.0-10.0-1.18","600","""event"",""trial"",""time""
""fullscreenenter"",""0"",""2541""
","
","
","""event"",""trial"",""time""
""fullscreenenter"",""0"",""2541""
","
","9028.5","<img style='border: 4px solid darkgrey;' src='img/tf1_19_M_ss3.jpeg'></img>","1","","exp","","0","<img src='img/tf1_19_T1_ss3_md.jpeg'></img>","0","true",""
"","html-keyboard-response","51","274325","0.0-10.0-0.19","600","""event"",""trial"",""time""
""fullscreenenter"",""0"",""2541""
","
","
","""event"",""trial"",""time""
""fullscreenenter"",""0"",""2541""
","
","null","<div style=""font-size:60px;"">+</div>","","null","fixation","2021-07-01 19:41:36.948","","","","",""
"","mars-trial","52","288236","0.0-10.0-1.19","600","""event"",""trial"",""time""
""fullscreenenter"",""0"",""2541""
","
","
","""event"",""trial"",""time""
""fullscreenenter"",""0"",""2541""
","
","13308.099999904633","<img style='border: 4px solid darkgrey;' src='img/tf1_20_M_ss1.jpeg'></img>","0","","exp","","0","<img src='img/tf1_20_T1_ss1_md.jpeg'></img>","0","true",""
"","html-keyboard-response","53","288737","0.0-10.0-0.20","600","""event"",""trial"",""time""
""fullscreenenter"",""0"",""2541""
""blur"",""54"",""311194""
""focus"",""54"",""311416""
","""event"",""trial"",""time""
""blur"",""54"",""311194""
","""event"",""trial"",""time""
""focus"",""54"",""311416""
","""event"",""trial"",""time""
""fullscreenenter"",""0"",""2541""
","
","null","<div style=""font-size:60px;"">+</div>","","null","fixation","2021-07-01 19:41:51.360","","","","",""
"","mars-trial","54","315222","0.0-10.0-1.20","600","""event"",""trial"",""time""
""fullscreenenter"",""0"",""2541""
""blur"",""54"",""311194""
""focus"",""54"",""311416""
","""event"",""trial"",""time""
""blur"",""54"",""311194""
","""event"",""trial"",""time""
""focus"",""54"",""311416""
","""event"",""trial"",""time""
""fullscreenenter"",""0"",""2541""
","
","25879.799999952316","<img style='border: 4px solid darkgrey;' src='img/tf1_21_M_ss2.jpeg'></img>","1","","exp","","0","<img src='img/tf1_21_T1_ss2_md.jpeg'></img>","0","true",""
"","html-keyboard-response","55","315723","0.0-10.0-0.21","600","""event"",""trial"",""time""
""fullscreenenter"",""0"",""2541""
""blur"",""54"",""311194""
""focus"",""54"",""311416""
","""event"",""trial"",""time""
""blur"",""54"",""311194""
","""event"",""trial"",""time""
""focus"",""54"",""311416""
","""event"",""trial"",""time""
""fullscreenenter"",""0"",""2541""
","
","null","<div style=""font-size:60px;"">+</div>","","null","fixation","2021-07-01 19:42:18.346","","","","",""
"","mars-trial","56","322583","0.0-10.0-1.21","600","""event"",""trial"",""time""
""fullscreenenter"",""0"",""2541""
""blur"",""54"",""311194""
""focus"",""54"",""311416""
","""event"",""trial"",""time""
""blur"",""54"",""311194""
","""event"",""trial"",""time""
""focus"",""54"",""311416""
","""event"",""trial"",""time""
""fullscreenenter"",""0"",""2541""
","
","6255.5","<img style='border: 4px solid darkgrey;' src='img/tf1_22_M_ss3.jpeg'></img>","0","","exp","","0","<img src='img/tf1_22_T1_ss3_md.jpeg'></img>","0","true",""
"","html-keyboard-response","57","323085","0.0-10.0-0.22","600","""event"",""trial"",""time""
""fullscreenenter"",""0"",""2541""
""blur"",""54"",""311194""
""focus"",""54"",""311416""
","""event"",""trial"",""time""
""blur"",""54"",""311194""
","""event"",""trial"",""time""
""focus"",""54"",""311416""
","""event"",""trial"",""time""
""fullscreenenter"",""0"",""2541""
","
","null","<div style=""font-size:60px;"">+</div>","","null","fixation","2021-07-01 19:42:25.708","","","","",""
"","mars-trial","58","337359","0.0-10.0-1.22","600","""event"",""trial"",""time""
""fullscreenenter"",""0"",""2541""
""blur"",""54"",""311194""
""focus"",""54"",""311416""
","""event"",""trial"",""time""
""blur"",""54"",""311194""
","""event"",""trial"",""time""
""focus"",""54"",""311416""
","""event"",""trial"",""time""
""fullscreenenter"",""0"",""2541""
","
","13668.700000047684","<img style='border: 4px solid darkgrey;' src='img/tf1_23_M_ss1.jpeg'></img>","1","","exp","","0","<img src='img/tf1_23_T1_ss1_md.jpeg'></img>","0","true",""
"","html-keyboard-response","59","337862","0.0-10.0-0.23","600","""event"",""trial"",""time""
""fullscreenenter"",""0"",""2541""
""blur"",""54"",""311194""
""focus"",""54"",""311416""
","""event"",""trial"",""time""
""blur"",""54"",""311194""
","""event"",""trial"",""time""
""focus"",""54"",""311416""
","""event"",""trial"",""time""
""fullscreenenter"",""0"",""2541""
","
","null","<div style=""font-size:60px;"">+</div>","","null","fixation","2021-07-01 19:42:40.485","","","","",""
"","mars-trial","60","356575","0.0-10.0-1.23","600","""event"",""trial"",""time""
""fullscreenenter"",""0"",""2541""
""blur"",""54"",""311194""
""focus"",""54"",""311416""
","""event"",""trial"",""time""
""blur"",""54"",""311194""
","""event"",""trial"",""time""
""focus"",""54"",""311416""
","""event"",""trial"",""time""
""fullscreenenter"",""0"",""2541""
","
","18109","<img style='border: 4px solid darkgrey;' src='img/tf1_24_M_ss2.jpeg'></img>","1","","exp","","2","<img src='img/tf1_24_T1_ss2_md.jpeg'></img>","0","false",""
"","html-keyboard-response","61","357077","0.0-10.0-0.24","600","""event"",""trial"",""time""
""fullscreenenter"",""0"",""2541""
""blur"",""54"",""311194""
""focus"",""54"",""311416""
","""event"",""trial"",""time""
""blur"",""54"",""311194""
","""event"",""trial"",""time""
""focus"",""54"",""311416""
","""event"",""trial"",""time""
""fullscreenenter"",""0"",""2541""
","
","null","<div style=""font-size:60px;"">+</div>","","null","fixation","2021-07-01 19:42:59.700","","","","",""
"","mars-trial","62","364192","0.0-10.0-1.24","600","""event"",""trial"",""time""
""fullscreenenter"",""0"",""2541""
""blur"",""54"",""311194""
""focus"",""54"",""311416""
","""event"",""trial"",""time""
""blur"",""54"",""311194""
","""event"",""trial"",""time""
""focus"",""54"",""311416""
","""event"",""trial"",""time""
""fullscreenenter"",""0"",""2541""
","
","6510.799999952316","<img style='border: 4px solid darkgrey;' src='img/tf1_25_M_ss3.jpeg'></img>","0","","exp","","0","<img src='img/tf1_25_T1_ss3_md.jpeg'></img>","0","true",""
"","html-keyboard-response","63","364694","0.0-10.0-0.25","600","""event"",""trial"",""time""
""fullscreenenter"",""0"",""2541""
""blur"",""54"",""311194""
""focus"",""54"",""311416""
","""event"",""trial"",""time""
""blur"",""54"",""311194""
","""event"",""trial"",""time""
""focus"",""54"",""311416""
","""event"",""trial"",""time""
""fullscreenenter"",""0"",""2541""
","
","null","<div style=""font-size:60px;"">+</div>","","null","fixation","2021-07-01 19:43:07.317","","","","",""
"","mars-trial","64","381199","0.0-10.0-1.25","600","""event"",""trial"",""time""
""fullscreenenter"",""0"",""2541""
""blur"",""54"",""311194""
""focus"",""54"",""311416""
","""event"",""trial"",""time""
""blur"",""54"",""311194""
","""event"",""trial"",""time""
""focus"",""54"",""311416""
","""event"",""trial"",""time""
""fullscreenenter"",""0"",""2541""
","
","15895.600000143051","<img style='border: 4px solid darkgrey;' src='img/tf1_26_M_ss1.jpeg'></img>","3","","exp","","1","<img src='img/tf1_26_T1_ss1_md.jpeg'></img>","0","false",""
"","html-keyboard-response","65","381702","0.0-10.0-0.26","600","""event"",""trial"",""time""
""fullscreenenter"",""0"",""2541""
""blur"",""54"",""311194""
""focus"",""54"",""311416""
","""event"",""trial"",""time""
""blur"",""54"",""311194""
","""event"",""trial"",""time""
""focus"",""54"",""311416""
","""event"",""trial"",""time""
""fullscreenenter"",""0"",""2541""
","
","null","<div style=""font-size:60px;"">+</div>","","null","fixation","2021-07-01 19:43:24.325","","","","",""
"","mars-trial","66","396588","0.0-10.0-1.26","600","""event"",""trial"",""time""
""fullscreenenter"",""0"",""2541""
""blur"",""54"",""311194""
""focus"",""54"",""311416""
","""event"",""trial"",""time""
""blur"",""54"",""311194""
","""event"",""trial"",""time""
""focus"",""54"",""311416""
","""event"",""trial"",""time""
""fullscreenenter"",""0"",""2541""
","
","14281.399999856949","<img style='border: 4px solid darkgrey;' src='img/tf1_27_M_ss2.jpeg'></img>","2","","exp","","0","<img src='img/tf1_27_T1_ss2_md.jpeg'></img>","0","true",""
"","html-keyboard-response","67","397089","0.0-10.0-0.27","600","""event"",""trial"",""time""
""fullscreenenter"",""0"",""2541""
""blur"",""54"",""311194""
""focus"",""54"",""311416""
","""event"",""trial"",""time""
""blur"",""54"",""311194""
","""event"",""trial"",""time""
""focus"",""54"",""311416""
","""event"",""trial"",""time""
""fullscreenenter"",""0"",""2541""
","
","null","<div style=""font-size:60px;"">+</div>","","null","fixation","2021-07-01 19:43:39.712","","","","",""
"","mars-trial","68","410473","0.0-10.0-1.27","600","""event"",""trial"",""time""
""fullscreenenter"",""0"",""2541""
""blur"",""54"",""311194""
""focus"",""54"",""311416""
","""event"",""trial"",""time""
""blur"",""54"",""311194""
","""event"",""trial"",""time""
""focus"",""54"",""311416""
","""event"",""trial"",""time""
""fullscreenenter"",""0"",""2541""
","
","12778.700000047684","<img style='border: 4px solid darkgrey;' src='img/tf1_28_M_ss3.jpeg'></img>","3","","exp","","0","<img src='img/tf1_28_T1_ss3_md.jpeg'></img>","0","true",""
"","html-keyboard-response","69","410975","0.0-10.0-0.28","600","""event"",""trial"",""time""
""fullscreenenter"",""0"",""2541""
""blur"",""54"",""311194""
""focus"",""54"",""311416""
","""event"",""trial"",""time""
""blur"",""54"",""311194""
","""event"",""trial"",""time""
""focus"",""54"",""311416""
","""event"",""trial"",""time""
""fullscreenenter"",""0"",""2541""
","
","null","<div style=""font-size:60px;"">+</div>","","null","fixation","2021-07-01 19:43:53.598","","","","",""
"","mars-trial","70","421896","0.0-10.0-1.28","600","""event"",""trial"",""time""
""fullscreenenter"",""0"",""2541""
""blur"",""54"",""311194""
""focus"",""54"",""311416""
","""event"",""trial"",""time""
""blur"",""54"",""311194""
","""event"",""trial"",""time""
""focus"",""54"",""311416""
","""event"",""trial"",""time""
""fullscreenenter"",""0"",""2541""
","
","10317","<img style='border: 4px solid darkgrey;' src='img/tf1_29_M_ss1.jpeg'></img>","0","","exp","","3","<img src='img/tf1_29_T1_ss1_md.jpeg'></img>","0","false",""
"","html-keyboard-response","71","422398","0.0-10.0-0.29","600","""event"",""trial"",""time""
""fullscreenenter"",""0"",""2541""
""blur"",""54"",""311194""
""focus"",""54"",""311416""
","""event"",""trial"",""time""
""blur"",""54"",""311194""
","""event"",""trial"",""time""
""focus"",""54"",""311416""
","""event"",""trial"",""time""
""fullscreenenter"",""0"",""2541""
","
","null","<div style=""font-size:60px;"">+</div>","","null","fixation","2021-07-01 19:44:05.021","","","","",""
"","mars-trial","72","436671","0.0-10.0-1.29","600","""event"",""trial"",""time""
""fullscreenenter"",""0"",""2541""
""blur"",""54"",""311194""
""focus"",""54"",""311416""
","""event"",""trial"",""time""
""blur"",""54"",""311194""
","""event"",""trial"",""time""
""focus"",""54"",""311416""
","""event"",""trial"",""time""
""fullscreenenter"",""0"",""2541""
","
","13670.299999952316","<img style='border: 4px solid darkgrey;' src='img/tf1_30_M_ss2.jpeg'></img>","1","","exp","","0","<img src='img/tf1_30_T1_ss2_md.jpeg'></img>","0","true",""
"","html-keyboard-response","73","437172","0.0-10.0-0.30","600","""event"",""trial"",""time""
""fullscreenenter"",""0"",""2541""
""blur"",""54"",""311194""
""focus"",""54"",""311416""
","""event"",""trial"",""time""
""blur"",""54"",""311194""
","""event"",""trial"",""time""
""focus"",""54"",""311416""
","""event"",""trial"",""time""
""fullscreenenter"",""0"",""2541""
","
","null","<div style=""font-size:60px;"">+</div>","","null","fixation","2021-07-01 19:44:19.795","","","","",""
"","mars-trial","74","444883","0.0-10.0-1.30","600","""event"",""trial"",""time""
""fullscreenenter"",""0"",""2541""
""blur"",""54"",""311194""
""focus"",""54"",""311416""
","""event"",""trial"",""time""
""blur"",""54"",""311194""
","""event"",""trial"",""time""
""focus"",""54"",""311416""
","""event"",""trial"",""time""
""fullscreenenter"",""0"",""2541""
","
","7104.700000047684","<img style='border: 4px solid darkgrey;' src='img/tf1_31_M_ss3.jpeg'></img>","1","","exp","","0","<img src='img/tf1_31_T1_ss3_md.jpeg'></img>","0","true",""
"","html-keyboard-response","75","445384","0.0-10.0-0.31","600","""event"",""trial"",""time""
""fullscreenenter"",""0"",""2541""
""blur"",""54"",""311194""
""focus"",""54"",""311416""
","""event"",""trial"",""time""
""blur"",""54"",""311194""
","""event"",""trial"",""time""
""focus"",""54"",""311416""
","""event"",""trial"",""time""
""fullscreenenter"",""0"",""2541""
","
","null","<div style=""font-size:60px;"">+</div>","","null","fixation","2021-07-01 19:44:28.007","","","","",""
"","mars-trial","76","453692","0.0-10.0-1.31","600","""event"",""trial"",""time""
""fullscreenenter"",""0"",""2541""
""blur"",""54"",""311194""
""focus"",""54"",""311416""
","""event"",""trial"",""time""
""blur"",""54"",""311194""
","""event"",""trial"",""time""
""focus"",""54"",""311416""
","""event"",""trial"",""time""
""fullscreenenter"",""0"",""2541""
","
","7702.900000095367","<img style='border: 4px solid darkgrey;' src='img/tf1_32_M_ss1.jpeg'></img>","0","","exp","","0","<img src='img/tf1_32_T1_ss1_md.jpeg'></img>","0","true",""
"","html-keyboard-response","77","454193","0.0-10.0-0.32","600","""event"",""trial"",""time""
""fullscreenenter"",""0"",""2541""
""blur"",""54"",""311194""
""focus"",""54"",""311416""
","""event"",""trial"",""time""
""blur"",""54"",""311194""
","""event"",""trial"",""time""
""focus"",""54"",""311416""
","""event"",""trial"",""time""
""fullscreenenter"",""0"",""2541""
","
","null","<div style=""font-size:60px;"">+</div>","","null","fixation","2021-07-01 19:44:36.816","","","","",""
"","mars-trial","78","463178","0.0-10.0-1.32","600","""event"",""trial"",""time""
""fullscreenenter"",""0"",""2541""
""blur"",""54"",""311194""
""focus"",""54"",""311416""
","""event"",""trial"",""time""
""blur"",""54"",""311194""
","""event"",""trial"",""time""
""focus"",""54"",""311416""
","""event"",""trial"",""time""
""fullscreenenter"",""0"",""2541""
","
","8379.299999952316","<img style='border: 4px solid darkgrey;' src='img/tf1_33_M_ss2.jpeg'></img>","1","","exp","","1","<img src='img/tf1_33_T1_ss2_md.jpeg'></img>","0","false",""
"","html-keyboard-response","79","463680","0.0-10.0-0.33","600","""event"",""trial"",""time""
""fullscreenenter"",""0"",""2541""
""blur"",""54"",""311194""
""focus"",""54"",""311416""
","""event"",""trial"",""time""
""blur"",""54"",""311194""
","""event"",""trial"",""time""
""focus"",""54"",""311416""
","""event"",""trial"",""time""
""fullscreenenter"",""0"",""2541""
","
","null","<div style=""font-size:60px;"">+</div>","","null","fixation","2021-07-01 19:44:46.303","","","","",""
"","mars-trial","80","479628","0.0-10.0-1.33","600","""event"",""trial"",""time""
""fullscreenenter"",""0"",""2541""
""blur"",""54"",""311194""
""focus"",""54"",""311416""
","""event"",""trial"",""time""
""blur"",""54"",""311194""
","""event"",""trial"",""time""
""focus"",""54"",""311416""
","""event"",""trial"",""time""
""fullscreenenter"",""0"",""2541""
","
","15344.299999952316","<img style='border: 4px solid darkgrey;' src='img/tf1_34_M_ss3.jpeg'></img>","2","","exp","","2","<img src='img/tf1_34_T1_ss3_md.jpeg'></img>","0","false",""
"","html-keyboard-response","81","480130","0.0-10.0-0.34","600","""event"",""trial"",""time""
""fullscreenenter"",""0"",""2541""
""blur"",""54"",""311194""
""focus"",""54"",""311416""
","""event"",""trial"",""time""
""blur"",""54"",""311194""
","""event"",""trial"",""time""
""focus"",""54"",""311416""
","""event"",""trial"",""time""
""fullscreenenter"",""0"",""2541""
","
","null","<div style=""font-size:60px;"">+</div>","","null","fixation","2021-07-01 19:45:02.753","","","","",""
"","mars-trial","82","481739","0.0-10.0-1.34","600","""event"",""trial"",""time""
""fullscreenenter"",""0"",""2541""
""blur"",""54"",""311194""
""focus"",""54"",""311416""
","""event"",""trial"",""time""
""blur"",""54"",""311194""
","""event"",""trial"",""time""
""focus"",""54"",""311416""
","""event"",""trial"",""time""
""fullscreenenter"",""0"",""2541""
","
","1000.2999999523163","<img style='border: 4px solid darkgrey;' src='img/tf1_35_M_ss1.jpeg'></img>","2","","exp","","1","<img src='img/tf1_35_T1_ss1_md.jpeg'></img>","0","false",""
"","html-keyboard-response","83","482240","0.0-10.0-0.35","600","""event"",""trial"",""time""
""fullscreenenter"",""0"",""2541""
""blur"",""54"",""311194""
""focus"",""54"",""311416""
","""event"",""trial"",""time""
""blur"",""54"",""311194""
","""event"",""trial"",""time""
""focus"",""54"",""311416""
","""event"",""trial"",""time""
""fullscreenenter"",""0"",""2541""
","
","null","<div style=""font-size:60px;"">+</div>","","null","fixation","2021-07-01 19:45:04.863","","","","",""
"","mars-trial","84","512716","0.0-10.0-1.35","600","""event"",""trial"",""time""
""fullscreenenter"",""0"",""2541""
""blur"",""54"",""311194""
""focus"",""54"",""311416""
","""event"",""trial"",""time""
""blur"",""54"",""311194""
","""event"",""trial"",""time""
""focus"",""54"",""311416""
","""event"",""trial"",""time""
""fullscreenenter"",""0"",""2541""
","
","29870.5","<img style='border: 4px solid darkgrey;' src='img/tf1_36_M_ss2.jpeg'></img>","1","","exp","","0","<img src='img/tf1_36_T1_ss2_md.jpeg'></img>","0","true",""
"","html-keyboard-response","85","513218","0.0-10.0-0.36","600","""event"",""trial"",""time""
""fullscreenenter"",""0"",""2541""
""blur"",""54"",""311194""
""focus"",""54"",""311416""
","""event"",""trial"",""time""
""blur"",""54"",""311194""
","""event"",""trial"",""time""
""focus"",""54"",""311416""
","""event"",""trial"",""time""
""fullscreenenter"",""0"",""2541""
","
","null","<div style=""font-size:60px;"">+</div>","","null","fixation","2021-07-01 19:45:35.841","","","","",""
"","mars-trial","86","520066","0.0-10.0-1.36","600","""event"",""trial"",""time""
""fullscreenenter"",""0"",""2541""
""blur"",""54"",""311194""
""focus"",""54"",""311416""
","""event"",""trial"",""time""
""blur"",""54"",""311194""
","""event"",""trial"",""time""
""focus"",""54"",""311416""
","""event"",""trial"",""time""
""fullscreenenter"",""0"",""2541""
","
","6243.599999904633","<img style='border: 4px solid darkgrey;' src='img/tf1_37_M_ss3.jpeg'></img>","1","","exp","","0","<img src='img/tf1_37_T1_ss3_md.jpeg'></img>","0","true",""
"","html-keyboard-response","87","520568","0.0-10.0-0.37","600","""event"",""trial"",""time""
""fullscreenenter"",""0"",""2541""
""blur"",""54"",""311194""
""focus"",""54"",""311416""
","""event"",""trial"",""time""
""blur"",""54"",""311194""
","""event"",""trial"",""time""
""focus"",""54"",""311416""
","""event"",""trial"",""time""
""fullscreenenter"",""0"",""2541""
","
","null","<div style=""font-size:60px;"">+</div>","","null","fixation","2021-07-01 19:45:43.191","","","","",""
"","mars-trial","88","526432","0.0-10.0-1.37","600","""event"",""trial"",""time""
""fullscreenenter"",""0"",""2541""
""blur"",""54"",""311194""
""focus"",""54"",""311416""
","""event"",""trial"",""time""
""blur"",""54"",""311194""
","""event"",""trial"",""time""
""focus"",""54"",""311416""
","""event"",""trial"",""time""
""fullscreenenter"",""0"",""2541""
","
","5248.5","<img style='border: 4px solid darkgrey;' src='img/tf1_38_M_ss1.jpeg'></img>","0","","exp","","0","<img src='img/tf1_38_T1_ss1_md.jpeg'></img>","0","true",""
"","html-keyboard-response","89","526934","0.0-10.0-0.38","600","""event"",""trial"",""time""
""fullscreenenter"",""0"",""2541""
""blur"",""54"",""311194""
""focus"",""54"",""311416""
","""event"",""trial"",""time""
""blur"",""54"",""311194""
","""event"",""trial"",""time""
""focus"",""54"",""311416""
","""event"",""trial"",""time""
""fullscreenenter"",""0"",""2541""
","
","null","<div style=""font-size:60px;"">+</div>","","null","fixation","2021-07-01 19:45:49.557","","","","",""
"","mars-trial","90","532114","0.0-10.0-1.38","600","""event"",""trial"",""time""
""fullscreenenter"",""0"",""2541""
""blur"",""54"",""311194""
""focus"",""54"",""311416""
","""event"",""trial"",""time""
""blur"",""54"",""311194""
","""event"",""trial"",""time""
""focus"",""54"",""311416""
","""event"",""trial"",""time""
""fullscreenenter"",""0"",""2541""
","
","4576.299999952316","<img style='border: 4px solid darkgrey;' src='img/tf1_39_M_ss2.jpeg'></img>","3","","exp","","3","<img src='img/tf1_39_T1_ss2_md.jpeg'></img>","0","false",""
"","html-keyboard-response","91","532616","0.0-10.0-0.39","600","""event"",""trial"",""time""
""fullscreenenter"",""0"",""2541""
""blur"",""54"",""311194""
""focus"",""54"",""311416""
","""event"",""trial"",""time""
""blur"",""54"",""311194""
","""event"",""trial"",""time""
""focus"",""54"",""311416""
","""event"",""trial"",""time""
""fullscreenenter"",""0"",""2541""
","
","null","<div style=""font-size:60px;"">+</div>","","null","fixation","2021-07-01 19:45:55.239","","","","",""
"","mars-trial","92","535897","0.0-10.0-1.39","600","""event"",""trial"",""time""
""fullscreenenter"",""0"",""2541""
""blur"",""54"",""311194""
""focus"",""54"",""311416""
","""event"",""trial"",""time""
""blur"",""54"",""311194""
","""event"",""trial"",""time""
""focus"",""54"",""311416""
","""event"",""trial"",""time""
""fullscreenenter"",""0"",""2541""
","
","2677.2000000476837","<img style='border: 4px solid darkgrey;' src='img/tf1_40_M_ss3.jpeg'></img>","2","","exp","","3","<img src='img/tf1_40_T1_ss3_md.jpeg'></img>","0","false",""
"","html-keyboard-response","93","536400","0.0-10.0-0.40","600","""event"",""trial"",""time""
""fullscreenenter"",""0"",""2541""
""blur"",""54"",""311194""
""focus"",""54"",""311416""
","""event"",""trial"",""time""
""blur"",""54"",""311194""
","""event"",""trial"",""time""
""focus"",""54"",""311416""
","""event"",""trial"",""time""
""fullscreenenter"",""0"",""2541""
","
","null","<div style=""font-size:60px;"">+</div>","","null","fixation","2021-07-01 19:45:59.023","","","","",""
"","mars-trial","94","539792","0.0-10.0-1.40","600","""event"",""trial"",""time""
""fullscreenenter"",""0"",""2541""
""blur"",""54"",""311194""
""focus"",""54"",""311416""
","""event"",""trial"",""time""
""blur"",""54"",""311194""
","""event"",""trial"",""time""
""focus"",""54"",""311416""
","""event"",""trial"",""time""
""fullscreenenter"",""0"",""2541""
","
","2788.399999856949","<img style='border: 4px solid darkgrey;' src='img/tf1_41_M_ss1.jpeg'></img>","3","","exp","","0","<img src='img/tf1_41_T1_ss1_md.jpeg'></img>","0","true",""
"","html-keyboard-response","95","540293","0.0-10.0-0.41","600","""event"",""trial"",""time""
""fullscreenenter"",""0"",""2541""
""blur"",""54"",""311194""
""focus"",""54"",""311416""
","""event"",""trial"",""time""
""blur"",""54"",""311194""
","""event"",""trial"",""time""
""focus"",""54"",""311416""
","""event"",""trial"",""time""
""fullscreenenter"",""0"",""2541""
","
","null","<div style=""font-size:60px;"">+</div>","","null","fixation","2021-07-01 19:46:02.916","","","","",""
"","mars-trial","96","541964","0.0-10.0-1.41","600","""event"",""trial"",""time""
""fullscreenenter"",""0"",""2541""
""blur"",""54"",""311194""
""focus"",""54"",""311416""
","""event"",""trial"",""time""
""blur"",""54"",""311194""
","""event"",""trial"",""time""
""focus"",""54"",""311416""
","""event"",""trial"",""time""
""fullscreenenter"",""0"",""2541""
","
","","","","","exp","","","<img src='img/tf1_42_T1_ss2_md.jpeg'></img>","0","false",""
"","html-keyboard-response","97","542464","0.0-10.0-0.42","600","""event"",""trial"",""time""
""fullscreenenter"",""0"",""2541""
""blur"",""54"",""311194""
""focus"",""54"",""311416""
","""event"",""trial"",""time""
""blur"",""54"",""311194""
","""event"",""trial"",""time""
""focus"",""54"",""311416""
","""event"",""trial"",""time""
""fullscreenenter"",""0"",""2541""
","
","null","<div style=""font-size:60px;"">+</div>","","null","fixation","2021-07-01 19:46:05.087","","","","",""
"","audio-button-response","98","548240","0.0-11.0","600","""event"",""trial"",""time""
""fullscreenenter"",""0"",""2541""
""blur"",""54"",""311194""
""focus"",""54"",""311416""
","""event"",""trial"",""time""
""blur"",""54"",""311194""
","""event"",""trial"",""time""
""focus"",""54"",""311416""
","""event"",""trial"",""time""
""fullscreenenter"",""0"",""2541""
","
","5674.700000047684","audio/mars_instructions_slide5.wav","0","","","","","","","",""
