"success","trial_type","trial_index","time_elapsed","internal_node_id","subject_id","interactions","blur_events","focus_events","fullscreenenter_events","fullscreenexit_events","rt","stimulus","button_pressed","key_press","part","timestamp","unshuffled_button","correct_response","correct_button","correct","value"
"true","fullscreen","0","2926","0.0-0.0","459","""event"",""trial"",""time""
""fullscreenenter"",""0"",""1947""
","
","
","""event"",""trial"",""time""
""fullscreenenter"",""0"",""1947""
","
","","","","","","","","","","",""
"","pavlovia","1","2933","0.0-1.0","459","""event"",""trial"",""time""
""fullscreenenter"",""0"",""1947""
","
","
","""event"",""trial"",""time""
""fullscreenenter"",""0"",""1947""
","
","","","","","","","","","","",""
"","html-button-response","2","4620","0.0-2.0","459","""event"",""trial"",""time""
""fullscreenenter"",""0"",""1947""
","
","
","""event"",""trial"",""time""
""fullscreenenter"",""0"",""1947""
","
","1686.1000000238419","<p>Welcome! Press START to begin.</p><br>","0","","","","","","","",""
"","audio-button-response","3","10952","0.0-3.0","459","""event"",""trial"",""time""
""fullscreenenter"",""0"",""1947""
","
","
","""event"",""trial"",""time""
""fullscreenenter"",""0"",""1947""
","
","6329","audio/mars_instructions_slide2.wav","0","","","","","","","",""
"","audio-button-response","4","13613","0.0-4.0","459","""event"",""trial"",""time""
""fullscreenenter"",""0"",""1947""
","
","
","""event"",""trial"",""time""
""fullscreenenter"",""0"",""1947""
","
","2659.5999999046326","audio/mars_instructions_slide3.wav","0","","","","","","","",""
"","html-keyboard-response","5","14119","0.0-5.0-0.0","459","""event"",""trial"",""time""
""fullscreenenter"",""0"",""1947""
","
","
","""event"",""trial"",""time""
""fullscreenenter"",""0"",""1947""
","
","null","<div style=""font-size:60px;"">+</div>","","null","fixation","2021-07-08 21:15:08.150","","","","",""
"","mars-trial","6","24913","0.0-5.0-1.0","459","""event"",""trial"",""time""
""fullscreenenter"",""0"",""1947""
","
","
","""event"",""trial"",""time""
""fullscreenenter"",""0"",""1947""
","
","8680.099999904633","<img style='border: 4px solid darkgrey;' src='practice/pt1_M1.png'></img>","3","","practice","","3","<img src='practice/pt1_T1.png'></img>","0","false",""
"","html-keyboard-response","7","25420","0.0-5.1-0.1","459","""event"",""trial"",""time""
""fullscreenenter"",""0"",""1947""
","
","
","""event"",""trial"",""time""
""fullscreenenter"",""0"",""1947""
","
","null","<div style=""font-size:60px;"">+</div>","","null","fixation","2021-07-08 21:15:19.452","","","","",""
"","mars-trial","8","43284","0.0-5.1-1.1","459","""event"",""trial"",""time""
""fullscreenenter"",""0"",""1947""
","
","
","""event"",""trial"",""time""
""fullscreenenter"",""0"",""1947""
","
","15755.100000023842","<img style='border: 4px solid darkgrey;' src='practice/pt1_M1.png'></img>","2","","practice","","3","<img src='practice/pt1_T1.png'></img>","0","false",""
"","html-keyboard-response","9","43786","0.0-5.2-0.2","459","""event"",""trial"",""time""
""fullscreenenter"",""0"",""1947""
","
","
","""event"",""trial"",""time""
""fullscreenenter"",""0"",""1947""
","
","null","<div style=""font-size:60px;"">+</div>","","null","fixation","2021-07-08 21:15:37.817","","","","",""
"","mars-trial","10","68759","0.0-5.2-1.2","459","""event"",""trial"",""time""
""fullscreenenter"",""0"",""1947""
","
","
","""event"",""trial"",""time""
""fullscreenenter"",""0"",""1947""
","
","22862.700000047684","<img style='border: 4px solid darkgrey;' src='practice/pt1_M1.png'></img>","3","","practice","","0","<img src='practice/pt1_T1.png'></img>","0","true",""
"","html-keyboard-response","11","69267","0.0-6.0-0.0","459","""event"",""trial"",""time""
""fullscreenenter"",""0"",""1947""
","
","
","""event"",""trial"",""time""
""fullscreenenter"",""0"",""1947""
","
","null","<div style=""font-size:60px;"">+</div>","","null","fixation","2021-07-08 21:16:03.298","","","","",""
"","mars-trial","12","75938","0.0-6.0-1.0","459","""event"",""trial"",""time""
""fullscreenenter"",""0"",""1947""
","
","
","""event"",""trial"",""time""
""fullscreenenter"",""0"",""1947""
","
","4557.5","<img style='border: 4px solid darkgrey;' src='practice/pt2_M1.png'></img>","2","","practice","","0","<img src='practice/pt2_T1.png'></img>","0","true",""
"","html-keyboard-response","13","76444","0.0-7.0-0.0","459","""event"",""trial"",""time""
""fullscreenenter"",""0"",""1947""
","
","
","""event"",""trial"",""time""
""fullscreenenter"",""0"",""1947""
","
","null","<div style=""font-size:60px;"">+</div>","","null","fixation","2021-07-08 21:16:10.475","","","","",""
"","mars-trial","14","81160","0.0-7.0-1.0","459","""event"",""trial"",""time""
""fullscreenenter"",""0"",""1947""
","
","
","""event"",""trial"",""time""
""fullscreenenter"",""0"",""1947""
","
","2598.8000000715256","<img style='border: 4px solid darkgrey;' src='practice/pt3_M1.png'></img>","0","","practice","","0","<img src='practice/pt3_T1.png'></img>","0","true",""
"","audio-button-response","15","83251","0.0-8.0","459","""event"",""trial"",""time""
""fullscreenenter"",""0"",""1947""
","
","
","""event"",""trial"",""time""
""fullscreenenter"",""0"",""1947""
","
","2087.399999976158","audio/mars_instructions_slide4.wav","0","","","","","","","",""
"","call-function","16","83251","0.0-9.0","459","""event"",""trial"",""time""
""fullscreenenter"",""0"",""1947""
","
","
","""event"",""trial"",""time""
""fullscreenenter"",""0"",""1947""
","
","","","","","","","","","","",""
"","html-keyboard-response","17","83752","0.0-10.0-0.0","459","""event"",""trial"",""time""
""fullscreenenter"",""0"",""1947""
","
","
","""event"",""trial"",""time""
""fullscreenenter"",""0"",""1947""
","
","null","<div style=""font-size:60px;"">+</div>","","null","fixation","2021-07-08 21:16:17.783","","","","",""
"","mars-trial","18","86061","0.0-10.0-1.0","459","""event"",""trial"",""time""
""fullscreenenter"",""0"",""1947""
","
","
","""event"",""trial"",""time""
""fullscreenenter"",""0"",""1947""
","
","1703.3999999761581","<img style='border: 4px solid darkgrey;' src='img/tf1_1_M_ss3.jpeg'></img>","3","","exp","","0","<img src='img/tf1_1_T1_ss3_md.jpeg'></img>","0","true",""
"","html-keyboard-response","19","86563","0.0-10.0-0.1","459","""event"",""trial"",""time""
""fullscreenenter"",""0"",""1947""
","
","
","""event"",""trial"",""time""
""fullscreenenter"",""0"",""1947""
","
","null","<div style=""font-size:60px;"">+</div>","","null","fixation","2021-07-08 21:16:20.594","","","","",""
"","mars-trial","20","91699","0.0-10.0-1.1","459","""event"",""trial"",""time""
""fullscreenenter"",""0"",""1947""
","
","
","""event"",""trial"",""time""
""fullscreenenter"",""0"",""1947""
","
","4526.700000047684","<img style='border: 4px solid darkgrey;' src='img/tf1_2_M_ss1.jpeg'></img>","2","","exp","","0","<img src='img/tf1_2_T1_ss1_md.jpeg'></img>","0","true",""
"","html-keyboard-response","21","92201","0.0-10.0-0.2","459","""event"",""trial"",""time""
""fullscreenenter"",""0"",""1947""
","
","
","""event"",""trial"",""time""
""fullscreenenter"",""0"",""1947""
","
","null","<div style=""font-size:60px;"">+</div>","","null","fixation","2021-07-08 21:16:26.232","","","","",""
"","mars-trial","22","95299","0.0-10.0-1.2","459","""event"",""trial"",""time""
""fullscreenenter"",""0"",""1947""
","
","
","""event"",""trial"",""time""
""fullscreenenter"",""0"",""1947""
","
","2487.7000000476837","<img style='border: 4px solid darkgrey;' src='img/tf1_3_M_ss2.jpeg'></img>","3","","exp","","0","<img src='img/tf1_3_T1_ss2_md.jpeg'></img>","0","true",""
"","html-keyboard-response","23","95804","0.0-10.0-0.3","459","""event"",""trial"",""time""
""fullscreenenter"",""0"",""1947""
","
","
","""event"",""trial"",""time""
""fullscreenenter"",""0"",""1947""
","
","null","<div style=""font-size:60px;"">+</div>","","null","fixation","2021-07-08 21:16:29.835","","","","",""
"","mars-trial","24","99220","0.0-10.0-1.3","459","""event"",""trial"",""time""
""fullscreenenter"",""0"",""1947""
","
","
","""event"",""trial"",""time""
""fullscreenenter"",""0"",""1947""
","
","2808.7000000476837","<img style='border: 4px solid darkgrey;' src='img/tf1_4_M_ss3.jpeg'></img>","1","","exp","","0","<img src='img/tf1_4_T1_ss3_md.jpeg'></img>","0","true",""
"","html-keyboard-response","25","99724","0.0-10.0-0.4","459","""event"",""trial"",""time""
""fullscreenenter"",""0"",""1947""
","
","
","""event"",""trial"",""time""
""fullscreenenter"",""0"",""1947""
","
","null","<div style=""font-size:60px;"">+</div>","","null","fixation","2021-07-08 21:16:33.755","","","","",""
"","mars-trial","26","102090","0.0-10.0-1.4","459","""event"",""trial"",""time""
""fullscreenenter"",""0"",""1947""
","
","
","""event"",""trial"",""time""
""fullscreenenter"",""0"",""1947""
","
","1755.2999999523163","<img style='border: 4px solid darkgrey;' src='img/tf1_5_M_ss1.jpeg'></img>","3","","exp","","0","<img src='img/tf1_5_T1_ss1_md.jpeg'></img>","0","true",""
"","html-keyboard-response","27","102594","0.0-10.0-0.5","459","""event"",""trial"",""time""
""fullscreenenter"",""0"",""1947""
","
","
","""event"",""trial"",""time""
""fullscreenenter"",""0"",""1947""
","
","null","<div style=""font-size:60px;"">+</div>","","null","fixation","2021-07-08 21:16:36.625","","","","",""
"","mars-trial","28","118664","0.0-10.0-1.5","459","""event"",""trial"",""time""
""fullscreenenter"",""0"",""1947""
","
","
","""event"",""trial"",""time""
""fullscreenenter"",""0"",""1947""
","
","15459.700000047684","<img style='border: 4px solid darkgrey;' src='img/tf1_6_M_ss2.jpeg'></img>","1","","exp","","0","<img src='img/tf1_6_T1_ss2_md.jpeg'></img>","0","true",""
"","html-keyboard-response","29","119167","0.0-10.0-0.6","459","""event"",""trial"",""time""
""fullscreenenter"",""0"",""1947""
","
","
","""event"",""trial"",""time""
""fullscreenenter"",""0"",""1947""
","
","null","<div style=""font-size:60px;"">+</div>","","null","fixation","2021-07-08 21:16:53.198","","","","",""
"","mars-trial","30","123927","0.0-10.0-1.6","459","""event"",""trial"",""time""
""fullscreenenter"",""0"",""1947""
","
","
","""event"",""trial"",""time""
""fullscreenenter"",""0"",""1947""
","
","4148","<img style='border: 4px solid darkgrey;' src='img/tf1_7_M_ss3.jpeg'></img>","0","","exp","","0","<img src='img/tf1_7_T1_ss3_md.jpeg'></img>","0","true",""
"","html-keyboard-response","31","124430","0.0-10.0-0.7","459","""event"",""trial"",""time""
""fullscreenenter"",""0"",""1947""
","
","
","""event"",""trial"",""time""
""fullscreenenter"",""0"",""1947""
","
","null","<div style=""font-size:60px;"">+</div>","","null","fixation","2021-07-08 21:16:58.461","","","","",""
"","mars-trial","32","130630","0.0-10.0-1.7","459","""event"",""trial"",""time""
""fullscreenenter"",""0"",""1947""
","
","
","""event"",""trial"",""time""
""fullscreenenter"",""0"",""1947""
","
","5590.700000047684","<img style='border: 4px solid darkgrey;' src='img/tf1_8_M_ss1.jpeg'></img>","2","","exp","","0","<img src='img/tf1_8_T1_ss1_md.jpeg'></img>","0","true",""
"","html-keyboard-response","33","131133","0.0-10.0-0.8","459","""event"",""trial"",""time""
""fullscreenenter"",""0"",""1947""
","
","
","""event"",""trial"",""time""
""fullscreenenter"",""0"",""1947""
","
","null","<div style=""font-size:60px;"">+</div>","","null","fixation","2021-07-08 21:17:05.164","","","","",""
"","mars-trial","34","137236","0.0-10.0-1.8","459","""event"",""trial"",""time""
""fullscreenenter"",""0"",""1947""
","
","
","""event"",""trial"",""time""
""fullscreenenter"",""0"",""1947""
","
","5491.199999928474","<img style='border: 4px solid darkgrey;' src='img/tf1_9_M_ss2.jpeg'></img>","0","","exp","","0","<img src='img/tf1_9_T1_ss2_md.jpeg'></img>","0","true",""
"","html-keyboard-response","35","137739","0.0-10.0-0.9","459","""event"",""trial"",""time""
""fullscreenenter"",""0"",""1947""
","
","
","""event"",""trial"",""time""
""fullscreenenter"",""0"",""1947""
","
","null","<div style=""font-size:60px;"">+</div>","","null","fixation","2021-07-08 21:17:11.770","","","","",""
"","mars-trial","36","154060","0.0-10.0-1.9","459","""event"",""trial"",""time""
""fullscreenenter"",""0"",""1947""
","
","
","""event"",""trial"",""time""
""fullscreenenter"",""0"",""1947""
","
","15712.200000047684","<img style='border: 4px solid darkgrey;' src='img/tf1_10_M_ss3.jpeg'></img>","1","","exp","","0","<img src='img/tf1_10_T1_ss3_md.jpeg'></img>","0","true",""
"","html-keyboard-response","37","154563","0.0-10.0-0.10","459","""event"",""trial"",""time""
""fullscreenenter"",""0"",""1947""
","
","
","""event"",""trial"",""time""
""fullscreenenter"",""0"",""1947""
","
","null","<div style=""font-size:60px;"">+</div>","","null","fixation","2021-07-08 21:17:28.594","","","","",""
"","mars-trial","38","176333","0.0-10.0-1.10","459","""event"",""trial"",""time""
""fullscreenenter"",""0"",""1947""
","
","
","""event"",""trial"",""time""
""fullscreenenter"",""0"",""1947""
","
","21162","<img style='border: 4px solid darkgrey;' src='img/tf1_11_M_ss1.jpeg'></img>","3","","exp","","3","<img src='img/tf1_11_T1_ss1_md.jpeg'></img>","0","false",""
"","html-keyboard-response","39","176836","0.0-10.0-0.11","459","""event"",""trial"",""time""
""fullscreenenter"",""0"",""1947""
","
","
","""event"",""trial"",""time""
""fullscreenenter"",""0"",""1947""
","
","null","<div style=""font-size:60px;"">+</div>","","null","fixation","2021-07-08 21:17:50.868","","","","",""
"","mars-trial","40","199608","0.0-10.0-1.11","459","""event"",""trial"",""time""
""fullscreenenter"",""0"",""1947""
","
","
","""event"",""trial"",""time""
""fullscreenenter"",""0"",""1947""
","
","22160.799999952316","<img style='border: 4px solid darkgrey;' src='img/tf1_12_M_ss2.jpeg'></img>","1","","exp","","1","<img src='img/tf1_12_T1_ss2_md.jpeg'></img>","0","false",""
"","html-keyboard-response","41","200110","0.0-10.0-0.12","459","""event"",""trial"",""time""
""fullscreenenter"",""0"",""1947""
","
","
","""event"",""trial"",""time""
""fullscreenenter"",""0"",""1947""
","
","null","<div style=""font-size:60px;"">+</div>","","null","fixation","2021-07-08 21:18:14.141","","","","",""
"","mars-trial","42","208817","0.0-10.0-1.12","459","""event"",""trial"",""time""
""fullscreenenter"",""0"",""1947""
","
","
","""event"",""trial"",""time""
""fullscreenenter"",""0"",""1947""
","
","8100.299999952316","<img style='border: 4px solid darkgrey;' src='img/tf1_13_M_ss3.jpeg'></img>","1","","exp","","1","<img src='img/tf1_13_T1_ss3_md.jpeg'></img>","0","false",""
"","html-keyboard-response","43","209320","0.0-10.0-0.13","459","""event"",""trial"",""time""
""fullscreenenter"",""0"",""1947""
","
","
","""event"",""trial"",""time""
""fullscreenenter"",""0"",""1947""
","
","null","<div style=""font-size:60px;"">+</div>","","null","fixation","2021-07-08 21:18:23.352","","","","",""
"","mars-trial","44","234250","0.0-10.0-1.13","459","""event"",""trial"",""time""
""fullscreenenter"",""0"",""1947""
","
","
","""event"",""trial"",""time""
""fullscreenenter"",""0"",""1947""
","
","24319","<img style='border: 4px solid darkgrey;' src='img/tf1_14_M_ss1.jpeg'></img>","3","","exp","","1","<img src='img/tf1_14_T1_ss1_md.jpeg'></img>","0","false",""
"","html-keyboard-response","45","234753","0.0-10.0-0.14","459","""event"",""trial"",""time""
""fullscreenenter"",""0"",""1947""
","
","
","""event"",""trial"",""time""
""fullscreenenter"",""0"",""1947""
","
","null","<div style=""font-size:60px;"">+</div>","","null","fixation","2021-07-08 21:18:48.784","","","","",""
"","mars-trial","46","252234","0.0-10.0-1.14","459","""event"",""trial"",""time""
""fullscreenenter"",""0"",""1947""
","
","
","""event"",""trial"",""time""
""fullscreenenter"",""0"",""1947""
","
","16873.100000023842","<img style='border: 4px solid darkgrey;' src='img/tf1_15_M_ss2.jpeg'></img>","2","","exp","","0","<img src='img/tf1_15_T1_ss2_md.jpeg'></img>","0","true",""
"","html-keyboard-response","47","252737","0.0-10.0-0.15","459","""event"",""trial"",""time""
""fullscreenenter"",""0"",""1947""
","
","
","""event"",""trial"",""time""
""fullscreenenter"",""0"",""1947""
","
","null","<div style=""font-size:60px;"">+</div>","","null","fixation","2021-07-08 21:19:06.768","","","","",""
"","mars-trial","48","276937","0.0-10.0-1.15","459","""event"",""trial"",""time""
""fullscreenenter"",""0"",""1947""
","
","
","""event"",""trial"",""time""
""fullscreenenter"",""0"",""1947""
","
","23591.199999928474","<img style='border: 4px solid darkgrey;' src='img/tf1_16_M_ss3.jpeg'></img>","2","","exp","","0","<img src='img/tf1_16_T1_ss3_md.jpeg'></img>","0","true",""
"","html-keyboard-response","49","277440","0.0-10.0-0.16","459","""event"",""trial"",""time""
""fullscreenenter"",""0"",""1947""
","
","
","""event"",""trial"",""time""
""fullscreenenter"",""0"",""1947""
","
","null","<div style=""font-size:60px;"">+</div>","","null","fixation","2021-07-08 21:19:31.471","","","","",""
"","mars-trial","50","287618","0.0-10.0-1.16","459","""event"",""trial"",""time""
""fullscreenenter"",""0"",""1947""
","
","
","""event"",""trial"",""time""
""fullscreenenter"",""0"",""1947""
","
","9569.100000023842","<img style='border: 4px solid darkgrey;' src='img/tf1_17_M_ss1.jpeg'></img>","2","","exp","","0","<img src='img/tf1_17_T1_ss1_md.jpeg'></img>","0","true",""
"","html-keyboard-response","51","288121","0.0-10.0-0.17","459","""event"",""trial"",""time""
""fullscreenenter"",""0"",""1947""
","
","
","""event"",""trial"",""time""
""fullscreenenter"",""0"",""1947""
","
","null","<div style=""font-size:60px;"">+</div>","","null","fixation","2021-07-08 21:19:42.153","","","","",""
"","mars-trial","52","302768","0.0-10.0-1.17","459","""event"",""trial"",""time""
""fullscreenenter"",""0"",""1947""
","
","
","""event"",""trial"",""time""
""fullscreenenter"",""0"",""1947""
","
","14036.799999952316","<img style='border: 4px solid darkgrey;' src='img/tf1_18_M_ss2.jpeg'></img>","2","","exp","","3","<img src='img/tf1_18_T1_ss2_md.jpeg'></img>","0","false",""
"","html-keyboard-response","53","303270","0.0-10.0-0.18","459","""event"",""trial"",""time""
""fullscreenenter"",""0"",""1947""
","
","
","""event"",""trial"",""time""
""fullscreenenter"",""0"",""1947""
","
","null","<div style=""font-size:60px;"">+</div>","","null","fixation","2021-07-08 21:19:57.302","","","","",""
"","mars-trial","54","309009","0.0-10.0-1.18","459","""event"",""trial"",""time""
""fullscreenenter"",""0"",""1947""
","
","
","""event"",""trial"",""time""
""fullscreenenter"",""0"",""1947""
","
","5129.699999928474","<img style='border: 4px solid darkgrey;' src='img/tf1_19_M_ss3.jpeg'></img>","2","","exp","","0","<img src='img/tf1_19_T1_ss3_md.jpeg'></img>","0","true",""
"","html-keyboard-response","55","309511","0.0-10.0-0.19","459","""event"",""trial"",""time""
""fullscreenenter"",""0"",""1947""
","
","
","""event"",""trial"",""time""
""fullscreenenter"",""0"",""1947""
","
","null","<div style=""font-size:60px;"">+</div>","","null","fixation","2021-07-08 21:20:03.542","","","","",""
"","mars-trial","56","328974","0.0-10.0-1.19","459","""event"",""trial"",""time""
""fullscreenenter"",""0"",""1947""
","
","
","""event"",""trial"",""time""
""fullscreenenter"",""0"",""1947""
","
","18855.299999952316","<img style='border: 4px solid darkgrey;' src='img/tf1_20_M_ss1.jpeg'></img>","3","","exp","","0","<img src='img/tf1_20_T1_ss1_md.jpeg'></img>","0","true",""
"","html-keyboard-response","57","329479","0.0-10.0-0.20","459","""event"",""trial"",""time""
""fullscreenenter"",""0"",""1947""
","
","
","""event"",""trial"",""time""
""fullscreenenter"",""0"",""1947""
","
","null","<div style=""font-size:60px;"">+</div>","","null","fixation","2021-07-08 21:20:23.511","","","","",""
"","mars-trial","58","341388","0.0-10.0-1.20","459","""event"",""trial"",""time""
""fullscreenenter"",""0"",""1947""
","
","
","""event"",""trial"",""time""
""fullscreenenter"",""0"",""1947""
","
","11294.600000023842","<img style='border: 4px solid darkgrey;' src='img/tf1_21_M_ss2.jpeg'></img>","1","","exp","","2","<img src='img/tf1_21_T1_ss2_md.jpeg'></img>","0","false",""
"","html-keyboard-response","59","341891","0.0-10.0-0.21","459","""event"",""trial"",""time""
""fullscreenenter"",""0"",""1947""
","
","
","""event"",""trial"",""time""
""fullscreenenter"",""0"",""1947""
","
","null","<div style=""font-size:60px;"">+</div>","","null","fixation","2021-07-08 21:20:35.922","","","","",""
"","mars-trial","60","349609","0.0-10.0-1.21","459","""event"",""trial"",""time""
""fullscreenenter"",""0"",""1947""
","
","
","""event"",""trial"",""time""
""fullscreenenter"",""0"",""1947""
","
","7104.600000023842","<img style='border: 4px solid darkgrey;' src='img/tf1_22_M_ss3.jpeg'></img>","1","","exp","","0","<img src='img/tf1_22_T1_ss3_md.jpeg'></img>","0","true",""
"","html-keyboard-response","61","350111","0.0-10.0-0.22","459","""event"",""trial"",""time""
""fullscreenenter"",""0"",""1947""
","
","
","""event"",""trial"",""time""
""fullscreenenter"",""0"",""1947""
","
","null","<div style=""font-size:60px;"">+</div>","","null","fixation","2021-07-08 21:20:44.142","","","","",""
"","mars-trial","62","364859","0.0-10.0-1.22","459","""event"",""trial"",""time""
""fullscreenenter"",""0"",""1947""
","
","
","""event"",""trial"",""time""
""fullscreenenter"",""0"",""1947""
","
","14145.100000023842","<img style='border: 4px solid darkgrey;' src='img/tf1_23_M_ss1.jpeg'></img>","1","","exp","","0","<img src='img/tf1_23_T1_ss1_md.jpeg'></img>","0","true",""
"","html-keyboard-response","63","365363","0.0-10.0-0.23","459","""event"",""trial"",""time""
""fullscreenenter"",""0"",""1947""
","
","
","""event"",""trial"",""time""
""fullscreenenter"",""0"",""1947""
","
","null","<div style=""font-size:60px;"">+</div>","","null","fixation","2021-07-08 21:20:59.394","","","","",""
"","mars-trial","64","392593","0.0-10.0-1.23","459","""event"",""trial"",""time""
""fullscreenenter"",""0"",""1947""
","
","
","""event"",""trial"",""time""
""fullscreenenter"",""0"",""1947""
","
","26618.700000047684","<img style='border: 4px solid darkgrey;' src='img/tf1_24_M_ss2.jpeg'></img>","1","","exp","","1","<img src='img/tf1_24_T1_ss2_md.jpeg'></img>","0","false",""
"","html-keyboard-response","65","393095","0.0-10.0-0.24","459","""event"",""trial"",""time""
""fullscreenenter"",""0"",""1947""
","
","
","""event"",""trial"",""time""
""fullscreenenter"",""0"",""1947""
","
","null","<div style=""font-size:60px;"">+</div>","","null","fixation","2021-07-08 21:21:27.126","","","","",""
"","mars-trial","66","407142","0.0-10.0-1.24","459","""event"",""trial"",""time""
""fullscreenenter"",""0"",""1947""
","
","
","""event"",""trial"",""time""
""fullscreenenter"",""0"",""1947""
","
","13435.899999976158","<img style='border: 4px solid darkgrey;' src='img/tf1_25_M_ss3.jpeg'></img>","1","","exp","","0","<img src='img/tf1_25_T1_ss3_md.jpeg'></img>","0","true",""
"","html-keyboard-response","67","407644","0.0-10.0-0.25","459","""event"",""trial"",""time""
""fullscreenenter"",""0"",""1947""
","
","
","""event"",""trial"",""time""
""fullscreenenter"",""0"",""1947""
","
","null","<div style=""font-size:60px;"">+</div>","","null","fixation","2021-07-08 21:21:41.675","","","","",""
"","mars-trial","68","430046","0.0-10.0-1.25","459","""event"",""trial"",""time""
""fullscreenenter"",""0"",""1947""
","
","
","""event"",""trial"",""time""
""fullscreenenter"",""0"",""1947""
","
","21797.699999928474","<img style='border: 4px solid darkgrey;' src='img/tf1_26_M_ss1.jpeg'></img>","3","","exp","","2","<img src='img/tf1_26_T1_ss1_md.jpeg'></img>","0","false",""
"","html-keyboard-response","69","430549","0.0-10.0-0.26","459","""event"",""trial"",""time""
""fullscreenenter"",""0"",""1947""
","
","
","""event"",""trial"",""time""
""fullscreenenter"",""0"",""1947""
","
","null","<div style=""font-size:60px;"">+</div>","","null","fixation","2021-07-08 21:22:04.580","","","","",""
"","mars-trial","70","432668","0.0-10.0-1.26","459","""event"",""trial"",""time""
""fullscreenenter"",""0"",""1947""
","
","
","""event"",""trial"",""time""
""fullscreenenter"",""0"",""1947""
","
","1508.8999999761581","<img style='border: 4px solid darkgrey;' src='img/tf1_27_M_ss2.jpeg'></img>","2","","exp","","0","<img src='img/tf1_27_T1_ss2_md.jpeg'></img>","0","true",""
"","html-keyboard-response","71","433170","0.0-10.0-0.27","459","""event"",""trial"",""time""
""fullscreenenter"",""0"",""1947""
","
","
","""event"",""trial"",""time""
""fullscreenenter"",""0"",""1947""
","
","null","<div style=""font-size:60px;"">+</div>","","null","fixation","2021-07-08 21:22:07.201","","","","",""
"","mars-trial","72","438761","0.0-10.0-1.27","459","""event"",""trial"",""time""
""fullscreenenter"",""0"",""1947""
","
","
","""event"",""trial"",""time""
""fullscreenenter"",""0"",""1947""
","
","4983.800000071526","<img style='border: 4px solid darkgrey;' src='img/tf1_28_M_ss3.jpeg'></img>","2","","exp","","2","<img src='img/tf1_28_T1_ss3_md.jpeg'></img>","0","false",""
"","html-keyboard-response","73","439266","0.0-10.0-0.28","459","""event"",""trial"",""time""
""fullscreenenter"",""0"",""1947""
","
","
","""event"",""trial"",""time""
""fullscreenenter"",""0"",""1947""
","
","null","<div style=""font-size:60px;"">+</div>","","null","fixation","2021-07-08 21:22:13.297","","","","",""
"","mars-trial","74","444085","0.0-10.0-1.28","459","""event"",""trial"",""time""
""fullscreenenter"",""0"",""1947""
","
","
","""event"",""trial"",""time""
""fullscreenenter"",""0"",""1947""
","
","4211.700000047684","<img style='border: 4px solid darkgrey;' src='img/tf1_29_M_ss1.jpeg'></img>","0","","exp","","1","<img src='img/tf1_29_T1_ss1_md.jpeg'></img>","0","false",""
"","html-keyboard-response","75","444587","0.0-10.0-0.29","459","""event"",""trial"",""time""
""fullscreenenter"",""0"",""1947""
","
","
","""event"",""trial"",""time""
""fullscreenenter"",""0"",""1947""
","
","null","<div style=""font-size:60px;"">+</div>","","null","fixation","2021-07-08 21:22:18.618","","","","",""
"","mars-trial","76","456004","0.0-10.0-1.29","459","""event"",""trial"",""time""
""fullscreenenter"",""0"",""1947""
","
","
","""event"",""trial"",""time""
""fullscreenenter"",""0"",""1947""
","
","10806.5","<img style='border: 4px solid darkgrey;' src='img/tf1_30_M_ss2.jpeg'></img>","2","","exp","","2","<img src='img/tf1_30_T1_ss2_md.jpeg'></img>","0","false",""
"","html-keyboard-response","77","456507","0.0-10.0-0.30","459","""event"",""trial"",""time""
""fullscreenenter"",""0"",""1947""
","
","
","""event"",""trial"",""time""
""fullscreenenter"",""0"",""1947""
","
","null","<div style=""font-size:60px;"">+</div>","","null","fixation","2021-07-08 21:22:30.538","","","","",""
"","mars-trial","78","463026","0.0-10.0-1.30","459","""event"",""trial"",""time""
""fullscreenenter"",""0"",""1947""
","
","
","""event"",""trial"",""time""
""fullscreenenter"",""0"",""1947""
","
","5909.899999976158","<img style='border: 4px solid darkgrey;' src='img/tf1_31_M_ss3.jpeg'></img>","2","","exp","","3","<img src='img/tf1_31_T1_ss3_md.jpeg'></img>","0","false",""
"","html-keyboard-response","79","463528","0.0-10.0-0.31","459","""event"",""trial"",""time""
""fullscreenenter"",""0"",""1947""
","
","
","""event"",""trial"",""time""
""fullscreenenter"",""0"",""1947""
","
","null","<div style=""font-size:60px;"">+</div>","","null","fixation","2021-07-08 21:22:37.560","","","","",""
"","mars-trial","80","469032","0.0-10.0-1.31","459","""event"",""trial"",""time""
""fullscreenenter"",""0"",""1947""
","
","
","""event"",""trial"",""time""
""fullscreenenter"",""0"",""1947""
","
","4887.799999952316","<img style='border: 4px solid darkgrey;' src='img/tf1_32_M_ss1.jpeg'></img>","3","","exp","","0","<img src='img/tf1_32_T1_ss1_md.jpeg'></img>","0","true",""
"","html-keyboard-response","81","469538","0.0-10.0-0.32","459","""event"",""trial"",""time""
""fullscreenenter"",""0"",""1947""
","
","
","""event"",""trial"",""time""
""fullscreenenter"",""0"",""1947""
","
","null","<div style=""font-size:60px;"">+</div>","","null","fixation","2021-07-08 21:22:43.569","","","","",""
"","mars-trial","82","477970","0.0-10.0-1.32","459","""event"",""trial"",""time""
""fullscreenenter"",""0"",""1947""
","
","
","""event"",""trial"",""time""
""fullscreenenter"",""0"",""1947""
","
","7822.700000047684","<img style='border: 4px solid darkgrey;' src='img/tf1_33_M_ss2.jpeg'></img>","2","","exp","","0","<img src='img/tf1_33_T1_ss2_md.jpeg'></img>","0","true",""
"","html-keyboard-response","83","478473","0.0-10.0-0.33","459","""event"",""trial"",""time""
""fullscreenenter"",""0"",""1947""
","
","
","""event"",""trial"",""time""
""fullscreenenter"",""0"",""1947""
","
","null","<div style=""font-size:60px;"">+</div>","","null","fixation","2021-07-08 21:22:52.504","","","","",""
"","mars-trial","84","488997","0.0-10.0-1.33","459","""event"",""trial"",""time""
""fullscreenenter"",""0"",""1947""
","
","
","""event"",""trial"",""time""
""fullscreenenter"",""0"",""1947""
","
","9913.100000023842","<img style='border: 4px solid darkgrey;' src='img/tf1_34_M_ss3.jpeg'></img>","3","","exp","","1","<img src='img/tf1_34_T1_ss3_md.jpeg'></img>","0","false",""
"","html-keyboard-response","85","489499","0.0-10.0-0.34","459","""event"",""trial"",""time""
""fullscreenenter"",""0"",""1947""
","
","
","""event"",""trial"",""time""
""fullscreenenter"",""0"",""1947""
","
","null","<div style=""font-size:60px;"">+</div>","","null","fixation","2021-07-08 21:23:03.530","","","","",""
"","mars-trial","86","492249","0.0-10.0-1.34","459","""event"",""trial"",""time""
""fullscreenenter"",""0"",""1947""
","
","
","""event"",""trial"",""time""
""fullscreenenter"",""0"",""1947""
","
","2139.3000000715256","<img style='border: 4px solid darkgrey;' src='img/tf1_35_M_ss1.jpeg'></img>","1","","exp","","2","<img src='img/tf1_35_T1_ss1_md.jpeg'></img>","0","false",""
"","html-keyboard-response","87","492751","0.0-10.0-0.35","459","""event"",""trial"",""time""
""fullscreenenter"",""0"",""1947""
","
","
","""event"",""trial"",""time""
""fullscreenenter"",""0"",""1947""
","
","null","<div style=""font-size:60px;"">+</div>","","null","fixation","2021-07-08 21:23:06.782","","","","",""
"","mars-trial","88","493934","0.0-10.0-1.35","459","""event"",""trial"",""time""
""fullscreenenter"",""0"",""1947""
","
","
","""event"",""trial"",""time""
""fullscreenenter"",""0"",""1947""
","
","573.2999999523163","<img style='border: 4px solid darkgrey;' src='img/tf1_36_M_ss2.jpeg'></img>","3","","exp","","0","<img src='img/tf1_36_T1_ss2_md.jpeg'></img>","0","true",""
"","html-keyboard-response","89","494437","0.0-10.0-0.36","459","""event"",""trial"",""time""
""fullscreenenter"",""0"",""1947""
","
","
","""event"",""trial"",""time""
""fullscreenenter"",""0"",""1947""
","
","null","<div style=""font-size:60px;"">+</div>","","null","fixation","2021-07-08 21:23:08.469","","","","",""
"","mars-trial","90","495823","0.0-10.0-1.36","459","""event"",""trial"",""time""
""fullscreenenter"",""0"",""1947""
","
","
","""event"",""trial"",""time""
""fullscreenenter"",""0"",""1947""
","
","776.0999999046326","<img style='border: 4px solid darkgrey;' src='img/tf1_37_M_ss3.jpeg'></img>","2","","exp","","0","<img src='img/tf1_37_T1_ss3_md.jpeg'></img>","0","true",""
"","html-keyboard-response","91","496326","0.0-10.0-0.37","459","""event"",""trial"",""time""
""fullscreenenter"",""0"",""1947""
","
","
","""event"",""trial"",""time""
""fullscreenenter"",""0"",""1947""
","
","null","<div style=""font-size:60px;"">+</div>","","null","fixation","2021-07-08 21:23:10.357","","","","",""
"","mars-trial","92","497791","0.0-10.0-1.37","459","""event"",""trial"",""time""
""fullscreenenter"",""0"",""1947""
","
","
","""event"",""trial"",""time""
""fullscreenenter"",""0"",""1947""
","
","856.6999999284744","<img style='border: 4px solid darkgrey;' src='img/tf1_38_M_ss1.jpeg'></img>","0","","exp","","2","<img src='img/tf1_38_T1_ss1_md.jpeg'></img>","0","false",""
"","html-keyboard-response","93","498295","0.0-10.0-0.38","459","""event"",""trial"",""time""
""fullscreenenter"",""0"",""1947""
","
","
","""event"",""trial"",""time""
""fullscreenenter"",""0"",""1947""
","
","null","<div style=""font-size:60px;"">+</div>","","null","fixation","2021-07-08 21:23:12.327","","","","",""
"","mars-trial","94","499750","0.0-10.0-1.38","459","""event"",""trial"",""time""
""fullscreenenter"",""0"",""1947""
","
","
","""event"",""trial"",""time""
""fullscreenenter"",""0"",""1947""
","
","848.1000000238419","<img style='border: 4px solid darkgrey;' src='img/tf1_39_M_ss2.jpeg'></img>","3","","exp","","0","<img src='img/tf1_39_T1_ss2_md.jpeg'></img>","0","true",""
"","html-keyboard-response","95","500252","0.0-10.0-0.39","459","""event"",""trial"",""time""
""fullscreenenter"",""0"",""1947""
","
","
","""event"",""trial"",""time""
""fullscreenenter"",""0"",""1947""
","
","null","<div style=""font-size:60px;"">+</div>","","null","fixation","2021-07-08 21:23:14.283","","","","",""
"","mars-trial","96","501744","0.0-10.0-1.39","459","""event"",""trial"",""time""
""fullscreenenter"",""0"",""1947""
","
","
","""event"",""trial"",""time""
""fullscreenenter"",""0"",""1947""
","
","885.1000000238419","<img style='border: 4px solid darkgrey;' src='img/tf1_40_M_ss3.jpeg'></img>","1","","exp","","1","<img src='img/tf1_40_T1_ss3_md.jpeg'></img>","0","false",""
"","html-keyboard-response","97","502251","0.0-10.0-0.40","459","""event"",""trial"",""time""
""fullscreenenter"",""0"",""1947""
","
","
","""event"",""trial"",""time""
""fullscreenenter"",""0"",""1947""
","
","null","<div style=""font-size:60px;"">+</div>","","null","fixation","2021-07-08 21:23:16.282","","","","",""
"","mars-trial","98","503560","0.0-10.0-1.40","459","""event"",""trial"",""time""
""fullscreenenter"",""0"",""1947""
","
","
","""event"",""trial"",""time""
""fullscreenenter"",""0"",""1947""
","
","699.5","<img style='border: 4px solid darkgrey;' src='img/tf1_41_M_ss1.jpeg'></img>","2","","exp","","2","<img src='img/tf1_41_T1_ss1_md.jpeg'></img>","0","false",""
"","html-keyboard-response","99","504062","0.0-10.0-0.41","459","""event"",""trial"",""time""
""fullscreenenter"",""0"",""1947""
","
","
","""event"",""trial"",""time""
""fullscreenenter"",""0"",""1947""
","
","null","<div style=""font-size:60px;"">+</div>","","null","fixation","2021-07-08 21:23:18.093","","","","",""
"","mars-trial","100","505189","0.0-10.0-1.41","459","""event"",""trial"",""time""
""fullscreenenter"",""0"",""1947""
","
","
","""event"",""trial"",""time""
""fullscreenenter"",""0"",""1947""
","
","515","<img style='border: 4px solid darkgrey;' src='img/tf1_42_M_ss2.jpeg'></img>","3","","exp","","3","<img src='img/tf1_42_T1_ss2_md.jpeg'></img>","0","false",""
"","html-keyboard-response","101","505693","0.0-10.0-0.42","459","""event"",""trial"",""time""
""fullscreenenter"",""0"",""1947""
","
","
","""event"",""trial"",""time""
""fullscreenenter"",""0"",""1947""
","
","null","<div style=""font-size:60px;"">+</div>","","null","fixation","2021-07-08 21:23:19.724","","","","",""
"","mars-trial","102","506877","0.0-10.0-1.42","459","""event"",""trial"",""time""
""fullscreenenter"",""0"",""1947""
","
","
","""event"",""trial"",""time""
""fullscreenenter"",""0"",""1947""
","
","571.6000000238419","<img style='border: 4px solid darkgrey;' src='img/tf1_43_M_ss3.jpeg'></img>","1","","exp","","0","<img src='img/tf1_43_T1_ss3_md.jpeg'></img>","0","true",""
"","html-keyboard-response","103","507379","0.0-10.0-0.43","459","""event"",""trial"",""time""
""fullscreenenter"",""0"",""1947""
","
","
","""event"",""trial"",""time""
""fullscreenenter"",""0"",""1947""
","
","null","<div style=""font-size:60px;"">+</div>","","null","fixation","2021-07-08 21:23:21.410","","","","",""
"","mars-trial","104","526687","0.0-10.0-1.43","459","""event"",""trial"",""time""
""fullscreenenter"",""0"",""1947""
","
","
","""event"",""trial"",""time""
""fullscreenenter"",""0"",""1947""
","
","18695.299999952316","<img style='border: 4px solid darkgrey;' src='img/tf1_44_M_ss1.jpeg'></img>","0","","exp","","3","<img src='img/tf1_44_T1_ss1_md.jpeg'></img>","0","false",""
"","html-keyboard-response","105","527191","0.0-10.0-0.44","459","""event"",""trial"",""time""
""fullscreenenter"",""0"",""1947""
","
","
","""event"",""trial"",""time""
""fullscreenenter"",""0"",""1947""
","
","null","<div style=""font-size:60px;"">+</div>","","null","fixation","2021-07-08 21:23:41.223","","","","",""
"","mars-trial","106","530307","0.0-10.0-1.44","459","""event"",""trial"",""time""
""fullscreenenter"",""0"",""1947""
","
","
","""event"",""trial"",""time""
""fullscreenenter"",""0"",""1947""
","
","2504.899999976158","<img style='border: 4px solid darkgrey;' src='img/tf1_45_M_ss2.jpeg'></img>","3","","exp","","2","<img src='img/tf1_45_T1_ss2_md.jpeg'></img>","0","false",""
"","html-keyboard-response","107","530811","0.0-10.0-0.45","459","""event"",""trial"",""time""
""fullscreenenter"",""0"",""1947""
","
","
","""event"",""trial"",""time""
""fullscreenenter"",""0"",""1947""
","
","null","<div style=""font-size:60px;"">+</div>","","null","fixation","2021-07-08 21:23:44.842","","","","",""
"","mars-trial","108","538625","0.0-10.0-1.45","459","""event"",""trial"",""time""
""fullscreenenter"",""0"",""1947""
","
","
","""event"",""trial"",""time""
""fullscreenenter"",""0"",""1947""
","
","7207.600000023842","<img style='border: 4px solid darkgrey;' src='img/tf1_46_M_ss3.jpeg'></img>","3","","exp","","2","<img src='img/tf1_46_T1_ss3_md.jpeg'></img>","0","false",""
"","html-keyboard-response","109","539128","0.0-10.0-0.46","459","""event"",""trial"",""time""
""fullscreenenter"",""0"",""1947""
","
","
","""event"",""trial"",""time""
""fullscreenenter"",""0"",""1947""
","
","null","<div style=""font-size:60px;"">+</div>","","null","fixation","2021-07-08 21:23:53.159","","","","",""
"","mars-trial","110","541869","0.0-10.0-1.46","459","""event"",""trial"",""time""
""fullscreenenter"",""0"",""1947""
","
","
","""event"",""trial"",""time""
""fullscreenenter"",""0"",""1947""
","
","2130.7000000476837","<img style='border: 4px solid darkgrey;' src='img/tf1_47_M_ss1.jpeg'></img>","2","","exp","","3","<img src='img/tf1_47_T1_ss1_md.jpeg'></img>","0","false",""
"","html-keyboard-response","111","542371","0.0-10.0-0.47","459","""event"",""trial"",""time""
""fullscreenenter"",""0"",""1947""
","
","
","""event"",""trial"",""time""
""fullscreenenter"",""0"",""1947""
","
","null","<div style=""font-size:60px;"">+</div>","","null","fixation","2021-07-08 21:23:56.402","","","","",""
"","mars-trial","112","543450","0.0-10.0-1.47","459","""event"",""trial"",""time""
""fullscreenenter"",""0"",""1947""
","
","
","""event"",""trial"",""time""
""fullscreenenter"",""0"",""1947""
","
","474.5","<img style='border: 4px solid darkgrey;' src='img/tf1_48_M_ss2.jpeg'></img>","1","","exp","","3","<img src='img/tf1_48_T1_ss2_md.jpeg'></img>","0","false",""
"","html-keyboard-response","113","543952","0.0-10.0-0.48","459","""event"",""trial"",""time""
""fullscreenenter"",""0"",""1947""
","
","
","""event"",""trial"",""time""
""fullscreenenter"",""0"",""1947""
","
","null","<div style=""font-size:60px;"">+</div>","","null","fixation","2021-07-08 21:23:57.983","","","","",""
"","mars-trial","114","544852","0.0-10.0-1.48","459","""event"",""trial"",""time""
""fullscreenenter"",""0"",""1947""
","
","
","""event"",""trial"",""time""
""fullscreenenter"",""0"",""1947""
","
","293.8000000715256","<img style='border: 4px solid darkgrey;' src='img/tf1_49_M_ss3.jpeg'></img>","3","","exp","","3","<img src='img/tf1_49_T1_ss3_md.jpeg'></img>","0","false",""
"","html-keyboard-response","115","545354","0.0-10.0-0.49","459","""event"",""trial"",""time""
""fullscreenenter"",""0"",""1947""
","
","
","""event"",""trial"",""time""
""fullscreenenter"",""0"",""1947""
","
","null","<div style=""font-size:60px;"">+</div>","","null","fixation","2021-07-08 21:23:59.385","","","","",""
"","mars-trial","116","546249","0.0-10.0-1.49","459","""event"",""trial"",""time""
""fullscreenenter"",""0"",""1947""
","
","
","""event"",""trial"",""time""
""fullscreenenter"",""0"",""1947""
","
","289.60000002384186","<img style='border: 4px solid darkgrey;' src='img/tf1_50_M_ss1.jpeg'></img>","0","","exp","","1","<img src='img/tf1_50_T1_ss1_md.jpeg'></img>","0","false",""
"","html-keyboard-response","117","546754","0.0-10.0-0.50","459","""event"",""trial"",""time""
""fullscreenenter"",""0"",""1947""
","
","
","""event"",""trial"",""time""
""fullscreenenter"",""0"",""1947""
","
","null","<div style=""font-size:60px;"">+</div>","","null","fixation","2021-07-08 21:24:00.785","","","","",""
"","mars-trial","118","547709","0.0-10.0-1.50","459","""event"",""trial"",""time""
""fullscreenenter"",""0"",""1947""
","
","
","""event"",""trial"",""time""
""fullscreenenter"",""0"",""1947""
","
","349.39999997615814","<img style='border: 4px solid darkgrey;' src='img/tf1_51_M_ss2.jpeg'></img>","2","","exp","","3","<img src='img/tf1_51_T1_ss2_md.jpeg'></img>","0","false",""
"","html-keyboard-response","119","548210","0.0-10.0-0.51","459","""event"",""trial"",""time""
""fullscreenenter"",""0"",""1947""
","
","
","""event"",""trial"",""time""
""fullscreenenter"",""0"",""1947""
","
","null","<div style=""font-size:60px;"">+</div>","","null","fixation","2021-07-08 21:24:02.241","","","","",""
"","mars-trial","120","549183","0.0-10.0-1.51","459","""event"",""trial"",""time""
""fullscreenenter"",""0"",""1947""
","
","
","""event"",""trial"",""time""
""fullscreenenter"",""0"",""1947""
","
","369.6999999284744","<img style='border: 4px solid darkgrey;' src='img/tf1_52_M_ss3.jpeg'></img>","1","","exp","","3","<img src='img/tf1_52_T1_ss3_md.jpeg'></img>","0","false",""
"","html-keyboard-response","121","549686","0.0-10.0-0.52","459","""event"",""trial"",""time""
""fullscreenenter"",""0"",""1947""
","
","
","""event"",""trial"",""time""
""fullscreenenter"",""0"",""1947""
","
","null","<div style=""font-size:60px;"">+</div>","","null","fixation","2021-07-08 21:24:03.717","","","","",""
"","mars-trial","122","550911","0.0-10.0-1.52","459","""event"",""trial"",""time""
""fullscreenenter"",""0"",""1947""
","
","
","""event"",""trial"",""time""
""fullscreenenter"",""0"",""1947""
","
","620.1000000238419","<img style='border: 4px solid darkgrey;' src='img/tf1_53_M_ss1.jpeg'></img>","3","","exp","","0","<img src='img/tf1_53_T1_ss1_md.jpeg'></img>","0","true",""
"","html-keyboard-response","123","551415","0.0-10.0-0.53","459","""event"",""trial"",""time""
""fullscreenenter"",""0"",""1947""
","
","
","""event"",""trial"",""time""
""fullscreenenter"",""0"",""1947""
","
","null","<div style=""font-size:60px;"">+</div>","","null","fixation","2021-07-08 21:24:05.447","","","","",""
"","mars-trial","124","552663","0.0-10.0-1.53","459","""event"",""trial"",""time""
""fullscreenenter"",""0"",""1947""
","
","
","""event"",""trial"",""time""
""fullscreenenter"",""0"",""1947""
","
","640.8000000715256","<img style='border: 4px solid darkgrey;' src='img/tf1_54_M_ss2.jpeg'></img>","3","","exp","","3","<img src='img/tf1_54_T1_ss2_md.jpeg'></img>","0","false",""
"","html-keyboard-response","125","553167","0.0-10.0-0.54","459","""event"",""trial"",""time""
""fullscreenenter"",""0"",""1947""
","
","
","""event"",""trial"",""time""
""fullscreenenter"",""0"",""1947""
","
","null","<div style=""font-size:60px;"">+</div>","","null","fixation","2021-07-08 21:24:07.198","","","","",""
"","mars-trial","126","554608","0.0-10.0-1.54","459","""event"",""trial"",""time""
""fullscreenenter"",""0"",""1947""
","
","
","""event"",""trial"",""time""
""fullscreenenter"",""0"",""1947""
","
","830.2999999523163","<img style='border: 4px solid darkgrey;' src='img/tf1_55_M_ss3.jpeg'></img>","1","","exp","","2","<img src='img/tf1_55_T1_ss3_md.jpeg'></img>","0","false",""
"","html-keyboard-response","127","555112","0.0-10.0-0.55","459","""event"",""trial"",""time""
""fullscreenenter"",""0"",""1947""
","
","
","""event"",""trial"",""time""
""fullscreenenter"",""0"",""1947""
","
","null","<div style=""font-size:60px;"">+</div>","","null","fixation","2021-07-08 21:24:09.143","","","","",""
"","mars-trial","128","563254","0.0-10.0-1.55","459","""event"",""trial"",""time""
""fullscreenenter"",""0"",""1947""
","
","
","""event"",""trial"",""time""
""fullscreenenter"",""0"",""1947""
","
","","","","","exp","","","<img src='img/tf1_56_T1_ss1_md.jpeg'></img>","0","false",""
"","html-keyboard-response","129","563759","0.0-10.0-0.56","459","""event"",""trial"",""time""
""fullscreenenter"",""0"",""1947""
","
","
","""event"",""trial"",""time""
""fullscreenenter"",""0"",""1947""
","
","null","<div style=""font-size:60px;"">+</div>","","null","fixation","2021-07-08 21:24:17.790","","","","",""
"","audio-button-response","130","566037","0.0-11.0","459","""event"",""trial"",""time""
""fullscreenenter"",""0"",""1947""
","
","
","""event"",""trial"",""time""
""fullscreenenter"",""0"",""1947""
","
","2169.399999976158","audio/mars_instructions_slide5.wav","0","","","","","","","",""
