"success","trial_type","trial_index","time_elapsed","internal_node_id","subject_id","interactions","blur_events","focus_events","fullscreenenter_events","fullscreenexit_events","rt","stimulus","button_pressed","key_press","part","timestamp","unshuffled_button","correct_response","correct_button","correct","value"
"true","fullscreen","0","4316","0.0-0.0","980","""event"",""trial"",""time""
""fullscreenenter"",""0"",""3341""
","
","
","""event"",""trial"",""time""
""fullscreenenter"",""0"",""3341""
","
","","","","","","","","","","",""
"","pavlovia","1","4328","0.0-1.0","980","""event"",""trial"",""time""
""fullscreenenter"",""0"",""3341""
","
","
","""event"",""trial"",""time""
""fullscreenenter"",""0"",""3341""
","
","","","","","","","","","","",""
"","html-button-response","2","7016","0.0-2.0","980","""event"",""trial"",""time""
""fullscreenenter"",""0"",""3341""
","
","
","""event"",""trial"",""time""
""fullscreenenter"",""0"",""3341""
","
","2695.100000143051","<p>Welcome! Press START to begin.</p><br>","0","","","","","","","",""
"","audio-button-response","3","25305","0.0-3.0","980","""event"",""trial"",""time""
""fullscreenenter"",""0"",""3341""
","
","
","""event"",""trial"",""time""
""fullscreenenter"",""0"",""3341""
","
","18284.5","audio/mars_instructions_slide2.wav","0","","","","","","","",""
"","audio-button-response","4","41180","0.0-4.0","980","""event"",""trial"",""time""
""fullscreenenter"",""0"",""3341""
","
","
","""event"",""trial"",""time""
""fullscreenenter"",""0"",""3341""
","
","15871.700000047684","audio/mars_instructions_slide3.wav","0","","","","","","","",""
"","html-keyboard-response","5","41684","0.0-5.0-0.0","980","""event"",""trial"",""time""
""fullscreenenter"",""0"",""3341""
","
","
","""event"",""trial"",""time""
""fullscreenenter"",""0"",""3341""
","
","null","<div style=""font-size:60px;"">+</div>","","null","fixation","2021-07-15 18:08:47.590","","","","",""
"","mars-trial","6","59539","0.0-5.0-1.0","980","""event"",""trial"",""time""
""fullscreenenter"",""0"",""3341""
","
","
","""event"",""trial"",""time""
""fullscreenenter"",""0"",""3341""
","
","15742.799999952316","<img style='border: 4px solid darkgrey;' src='practice/pt1_M1.png'></img>","3","","practice","","3","<img src='practice/pt1_T1.png'></img>","0","false",""
"","html-keyboard-response","7","60046","0.0-5.1-0.1","980","""event"",""trial"",""time""
""fullscreenenter"",""0"",""3341""
","
","
","""event"",""trial"",""time""
""fullscreenenter"",""0"",""3341""
","
","null","<div style=""font-size:60px;"">+</div>","","null","fixation","2021-07-15 18:09:05.952","","","","",""
"","mars-trial","8","68694","0.0-5.1-1.1","980","""event"",""trial"",""time""
""fullscreenenter"",""0"",""3341""
","
","
","""event"",""trial"",""time""
""fullscreenenter"",""0"",""3341""
","
","6528.799999952316","<img style='border: 4px solid darkgrey;' src='practice/pt1_M1.png'></img>","0","","practice","","0","<img src='practice/pt1_T1.png'></img>","0","true",""
"","html-keyboard-response","9","69207","0.0-6.0-0.0","980","""event"",""trial"",""time""
""fullscreenenter"",""0"",""3341""
","
","
","""event"",""trial"",""time""
""fullscreenenter"",""0"",""3341""
","
","null","<div style=""font-size:60px;"">+</div>","","null","fixation","2021-07-15 18:09:15.113","","","","",""
"","mars-trial","10","76797","0.0-6.0-1.0","980","""event"",""trial"",""time""
""fullscreenenter"",""0"",""3341""
","
","
","""event"",""trial"",""time""
""fullscreenenter"",""0"",""3341""
","
","5469.399999856949","<img style='border: 4px solid darkgrey;' src='practice/pt2_M1.png'></img>","2","","practice","","0","<img src='practice/pt2_T1.png'></img>","0","true",""
"","html-keyboard-response","11","77301","0.0-7.0-0.0","980","""event"",""trial"",""time""
""fullscreenenter"",""0"",""3341""
","
","
","""event"",""trial"",""time""
""fullscreenenter"",""0"",""3341""
","
","null","<div style=""font-size:60px;"">+</div>","","null","fixation","2021-07-15 18:09:23.207","","","","",""
"","mars-trial","12","82038","0.0-7.0-1.0","980","""event"",""trial"",""time""
""fullscreenenter"",""0"",""3341""
","
","
","""event"",""trial"",""time""
""fullscreenenter"",""0"",""3341""
","
","2625.0999999046326","<img style='border: 4px solid darkgrey;' src='practice/pt3_M1.png'></img>","1","","practice","","0","<img src='practice/pt3_T1.png'></img>","0","true",""
"","audio-button-response","13","86140","0.0-8.0","980","""event"",""trial"",""time""
""fullscreenenter"",""0"",""3341""
","
","
","""event"",""trial"",""time""
""fullscreenenter"",""0"",""3341""
","
","4096.900000095367","audio/mars_instructions_slide4.wav","0","","","","","","","",""
"","call-function","14","86142","0.0-9.0","980","""event"",""trial"",""time""
""fullscreenenter"",""0"",""3341""
","
","
","""event"",""trial"",""time""
""fullscreenenter"",""0"",""3341""
","
","","","","","","","","","","",""
"","html-keyboard-response","15","86644","0.0-10.0-0.0","980","""event"",""trial"",""time""
""fullscreenenter"",""0"",""3341""
","
","
","""event"",""trial"",""time""
""fullscreenenter"",""0"",""3341""
","
","null","<div style=""font-size:60px;"">+</div>","","null","fixation","2021-07-15 18:09:32.551","","","","",""
"","mars-trial","16","90158","0.0-10.0-1.0","980","""event"",""trial"",""time""
""fullscreenenter"",""0"",""3341""
","
","
","""event"",""trial"",""time""
""fullscreenenter"",""0"",""3341""
","
","2900.7999999523163","<img style='border: 4px solid darkgrey;' src='img/tf1_1_M_ss3.jpeg'></img>","1","","exp","","0","<img src='img/tf1_1_T1_ss3_md.jpeg'></img>","0","true",""
"","html-keyboard-response","17","90671","0.0-10.0-0.1","980","""event"",""trial"",""time""
""fullscreenenter"",""0"",""3341""
","
","
","""event"",""trial"",""time""
""fullscreenenter"",""0"",""3341""
","
","null","<div style=""font-size:60px;"">+</div>","","null","fixation","2021-07-15 18:09:36.578","","","","",""
"","mars-trial","18","94333","0.0-10.0-1.1","980","""event"",""trial"",""time""
""fullscreenenter"",""0"",""3341""
","
","
","""event"",""trial"",""time""
""fullscreenenter"",""0"",""3341""
","
","3043.7999999523163","<img style='border: 4px solid darkgrey;' src='img/tf1_2_M_ss1.jpeg'></img>","2","","exp","","0","<img src='img/tf1_2_T1_ss1_md.jpeg'></img>","0","true",""
"","html-keyboard-response","19","94840","0.0-10.0-0.2","980","""event"",""trial"",""time""
""fullscreenenter"",""0"",""3341""
","
","
","""event"",""trial"",""time""
""fullscreenenter"",""0"",""3341""
","
","null","<div style=""font-size:60px;"">+</div>","","null","fixation","2021-07-15 18:09:40.746","","","","",""
"","mars-trial","20","98617","0.0-10.0-1.2","980","""event"",""trial"",""time""
""fullscreenenter"",""0"",""3341""
","
","
","""event"",""trial"",""time""
""fullscreenenter"",""0"",""3341""
","
","3161.7999999523163","<img style='border: 4px solid darkgrey;' src='img/tf1_3_M_ss2.jpeg'></img>","1","","exp","","0","<img src='img/tf1_3_T1_ss2_md.jpeg'></img>","0","true",""
"","html-keyboard-response","21","99128","0.0-10.0-0.3","980","""event"",""trial"",""time""
""fullscreenenter"",""0"",""3341""
","
","
","""event"",""trial"",""time""
""fullscreenenter"",""0"",""3341""
","
","null","<div style=""font-size:60px;"">+</div>","","null","fixation","2021-07-15 18:09:45.034","","","","",""
"","mars-trial","22","104505","0.0-10.0-1.3","980","""event"",""trial"",""time""
""fullscreenenter"",""0"",""3341""
","
","
","""event"",""trial"",""time""
""fullscreenenter"",""0"",""3341""
","
","4763.900000095367","<img style='border: 4px solid darkgrey;' src='img/tf1_4_M_ss3.jpeg'></img>","0","","exp","","0","<img src='img/tf1_4_T1_ss3_md.jpeg'></img>","0","true",""
"","html-keyboard-response","23","105016","0.0-10.0-0.4","980","""event"",""trial"",""time""
""fullscreenenter"",""0"",""3341""
","
","
","""event"",""trial"",""time""
""fullscreenenter"",""0"",""3341""
","
","null","<div style=""font-size:60px;"">+</div>","","null","fixation","2021-07-15 18:09:50.922","","","","",""
"","mars-trial","24","109895","0.0-10.0-1.4","980","""event"",""trial"",""time""
""fullscreenenter"",""0"",""3341""
","
","
","""event"",""trial"",""time""
""fullscreenenter"",""0"",""3341""
","
","4259.900000095367","<img style='border: 4px solid darkgrey;' src='img/tf1_5_M_ss1.jpeg'></img>","1","","exp","","0","<img src='img/tf1_5_T1_ss1_md.jpeg'></img>","0","true",""
"","html-keyboard-response","25","110400","0.0-10.0-0.5","980","""event"",""trial"",""time""
""fullscreenenter"",""0"",""3341""
","
","
","""event"",""trial"",""time""
""fullscreenenter"",""0"",""3341""
","
","null","<div style=""font-size:60px;"">+</div>","","null","fixation","2021-07-15 18:09:56.306","","","","",""
"","mars-trial","26","130531","0.0-10.0-1.5","980","""event"",""trial"",""time""
""fullscreenenter"",""0"",""3341""
","
","
","""event"",""trial"",""time""
""fullscreenenter"",""0"",""3341""
","
","19508.699999809265","<img style='border: 4px solid darkgrey;' src='img/tf1_6_M_ss2.jpeg'></img>","1","","exp","","0","<img src='img/tf1_6_T1_ss2_md.jpeg'></img>","0","true",""
"","html-keyboard-response","27","131035","0.0-10.0-0.6","980","""event"",""trial"",""time""
""fullscreenenter"",""0"",""3341""
","
","
","""event"",""trial"",""time""
""fullscreenenter"",""0"",""3341""
","
","null","<div style=""font-size:60px;"">+</div>","","null","fixation","2021-07-15 18:10:16.941","","","","",""
"","mars-trial","28","138251","0.0-10.0-1.6","980","""event"",""trial"",""time""
""fullscreenenter"",""0"",""3341""
","
","
","""event"",""trial"",""time""
""fullscreenenter"",""0"",""3341""
","
","6596.399999856949","<img style='border: 4px solid darkgrey;' src='img/tf1_7_M_ss3.jpeg'></img>","1","","exp","","0","<img src='img/tf1_7_T1_ss3_md.jpeg'></img>","0","true",""
"","html-keyboard-response","29","138754","0.0-10.0-0.7","980","""event"",""trial"",""time""
""fullscreenenter"",""0"",""3341""
","
","
","""event"",""trial"",""time""
""fullscreenenter"",""0"",""3341""
","
","null","<div style=""font-size:60px;"">+</div>","","null","fixation","2021-07-15 18:10:24.660","","","","",""
"","mars-trial","30","157065","0.0-10.0-1.7","980","""event"",""trial"",""time""
""fullscreenenter"",""0"",""3341""
","
","
","""event"",""trial"",""time""
""fullscreenenter"",""0"",""3341""
","
","17684","<img style='border: 4px solid darkgrey;' src='img/tf1_8_M_ss1.jpeg'></img>","3","","exp","","0","<img src='img/tf1_8_T1_ss1_md.jpeg'></img>","0","true",""
"","html-keyboard-response","31","157569","0.0-10.0-0.8","980","""event"",""trial"",""time""
""fullscreenenter"",""0"",""3341""
","
","
","""event"",""trial"",""time""
""fullscreenenter"",""0"",""3341""
","
","null","<div style=""font-size:60px;"">+</div>","","null","fixation","2021-07-15 18:10:43.476","","","","",""
"","mars-trial","32","172042","0.0-10.0-1.8","980","""event"",""trial"",""time""
""fullscreenenter"",""0"",""3341""
","
","
","""event"",""trial"",""time""
""fullscreenenter"",""0"",""3341""
","
","13859.099999904633","<img style='border: 4px solid darkgrey;' src='img/tf1_9_M_ss2.jpeg'></img>","0","","exp","","0","<img src='img/tf1_9_T1_ss2_md.jpeg'></img>","0","true",""
"","html-keyboard-response","33","172546","0.0-10.0-0.9","980","""event"",""trial"",""time""
""fullscreenenter"",""0"",""3341""
","
","
","""event"",""trial"",""time""
""fullscreenenter"",""0"",""3341""
","
","null","<div style=""font-size:60px;"">+</div>","","null","fixation","2021-07-15 18:10:58.452","","","","",""
"","mars-trial","34","180854","0.0-10.0-1.9","980","""event"",""trial"",""time""
""fullscreenenter"",""0"",""3341""
","
","
","""event"",""trial"",""time""
""fullscreenenter"",""0"",""3341""
","
","7697.199999809265","<img style='border: 4px solid darkgrey;' src='img/tf1_10_M_ss3.jpeg'></img>","3","","exp","","0","<img src='img/tf1_10_T1_ss3_md.jpeg'></img>","0","true",""
"","html-keyboard-response","35","181358","0.0-10.0-0.10","980","""event"",""trial"",""time""
""fullscreenenter"",""0"",""3341""
","
","
","""event"",""trial"",""time""
""fullscreenenter"",""0"",""3341""
","
","null","<div style=""font-size:60px;"">+</div>","","null","fixation","2021-07-15 18:11:07.264","","","","",""
"","mars-trial","36","209349","0.0-10.0-1.10","980","""event"",""trial"",""time""
""fullscreenenter"",""0"",""3341""
","
","
","""event"",""trial"",""time""
""fullscreenenter"",""0"",""3341""
","
","27372.199999809265","<img style='border: 4px solid darkgrey;' src='img/tf1_11_M_ss1.jpeg'></img>","3","","exp","","1","<img src='img/tf1_11_T1_ss1_md.jpeg'></img>","0","false",""
"","html-keyboard-response","37","209853","0.0-10.0-0.11","980","""event"",""trial"",""time""
""fullscreenenter"",""0"",""3341""
","
","
","""event"",""trial"",""time""
""fullscreenenter"",""0"",""3341""
","
","null","<div style=""font-size:60px;"">+</div>","","null","fixation","2021-07-15 18:11:35.759","","","","",""
"","mars-trial","38","236761","0.0-10.0-1.11","980","""event"",""trial"",""time""
""fullscreenenter"",""0"",""3341""
","
","
","""event"",""trial"",""time""
""fullscreenenter"",""0"",""3341""
","
","26284","<img style='border: 4px solid darkgrey;' src='img/tf1_12_M_ss2.jpeg'></img>","3","","exp","","1","<img src='img/tf1_12_T1_ss2_md.jpeg'></img>","0","false",""
"","html-keyboard-response","39","237263","0.0-10.0-0.12","980","""event"",""trial"",""time""
""fullscreenenter"",""0"",""3341""
","
","
","""event"",""trial"",""time""
""fullscreenenter"",""0"",""3341""
","
","null","<div style=""font-size:60px;"">+</div>","","null","fixation","2021-07-15 18:12:03.170","","","","",""
"","mars-trial","40","254084","0.0-10.0-1.12","980","""event"",""trial"",""time""
""fullscreenenter"",""0"",""3341""
","
","
","""event"",""trial"",""time""
""fullscreenenter"",""0"",""3341""
","
","16203.700000047684","<img style='border: 4px solid darkgrey;' src='img/tf1_13_M_ss3.jpeg'></img>","2","","exp","","1","<img src='img/tf1_13_T1_ss3_md.jpeg'></img>","0","false",""
"","html-keyboard-response","41","254586","0.0-10.0-0.13","980","""event"",""trial"",""time""
""fullscreenenter"",""0"",""3341""
","
","
","""event"",""trial"",""time""
""fullscreenenter"",""0"",""3341""
","
","null","<div style=""font-size:60px;"">+</div>","","null","fixation","2021-07-15 18:12:20.493","","","","",""
"","mars-trial","42","267542","0.0-10.0-1.13","980","""event"",""trial"",""time""
""fullscreenenter"",""0"",""3341""
","
","
","""event"",""trial"",""time""
""fullscreenenter"",""0"",""3341""
","
","12345.399999856949","<img style='border: 4px solid darkgrey;' src='img/tf1_14_M_ss1.jpeg'></img>","2","","exp","","2","<img src='img/tf1_14_T1_ss1_md.jpeg'></img>","0","false",""
"","html-keyboard-response","43","268046","0.0-10.0-0.14","980","""event"",""trial"",""time""
""fullscreenenter"",""0"",""3341""
","
","
","""event"",""trial"",""time""
""fullscreenenter"",""0"",""3341""
","
","null","<div style=""font-size:60px;"">+</div>","","null","fixation","2021-07-15 18:12:33.952","","","","",""
"","mars-trial","44","280785","0.0-10.0-1.14","980","""event"",""trial"",""time""
""fullscreenenter"",""0"",""3341""
","
","
","""event"",""trial"",""time""
""fullscreenenter"",""0"",""3341""
","
","12129.099999904633","<img style='border: 4px solid darkgrey;' src='img/tf1_15_M_ss2.jpeg'></img>","2","","exp","","2","<img src='img/tf1_15_T1_ss2_md.jpeg'></img>","0","false",""
"","html-keyboard-response","45","281288","0.0-10.0-0.15","980","""event"",""trial"",""time""
""fullscreenenter"",""0"",""3341""
","
","
","""event"",""trial"",""time""
""fullscreenenter"",""0"",""3341""
","
","null","<div style=""font-size:60px;"">+</div>","","null","fixation","2021-07-15 18:12:47.194","","","","",""
"","mars-trial","46","303636","0.0-10.0-1.15","980","""event"",""trial"",""time""
""fullscreenenter"",""0"",""3341""
","
","
","""event"",""trial"",""time""
""fullscreenenter"",""0"",""3341""
","
","21728.200000047684","<img style='border: 4px solid darkgrey;' src='img/tf1_16_M_ss3.jpeg'></img>","2","","exp","","1","<img src='img/tf1_16_T1_ss3_md.jpeg'></img>","0","false",""
"","html-keyboard-response","47","304140","0.0-10.0-0.16","980","""event"",""trial"",""time""
""fullscreenenter"",""0"",""3341""
","
","
","""event"",""trial"",""time""
""fullscreenenter"",""0"",""3341""
","
","null","<div style=""font-size:60px;"">+</div>","","null","fixation","2021-07-15 18:13:10.046","","","","",""
"","mars-trial","48","313965","0.0-10.0-1.16","980","""event"",""trial"",""time""
""fullscreenenter"",""0"",""3341""
","
","
","""event"",""trial"",""time""
""fullscreenenter"",""0"",""3341""
","
","9201.899999856949","<img style='border: 4px solid darkgrey;' src='img/tf1_17_M_ss1.jpeg'></img>","2","","exp","","0","<img src='img/tf1_17_T1_ss1_md.jpeg'></img>","0","true",""
"","html-keyboard-response","49","314468","0.0-10.0-0.17","980","""event"",""trial"",""time""
""fullscreenenter"",""0"",""3341""
","
","
","""event"",""trial"",""time""
""fullscreenenter"",""0"",""3341""
","
","null","<div style=""font-size:60px;"">+</div>","","null","fixation","2021-07-15 18:13:20.375","","","","",""
"","mars-trial","50","324061","0.0-10.0-1.17","980","""event"",""trial"",""time""
""fullscreenenter"",""0"",""3341""
","
","
","""event"",""trial"",""time""
""fullscreenenter"",""0"",""3341""
","
","8967","<img style='border: 4px solid darkgrey;' src='img/tf1_18_M_ss2.jpeg'></img>","2","","exp","","1","<img src='img/tf1_18_T1_ss2_md.jpeg'></img>","0","false",""
"","html-keyboard-response","51","324564","0.0-10.0-0.18","980","""event"",""trial"",""time""
""fullscreenenter"",""0"",""3341""
","
","
","""event"",""trial"",""time""
""fullscreenenter"",""0"",""3341""
","
","null","<div style=""font-size:60px;"">+</div>","","null","fixation","2021-07-15 18:13:30.470","","","","",""
"","mars-trial","52","334111","0.0-10.0-1.18","980","""event"",""trial"",""time""
""fullscreenenter"",""0"",""3341""
","
","
","""event"",""trial"",""time""
""fullscreenenter"",""0"",""3341""
","
","8934.900000095367","<img style='border: 4px solid darkgrey;' src='img/tf1_19_M_ss3.jpeg'></img>","1","","exp","","2","<img src='img/tf1_19_T1_ss3_md.jpeg'></img>","0","false",""
"","html-keyboard-response","53","334614","0.0-10.0-0.19","980","""event"",""trial"",""time""
""fullscreenenter"",""0"",""3341""
","
","
","""event"",""trial"",""time""
""fullscreenenter"",""0"",""3341""
","
","null","<div style=""font-size:60px;"">+</div>","","null","fixation","2021-07-15 18:13:40.521","","","","",""
"","mars-trial","54","344325","0.0-10.0-1.19","980","""event"",""trial"",""time""
""fullscreenenter"",""0"",""3341""
","
","
","""event"",""trial"",""time""
""fullscreenenter"",""0"",""3341""
","
","9088.399999856949","<img style='border: 4px solid darkgrey;' src='img/tf1_20_M_ss1.jpeg'></img>","1","","exp","","0","<img src='img/tf1_20_T1_ss1_md.jpeg'></img>","0","true",""
"","html-keyboard-response","55","344829","0.0-10.0-0.20","980","""event"",""trial"",""time""
""fullscreenenter"",""0"",""3341""
","
","
","""event"",""trial"",""time""
""fullscreenenter"",""0"",""3341""
","
","null","<div style=""font-size:60px;"">+</div>","","null","fixation","2021-07-15 18:13:50.735","","","","",""
"","mars-trial","56","346715","0.0-10.0-1.20","980","""event"",""trial"",""time""
""fullscreenenter"",""0"",""3341""
","
","
","""event"",""trial"",""time""
""fullscreenenter"",""0"",""3341""
","
","1268.2999999523163","<img style='border: 4px solid darkgrey;' src='img/tf1_21_M_ss2.jpeg'></img>","1","","exp","","0","<img src='img/tf1_21_T1_ss2_md.jpeg'></img>","0","true",""
"","html-keyboard-response","57","347217","0.0-10.0-0.21","980","""event"",""trial"",""time""
""fullscreenenter"",""0"",""3341""
","
","
","""event"",""trial"",""time""
""fullscreenenter"",""0"",""3341""
","
","null","<div style=""font-size:60px;"">+</div>","","null","fixation","2021-07-15 18:13:53.124","","","","",""
"","mars-trial","58","359893","0.0-10.0-1.21","980","""event"",""trial"",""time""
""fullscreenenter"",""0"",""3341""
","
","
","""event"",""trial"",""time""
""fullscreenenter"",""0"",""3341""
","
","12058.400000095367","<img style='border: 4px solid darkgrey;' src='img/tf1_22_M_ss3.jpeg'></img>","2","","exp","","0","<img src='img/tf1_22_T1_ss3_md.jpeg'></img>","0","true",""
"","html-keyboard-response","59","360396","0.0-10.0-0.22","980","""event"",""trial"",""time""
""fullscreenenter"",""0"",""3341""
","
","
","""event"",""trial"",""time""
""fullscreenenter"",""0"",""3341""
","
","null","<div style=""font-size:60px;"">+</div>","","null","fixation","2021-07-15 18:14:06.303","","","","",""
"","mars-trial","60","366783","0.0-10.0-1.22","980","""event"",""trial"",""time""
""fullscreenenter"",""0"",""3341""
","
","
","""event"",""trial"",""time""
""fullscreenenter"",""0"",""3341""
","
","5766.300000190735","<img style='border: 4px solid darkgrey;' src='img/tf1_23_M_ss1.jpeg'></img>","2","","exp","","1","<img src='img/tf1_23_T1_ss1_md.jpeg'></img>","0","false",""
"","html-keyboard-response","61","367288","0.0-10.0-0.23","980","""event"",""trial"",""time""
""fullscreenenter"",""0"",""3341""
","
","
","""event"",""trial"",""time""
""fullscreenenter"",""0"",""3341""
","
","null","<div style=""font-size:60px;"">+</div>","","null","fixation","2021-07-15 18:14:13.194","","","","",""
"","mars-trial","62","370757","0.0-10.0-1.23","980","""event"",""trial"",""time""
""fullscreenenter"",""0"",""3341""
","
","
","""event"",""trial"",""time""
""fullscreenenter"",""0"",""3341""
","
","2850.2999999523163","<img style='border: 4px solid darkgrey;' src='img/tf1_24_M_ss2.jpeg'></img>","2","","exp","","2","<img src='img/tf1_24_T1_ss2_md.jpeg'></img>","0","false",""
"","html-keyboard-response","63","371266","0.0-10.0-0.24","980","""event"",""trial"",""time""
""fullscreenenter"",""0"",""3341""
","
","
","""event"",""trial"",""time""
""fullscreenenter"",""0"",""3341""
","
","null","<div style=""font-size:60px;"">+</div>","","null","fixation","2021-07-15 18:14:17.172","","","","",""
"","mars-trial","64","380695","0.0-10.0-1.24","980","""event"",""trial"",""time""
""fullscreenenter"",""0"",""3341""
","
","
","""event"",""trial"",""time""
""fullscreenenter"",""0"",""3341""
","
","8819.900000095367","<img style='border: 4px solid darkgrey;' src='img/tf1_25_M_ss3.jpeg'></img>","0","","exp","","0","<img src='img/tf1_25_T1_ss3_md.jpeg'></img>","0","true",""
"","html-keyboard-response","65","381199","0.0-10.0-0.25","980","""event"",""trial"",""time""
""fullscreenenter"",""0"",""3341""
","
","
","""event"",""trial"",""time""
""fullscreenenter"",""0"",""3341""
","
","null","<div style=""font-size:60px;"">+</div>","","null","fixation","2021-07-15 18:14:27.105","","","","",""
"","mars-trial","66","388215","0.0-10.0-1.25","980","""event"",""trial"",""time""
""fullscreenenter"",""0"",""3341""
","
","
","""event"",""trial"",""time""
""fullscreenenter"",""0"",""3341""
","
","6404.700000047684","<img style='border: 4px solid darkgrey;' src='img/tf1_26_M_ss1.jpeg'></img>","2","","exp","","1","<img src='img/tf1_26_T1_ss1_md.jpeg'></img>","0","false",""
"","html-keyboard-response","67","388720","0.0-10.0-0.26","980","""event"",""trial"",""time""
""fullscreenenter"",""0"",""3341""
","
","
","""event"",""trial"",""time""
""fullscreenenter"",""0"",""3341""
","
","null","<div style=""font-size:60px;"">+</div>","","null","fixation","2021-07-15 18:14:34.626","","","","",""
"","mars-trial","68","389627","0.0-10.0-1.26","980","""event"",""trial"",""time""
""fullscreenenter"",""0"",""3341""
","
","
","""event"",""trial"",""time""
""fullscreenenter"",""0"",""3341""
","
","295.39999985694885","<img style='border: 4px solid darkgrey;' src='img/tf1_27_M_ss2.jpeg'></img>","2","","exp","","2","<img src='img/tf1_27_T1_ss2_md.jpeg'></img>","0","false",""
"","html-keyboard-response","69","390129","0.0-10.0-0.27","980","""event"",""trial"",""time""
""fullscreenenter"",""0"",""3341""
","
","
","""event"",""trial"",""time""
""fullscreenenter"",""0"",""3341""
","
","null","<div style=""font-size:60px;"">+</div>","","null","fixation","2021-07-15 18:14:36.035","","","","",""
"","mars-trial","70","407256","0.0-10.0-1.27","980","""event"",""trial"",""time""
""fullscreenenter"",""0"",""3341""
","
","
","""event"",""trial"",""time""
""fullscreenenter"",""0"",""3341""
","
","16518.60000014305","<img style='border: 4px solid darkgrey;' src='img/tf1_28_M_ss3.jpeg'></img>","3","","exp","","1","<img src='img/tf1_28_T1_ss3_md.jpeg'></img>","0","false",""
"","html-keyboard-response","71","407759","0.0-10.0-0.28","980","""event"",""trial"",""time""
""fullscreenenter"",""0"",""3341""
","
","
","""event"",""trial"",""time""
""fullscreenenter"",""0"",""3341""
","
","null","<div style=""font-size:60px;"">+</div>","","null","fixation","2021-07-15 18:14:53.666","","","","",""
"","mars-trial","72","420239","0.0-10.0-1.28","980","""event"",""trial"",""time""
""fullscreenenter"",""0"",""3341""
","
","
","""event"",""trial"",""time""
""fullscreenenter"",""0"",""3341""
","
","11862.200000047684","<img style='border: 4px solid darkgrey;' src='img/tf1_29_M_ss1.jpeg'></img>","3","","exp","","0","<img src='img/tf1_29_T1_ss1_md.jpeg'></img>","0","true",""
"","html-keyboard-response","73","420743","0.0-10.0-0.29","980","""event"",""trial"",""time""
""fullscreenenter"",""0"",""3341""
","
","
","""event"",""trial"",""time""
""fullscreenenter"",""0"",""3341""
","
","null","<div style=""font-size:60px;"">+</div>","","null","fixation","2021-07-15 18:15:06.649","","","","",""
"","mars-trial","74","430016","0.0-10.0-1.29","980","""event"",""trial"",""time""
""fullscreenenter"",""0"",""3341""
","
","
","""event"",""trial"",""time""
""fullscreenenter"",""0"",""3341""
","
","8649.5","<img style='border: 4px solid darkgrey;' src='img/tf1_30_M_ss2.jpeg'></img>","1","","exp","","0","<img src='img/tf1_30_T1_ss2_md.jpeg'></img>","0","true",""
"","html-keyboard-response","75","430520","0.0-10.0-0.30","980","""event"",""trial"",""time""
""fullscreenenter"",""0"",""3341""
","
","
","""event"",""trial"",""time""
""fullscreenenter"",""0"",""3341""
","
","null","<div style=""font-size:60px;"">+</div>","","null","fixation","2021-07-15 18:15:16.426","","","","",""
"","mars-trial","76","434008","0.0-10.0-1.30","980","""event"",""trial"",""time""
""fullscreenenter"",""0"",""3341""
","
","
","""event"",""trial"",""time""
""fullscreenenter"",""0"",""3341""
","
","2865.4000000953674","<img style='border: 4px solid darkgrey;' src='img/tf1_31_M_ss3.jpeg'></img>","2","","exp","","0","<img src='img/tf1_31_T1_ss3_md.jpeg'></img>","0","true",""
"","html-keyboard-response","77","434512","0.0-10.0-0.31","980","""event"",""trial"",""time""
""fullscreenenter"",""0"",""3341""
","
","
","""event"",""trial"",""time""
""fullscreenenter"",""0"",""3341""
","
","null","<div style=""font-size:60px;"">+</div>","","null","fixation","2021-07-15 18:15:20.418","","","","",""
"","mars-trial","78","454555","0.0-10.0-1.31","980","""event"",""trial"",""time""
""fullscreenenter"",""0"",""3341""
","
","
","""event"",""trial"",""time""
""fullscreenenter"",""0"",""3341""
","
","19422.10000014305","<img style='border: 4px solid darkgrey;' src='img/tf1_32_M_ss1.jpeg'></img>","0","","exp","","0","<img src='img/tf1_32_T1_ss1_md.jpeg'></img>","0","true",""
"","html-keyboard-response","79","455059","0.0-10.0-0.32","980","""event"",""trial"",""time""
""fullscreenenter"",""0"",""3341""
","
","
","""event"",""trial"",""time""
""fullscreenenter"",""0"",""3341""
","
","null","<div style=""font-size:60px;"">+</div>","","null","fixation","2021-07-15 18:15:40.965","","","","",""
"","mars-trial","80","461801","0.0-10.0-1.32","980","""event"",""trial"",""time""
""fullscreenenter"",""0"",""3341""
","
","
","""event"",""trial"",""time""
""fullscreenenter"",""0"",""3341""
","
","6127.400000095367","<img style='border: 4px solid darkgrey;' src='img/tf1_33_M_ss2.jpeg'></img>","2","","exp","","2","<img src='img/tf1_33_T1_ss2_md.jpeg'></img>","0","false",""
"","html-keyboard-response","81","462305","0.0-10.0-0.33","980","""event"",""trial"",""time""
""fullscreenenter"",""0"",""3341""
","
","
","""event"",""trial"",""time""
""fullscreenenter"",""0"",""3341""
","
","null","<div style=""font-size:60px;"">+</div>","","null","fixation","2021-07-15 18:15:48.211","","","","",""
"","mars-trial","82","466282","0.0-10.0-1.33","980","""event"",""trial"",""time""
""fullscreenenter"",""0"",""3341""
","
","
","""event"",""trial"",""time""
""fullscreenenter"",""0"",""3341""
","
","3364","<img style='border: 4px solid darkgrey;' src='img/tf1_34_M_ss3.jpeg'></img>","1","","exp","","1","<img src='img/tf1_34_T1_ss3_md.jpeg'></img>","0","false",""
"","html-keyboard-response","83","466785","0.0-10.0-0.34","980","""event"",""trial"",""time""
""fullscreenenter"",""0"",""3341""
","
","
","""event"",""trial"",""time""
""fullscreenenter"",""0"",""3341""
","
","null","<div style=""font-size:60px;"">+</div>","","null","fixation","2021-07-15 18:15:52.692","","","","",""
"","mars-trial","84","468211","0.0-10.0-1.34","980","""event"",""trial"",""time""
""fullscreenenter"",""0"",""3341""
","
","
","""event"",""trial"",""time""
""fullscreenenter"",""0"",""3341""
","
","812.5999999046326","<img style='border: 4px solid darkgrey;' src='img/tf1_35_M_ss1.jpeg'></img>","2","","exp","","2","<img src='img/tf1_35_T1_ss1_md.jpeg'></img>","0","false",""
"","html-keyboard-response","85","468714","0.0-10.0-0.35","980","""event"",""trial"",""time""
""fullscreenenter"",""0"",""3341""
","
","
","""event"",""trial"",""time""
""fullscreenenter"",""0"",""3341""
","
","null","<div style=""font-size:60px;"">+</div>","","null","fixation","2021-07-15 18:15:54.620","","","","",""
"","mars-trial","86","470241","0.0-10.0-1.35","980","""event"",""trial"",""time""
""fullscreenenter"",""0"",""3341""
","
","
","""event"",""trial"",""time""
""fullscreenenter"",""0"",""3341""
","
","909.3999998569489","<img style='border: 4px solid darkgrey;' src='img/tf1_36_M_ss2.jpeg'></img>","1","","exp","","0","<img src='img/tf1_36_T1_ss2_md.jpeg'></img>","0","true",""
"","html-keyboard-response","87","470744","0.0-10.0-0.36","980","""event"",""trial"",""time""
""fullscreenenter"",""0"",""3341""
","
","
","""event"",""trial"",""time""
""fullscreenenter"",""0"",""3341""
","
","null","<div style=""font-size:60px;"">+</div>","","null","fixation","2021-07-15 18:15:56.650","","","","",""
"","mars-trial","88","472208","0.0-10.0-1.36","980","""event"",""trial"",""time""
""fullscreenenter"",""0"",""3341""
","
","
","""event"",""trial"",""time""
""fullscreenenter"",""0"",""3341""
","
","840.0999999046326","<img style='border: 4px solid darkgrey;' src='img/tf1_37_M_ss3.jpeg'></img>","2","","exp","","3","<img src='img/tf1_37_T1_ss3_md.jpeg'></img>","0","false",""
"","html-keyboard-response","89","472711","0.0-10.0-0.37","980","""event"",""trial"",""time""
""fullscreenenter"",""0"",""3341""
","
","
","""event"",""trial"",""time""
""fullscreenenter"",""0"",""3341""
","
","null","<div style=""font-size:60px;"">+</div>","","null","fixation","2021-07-15 18:15:58.617","","","","",""
"","mars-trial","90","473970","0.0-10.0-1.37","980","""event"",""trial"",""time""
""fullscreenenter"",""0"",""3341""
","
","
","""event"",""trial"",""time""
""fullscreenenter"",""0"",""3341""
","
","648","<img style='border: 4px solid darkgrey;' src='img/tf1_38_M_ss1.jpeg'></img>","1","","exp","","2","<img src='img/tf1_38_T1_ss1_md.jpeg'></img>","0","false",""
"","html-keyboard-response","91","474473","0.0-10.0-0.38","980","""event"",""trial"",""time""
""fullscreenenter"",""0"",""3341""
","
","
","""event"",""trial"",""time""
""fullscreenenter"",""0"",""3341""
","
","null","<div style=""font-size:60px;"">+</div>","","null","fixation","2021-07-15 18:16:00.379","","","","",""
"","mars-trial","92","475868","0.0-10.0-1.38","980","""event"",""trial"",""time""
""fullscreenenter"",""0"",""3341""
","
","
","""event"",""trial"",""time""
""fullscreenenter"",""0"",""3341""
","
","783.6000001430511","<img style='border: 4px solid darkgrey;' src='img/tf1_39_M_ss2.jpeg'></img>","2","","exp","","3","<img src='img/tf1_39_T1_ss2_md.jpeg'></img>","0","false",""
"","html-keyboard-response","93","476371","0.0-10.0-0.39","980","""event"",""trial"",""time""
""fullscreenenter"",""0"",""3341""
","
","
","""event"",""trial"",""time""
""fullscreenenter"",""0"",""3341""
","
","null","<div style=""font-size:60px;"">+</div>","","null","fixation","2021-07-15 18:16:02.277","","","","",""
"","mars-trial","94","477657","0.0-10.0-1.39","980","""event"",""trial"",""time""
""fullscreenenter"",""0"",""3341""
","
","
","""event"",""trial"",""time""
""fullscreenenter"",""0"",""3341""
","
","673.7000000476837","<img style='border: 4px solid darkgrey;' src='img/tf1_40_M_ss3.jpeg'></img>","3","","exp","","1","<img src='img/tf1_40_T1_ss3_md.jpeg'></img>","0","false",""
"","html-keyboard-response","95","478161","0.0-10.0-0.40","980","""event"",""trial"",""time""
""fullscreenenter"",""0"",""3341""
","
","
","""event"",""trial"",""time""
""fullscreenenter"",""0"",""3341""
","
","null","<div style=""font-size:60px;"">+</div>","","null","fixation","2021-07-15 18:16:04.067","","","","",""
"","mars-trial","96","479479","0.0-10.0-1.40","980","""event"",""trial"",""time""
""fullscreenenter"",""0"",""3341""
","
","
","""event"",""trial"",""time""
""fullscreenenter"",""0"",""3341""
","
","706.7000000476837","<img style='border: 4px solid darkgrey;' src='img/tf1_41_M_ss1.jpeg'></img>","0","","exp","","1","<img src='img/tf1_41_T1_ss1_md.jpeg'></img>","0","false",""
"","html-keyboard-response","97","479983","0.0-10.0-0.41","980","""event"",""trial"",""time""
""fullscreenenter"",""0"",""3341""
","
","
","""event"",""trial"",""time""
""fullscreenenter"",""0"",""3341""
","
","null","<div style=""font-size:60px;"">+</div>","","null","fixation","2021-07-15 18:16:05.889","","","","",""
"","mars-trial","98","481227","0.0-10.0-1.41","980","""event"",""trial"",""time""
""fullscreenenter"",""0"",""3341""
","
","
","""event"",""trial"",""time""
""fullscreenenter"",""0"",""3341""
","
","632.5","<img style='border: 4px solid darkgrey;' src='img/tf1_42_M_ss2.jpeg'></img>","2","","exp","","2","<img src='img/tf1_42_T1_ss2_md.jpeg'></img>","0","false",""
"","html-keyboard-response","99","481730","0.0-10.0-0.42","980","""event"",""trial"",""time""
""fullscreenenter"",""0"",""3341""
","
","
","""event"",""trial"",""time""
""fullscreenenter"",""0"",""3341""
","
","null","<div style=""font-size:60px;"">+</div>","","null","fixation","2021-07-15 18:16:07.637","","","","",""
"","mars-trial","100","483071","0.0-10.0-1.42","980","""event"",""trial"",""time""
""fullscreenenter"",""0"",""3341""
","
","
","""event"",""trial"",""time""
""fullscreenenter"",""0"",""3341""
","
","729","<img style='border: 4px solid darkgrey;' src='img/tf1_43_M_ss3.jpeg'></img>","2","","exp","","0","<img src='img/tf1_43_T1_ss3_md.jpeg'></img>","0","true",""
"","html-keyboard-response","101","483575","0.0-10.0-0.43","980","""event"",""trial"",""time""
""fullscreenenter"",""0"",""3341""
","
","
","""event"",""trial"",""time""
""fullscreenenter"",""0"",""3341""
","
","null","<div style=""font-size:60px;"">+</div>","","null","fixation","2021-07-15 18:16:09.481","","","","",""
"","mars-trial","102","484857","0.0-10.0-1.43","980","""event"",""trial"",""time""
""fullscreenenter"",""0"",""3341""
","
","
","""event"",""trial"",""time""
""fullscreenenter"",""0"",""3341""
","
","658.5","<img style='border: 4px solid darkgrey;' src='img/tf1_44_M_ss1.jpeg'></img>","2","","exp","","3","<img src='img/tf1_44_T1_ss1_md.jpeg'></img>","0","false",""
"","html-keyboard-response","103","485360","0.0-10.0-0.44","980","""event"",""trial"",""time""
""fullscreenenter"",""0"",""3341""
","
","
","""event"",""trial"",""time""
""fullscreenenter"",""0"",""3341""
","
","null","<div style=""font-size:60px;"">+</div>","","null","fixation","2021-07-15 18:16:11.266","","","","",""
"","mars-trial","104","487424","0.0-10.0-1.44","980","""event"",""trial"",""time""
""fullscreenenter"",""0"",""3341""
","
","
","""event"",""trial"",""time""
""fullscreenenter"",""0"",""3341""
","
","1453.8999998569489","<img style='border: 4px solid darkgrey;' src='img/tf1_45_M_ss2.jpeg'></img>","1","","exp","","2","<img src='img/tf1_45_T1_ss2_md.jpeg'></img>","0","false",""
"","html-keyboard-response","105","487926","0.0-10.0-0.45","980","""event"",""trial"",""time""
""fullscreenenter"",""0"",""3341""
","
","
","""event"",""trial"",""time""
""fullscreenenter"",""0"",""3341""
","
","null","<div style=""font-size:60px;"">+</div>","","null","fixation","2021-07-15 18:16:13.832","","","","",""
"","mars-trial","106","489578","0.0-10.0-1.45","980","""event"",""trial"",""time""
""fullscreenenter"",""0"",""3341""
","
","
","""event"",""trial"",""time""
""fullscreenenter"",""0"",""3341""
","
","1039","<img style='border: 4px solid darkgrey;' src='img/tf1_46_M_ss3.jpeg'></img>","0","","exp","","3","<img src='img/tf1_46_T1_ss3_md.jpeg'></img>","0","false",""
"","html-keyboard-response","107","490080","0.0-10.0-0.46","980","""event"",""trial"",""time""
""fullscreenenter"",""0"",""3341""
","
","
","""event"",""trial"",""time""
""fullscreenenter"",""0"",""3341""
","
","null","<div style=""font-size:60px;"">+</div>","","null","fixation","2021-07-15 18:16:15.986","","","","",""
"","mars-trial","108","491282","0.0-10.0-1.46","980","""event"",""trial"",""time""
""fullscreenenter"",""0"",""3341""
","
","
","""event"",""trial"",""time""
""fullscreenenter"",""0"",""3341""
","
","592.5999999046326","<img style='border: 4px solid darkgrey;' src='img/tf1_47_M_ss1.jpeg'></img>","2","","exp","","0","<img src='img/tf1_47_T1_ss1_md.jpeg'></img>","0","true",""
"","html-keyboard-response","109","491785","0.0-10.0-0.47","980","""event"",""trial"",""time""
""fullscreenenter"",""0"",""3341""
","
","
","""event"",""trial"",""time""
""fullscreenenter"",""0"",""3341""
","
","null","<div style=""font-size:60px;"">+</div>","","null","fixation","2021-07-15 18:16:17.691","","","","",""
"","mars-trial","110","493000","0.0-10.0-1.47","980","""event"",""trial"",""time""
""fullscreenenter"",""0"",""3341""
","
","
","""event"",""trial"",""time""
""fullscreenenter"",""0"",""3341""
","
","607.5999999046326","<img style='border: 4px solid darkgrey;' src='img/tf1_48_M_ss2.jpeg'></img>","3","","exp","","3","<img src='img/tf1_48_T1_ss2_md.jpeg'></img>","0","false",""
"","html-keyboard-response","111","493503","0.0-10.0-0.48","980","""event"",""trial"",""time""
""fullscreenenter"",""0"",""3341""
","
","
","""event"",""trial"",""time""
""fullscreenenter"",""0"",""3341""
","
","null","<div style=""font-size:60px;"">+</div>","","null","fixation","2021-07-15 18:16:19.409","","","","",""
"","mars-trial","112","494557","0.0-10.0-1.48","980","""event"",""trial"",""time""
""fullscreenenter"",""0"",""3341""
","
","
","""event"",""trial"",""time""
""fullscreenenter"",""0"",""3341""
","
","445.2999999523163","<img style='border: 4px solid darkgrey;' src='img/tf1_49_M_ss3.jpeg'></img>","1","","exp","","1","<img src='img/tf1_49_T1_ss3_md.jpeg'></img>","0","false",""
"","html-keyboard-response","113","495060","0.0-10.0-0.49","980","""event"",""trial"",""time""
""fullscreenenter"",""0"",""3341""
","
","
","""event"",""trial"",""time""
""fullscreenenter"",""0"",""3341""
","
","null","<div style=""font-size:60px;"">+</div>","","null","fixation","2021-07-15 18:16:20.966","","","","",""
"","mars-trial","114","496489","0.0-10.0-1.49","980","""event"",""trial"",""time""
""fullscreenenter"",""0"",""3341""
","
","
","""event"",""trial"",""time""
""fullscreenenter"",""0"",""3341""
","
","820.9000000953674","<img style='border: 4px solid darkgrey;' src='img/tf1_50_M_ss1.jpeg'></img>","0","","exp","","2","<img src='img/tf1_50_T1_ss1_md.jpeg'></img>","0","false",""
"","html-keyboard-response","115","496992","0.0-10.0-0.50","980","""event"",""trial"",""time""
""fullscreenenter"",""0"",""3341""
","
","
","""event"",""trial"",""time""
""fullscreenenter"",""0"",""3341""
","
","null","<div style=""font-size:60px;"">+</div>","","null","fixation","2021-07-15 18:16:22.898","","","","",""
"","mars-trial","116","498020","0.0-10.0-1.50","980","""event"",""trial"",""time""
""fullscreenenter"",""0"",""3341""
","
","
","""event"",""trial"",""time""
""fullscreenenter"",""0"",""3341""
","
","416.5","<img style='border: 4px solid darkgrey;' src='img/tf1_51_M_ss2.jpeg'></img>","2","","exp","","3","<img src='img/tf1_51_T1_ss2_md.jpeg'></img>","0","false",""
"","html-keyboard-response","117","498523","0.0-10.0-0.51","980","""event"",""trial"",""time""
""fullscreenenter"",""0"",""3341""
","
","
","""event"",""trial"",""time""
""fullscreenenter"",""0"",""3341""
","
","null","<div style=""font-size:60px;"">+</div>","","null","fixation","2021-07-15 18:16:24.429","","","","",""
"","mars-trial","118","499735","0.0-10.0-1.51","980","""event"",""trial"",""time""
""fullscreenenter"",""0"",""3341""
","
","
","""event"",""trial"",""time""
""fullscreenenter"",""0"",""3341""
","
","602.7000000476837","<img style='border: 4px solid darkgrey;' src='img/tf1_52_M_ss3.jpeg'></img>","3","","exp","","0","<img src='img/tf1_52_T1_ss3_md.jpeg'></img>","0","true",""
"","html-keyboard-response","119","500237","0.0-10.0-0.52","980","""event"",""trial"",""time""
""fullscreenenter"",""0"",""3341""
","
","
","""event"",""trial"",""time""
""fullscreenenter"",""0"",""3341""
","
","null","<div style=""font-size:60px;"">+</div>","","null","fixation","2021-07-15 18:16:26.143","","","","",""
"","mars-trial","120","501348","0.0-10.0-1.52","980","""event"",""trial"",""time""
""fullscreenenter"",""0"",""3341""
","
","
","""event"",""trial"",""time""
""fullscreenenter"",""0"",""3341""
","
","503.2999999523163","<img style='border: 4px solid darkgrey;' src='img/tf1_53_M_ss1.jpeg'></img>","1","","exp","","2","<img src='img/tf1_53_T1_ss1_md.jpeg'></img>","0","false",""
"","html-keyboard-response","121","501851","0.0-10.0-0.53","980","""event"",""trial"",""time""
""fullscreenenter"",""0"",""3341""
","
","
","""event"",""trial"",""time""
""fullscreenenter"",""0"",""3341""
","
","null","<div style=""font-size:60px;"">+</div>","","null","fixation","2021-07-15 18:16:27.757","","","","",""
"","mars-trial","122","502936","0.0-10.0-1.53","980","""event"",""trial"",""time""
""fullscreenenter"",""0"",""3341""
","
","
","""event"",""trial"",""time""
""fullscreenenter"",""0"",""3341""
","
","476.7000000476837","<img style='border: 4px solid darkgrey;' src='img/tf1_54_M_ss2.jpeg'></img>","2","","exp","","2","<img src='img/tf1_54_T1_ss2_md.jpeg'></img>","0","false",""
"","html-keyboard-response","123","503439","0.0-10.0-0.54","980","""event"",""trial"",""time""
""fullscreenenter"",""0"",""3341""
","
","
","""event"",""trial"",""time""
""fullscreenenter"",""0"",""3341""
","
","null","<div style=""font-size:60px;"">+</div>","","null","fixation","2021-07-15 18:16:29.345","","","","",""
"","mars-trial","124","504518","0.0-10.0-1.54","980","""event"",""trial"",""time""
""fullscreenenter"",""0"",""3341""
","
","
","""event"",""trial"",""time""
""fullscreenenter"",""0"",""3341""
","
","470.7999999523163","<img style='border: 4px solid darkgrey;' src='img/tf1_55_M_ss3.jpeg'></img>","3","","exp","","2","<img src='img/tf1_55_T1_ss3_md.jpeg'></img>","0","false",""
"","html-keyboard-response","125","505021","0.0-10.0-0.55","980","""event"",""trial"",""time""
""fullscreenenter"",""0"",""3341""
","
","
","""event"",""trial"",""time""
""fullscreenenter"",""0"",""3341""
","
","null","<div style=""font-size:60px;"">+</div>","","null","fixation","2021-07-15 18:16:30.927","","","","",""
"","mars-trial","126","506279","0.0-10.0-1.55","980","""event"",""trial"",""time""
""fullscreenenter"",""0"",""3341""
","
","
","""event"",""trial"",""time""
""fullscreenenter"",""0"",""3341""
","
","639.1000001430511","<img style='border: 4px solid darkgrey;' src='img/tf1_56_M_ss1.jpeg'></img>","0","","exp","","0","<img src='img/tf1_56_T1_ss1_md.jpeg'></img>","0","true",""
"","html-keyboard-response","127","506783","0.0-10.0-0.56","980","""event"",""trial"",""time""
""fullscreenenter"",""0"",""3341""
","
","
","""event"",""trial"",""time""
""fullscreenenter"",""0"",""3341""
","
","null","<div style=""font-size:60px;"">+</div>","","null","fixation","2021-07-15 18:16:32.689","","","","",""
"","mars-trial","128","508040","0.0-10.0-1.56","980","""event"",""trial"",""time""
""fullscreenenter"",""0"",""3341""
","
","
","""event"",""trial"",""time""
""fullscreenenter"",""0"",""3341""
","
","649.5","<img style='border: 4px solid darkgrey;' src='img/tf1_57_M_ss2.jpeg'></img>","1","","exp","","1","<img src='img/tf1_57_T1_ss2_md.jpeg'></img>","0","false",""
"","html-keyboard-response","129","508543","0.0-10.0-0.57","980","""event"",""trial"",""time""
""fullscreenenter"",""0"",""3341""
","
","
","""event"",""trial"",""time""
""fullscreenenter"",""0"",""3341""
","
","null","<div style=""font-size:60px;"">+</div>","","null","fixation","2021-07-15 18:16:34.449","","","","",""
"","mars-trial","130","524969","0.0-10.0-1.57","980","""event"",""trial"",""time""
""fullscreenenter"",""0"",""3341""
","
","
","""event"",""trial"",""time""
""fullscreenenter"",""0"",""3341""
","
","15818.600000143051","<img style='border: 4px solid darkgrey;' src='img/tf1_58_M_ss3.jpeg'></img>","2","","exp","","1","<img src='img/tf1_58_T1_ss3_md.jpeg'></img>","0","false",""
"","html-keyboard-response","131","525472","0.0-10.0-0.58","980","""event"",""trial"",""time""
""fullscreenenter"",""0"",""3341""
","
","
","""event"",""trial"",""time""
""fullscreenenter"",""0"",""3341""
","
","null","<div style=""font-size:60px;"">+</div>","","null","fixation","2021-07-15 18:16:51.378","","","","",""
"","mars-trial","132","527660","0.0-10.0-1.58","980","""event"",""trial"",""time""
""fullscreenenter"",""0"",""3341""
","
","
","""event"",""trial"",""time""
""fullscreenenter"",""0"",""3341""
","
","1564","<img style='border: 4px solid darkgrey;' src='img/tf1_59_M_ss1.jpeg'></img>","2","","exp","","1","<img src='img/tf1_59_T1_ss1_md.jpeg'></img>","0","false",""
"","html-keyboard-response","133","528163","0.0-10.0-0.59","980","""event"",""trial"",""time""
""fullscreenenter"",""0"",""3341""
","
","
","""event"",""trial"",""time""
""fullscreenenter"",""0"",""3341""
","
","null","<div style=""font-size:60px;"">+</div>","","null","fixation","2021-07-15 18:16:54.069","","","","",""
"","mars-trial","134","529248","0.0-10.0-1.59","980","""event"",""trial"",""time""
""fullscreenenter"",""0"",""3341""
","
","
","""event"",""trial"",""time""
""fullscreenenter"",""0"",""3341""
","
","475.7999999523163","<img style='border: 4px solid darkgrey;' src='img/tf1_60_M_ss2.jpeg'></img>","1","","exp","","1","<img src='img/tf1_60_T1_ss2_md.jpeg'></img>","0","false",""
"","html-keyboard-response","135","529752","0.0-10.0-0.60","980","""event"",""trial"",""time""
""fullscreenenter"",""0"",""3341""
","
","
","""event"",""trial"",""time""
""fullscreenenter"",""0"",""3341""
","
","null","<div style=""font-size:60px;"">+</div>","","null","fixation","2021-07-15 18:16:55.658","","","","",""
"","mars-trial","136","530601","0.0-10.0-1.60","980","""event"",""trial"",""time""
""fullscreenenter"",""0"",""3341""
","
","
","""event"",""trial"",""time""
""fullscreenenter"",""0"",""3341""
","
","241","<img style='border: 4px solid darkgrey;' src='img/tf1_61_M_ss3.jpeg'></img>","3","","exp","","0","<img src='img/tf1_61_T1_ss3_md.jpeg'></img>","0","true",""
"","html-keyboard-response","137","531105","0.0-10.0-0.61","980","""event"",""trial"",""time""
""fullscreenenter"",""0"",""3341""
","
","
","""event"",""trial"",""time""
""fullscreenenter"",""0"",""3341""
","
","null","<div style=""font-size:60px;"">+</div>","","null","fixation","2021-07-15 18:16:57.011","","","","",""
"","mars-trial","138","533619","0.0-10.0-1.61","980","""event"",""trial"",""time""
""fullscreenenter"",""0"",""3341""
","
","
","""event"",""trial"",""time""
""fullscreenenter"",""0"",""3341""
","
","1904.6999998092651","<img style='border: 4px solid darkgrey;' src='img/tf1_62_M_ss1.jpeg'></img>","0","","exp","","0","<img src='img/tf1_62_T1_ss1_md.jpeg'></img>","0","true",""
"","html-keyboard-response","139","534123","0.0-10.0-0.62","980","""event"",""trial"",""time""
""fullscreenenter"",""0"",""3341""
","
","
","""event"",""trial"",""time""
""fullscreenenter"",""0"",""3341""
","
","null","<div style=""font-size:60px;"">+</div>","","null","fixation","2021-07-15 18:17:00.029","","","","",""
"","mars-trial","140","535415","0.0-10.0-1.62","980","""event"",""trial"",""time""
""fullscreenenter"",""0"",""3341""
","
","
","""event"",""trial"",""time""
""fullscreenenter"",""0"",""3341""
","
","683.4000000953674","<img style='border: 4px solid darkgrey;' src='img/tf1_63_M_ss2.jpeg'></img>","3","","exp","","3","<img src='img/tf1_63_T1_ss2_md.jpeg'></img>","0","false",""
"","html-keyboard-response","141","535919","0.0-10.0-0.63","980","""event"",""trial"",""time""
""fullscreenenter"",""0"",""3341""
","
","
","""event"",""trial"",""time""
""fullscreenenter"",""0"",""3341""
","
","null","<div style=""font-size:60px;"">+</div>","","null","fixation","2021-07-15 18:17:01.825","","","","",""
"","mars-trial","142","537212","0.0-10.0-1.63","980","""event"",""trial"",""time""
""fullscreenenter"",""0"",""3341""
","
","
","""event"",""trial"",""time""
""fullscreenenter"",""0"",""3341""
","
","683.2000000476837","<img style='border: 4px solid darkgrey;' src='img/tf1_64_M_ss3.jpeg'></img>","1","","exp","","2","<img src='img/tf1_64_T1_ss3_md.jpeg'></img>","0","false",""
"","html-keyboard-response","143","537715","0.0-10.0-0.64","980","""event"",""trial"",""time""
""fullscreenenter"",""0"",""3341""
","
","
","""event"",""trial"",""time""
""fullscreenenter"",""0"",""3341""
","
","null","<div style=""font-size:60px;"">+</div>","","null","fixation","2021-07-15 18:17:03.622","","","","",""
"","mars-trial","144","538697","0.0-10.0-1.64","980","""event"",""trial"",""time""
""fullscreenenter"",""0"",""3341""
","
","
","""event"",""trial"",""time""
""fullscreenenter"",""0"",""3341""
","
","368","<img style='border: 4px solid darkgrey;' src='img/tf1_65_M_ss1.jpeg'></img>","2","","exp","","3","<img src='img/tf1_65_T1_ss1_md.jpeg'></img>","0","false",""
"","html-keyboard-response","145","539200","0.0-10.0-0.65","980","""event"",""trial"",""time""
""fullscreenenter"",""0"",""3341""
","
","
","""event"",""trial"",""time""
""fullscreenenter"",""0"",""3341""
","
","null","<div style=""font-size:60px;"">+</div>","","null","fixation","2021-07-15 18:17:05.106","","","","",""
"","mars-trial","146","540134","0.0-10.0-1.65","980","""event"",""trial"",""time""
""fullscreenenter"",""0"",""3341""
","
","
","""event"",""trial"",""time""
""fullscreenenter"",""0"",""3341""
","
","324.90000009536743","<img style='border: 4px solid darkgrey;' src='img/tf1_66_M_ss2.jpeg'></img>","0","","exp","","2","<img src='img/tf1_66_T1_ss2_md.jpeg'></img>","0","false",""
"","html-keyboard-response","147","540637","0.0-10.0-0.66","980","""event"",""trial"",""time""
""fullscreenenter"",""0"",""3341""
","
","
","""event"",""trial"",""time""
""fullscreenenter"",""0"",""3341""
","
","null","<div style=""font-size:60px;"">+</div>","","null","fixation","2021-07-15 18:17:06.543","","","","",""
"","mars-trial","148","541573","0.0-10.0-1.66","980","""event"",""trial"",""time""
""fullscreenenter"",""0"",""3341""
","
","
","""event"",""trial"",""time""
""fullscreenenter"",""0"",""3341""
","
","323.5","<img style='border: 4px solid darkgrey;' src='img/tf1_67_M_ss3.jpeg'></img>","1","","exp","","1","<img src='img/tf1_67_T1_ss3_md.jpeg'></img>","0","false",""
"","html-keyboard-response","149","542076","0.0-10.0-0.67","980","""event"",""trial"",""time""
""fullscreenenter"",""0"",""3341""
","
","
","""event"",""trial"",""time""
""fullscreenenter"",""0"",""3341""
","
","null","<div style=""font-size:60px;"">+</div>","","null","fixation","2021-07-15 18:17:07.982","","","","",""
"","mars-trial","150","542887","0.0-10.0-1.67","980","""event"",""trial"",""time""
""fullscreenenter"",""0"",""3341""
","
","
","""event"",""trial"",""time""
""fullscreenenter"",""0"",""3341""
","
","201.10000014305115","<img style='border: 4px solid darkgrey;' src='img/tf1_68_M_ss1.jpeg'></img>","1","","exp","","2","<img src='img/tf1_68_T1_ss1_md.jpeg'></img>","0","false",""
"","html-keyboard-response","151","543390","0.0-10.0-0.68","980","""event"",""trial"",""time""
""fullscreenenter"",""0"",""3341""
","
","
","""event"",""trial"",""time""
""fullscreenenter"",""0"",""3341""
","
","null","<div style=""font-size:60px;"">+</div>","","null","fixation","2021-07-15 18:17:09.296","","","","",""
"","mars-trial","152","544309","0.0-10.0-1.68","980","""event"",""trial"",""time""
""fullscreenenter"",""0"",""3341""
","
","
","""event"",""trial"",""time""
""fullscreenenter"",""0"",""3341""
","
","293.7000000476837","<img style='border: 4px solid darkgrey;' src='img/tf1_69_M_ss2.jpeg'></img>","1","","exp","","1","<img src='img/tf1_69_T1_ss2_md.jpeg'></img>","0","false",""
"","html-keyboard-response","153","544812","0.0-10.0-0.69","980","""event"",""trial"",""time""
""fullscreenenter"",""0"",""3341""
","
","
","""event"",""trial"",""time""
""fullscreenenter"",""0"",""3341""
","
","null","<div style=""font-size:60px;"">+</div>","","null","fixation","2021-07-15 18:17:10.718","","","","",""
"","mars-trial","154","547544","0.0-10.0-1.69","980","""event"",""trial"",""time""
""fullscreenenter"",""0"",""3341""
","
","
","""event"",""trial"",""time""
""fullscreenenter"",""0"",""3341""
","
","2108.9000000953674","<img style='border: 4px solid darkgrey;' src='img/tf1_70_M_ss3.jpeg'></img>","1","","exp","","2","<img src='img/tf1_70_T1_ss3_md.jpeg'></img>","0","false",""
"","html-keyboard-response","155","548048","0.0-10.0-0.70","980","""event"",""trial"",""time""
""fullscreenenter"",""0"",""3341""
","
","
","""event"",""trial"",""time""
""fullscreenenter"",""0"",""3341""
","
","null","<div style=""font-size:60px;"">+</div>","","null","fixation","2021-07-15 18:17:13.954","","","","",""
"","mars-trial","156","550145","0.0-10.0-1.70","980","""event"",""trial"",""time""
""fullscreenenter"",""0"",""3341""
","
","
","""event"",""trial"",""time""
""fullscreenenter"",""0"",""3341""
","
","1483.7000000476837","<img style='border: 4px solid darkgrey;' src='img/tf1_71_M_ss1.jpeg'></img>","1","","exp","","1","<img src='img/tf1_71_T1_ss1_md.jpeg'></img>","0","false",""
"","html-keyboard-response","157","550648","0.0-10.0-0.71","980","""event"",""trial"",""time""
""fullscreenenter"",""0"",""3341""
","
","
","""event"",""trial"",""time""
""fullscreenenter"",""0"",""3341""
","
","null","<div style=""font-size:60px;"">+</div>","","null","fixation","2021-07-15 18:17:16.554","","","","",""
"","mars-trial","158","551842","0.0-10.0-1.71","980","""event"",""trial"",""time""
""fullscreenenter"",""0"",""3341""
","
","
","""event"",""trial"",""time""
""fullscreenenter"",""0"",""3341""
","
","584.3000001907349","<img style='border: 4px solid darkgrey;' src='img/tf1_72_M_ss2.jpeg'></img>","3","","exp","","2","<img src='img/tf1_72_T1_ss2_md.jpeg'></img>","0","false",""
"","html-keyboard-response","159","552345","0.0-10.0-0.72","980","""event"",""trial"",""time""
""fullscreenenter"",""0"",""3341""
","
","
","""event"",""trial"",""time""
""fullscreenenter"",""0"",""3341""
","
","null","<div style=""font-size:60px;"">+</div>","","null","fixation","2021-07-15 18:17:18.251","","","","",""
"","mars-trial","160","556678","0.0-10.0-1.72","980","""event"",""trial"",""time""
""fullscreenenter"",""0"",""3341""
","
","
","""event"",""trial"",""time""
""fullscreenenter"",""0"",""3341""
","
","3719.0999999046326","<img style='border: 4px solid darkgrey;' src='img/tf1_73_M_ss3.jpeg'></img>","2","","exp","","1","<img src='img/tf1_73_T1_ss3_md.jpeg'></img>","0","false",""
"","html-keyboard-response","161","557182","0.0-10.0-0.73","980","""event"",""trial"",""time""
""fullscreenenter"",""0"",""3341""
","
","
","""event"",""trial"",""time""
""fullscreenenter"",""0"",""3341""
","
","null","<div style=""font-size:60px;"">+</div>","","null","fixation","2021-07-15 18:17:23.088","","","","",""
"","mars-trial","162","562894","0.0-10.0-1.73","980","""event"",""trial"",""time""
""fullscreenenter"",""0"",""3341""
","
","
","""event"",""trial"",""time""
""fullscreenenter"",""0"",""3341""
","
","5092.199999809265","<img style='border: 4px solid darkgrey;' src='img/tf1_74_M_ss1.jpeg'></img>","0","","exp","","0","<img src='img/tf1_74_T1_ss1_md.jpeg'></img>","0","true",""
"","html-keyboard-response","163","563398","0.0-10.0-0.74","980","""event"",""trial"",""time""
""fullscreenenter"",""0"",""3341""
","
","
","""event"",""trial"",""time""
""fullscreenenter"",""0"",""3341""
","
","null","<div style=""font-size:60px;"">+</div>","","null","fixation","2021-07-15 18:17:29.305","","","","",""
"","mars-trial","164","565301","0.0-10.0-1.74","980","""event"",""trial"",""time""
""fullscreenenter"",""0"",""3341""
","
","
","""event"",""trial"",""time""
""fullscreenenter"",""0"",""3341""
","
","1289.6000001430511","<img style='border: 4px solid darkgrey;' src='img/tf1_75_M_ss2.jpeg'></img>","2","","exp","","0","<img src='img/tf1_75_T1_ss2_md.jpeg'></img>","0","true",""
"","html-keyboard-response","165","565804","0.0-10.0-0.75","980","""event"",""trial"",""time""
""fullscreenenter"",""0"",""3341""
","
","
","""event"",""trial"",""time""
""fullscreenenter"",""0"",""3341""
","
","null","<div style=""font-size:60px;"">+</div>","","null","fixation","2021-07-15 18:17:31.710","","","","",""
"","mars-trial","166","566133","0.0-10.0-1.75","980","""event"",""trial"",""time""
""fullscreenenter"",""0"",""3341""
","
","
","""event"",""trial"",""time""
""fullscreenenter"",""0"",""3341""
","
","","","","","exp","","","<img src='img/tf1_76_T1_ss3_md.jpeg'></img>","0","false",""
"","html-keyboard-response","167","566639","0.0-10.0-0.76","980","""event"",""trial"",""time""
""fullscreenenter"",""0"",""3341""
","
","
","""event"",""trial"",""time""
""fullscreenenter"",""0"",""3341""
","
","null","<div style=""font-size:60px;"">+</div>","","null","fixation","2021-07-15 18:17:32.545","","","","",""
"","audio-button-response","168","572789","0.0-11.0","980","""event"",""trial"",""time""
""fullscreenenter"",""0"",""3341""
","
","
","""event"",""trial"",""time""
""fullscreenenter"",""0"",""3341""
","
","6044.5","audio/mars_instructions_slide5.wav","0","","","","","","","",""
