"success","trial_type","trial_index","time_elapsed","internal_node_id","subject_id","interactions","blur_events","focus_events","fullscreenenter_events","fullscreenexit_events","rt","stimulus","button_pressed","key_press","part","timestamp","unshuffled_button","correct_response","correct_button","correct","value"
"true","fullscreen","0","3529","0.0-0.0","841","""event"",""trial"",""time""
""fullscreenenter"",""0"",""2551""
","
","
","""event"",""trial"",""time""
""fullscreenenter"",""0"",""2551""
","
","","","","","","","","","","",""
"","pavlovia","1","3534","0.0-1.0","841","""event"",""trial"",""time""
""fullscreenenter"",""0"",""2551""
","
","
","""event"",""trial"",""time""
""fullscreenenter"",""0"",""2551""
","
","","","","","","","","","","",""
"","html-button-response","2","5358","0.0-2.0","841","""event"",""trial"",""time""
""fullscreenenter"",""0"",""2551""
","
","
","""event"",""trial"",""time""
""fullscreenenter"",""0"",""2551""
","
","1821.9000000059605","<p>Welcome! Press START to begin.</p><br>","0","","","","","","","",""
"","audio-button-response","3","22466","0.0-3.0","841","""event"",""trial"",""time""
""fullscreenenter"",""0"",""2551""
","
","
","""event"",""trial"",""time""
""fullscreenenter"",""0"",""2551""
","
","17104.5","audio/mars_instructions_slide2.wav","0","","","","","","","",""
"","audio-button-response","4","25139","0.0-4.0","841","""event"",""trial"",""time""
""fullscreenenter"",""0"",""2551""
","
","
","""event"",""trial"",""time""
""fullscreenenter"",""0"",""2551""
","
","2669.9000000059605","audio/mars_instructions_slide3.wav","0","","","","","","","",""
"","html-keyboard-response","5","25642","0.0-5.0-0.0","841","""event"",""trial"",""time""
""fullscreenenter"",""0"",""2551""
","
","
","""event"",""trial"",""time""
""fullscreenenter"",""0"",""2551""
","
","null","<div style=""font-size:60px;"">+</div>","","null","fixation","2021-07-14 22:31:53.764","","","","",""
"","mars-trial","6","33709","0.0-5.0-1.0","841","""event"",""trial"",""time""
""fullscreenenter"",""0"",""2551""
","
","
","""event"",""trial"",""time""
""fullscreenenter"",""0"",""2551""
","
","5958.79999999702","<img style='border: 4px solid darkgrey;' src='practice/pt1_M1.png'></img>","0","","practice","","2","<img src='practice/pt1_T1.png'></img>","0","false",""
"","html-keyboard-response","7","34212","0.0-5.1-0.1","841","""event"",""trial"",""time""
""fullscreenenter"",""0"",""2551""
","
","
","""event"",""trial"",""time""
""fullscreenenter"",""0"",""2551""
","
","null","<div style=""font-size:60px;"">+</div>","","null","fixation","2021-07-14 22:32:02.334","","","","",""
"","mars-trial","8","38366","0.0-5.1-1.1","841","""event"",""trial"",""time""
""fullscreenenter"",""0"",""2551""
","
","
","""event"",""trial"",""time""
""fullscreenenter"",""0"",""2551""
","
","2048.0999999940395","<img style='border: 4px solid darkgrey;' src='practice/pt1_M1.png'></img>","1","","practice","","0","<img src='practice/pt1_T1.png'></img>","0","true",""
"","html-keyboard-response","9","38868","0.0-6.0-0.0","841","""event"",""trial"",""time""
""fullscreenenter"",""0"",""2551""
","
","
","""event"",""trial"",""time""
""fullscreenenter"",""0"",""2551""
","
","null","<div style=""font-size:60px;"">+</div>","","null","fixation","2021-07-14 22:32:06.990","","","","",""
"","mars-trial","10","42356","0.0-6.0-1.0","841","""event"",""trial"",""time""
""fullscreenenter"",""0"",""2551""
","
","
","""event"",""trial"",""time""
""fullscreenenter"",""0"",""2551""
","
","1381","<img style='border: 4px solid darkgrey;' src='practice/pt2_M1.png'></img>","2","","practice","","0","<img src='practice/pt2_T1.png'></img>","0","true",""
"","html-keyboard-response","11","42858","0.0-7.0-0.0","841","""event"",""trial"",""time""
""fullscreenenter"",""0"",""2551""
","
","
","""event"",""trial"",""time""
""fullscreenenter"",""0"",""2551""
","
","null","<div style=""font-size:60px;"">+</div>","","null","fixation","2021-07-14 22:32:10.980","","","","",""
"","mars-trial","12","46671","0.0-7.0-1.0","841","""event"",""trial"",""time""
""fullscreenenter"",""0"",""2551""
","
","
","""event"",""trial"",""time""
""fullscreenenter"",""0"",""2551""
","
","1706.2000000029802","<img style='border: 4px solid darkgrey;' src='practice/pt3_M1.png'></img>","3","","practice","","0","<img src='practice/pt3_T1.png'></img>","0","true",""
"","audio-button-response","13","48322","0.0-8.0","841","""event"",""trial"",""time""
""fullscreenenter"",""0"",""2551""
","
","
","""event"",""trial"",""time""
""fullscreenenter"",""0"",""2551""
","
","1648.8999999910593","audio/mars_instructions_slide4.wav","0","","","","","","","",""
"","call-function","14","48324","0.0-9.0","841","""event"",""trial"",""time""
""fullscreenenter"",""0"",""2551""
","
","
","""event"",""trial"",""time""
""fullscreenenter"",""0"",""2551""
","
","","","","","","","","","","",""
"","html-keyboard-response","15","48825","0.0-10.0-0.0","841","""event"",""trial"",""time""
""fullscreenenter"",""0"",""2551""
","
","
","""event"",""trial"",""time""
""fullscreenenter"",""0"",""2551""
","
","null","<div style=""font-size:60px;"">+</div>","","null","fixation","2021-07-14 22:32:16.947","","","","",""
"","mars-trial","16","50660","0.0-10.0-1.0","841","""event"",""trial"",""time""
""fullscreenenter"",""0"",""2551""
","
","
","""event"",""trial"",""time""
""fullscreenenter"",""0"",""2551""
","
","1228.6000000089407","<img style='border: 4px solid darkgrey;' src='img/tf1_1_M_ss3.jpeg'></img>","3","","exp","","0","<img src='img/tf1_1_T1_ss3_md.jpeg'></img>","0","true",""
"","html-keyboard-response","17","51163","0.0-10.0-0.1","841","""event"",""trial"",""time""
""fullscreenenter"",""0"",""2551""
","
","
","""event"",""trial"",""time""
""fullscreenenter"",""0"",""2551""
","
","null","<div style=""font-size:60px;"">+</div>","","null","fixation","2021-07-14 22:32:19.285","","","","",""
"","mars-trial","18","53770","0.0-10.0-1.1","841","""event"",""trial"",""time""
""fullscreenenter"",""0"",""2551""
","
","
","""event"",""trial"",""time""
""fullscreenenter"",""0"",""2551""
","
","2000.7000000029802","<img style='border: 4px solid darkgrey;' src='img/tf1_2_M_ss1.jpeg'></img>","2","","exp","","0","<img src='img/tf1_2_T1_ss1_md.jpeg'></img>","0","true",""
"","html-keyboard-response","19","54272","0.0-10.0-0.2","841","""event"",""trial"",""time""
""fullscreenenter"",""0"",""2551""
","
","
","""event"",""trial"",""time""
""fullscreenenter"",""0"",""2551""
","
","null","<div style=""font-size:60px;"">+</div>","","null","fixation","2021-07-14 22:32:22.394","","","","",""
"","mars-trial","20","56511","0.0-10.0-1.2","841","""event"",""trial"",""time""
""fullscreenenter"",""0"",""2551""
","
","
","""event"",""trial"",""time""
""fullscreenenter"",""0"",""2551""
","
","1633.7000000029802","<img style='border: 4px solid darkgrey;' src='img/tf1_3_M_ss2.jpeg'></img>","1","","exp","","0","<img src='img/tf1_3_T1_ss2_md.jpeg'></img>","0","true",""
"","html-keyboard-response","21","57013","0.0-10.0-0.3","841","""event"",""trial"",""time""
""fullscreenenter"",""0"",""2551""
","
","
","""event"",""trial"",""time""
""fullscreenenter"",""0"",""2551""
","
","null","<div style=""font-size:60px;"">+</div>","","null","fixation","2021-07-14 22:32:25.136","","","","",""
"","mars-trial","22","59175","0.0-10.0-1.3","841","""event"",""trial"",""time""
""fullscreenenter"",""0"",""2551""
","
","
","""event"",""trial"",""time""
""fullscreenenter"",""0"",""2551""
","
","1555","<img style='border: 4px solid darkgrey;' src='img/tf1_4_M_ss3.jpeg'></img>","3","","exp","","0","<img src='img/tf1_4_T1_ss3_md.jpeg'></img>","0","true",""
"","html-keyboard-response","23","59677","0.0-10.0-0.4","841","""event"",""trial"",""time""
""fullscreenenter"",""0"",""2551""
","
","
","""event"",""trial"",""time""
""fullscreenenter"",""0"",""2551""
","
","null","<div style=""font-size:60px;"">+</div>","","null","fixation","2021-07-14 22:32:27.799","","","","",""
"","mars-trial","24","61779","0.0-10.0-1.4","841","""event"",""trial"",""time""
""fullscreenenter"",""0"",""2551""
","
","
","""event"",""trial"",""time""
""fullscreenenter"",""0"",""2551""
","
","1495.8999999910593","<img style='border: 4px solid darkgrey;' src='img/tf1_5_M_ss1.jpeg'></img>","2","","exp","","0","<img src='img/tf1_5_T1_ss1_md.jpeg'></img>","0","true",""
"","html-keyboard-response","25","62282","0.0-10.0-0.5","841","""event"",""trial"",""time""
""fullscreenenter"",""0"",""2551""
","
","
","""event"",""trial"",""time""
""fullscreenenter"",""0"",""2551""
","
","null","<div style=""font-size:60px;"">+</div>","","null","fixation","2021-07-14 22:32:30.404","","","","",""
"","mars-trial","26","69289","0.0-10.0-1.5","841","""event"",""trial"",""time""
""fullscreenenter"",""0"",""2551""
","
","
","""event"",""trial"",""time""
""fullscreenenter"",""0"",""2551""
","
","6401.600000008941","<img style='border: 4px solid darkgrey;' src='img/tf1_6_M_ss2.jpeg'></img>","3","","exp","","3","<img src='img/tf1_6_T1_ss2_md.jpeg'></img>","0","false",""
"","html-keyboard-response","27","69791","0.0-10.0-0.6","841","""event"",""trial"",""time""
""fullscreenenter"",""0"",""2551""
","
","
","""event"",""trial"",""time""
""fullscreenenter"",""0"",""2551""
","
","null","<div style=""font-size:60px;"">+</div>","","null","fixation","2021-07-14 22:32:37.913","","","","",""
"","mars-trial","28","73995","0.0-10.0-1.6","841","""event"",""trial"",""time""
""fullscreenenter"",""0"",""2551""
","
","
","""event"",""trial"",""time""
""fullscreenenter"",""0"",""2551""
","
","3597.5999999940395","<img style='border: 4px solid darkgrey;' src='img/tf1_7_M_ss3.jpeg'></img>","0","","exp","","0","<img src='img/tf1_7_T1_ss3_md.jpeg'></img>","0","true",""
"","html-keyboard-response","29","74497","0.0-10.0-0.7","841","""event"",""trial"",""time""
""fullscreenenter"",""0"",""2551""
","
","
","""event"",""trial"",""time""
""fullscreenenter"",""0"",""2551""
","
","null","<div style=""font-size:60px;"">+</div>","","null","fixation","2021-07-14 22:32:42.619","","","","",""
"","mars-trial","30","79243","0.0-10.0-1.7","841","""event"",""trial"",""time""
""fullscreenenter"",""0"",""2551""
","
","
","""event"",""trial"",""time""
""fullscreenenter"",""0"",""2551""
","
","4140","<img style='border: 4px solid darkgrey;' src='img/tf1_8_M_ss1.jpeg'></img>","3","","exp","","1","<img src='img/tf1_8_T1_ss1_md.jpeg'></img>","0","false",""
"","html-keyboard-response","31","79745","0.0-10.0-0.8","841","""event"",""trial"",""time""
""fullscreenenter"",""0"",""2551""
","
","
","""event"",""trial"",""time""
""fullscreenenter"",""0"",""2551""
","
","null","<div style=""font-size:60px;"">+</div>","","null","fixation","2021-07-14 22:32:47.867","","","","",""
"","mars-trial","32","83258","0.0-10.0-1.8","841","""event"",""trial"",""time""
""fullscreenenter"",""0"",""2551""
","
","
","""event"",""trial"",""time""
""fullscreenenter"",""0"",""2551""
","
","2906.8999999910593","<img style='border: 4px solid darkgrey;' src='img/tf1_9_M_ss2.jpeg'></img>","2","","exp","","0","<img src='img/tf1_9_T1_ss2_md.jpeg'></img>","0","true",""
"","html-keyboard-response","33","83760","0.0-10.0-0.9","841","""event"",""trial"",""time""
""fullscreenenter"",""0"",""2551""
","
","
","""event"",""trial"",""time""
""fullscreenenter"",""0"",""2551""
","
","null","<div style=""font-size:60px;"">+</div>","","null","fixation","2021-07-14 22:32:51.882","","","","",""
"","mars-trial","34","91609","0.0-10.0-1.9","841","""event"",""trial"",""time""
""fullscreenenter"",""0"",""2551""
","
","
","""event"",""trial"",""time""
""fullscreenenter"",""0"",""2551""
","
","7242.899999991059","<img style='border: 4px solid darkgrey;' src='img/tf1_10_M_ss3.jpeg'></img>","0","","exp","","0","<img src='img/tf1_10_T1_ss3_md.jpeg'></img>","0","true",""
"","html-keyboard-response","35","92111","0.0-10.0-0.10","841","""event"",""trial"",""time""
""fullscreenenter"",""0"",""2551""
","
","
","""event"",""trial"",""time""
""fullscreenenter"",""0"",""2551""
","
","null","<div style=""font-size:60px;"">+</div>","","null","fixation","2021-07-14 22:33:00.233","","","","",""
"","mars-trial","36","96789","0.0-10.0-1.10","841","""event"",""trial"",""time""
""fullscreenenter"",""0"",""2551""
","
","
","""event"",""trial"",""time""
""fullscreenenter"",""0"",""2551""
","
","4070.5","<img style='border: 4px solid darkgrey;' src='img/tf1_11_M_ss1.jpeg'></img>","2","","exp","","1","<img src='img/tf1_11_T1_ss1_md.jpeg'></img>","0","false",""
"","html-keyboard-response","37","97291","0.0-10.0-0.11","841","""event"",""trial"",""time""
""fullscreenenter"",""0"",""2551""
","
","
","""event"",""trial"",""time""
""fullscreenenter"",""0"",""2551""
","
","null","<div style=""font-size:60px;"">+</div>","","null","fixation","2021-07-14 22:33:05.413","","","","",""
"","mars-trial","38","100813","0.0-10.0-1.11","841","""event"",""trial"",""time""
""fullscreenenter"",""0"",""2551""
","
","
","""event"",""trial"",""time""
""fullscreenenter"",""0"",""2551""
","
","2914.3999999910593","<img style='border: 4px solid darkgrey;' src='img/tf1_12_M_ss2.jpeg'></img>","0","","exp","","1","<img src='img/tf1_12_T1_ss2_md.jpeg'></img>","0","false",""
"","html-keyboard-response","39","101315","0.0-10.0-0.12","841","""event"",""trial"",""time""
""fullscreenenter"",""0"",""2551""
","
","
","""event"",""trial"",""time""
""fullscreenenter"",""0"",""2551""
","
","null","<div style=""font-size:60px;"">+</div>","","null","fixation","2021-07-14 22:33:09.437","","","","",""
"","mars-trial","40","106565","0.0-10.0-1.12","841","""event"",""trial"",""time""
""fullscreenenter"",""0"",""2551""
","
","
","""event"",""trial"",""time""
""fullscreenenter"",""0"",""2551""
","
","4644.5","<img style='border: 4px solid darkgrey;' src='img/tf1_13_M_ss3.jpeg'></img>","3","","exp","","2","<img src='img/tf1_13_T1_ss3_md.jpeg'></img>","0","false",""
"","html-keyboard-response","41","107068","0.0-10.0-0.13","841","""event"",""trial"",""time""
""fullscreenenter"",""0"",""2551""
","
","
","""event"",""trial"",""time""
""fullscreenenter"",""0"",""2551""
","
","null","<div style=""font-size:60px;"">+</div>","","null","fixation","2021-07-14 22:33:15.190","","","","",""
"","mars-trial","42","114431","0.0-10.0-1.13","841","""event"",""trial"",""time""
""fullscreenenter"",""0"",""2551""
","
","
","""event"",""trial"",""time""
""fullscreenenter"",""0"",""2551""
","
","6756.899999991059","<img style='border: 4px solid darkgrey;' src='img/tf1_14_M_ss1.jpeg'></img>","3","","exp","","1","<img src='img/tf1_14_T1_ss1_md.jpeg'></img>","0","false",""
"","html-keyboard-response","43","114933","0.0-10.0-0.14","841","""event"",""trial"",""time""
""fullscreenenter"",""0"",""2551""
","
","
","""event"",""trial"",""time""
""fullscreenenter"",""0"",""2551""
","
","null","<div style=""font-size:60px;"">+</div>","","null","fixation","2021-07-14 22:33:23.055","","","","",""
"","mars-trial","44","119404","0.0-10.0-1.14","841","""event"",""trial"",""time""
""fullscreenenter"",""0"",""2551""
","
","
","""event"",""trial"",""time""
""fullscreenenter"",""0"",""2551""
","
","3865.4000000059605","<img style='border: 4px solid darkgrey;' src='img/tf1_15_M_ss2.jpeg'></img>","3","","exp","","0","<img src='img/tf1_15_T1_ss2_md.jpeg'></img>","0","true",""
"","html-keyboard-response","45","119906","0.0-10.0-0.15","841","""event"",""trial"",""time""
""fullscreenenter"",""0"",""2551""
","
","
","""event"",""trial"",""time""
""fullscreenenter"",""0"",""2551""
","
","null","<div style=""font-size:60px;"">+</div>","","null","fixation","2021-07-14 22:33:28.028","","","","",""
"","mars-trial","46","123421","0.0-10.0-1.15","841","""event"",""trial"",""time""
""fullscreenenter"",""0"",""2551""
","
","
","""event"",""trial"",""time""
""fullscreenenter"",""0"",""2551""
","
","2909.1000000089407","<img style='border: 4px solid darkgrey;' src='img/tf1_16_M_ss3.jpeg'></img>","1","","exp","","0","<img src='img/tf1_16_T1_ss3_md.jpeg'></img>","0","true",""
"","html-keyboard-response","47","123923","0.0-10.0-0.16","841","""event"",""trial"",""time""
""fullscreenenter"",""0"",""2551""
","
","
","""event"",""trial"",""time""
""fullscreenenter"",""0"",""2551""
","
","null","<div style=""font-size:60px;"">+</div>","","null","fixation","2021-07-14 22:33:32.046","","","","",""
"","mars-trial","48","128452","0.0-10.0-1.16","841","""event"",""trial"",""time""
""fullscreenenter"",""0"",""2551""
","
","
","""event"",""trial"",""time""
""fullscreenenter"",""0"",""2551""
","
","3922.0999999940395","<img style='border: 4px solid darkgrey;' src='img/tf1_17_M_ss1.jpeg'></img>","2","","exp","","2","<img src='img/tf1_17_T1_ss1_md.jpeg'></img>","0","false",""
"","html-keyboard-response","49","128953","0.0-10.0-0.17","841","""event"",""trial"",""time""
""fullscreenenter"",""0"",""2551""
","
","
","""event"",""trial"",""time""
""fullscreenenter"",""0"",""2551""
","
","null","<div style=""font-size:60px;"">+</div>","","null","fixation","2021-07-14 22:33:37.075","","","","",""
"","mars-trial","50","132565","0.0-10.0-1.17","841","""event"",""trial"",""time""
""fullscreenenter"",""0"",""2551""
","
","
","""event"",""trial"",""time""
""fullscreenenter"",""0"",""2551""
","
","3006","<img style='border: 4px solid darkgrey;' src='img/tf1_18_M_ss2.jpeg'></img>","3","","exp","","0","<img src='img/tf1_18_T1_ss2_md.jpeg'></img>","0","true",""
"","html-keyboard-response","51","133067","0.0-10.0-0.18","841","""event"",""trial"",""time""
""fullscreenenter"",""0"",""2551""
","
","
","""event"",""trial"",""time""
""fullscreenenter"",""0"",""2551""
","
","null","<div style=""font-size:60px;"">+</div>","","null","fixation","2021-07-14 22:33:41.189","","","","",""
"","mars-trial","52","137748","0.0-10.0-1.18","841","""event"",""trial"",""time""
""fullscreenenter"",""0"",""2551""
","
","
","""event"",""trial"",""time""
""fullscreenenter"",""0"",""2551""
","
","4074.7999999970198","<img style='border: 4px solid darkgrey;' src='img/tf1_19_M_ss3.jpeg'></img>","0","","exp","","0","<img src='img/tf1_19_T1_ss3_md.jpeg'></img>","0","true",""
"","html-keyboard-response","53","138250","0.0-10.0-0.19","841","""event"",""trial"",""time""
""fullscreenenter"",""0"",""2551""
","
","
","""event"",""trial"",""time""
""fullscreenenter"",""0"",""2551""
","
","null","<div style=""font-size:60px;"">+</div>","","null","fixation","2021-07-14 22:33:46.372","","","","",""
"","mars-trial","54","141915","0.0-10.0-1.19","841","""event"",""trial"",""time""
""fullscreenenter"",""0"",""2551""
","
","
","""event"",""trial"",""time""
""fullscreenenter"",""0"",""2551""
","
","3059.5","<img style='border: 4px solid darkgrey;' src='img/tf1_20_M_ss1.jpeg'></img>","1","","exp","","1","<img src='img/tf1_20_T1_ss1_md.jpeg'></img>","0","false",""
"","html-keyboard-response","55","142418","0.0-10.0-0.20","841","""event"",""trial"",""time""
""fullscreenenter"",""0"",""2551""
","
","
","""event"",""trial"",""time""
""fullscreenenter"",""0"",""2551""
","
","null","<div style=""font-size:60px;"">+</div>","","null","fixation","2021-07-14 22:33:50.540","","","","",""
"","mars-trial","56","144125","0.0-10.0-1.20","841","""event"",""trial"",""time""
""fullscreenenter"",""0"",""2551""
","
","
","""event"",""trial"",""time""
""fullscreenenter"",""0"",""2551""
","
","1101.2999999970198","<img style='border: 4px solid darkgrey;' src='img/tf1_21_M_ss2.jpeg'></img>","2","","exp","","2","<img src='img/tf1_21_T1_ss2_md.jpeg'></img>","0","false",""
"","html-keyboard-response","57","144627","0.0-10.0-0.21","841","""event"",""trial"",""time""
""fullscreenenter"",""0"",""2551""
","
","
","""event"",""trial"",""time""
""fullscreenenter"",""0"",""2551""
","
","null","<div style=""font-size:60px;"">+</div>","","null","fixation","2021-07-14 22:33:52.749","","","","",""
"","mars-trial","58","148352","0.0-10.0-1.21","841","""event"",""trial"",""time""
""fullscreenenter"",""0"",""2551""
","
","
","""event"",""trial"",""time""
""fullscreenenter"",""0"",""2551""
","
","3119","<img style='border: 4px solid darkgrey;' src='img/tf1_22_M_ss3.jpeg'></img>","3","","exp","","2","<img src='img/tf1_22_T1_ss3_md.jpeg'></img>","0","false",""
"","html-keyboard-response","59","148854","0.0-10.0-0.22","841","""event"",""trial"",""time""
""fullscreenenter"",""0"",""2551""
","
","
","""event"",""trial"",""time""
""fullscreenenter"",""0"",""2551""
","
","null","<div style=""font-size:60px;"">+</div>","","null","fixation","2021-07-14 22:33:56.976","","","","",""
"","mars-trial","60","151344","0.0-10.0-1.22","841","""event"",""trial"",""time""
""fullscreenenter"",""0"",""2551""
","
","
","""event"",""trial"",""time""
""fullscreenenter"",""0"",""2551""
","
","1883.5999999940395","<img style='border: 4px solid darkgrey;' src='img/tf1_23_M_ss1.jpeg'></img>","3","","exp","","1","<img src='img/tf1_23_T1_ss1_md.jpeg'></img>","0","false",""
"","html-keyboard-response","61","151849","0.0-10.0-0.23","841","""event"",""trial"",""time""
""fullscreenenter"",""0"",""2551""
","
","
","""event"",""trial"",""time""
""fullscreenenter"",""0"",""2551""
","
","null","<div style=""font-size:60px;"">+</div>","","null","fixation","2021-07-14 22:33:59.972","","","","",""
"","mars-trial","62","155905","0.0-10.0-1.23","841","""event"",""trial"",""time""
""fullscreenenter"",""0"",""2551""
","
","
","""event"",""trial"",""time""
""fullscreenenter"",""0"",""2551""
","
","3448.9000000059605","<img style='border: 4px solid darkgrey;' src='img/tf1_24_M_ss2.jpeg'></img>","1","","exp","","1","<img src='img/tf1_24_T1_ss2_md.jpeg'></img>","0","false",""
"","html-keyboard-response","63","156409","0.0-10.0-0.24","841","""event"",""trial"",""time""
""fullscreenenter"",""0"",""2551""
","
","
","""event"",""trial"",""time""
""fullscreenenter"",""0"",""2551""
","
","null","<div style=""font-size:60px;"">+</div>","","null","fixation","2021-07-14 22:34:04.531","","","","",""
"","mars-trial","64","162326","0.0-10.0-1.24","841","""event"",""trial"",""time""
""fullscreenenter"",""0"",""2551""
","
","
","""event"",""trial"",""time""
""fullscreenenter"",""0"",""2551""
","
","5311","<img style='border: 4px solid darkgrey;' src='img/tf1_25_M_ss3.jpeg'></img>","3","","exp","","2","<img src='img/tf1_25_T1_ss3_md.jpeg'></img>","0","false",""
"","html-keyboard-response","65","162828","0.0-10.0-0.25","841","""event"",""trial"",""time""
""fullscreenenter"",""0"",""2551""
","
","
","""event"",""trial"",""time""
""fullscreenenter"",""0"",""2551""
","
","null","<div style=""font-size:60px;"">+</div>","","null","fixation","2021-07-14 22:34:10.950","","","","",""
"","mars-trial","66","166658","0.0-10.0-1.25","841","""event"",""trial"",""time""
""fullscreenenter"",""0"",""2551""
","
","
","""event"",""trial"",""time""
""fullscreenenter"",""0"",""2551""
","
","3223.2000000029802","<img style='border: 4px solid darkgrey;' src='img/tf1_26_M_ss1.jpeg'></img>","0","","exp","","2","<img src='img/tf1_26_T1_ss1_md.jpeg'></img>","0","false",""
"","html-keyboard-response","67","167160","0.0-10.0-0.26","841","""event"",""trial"",""time""
""fullscreenenter"",""0"",""2551""
","
","
","""event"",""trial"",""time""
""fullscreenenter"",""0"",""2551""
","
","null","<div style=""font-size:60px;"">+</div>","","null","fixation","2021-07-14 22:34:15.282","","","","",""
"","mars-trial","68","170113","0.0-10.0-1.26","841","""event"",""trial"",""time""
""fullscreenenter"",""0"",""2551""
","
","
","""event"",""trial"",""time""
""fullscreenenter"",""0"",""2551""
","
","2347.2000000029802","<img style='border: 4px solid darkgrey;' src='img/tf1_27_M_ss2.jpeg'></img>","0","","exp","","3","<img src='img/tf1_27_T1_ss2_md.jpeg'></img>","0","false",""
"","html-keyboard-response","69","170616","0.0-10.0-0.27","841","""event"",""trial"",""time""
""fullscreenenter"",""0"",""2551""
","
","
","""event"",""trial"",""time""
""fullscreenenter"",""0"",""2551""
","
","null","<div style=""font-size:60px;"">+</div>","","null","fixation","2021-07-14 22:34:18.738","","","","",""
"","mars-trial","70","174476","0.0-10.0-1.27","841","""event"",""trial"",""time""
""fullscreenenter"",""0"",""2551""
","
","
","""event"",""trial"",""time""
""fullscreenenter"",""0"",""2551""
","
","3254.0999999940395","<img style='border: 4px solid darkgrey;' src='img/tf1_28_M_ss3.jpeg'></img>","3","","exp","","3","<img src='img/tf1_28_T1_ss3_md.jpeg'></img>","0","false",""
"","html-keyboard-response","71","174977","0.0-10.0-0.28","841","""event"",""trial"",""time""
""fullscreenenter"",""0"",""2551""
","
","
","""event"",""trial"",""time""
""fullscreenenter"",""0"",""2551""
","
","null","<div style=""font-size:60px;"">+</div>","","null","fixation","2021-07-14 22:34:23.100","","","","",""
"","mars-trial","72","177730","0.0-10.0-1.28","841","""event"",""trial"",""time""
""fullscreenenter"",""0"",""2551""
","
","
","""event"",""trial"",""time""
""fullscreenenter"",""0"",""2551""
","
","2146.7999999970198","<img style='border: 4px solid darkgrey;' src='img/tf1_29_M_ss1.jpeg'></img>","2","","exp","","3","<img src='img/tf1_29_T1_ss1_md.jpeg'></img>","0","false",""
"","html-keyboard-response","73","178232","0.0-10.0-0.29","841","""event"",""trial"",""time""
""fullscreenenter"",""0"",""2551""
","
","
","""event"",""trial"",""time""
""fullscreenenter"",""0"",""2551""
","
","null","<div style=""font-size:60px;"">+</div>","","null","fixation","2021-07-14 22:34:26.354","","","","",""
"","mars-trial","74","181527","0.0-10.0-1.29","841","""event"",""trial"",""time""
""fullscreenenter"",""0"",""2551""
","
","
","""event"",""trial"",""time""
""fullscreenenter"",""0"",""2551""
","
","2689.5","<img style='border: 4px solid darkgrey;' src='img/tf1_30_M_ss2.jpeg'></img>","1","","exp","","3","<img src='img/tf1_30_T1_ss2_md.jpeg'></img>","0","false",""
"","html-keyboard-response","75","182029","0.0-10.0-0.30","841","""event"",""trial"",""time""
""fullscreenenter"",""0"",""2551""
","
","
","""event"",""trial"",""time""
""fullscreenenter"",""0"",""2551""
","
","null","<div style=""font-size:60px;"">+</div>","","null","fixation","2021-07-14 22:34:30.151","","","","",""
"","mars-trial","76","184023","0.0-10.0-1.30","841","""event"",""trial"",""time""
""fullscreenenter"",""0"",""2551""
","
","
","""event"",""trial"",""time""
""fullscreenenter"",""0"",""2551""
","
","1387.8999999910593","<img style='border: 4px solid darkgrey;' src='img/tf1_31_M_ss3.jpeg'></img>","2","","exp","","3","<img src='img/tf1_31_T1_ss3_md.jpeg'></img>","0","false",""
"","html-keyboard-response","77","184525","0.0-10.0-0.31","841","""event"",""trial"",""time""
""fullscreenenter"",""0"",""2551""
","
","
","""event"",""trial"",""time""
""fullscreenenter"",""0"",""2551""
","
","null","<div style=""font-size:60px;"">+</div>","","null","fixation","2021-07-14 22:34:32.647","","","","",""
"","mars-trial","78","186133","0.0-10.0-1.31","841","""event"",""trial"",""time""
""fullscreenenter"",""0"",""2551""
","
","
","""event"",""trial"",""time""
""fullscreenenter"",""0"",""2551""
","
","1003.2999999970198","<img style='border: 4px solid darkgrey;' src='img/tf1_32_M_ss1.jpeg'></img>","0","","exp","","2","<img src='img/tf1_32_T1_ss1_md.jpeg'></img>","0","false",""
"","html-keyboard-response","79","186634","0.0-10.0-0.32","841","""event"",""trial"",""time""
""fullscreenenter"",""0"",""2551""
","
","
","""event"",""trial"",""time""
""fullscreenenter"",""0"",""2551""
","
","null","<div style=""font-size:60px;"">+</div>","","null","fixation","2021-07-14 22:34:34.756","","","","",""
"","mars-trial","80","187851","0.0-10.0-1.32","841","""event"",""trial"",""time""
""fullscreenenter"",""0"",""2551""
","
","
","""event"",""trial"",""time""
""fullscreenenter"",""0"",""2551""
","
","609.7000000029802","<img style='border: 4px solid darkgrey;' src='img/tf1_33_M_ss2.jpeg'></img>","3","","exp","","2","<img src='img/tf1_33_T1_ss2_md.jpeg'></img>","0","false",""
"","html-keyboard-response","81","188353","0.0-10.0-0.33","841","""event"",""trial"",""time""
""fullscreenenter"",""0"",""2551""
","
","
","""event"",""trial"",""time""
""fullscreenenter"",""0"",""2551""
","
","null","<div style=""font-size:60px;"">+</div>","","null","fixation","2021-07-14 22:34:36.475","","","","",""
"","mars-trial","82","189871","0.0-10.0-1.33","841","""event"",""trial"",""time""
""fullscreenenter"",""0"",""2551""
","
","
","""event"",""trial"",""time""
""fullscreenenter"",""0"",""2551""
","
","912.7999999970198","<img style='border: 4px solid darkgrey;' src='img/tf1_34_M_ss3.jpeg'></img>","1","","exp","","2","<img src='img/tf1_34_T1_ss3_md.jpeg'></img>","0","false",""
"","html-keyboard-response","83","190373","0.0-10.0-0.34","841","""event"",""trial"",""time""
""fullscreenenter"",""0"",""2551""
","
","
","""event"",""trial"",""time""
""fullscreenenter"",""0"",""2551""
","
","null","<div style=""font-size:60px;"">+</div>","","null","fixation","2021-07-14 22:34:38.495","","","","",""
"","mars-trial","84","191951","0.0-10.0-1.34","841","""event"",""trial"",""time""
""fullscreenenter"",""0"",""2551""
","
","
","""event"",""trial"",""time""
""fullscreenenter"",""0"",""2551""
","
","973.3999999910593","<img style='border: 4px solid darkgrey;' src='img/tf1_35_M_ss1.jpeg'></img>","2","","exp","","2","<img src='img/tf1_35_T1_ss1_md.jpeg'></img>","0","false",""
"","html-keyboard-response","85","192453","0.0-10.0-0.35","841","""event"",""trial"",""time""
""fullscreenenter"",""0"",""2551""
","
","
","""event"",""trial"",""time""
""fullscreenenter"",""0"",""2551""
","
","null","<div style=""font-size:60px;"">+</div>","","null","fixation","2021-07-14 22:34:40.575","","","","",""
"","mars-trial","86","193954","0.0-10.0-1.35","841","""event"",""trial"",""time""
""fullscreenenter"",""0"",""2551""
","
","
","""event"",""trial"",""time""
""fullscreenenter"",""0"",""2551""
","
","895.6000000089407","<img style='border: 4px solid darkgrey;' src='img/tf1_36_M_ss2.jpeg'></img>","3","","exp","","3","<img src='img/tf1_36_T1_ss2_md.jpeg'></img>","0","false",""
"","html-keyboard-response","87","194457","0.0-10.0-0.36","841","""event"",""trial"",""time""
""fullscreenenter"",""0"",""2551""
","
","
","""event"",""trial"",""time""
""fullscreenenter"",""0"",""2551""
","
","null","<div style=""font-size:60px;"">+</div>","","null","fixation","2021-07-14 22:34:42.579","","","","",""
"","mars-trial","88","196785","0.0-10.0-1.36","841","""event"",""trial"",""time""
""fullscreenenter"",""0"",""2551""
","
","
","""event"",""trial"",""time""
""fullscreenenter"",""0"",""2551""
","
","1723.4000000059605","<img style='border: 4px solid darkgrey;' src='img/tf1_37_M_ss3.jpeg'></img>","0","","exp","","0","<img src='img/tf1_37_T1_ss3_md.jpeg'></img>","0","true",""
"","html-keyboard-response","89","197286","0.0-10.0-0.37","841","""event"",""trial"",""time""
""fullscreenenter"",""0"",""2551""
","
","
","""event"",""trial"",""time""
""fullscreenenter"",""0"",""2551""
","
","null","<div style=""font-size:60px;"">+</div>","","null","fixation","2021-07-14 22:34:45.408","","","","",""
"","mars-trial","90","199319","0.0-10.0-1.37","841","""event"",""trial"",""time""
""fullscreenenter"",""0"",""2551""
","
","
","""event"",""trial"",""time""
""fullscreenenter"",""0"",""2551""
","
","1427.0999999940395","<img style='border: 4px solid darkgrey;' src='img/tf1_38_M_ss1.jpeg'></img>","1","","exp","","1","<img src='img/tf1_38_T1_ss1_md.jpeg'></img>","0","false",""
"","html-keyboard-response","91","199821","0.0-10.0-0.38","841","""event"",""trial"",""time""
""fullscreenenter"",""0"",""2551""
","
","
","""event"",""trial"",""time""
""fullscreenenter"",""0"",""2551""
","
","null","<div style=""font-size:60px;"">+</div>","","null","fixation","2021-07-14 22:34:47.943","","","","",""
"","mars-trial","92","201518","0.0-10.0-1.38","841","""event"",""trial"",""time""
""fullscreenenter"",""0"",""2551""
","
","
","""event"",""trial"",""time""
""fullscreenenter"",""0"",""2551""
","
","1092.2000000029802","<img style='border: 4px solid darkgrey;' src='img/tf1_39_M_ss2.jpeg'></img>","3","","exp","","2","<img src='img/tf1_39_T1_ss2_md.jpeg'></img>","0","false",""
"","html-keyboard-response","93","202020","0.0-10.0-0.39","841","""event"",""trial"",""time""
""fullscreenenter"",""0"",""2551""
","
","
","""event"",""trial"",""time""
""fullscreenenter"",""0"",""2551""
","
","null","<div style=""font-size:60px;"">+</div>","","null","fixation","2021-07-14 22:34:50.142","","","","",""
"","mars-trial","94","203649","0.0-10.0-1.39","841","""event"",""trial"",""time""
""fullscreenenter"",""0"",""2551""
","
","
","""event"",""trial"",""time""
""fullscreenenter"",""0"",""2551""
","
","1023.7000000029802","<img style='border: 4px solid darkgrey;' src='img/tf1_40_M_ss3.jpeg'></img>","1","","exp","","2","<img src='img/tf1_40_T1_ss3_md.jpeg'></img>","0","false",""
"","html-keyboard-response","95","204151","0.0-10.0-0.40","841","""event"",""trial"",""time""
""fullscreenenter"",""0"",""2551""
","
","
","""event"",""trial"",""time""
""fullscreenenter"",""0"",""2551""
","
","null","<div style=""font-size:60px;"">+</div>","","null","fixation","2021-07-14 22:34:52.274","","","","",""
"","mars-trial","96","207312","0.0-10.0-1.40","841","""event"",""trial"",""time""
""fullscreenenter"",""0"",""2551""
","
","
","""event"",""trial"",""time""
""fullscreenenter"",""0"",""2551""
","
","2555.0999999940395","<img style='border: 4px solid darkgrey;' src='img/tf1_41_M_ss1.jpeg'></img>","0","","exp","","0","<img src='img/tf1_41_T1_ss1_md.jpeg'></img>","0","true",""
"","html-keyboard-response","97","207814","0.0-10.0-0.41","841","""event"",""trial"",""time""
""fullscreenenter"",""0"",""2551""
","
","
","""event"",""trial"",""time""
""fullscreenenter"",""0"",""2551""
","
","null","<div style=""font-size:60px;"">+</div>","","null","fixation","2021-07-14 22:34:55.936","","","","",""
"","mars-trial","98","209544","0.0-10.0-1.41","841","""event"",""trial"",""time""
""fullscreenenter"",""0"",""2551""
","
","
","""event"",""trial"",""time""
""fullscreenenter"",""0"",""2551""
","
","1123.7000000029802","<img style='border: 4px solid darkgrey;' src='img/tf1_42_M_ss2.jpeg'></img>","2","","exp","","3","<img src='img/tf1_42_T1_ss2_md.jpeg'></img>","0","false",""
"","html-keyboard-response","99","210045","0.0-10.0-0.42","841","""event"",""trial"",""time""
""fullscreenenter"",""0"",""2551""
","
","
","""event"",""trial"",""time""
""fullscreenenter"",""0"",""2551""
","
","null","<div style=""font-size:60px;"">+</div>","","null","fixation","2021-07-14 22:34:58.168","","","","",""
"","mars-trial","100","211929","0.0-10.0-1.42","841","""event"",""trial"",""time""
""fullscreenenter"",""0"",""2551""
","
","
","""event"",""trial"",""time""
""fullscreenenter"",""0"",""2551""
","
","1278.5999999940395","<img style='border: 4px solid darkgrey;' src='img/tf1_43_M_ss3.jpeg'></img>","0","","exp","","3","<img src='img/tf1_43_T1_ss3_md.jpeg'></img>","0","false",""
"","html-keyboard-response","101","212431","0.0-10.0-0.43","841","""event"",""trial"",""time""
""fullscreenenter"",""0"",""2551""
","
","
","""event"",""trial"",""time""
""fullscreenenter"",""0"",""2551""
","
","null","<div style=""font-size:60px;"">+</div>","","null","fixation","2021-07-14 22:35:00.554","","","","",""
"","mars-trial","102","214474","0.0-10.0-1.43","841","""event"",""trial"",""time""
""fullscreenenter"",""0"",""2551""
","
","
","""event"",""trial"",""time""
""fullscreenenter"",""0"",""2551""
","
","1437.6000000089407","<img style='border: 4px solid darkgrey;' src='img/tf1_44_M_ss1.jpeg'></img>","1","","exp","","1","<img src='img/tf1_44_T1_ss1_md.jpeg'></img>","0","false",""
"","html-keyboard-response","103","214976","0.0-10.0-0.44","841","""event"",""trial"",""time""
""fullscreenenter"",""0"",""2551""
","
","
","""event"",""trial"",""time""
""fullscreenenter"",""0"",""2551""
","
","null","<div style=""font-size:60px;"">+</div>","","null","fixation","2021-07-14 22:35:03.098","","","","",""
"","mars-trial","104","218039","0.0-10.0-1.44","841","""event"",""trial"",""time""
""fullscreenenter"",""0"",""2551""
","
","
","""event"",""trial"",""time""
""fullscreenenter"",""0"",""2551""
","
","2457","<img style='border: 4px solid darkgrey;' src='img/tf1_45_M_ss2.jpeg'></img>","2","","exp","","3","<img src='img/tf1_45_T1_ss2_md.jpeg'></img>","0","false",""
"","html-keyboard-response","105","218540","0.0-10.0-0.45","841","""event"",""trial"",""time""
""fullscreenenter"",""0"",""2551""
","
","
","""event"",""trial"",""time""
""fullscreenenter"",""0"",""2551""
","
","null","<div style=""font-size:60px;"">+</div>","","null","fixation","2021-07-14 22:35:06.662","","","","",""
"","mars-trial","106","221112","0.0-10.0-1.45","841","""event"",""trial"",""time""
""fullscreenenter"",""0"",""2551""
","
","
","""event"",""trial"",""time""
""fullscreenenter"",""0"",""2551""
","
","1966","<img style='border: 4px solid darkgrey;' src='img/tf1_46_M_ss3.jpeg'></img>","1","","exp","","2","<img src='img/tf1_46_T1_ss3_md.jpeg'></img>","0","false",""
"","html-keyboard-response","107","221614","0.0-10.0-0.46","841","""event"",""trial"",""time""
""fullscreenenter"",""0"",""2551""
","
","
","""event"",""trial"",""time""
""fullscreenenter"",""0"",""2551""
","
","null","<div style=""font-size:60px;"">+</div>","","null","fixation","2021-07-14 22:35:09.736","","","","",""
"","mars-trial","108","223257","0.0-10.0-1.46","841","""event"",""trial"",""time""
""fullscreenenter"",""0"",""2551""
","
","
","""event"",""trial"",""time""
""fullscreenenter"",""0"",""2551""
","
","1037.2000000029802","<img style='border: 4px solid darkgrey;' src='img/tf1_47_M_ss1.jpeg'></img>","2","","exp","","1","<img src='img/tf1_47_T1_ss1_md.jpeg'></img>","0","false",""
"","html-keyboard-response","109","223759","0.0-10.0-0.47","841","""event"",""trial"",""time""
""fullscreenenter"",""0"",""2551""
","
","
","""event"",""trial"",""time""
""fullscreenenter"",""0"",""2551""
","
","null","<div style=""font-size:60px;"">+</div>","","null","fixation","2021-07-14 22:35:11.881","","","","",""
"","mars-trial","110","225663","0.0-10.0-1.47","841","""event"",""trial"",""time""
""fullscreenenter"",""0"",""2551""
","
","
","""event"",""trial"",""time""
""fullscreenenter"",""0"",""2551""
","
","1298.7000000029802","<img style='border: 4px solid darkgrey;' src='img/tf1_48_M_ss2.jpeg'></img>","0","","exp","","3","<img src='img/tf1_48_T1_ss2_md.jpeg'></img>","0","false",""
"","html-keyboard-response","111","226164","0.0-10.0-0.48","841","""event"",""trial"",""time""
""fullscreenenter"",""0"",""2551""
","
","
","""event"",""trial"",""time""
""fullscreenenter"",""0"",""2551""
","
","null","<div style=""font-size:60px;"">+</div>","","null","fixation","2021-07-14 22:35:14.286","","","","",""
"","mars-trial","112","228227","0.0-10.0-1.48","841","""event"",""trial"",""time""
""fullscreenenter"",""0"",""2551""
","
","
","""event"",""trial"",""time""
""fullscreenenter"",""0"",""2551""
","
","1457.5999999940395","<img style='border: 4px solid darkgrey;' src='img/tf1_49_M_ss3.jpeg'></img>","1","","exp","","2","<img src='img/tf1_49_T1_ss3_md.jpeg'></img>","0","false",""
"","html-keyboard-response","113","228729","0.0-10.0-0.49","841","""event"",""trial"",""time""
""fullscreenenter"",""0"",""2551""
","
","
","""event"",""trial"",""time""
""fullscreenenter"",""0"",""2551""
","
","null","<div style=""font-size:60px;"">+</div>","","null","fixation","2021-07-14 22:35:16.851","","","","",""
"","mars-trial","114","231451","0.0-10.0-1.49","841","""event"",""trial"",""time""
""fullscreenenter"",""0"",""2551""
","
","
","""event"",""trial"",""time""
""fullscreenenter"",""0"",""2551""
","
","2116.7000000029802","<img style='border: 4px solid darkgrey;' src='img/tf1_50_M_ss1.jpeg'></img>","1","","exp","","0","<img src='img/tf1_50_T1_ss1_md.jpeg'></img>","0","true",""
"","html-keyboard-response","115","231953","0.0-10.0-0.50","841","""event"",""trial"",""time""
""fullscreenenter"",""0"",""2551""
","
","
","""event"",""trial"",""time""
""fullscreenenter"",""0"",""2551""
","
","null","<div style=""font-size:60px;"">+</div>","","null","fixation","2021-07-14 22:35:20.076","","","","",""
"","mars-trial","116","234161","0.0-10.0-1.50","841","""event"",""trial"",""time""
""fullscreenenter"",""0"",""2551""
","
","
","""event"",""trial"",""time""
""fullscreenenter"",""0"",""2551""
","
","1598.7000000029802","<img style='border: 4px solid darkgrey;' src='img/tf1_51_M_ss2.jpeg'></img>","2","","exp","","0","<img src='img/tf1_51_T1_ss2_md.jpeg'></img>","0","true",""
"","html-keyboard-response","117","234663","0.0-10.0-0.51","841","""event"",""trial"",""time""
""fullscreenenter"",""0"",""2551""
","
","
","""event"",""trial"",""time""
""fullscreenenter"",""0"",""2551""
","
","null","<div style=""font-size:60px;"">+</div>","","null","fixation","2021-07-14 22:35:22.785","","","","",""
"","mars-trial","118","237152","0.0-10.0-1.51","841","""event"",""trial"",""time""
""fullscreenenter"",""0"",""2551""
","
","
","""event"",""trial"",""time""
""fullscreenenter"",""0"",""2551""
","
","1884","<img style='border: 4px solid darkgrey;' src='img/tf1_52_M_ss3.jpeg'></img>","1","","exp","","2","<img src='img/tf1_52_T1_ss3_md.jpeg'></img>","0","false",""
"","html-keyboard-response","119","237654","0.0-10.0-0.52","841","""event"",""trial"",""time""
""fullscreenenter"",""0"",""2551""
","
","
","""event"",""trial"",""time""
""fullscreenenter"",""0"",""2551""
","
","null","<div style=""font-size:60px;"">+</div>","","null","fixation","2021-07-14 22:35:25.776","","","","",""
"","mars-trial","120","239695","0.0-10.0-1.52","841","""event"",""trial"",""time""
""fullscreenenter"",""0"",""2551""
","
","
","""event"",""trial"",""time""
""fullscreenenter"",""0"",""2551""
","
","1434.1000000089407","<img style='border: 4px solid darkgrey;' src='img/tf1_53_M_ss1.jpeg'></img>","2","","exp","","1","<img src='img/tf1_53_T1_ss1_md.jpeg'></img>","0","false",""
"","html-keyboard-response","121","240198","0.0-10.0-0.53","841","""event"",""trial"",""time""
""fullscreenenter"",""0"",""2551""
","
","
","""event"",""trial"",""time""
""fullscreenenter"",""0"",""2551""
","
","null","<div style=""font-size:60px;"">+</div>","","null","fixation","2021-07-14 22:35:28.320","","","","",""
"","mars-trial","122","242362","0.0-10.0-1.53","841","""event"",""trial"",""time""
""fullscreenenter"",""0"",""2551""
","
","
","""event"",""trial"",""time""
""fullscreenenter"",""0"",""2551""
","
","1558.3999999910593","<img style='border: 4px solid darkgrey;' src='img/tf1_54_M_ss2.jpeg'></img>","1","","exp","","0","<img src='img/tf1_54_T1_ss2_md.jpeg'></img>","0","true",""
"","html-keyboard-response","123","242864","0.0-10.0-0.54","841","""event"",""trial"",""time""
""fullscreenenter"",""0"",""2551""
","
","
","""event"",""trial"",""time""
""fullscreenenter"",""0"",""2551""
","
","null","<div style=""font-size:60px;"">+</div>","","null","fixation","2021-07-14 22:35:30.986","","","","",""
"","mars-trial","124","246451","0.0-10.0-1.54","841","""event"",""trial"",""time""
""fullscreenenter"",""0"",""2551""
","
","
","""event"",""trial"",""time""
""fullscreenenter"",""0"",""2551""
","
","2981.1000000089407","<img style='border: 4px solid darkgrey;' src='img/tf1_55_M_ss3.jpeg'></img>","1","","exp","","2","<img src='img/tf1_55_T1_ss3_md.jpeg'></img>","0","false",""
"","html-keyboard-response","125","246953","0.0-10.0-0.55","841","""event"",""trial"",""time""
""fullscreenenter"",""0"",""2551""
","
","
","""event"",""trial"",""time""
""fullscreenenter"",""0"",""2551""
","
","null","<div style=""font-size:60px;"">+</div>","","null","fixation","2021-07-14 22:35:35.075","","","","",""
"","mars-trial","126","248940","0.0-10.0-1.55","841","""event"",""trial"",""time""
""fullscreenenter"",""0"",""2551""
","
","
","""event"",""trial"",""time""
""fullscreenenter"",""0"",""2551""
","
","1380.4000000059605","<img style='border: 4px solid darkgrey;' src='img/tf1_56_M_ss1.jpeg'></img>","2","","exp","","2","<img src='img/tf1_56_T1_ss1_md.jpeg'></img>","0","false",""
"","html-keyboard-response","127","249442","0.0-10.0-0.56","841","""event"",""trial"",""time""
""fullscreenenter"",""0"",""2551""
","
","
","""event"",""trial"",""time""
""fullscreenenter"",""0"",""2551""
","
","null","<div style=""font-size:60px;"">+</div>","","null","fixation","2021-07-14 22:35:37.564","","","","",""
"","mars-trial","128","254561","0.0-10.0-1.56","841","""event"",""trial"",""time""
""fullscreenenter"",""0"",""2551""
","
","
","""event"",""trial"",""time""
""fullscreenenter"",""0"",""2551""
","
","4511.5","<img style='border: 4px solid darkgrey;' src='img/tf1_57_M_ss2.jpeg'></img>","3","","exp","","0","<img src='img/tf1_57_T1_ss2_md.jpeg'></img>","0","true",""
"","html-keyboard-response","129","255063","0.0-10.0-0.57","841","""event"",""trial"",""time""
""fullscreenenter"",""0"",""2551""
","
","
","""event"",""trial"",""time""
""fullscreenenter"",""0"",""2551""
","
","null","<div style=""font-size:60px;"">+</div>","","null","fixation","2021-07-14 22:35:43.185","","","","",""
"","mars-trial","130","261584","0.0-10.0-1.57","841","""event"",""trial"",""time""
""fullscreenenter"",""0"",""2551""
","
","
","""event"",""trial"",""time""
""fullscreenenter"",""0"",""2551""
","
","5915.20000000298","<img style='border: 4px solid darkgrey;' src='img/tf1_58_M_ss3.jpeg'></img>","2","","exp","","0","<img src='img/tf1_58_T1_ss3_md.jpeg'></img>","0","true",""
"","html-keyboard-response","131","262087","0.0-10.0-0.58","841","""event"",""trial"",""time""
""fullscreenenter"",""0"",""2551""
","
","
","""event"",""trial"",""time""
""fullscreenenter"",""0"",""2551""
","
","null","<div style=""font-size:60px;"">+</div>","","null","fixation","2021-07-14 22:35:50.209","","","","",""
"","mars-trial","132","265172","0.0-10.0-1.58","841","""event"",""trial"",""time""
""fullscreenenter"",""0"",""2551""
","
","
","""event"",""trial"",""time""
""fullscreenenter"",""0"",""2551""
","
","2478.0999999940395","<img style='border: 4px solid darkgrey;' src='img/tf1_59_M_ss1.jpeg'></img>","2","","exp","","3","<img src='img/tf1_59_T1_ss1_md.jpeg'></img>","0","false",""
"","html-keyboard-response","133","265673","0.0-10.0-0.59","841","""event"",""trial"",""time""
""fullscreenenter"",""0"",""2551""
","
","
","""event"",""trial"",""time""
""fullscreenenter"",""0"",""2551""
","
","null","<div style=""font-size:60px;"">+</div>","","null","fixation","2021-07-14 22:35:53.795","","","","",""
"","mars-trial","134","268504","0.0-10.0-1.59","841","""event"",""trial"",""time""
""fullscreenenter"",""0"",""2551""
","
","
","""event"",""trial"",""time""
""fullscreenenter"",""0"",""2551""
","
","2224.7000000029802","<img style='border: 4px solid darkgrey;' src='img/tf1_60_M_ss2.jpeg'></img>","2","","exp","","0","<img src='img/tf1_60_T1_ss2_md.jpeg'></img>","0","true",""
"","html-keyboard-response","135","269006","0.0-10.0-0.60","841","""event"",""trial"",""time""
""fullscreenenter"",""0"",""2551""
","
","
","""event"",""trial"",""time""
""fullscreenenter"",""0"",""2551""
","
","null","<div style=""font-size:60px;"">+</div>","","null","fixation","2021-07-14 22:35:57.128","","","","",""
"","mars-trial","136","272077","0.0-10.0-1.60","841","""event"",""trial"",""time""
""fullscreenenter"",""0"",""2551""
","
","
","""event"",""trial"",""time""
""fullscreenenter"",""0"",""2551""
","
","2465.7999999970198","<img style='border: 4px solid darkgrey;' src='img/tf1_61_M_ss3.jpeg'></img>","2","","exp","","3","<img src='img/tf1_61_T1_ss3_md.jpeg'></img>","0","false",""
"","html-keyboard-response","137","272580","0.0-10.0-0.61","841","""event"",""trial"",""time""
""fullscreenenter"",""0"",""2551""
","
","
","""event"",""trial"",""time""
""fullscreenenter"",""0"",""2551""
","
","null","<div style=""font-size:60px;"">+</div>","","null","fixation","2021-07-14 22:36:00.702","","","","",""
"","mars-trial","138","275315","0.0-10.0-1.61","841","""event"",""trial"",""time""
""fullscreenenter"",""0"",""2551""
","
","
","""event"",""trial"",""time""
""fullscreenenter"",""0"",""2551""
","
","2128.8999999910593","<img style='border: 4px solid darkgrey;' src='img/tf1_62_M_ss1.jpeg'></img>","1","","exp","","3","<img src='img/tf1_62_T1_ss1_md.jpeg'></img>","0","false",""
"","html-keyboard-response","139","275817","0.0-10.0-0.62","841","""event"",""trial"",""time""
""fullscreenenter"",""0"",""2551""
","
","
","""event"",""trial"",""time""
""fullscreenenter"",""0"",""2551""
","
","null","<div style=""font-size:60px;"">+</div>","","null","fixation","2021-07-14 22:36:03.939","","","","",""
"","mars-trial","140","281395","0.0-10.0-1.62","841","""event"",""trial"",""time""
""fullscreenenter"",""0"",""2551""
","
","
","""event"",""trial"",""time""
""fullscreenenter"",""0"",""2551""
","
","4972.4000000059605","<img style='border: 4px solid darkgrey;' src='img/tf1_63_M_ss2.jpeg'></img>","2","","exp","","0","<img src='img/tf1_63_T1_ss2_md.jpeg'></img>","0","true",""
"","html-keyboard-response","141","281897","0.0-10.0-0.63","841","""event"",""trial"",""time""
""fullscreenenter"",""0"",""2551""
","
","
","""event"",""trial"",""time""
""fullscreenenter"",""0"",""2551""
","
","null","<div style=""font-size:60px;"">+</div>","","null","fixation","2021-07-14 22:36:10.019","","","","",""
"","mars-trial","142","285323","0.0-10.0-1.63","841","""event"",""trial"",""time""
""fullscreenenter"",""0"",""2551""
","
","
","""event"",""trial"",""time""
""fullscreenenter"",""0"",""2551""
","
","2819.6000000089407","<img style='border: 4px solid darkgrey;' src='img/tf1_64_M_ss3.jpeg'></img>","3","","exp","","2","<img src='img/tf1_64_T1_ss3_md.jpeg'></img>","0","false",""
"","html-keyboard-response","143","285825","0.0-10.0-0.64","841","""event"",""trial"",""time""
""fullscreenenter"",""0"",""2551""
","
","
","""event"",""trial"",""time""
""fullscreenenter"",""0"",""2551""
","
","null","<div style=""font-size:60px;"">+</div>","","null","fixation","2021-07-14 22:36:13.947","","","","",""
"","mars-trial","144","287455","0.0-10.0-1.64","841","""event"",""trial"",""time""
""fullscreenenter"",""0"",""2551""
","
","
","""event"",""trial"",""time""
""fullscreenenter"",""0"",""2551""
","
","1023.2999999970198","<img style='border: 4px solid darkgrey;' src='img/tf1_65_M_ss1.jpeg'></img>","1","","exp","","1","<img src='img/tf1_65_T1_ss1_md.jpeg'></img>","0","false",""
"","html-keyboard-response","145","287956","0.0-10.0-0.65","841","""event"",""trial"",""time""
""fullscreenenter"",""0"",""2551""
","
","
","""event"",""trial"",""time""
""fullscreenenter"",""0"",""2551""
","
","null","<div style=""font-size:60px;"">+</div>","","null","fixation","2021-07-14 22:36:16.078","","","","",""
"","mars-trial","146","290206","0.0-10.0-1.65","841","""event"",""trial"",""time""
""fullscreenenter"",""0"",""2551""
","
","
","""event"",""trial"",""time""
""fullscreenenter"",""0"",""2551""
","
","1644","<img style='border: 4px solid darkgrey;' src='img/tf1_66_M_ss2.jpeg'></img>","2","","exp","","1","<img src='img/tf1_66_T1_ss2_md.jpeg'></img>","0","false",""
"","html-keyboard-response","147","290708","0.0-10.0-0.66","841","""event"",""trial"",""time""
""fullscreenenter"",""0"",""2551""
","
","
","""event"",""trial"",""time""
""fullscreenenter"",""0"",""2551""
","
","null","<div style=""font-size:60px;"">+</div>","","null","fixation","2021-07-14 22:36:18.830","","","","",""
"","mars-trial","148","294604","0.0-10.0-1.66","841","""event"",""trial"",""time""
""fullscreenenter"",""0"",""2551""
","
","
","""event"",""trial"",""time""
""fullscreenenter"",""0"",""2551""
","
","3291.2999999970198","<img style='border: 4px solid darkgrey;' src='img/tf1_67_M_ss3.jpeg'></img>","0","","exp","","0","<img src='img/tf1_67_T1_ss3_md.jpeg'></img>","0","true",""
"","html-keyboard-response","149","295106","0.0-10.0-0.67","841","""event"",""trial"",""time""
""fullscreenenter"",""0"",""2551""
","
","
","""event"",""trial"",""time""
""fullscreenenter"",""0"",""2551""
","
","null","<div style=""font-size:60px;"">+</div>","","null","fixation","2021-07-14 22:36:23.228","","","","",""
"","mars-trial","150","298768","0.0-10.0-1.67","841","""event"",""trial"",""time""
""fullscreenenter"",""0"",""2551""
","
","
","""event"",""trial"",""time""
""fullscreenenter"",""0"",""2551""
","
","3054.9000000059605","<img style='border: 4px solid darkgrey;' src='img/tf1_68_M_ss1.jpeg'></img>","3","","exp","","0","<img src='img/tf1_68_T1_ss1_md.jpeg'></img>","0","true",""
"","html-keyboard-response","151","299270","0.0-10.0-0.68","841","""event"",""trial"",""time""
""fullscreenenter"",""0"",""2551""
","
","
","""event"",""trial"",""time""
""fullscreenenter"",""0"",""2551""
","
","null","<div style=""font-size:60px;"">+</div>","","null","fixation","2021-07-14 22:36:27.392","","","","",""
"","mars-trial","152","302843","0.0-10.0-1.68","841","""event"",""trial"",""time""
""fullscreenenter"",""0"",""2551""
","
","
","""event"",""trial"",""time""
""fullscreenenter"",""0"",""2551""
","
","2967.2000000029802","<img style='border: 4px solid darkgrey;' src='img/tf1_69_M_ss2.jpeg'></img>","1","","exp","","2","<img src='img/tf1_69_T1_ss2_md.jpeg'></img>","0","false",""
"","html-keyboard-response","153","303346","0.0-10.0-0.69","841","""event"",""trial"",""time""
""fullscreenenter"",""0"",""2551""
","
","
","""event"",""trial"",""time""
""fullscreenenter"",""0"",""2551""
","
","null","<div style=""font-size:60px;"">+</div>","","null","fixation","2021-07-14 22:36:31.468","","","","",""
"","mars-trial","154","306127","0.0-10.0-1.69","841","""event"",""trial"",""time""
""fullscreenenter"",""0"",""2551""
","
","
","""event"",""trial"",""time""
""fullscreenenter"",""0"",""2551""
","
","2173","<img style='border: 4px solid darkgrey;' src='img/tf1_70_M_ss3.jpeg'></img>","2","","exp","","0","<img src='img/tf1_70_T1_ss3_md.jpeg'></img>","0","true",""
"","html-keyboard-response","155","306630","0.0-10.0-0.70","841","""event"",""trial"",""time""
""fullscreenenter"",""0"",""2551""
","
","
","""event"",""trial"",""time""
""fullscreenenter"",""0"",""2551""
","
","null","<div style=""font-size:60px;"">+</div>","","null","fixation","2021-07-14 22:36:34.752","","","","",""
"","mars-trial","156","309012","0.0-10.0-1.70","841","""event"",""trial"",""time""
""fullscreenenter"",""0"",""2551""
","
","
","""event"",""trial"",""time""
""fullscreenenter"",""0"",""2551""
","
","1774.4000000059605","<img style='border: 4px solid darkgrey;' src='img/tf1_71_M_ss1.jpeg'></img>","0","","exp","","1","<img src='img/tf1_71_T1_ss1_md.jpeg'></img>","0","false",""
"","html-keyboard-response","157","309513","0.0-10.0-0.71","841","""event"",""trial"",""time""
""fullscreenenter"",""0"",""2551""
","
","
","""event"",""trial"",""time""
""fullscreenenter"",""0"",""2551""
","
","null","<div style=""font-size:60px;"">+</div>","","null","fixation","2021-07-14 22:36:37.635","","","","",""
"","mars-trial","158","311465","0.0-10.0-1.71","841","""event"",""trial"",""time""
""fullscreenenter"",""0"",""2551""
","
","
","""event"",""trial"",""time""
""fullscreenenter"",""0"",""2551""
","
","1346.3999999910593","<img style='border: 4px solid darkgrey;' src='img/tf1_72_M_ss2.jpeg'></img>","2","","exp","","3","<img src='img/tf1_72_T1_ss2_md.jpeg'></img>","0","false",""
"","html-keyboard-response","159","311967","0.0-10.0-0.72","841","""event"",""trial"",""time""
""fullscreenenter"",""0"",""2551""
","
","
","""event"",""trial"",""time""
""fullscreenenter"",""0"",""2551""
","
","null","<div style=""font-size:60px;"">+</div>","","null","fixation","2021-07-14 22:36:40.089","","","","",""
"","mars-trial","160","313468","0.0-10.0-1.72","841","""event"",""trial"",""time""
""fullscreenenter"",""0"",""2551""
","
","
","""event"",""trial"",""time""
""fullscreenenter"",""0"",""2551""
","
","894.6999999880791","<img style='border: 4px solid darkgrey;' src='img/tf1_73_M_ss3.jpeg'></img>","1","","exp","","2","<img src='img/tf1_73_T1_ss3_md.jpeg'></img>","0","false",""
"","html-keyboard-response","161","313973","0.0-10.0-0.73","841","""event"",""trial"",""time""
""fullscreenenter"",""0"",""2551""
","
","
","""event"",""trial"",""time""
""fullscreenenter"",""0"",""2551""
","
","null","<div style=""font-size:60px;"">+</div>","","null","fixation","2021-07-14 22:36:42.095","","","","",""
"","mars-trial","162","315558","0.0-10.0-1.73","841","""event"",""trial"",""time""
""fullscreenenter"",""0"",""2551""
","
","
","""event"",""trial"",""time""
""fullscreenenter"",""0"",""2551""
","
","978.7000000029802","<img style='border: 4px solid darkgrey;' src='img/tf1_74_M_ss1.jpeg'></img>","3","","exp","","2","<img src='img/tf1_74_T1_ss1_md.jpeg'></img>","0","false",""
"","html-keyboard-response","163","316062","0.0-10.0-0.74","841","""event"",""trial"",""time""
""fullscreenenter"",""0"",""2551""
","
","
","""event"",""trial"",""time""
""fullscreenenter"",""0"",""2551""
","
","null","<div style=""font-size:60px;"">+</div>","","null","fixation","2021-07-14 22:36:44.184","","","","",""
"","mars-trial","164","317709","0.0-10.0-1.74","841","""event"",""trial"",""time""
""fullscreenenter"",""0"",""2551""
","
","
","""event"",""trial"",""time""
""fullscreenenter"",""0"",""2551""
","
","1041.4000000059605","<img style='border: 4px solid darkgrey;' src='img/tf1_75_M_ss2.jpeg'></img>","1","","exp","","1","<img src='img/tf1_75_T1_ss2_md.jpeg'></img>","0","false",""
"","html-keyboard-response","165","318210","0.0-10.0-0.75","841","""event"",""trial"",""time""
""fullscreenenter"",""0"",""2551""
","
","
","""event"",""trial"",""time""
""fullscreenenter"",""0"",""2551""
","
","null","<div style=""font-size:60px;"">+</div>","","null","fixation","2021-07-14 22:36:46.332","","","","",""
"","mars-trial","166","319829","0.0-10.0-1.75","841","""event"",""trial"",""time""
""fullscreenenter"",""0"",""2551""
","
","
","""event"",""trial"",""time""
""fullscreenenter"",""0"",""2551""
","
","1013.4000000059605","<img style='border: 4px solid darkgrey;' src='img/tf1_76_M_ss3.jpeg'></img>","1","","exp","","2","<img src='img/tf1_76_T1_ss3_md.jpeg'></img>","0","false",""
"","html-keyboard-response","167","320332","0.0-10.0-0.76","841","""event"",""trial"",""time""
""fullscreenenter"",""0"",""2551""
","
","
","""event"",""trial"",""time""
""fullscreenenter"",""0"",""2551""
","
","null","<div style=""font-size:60px;"">+</div>","","null","fixation","2021-07-14 22:36:48.454","","","","",""
"","mars-trial","168","322177","0.0-10.0-1.76","841","""event"",""trial"",""time""
""fullscreenenter"",""0"",""2551""
","
","
","""event"",""trial"",""time""
""fullscreenenter"",""0"",""2551""
","
","1239.7000000029802","<img style='border: 4px solid darkgrey;' src='img/tf1_77_M_ss1.jpeg'></img>","2","","exp","","0","<img src='img/tf1_77_T1_ss1_md.jpeg'></img>","0","true",""
"","html-keyboard-response","169","322680","0.0-10.0-0.77","841","""event"",""trial"",""time""
""fullscreenenter"",""0"",""2551""
","
","
","""event"",""trial"",""time""
""fullscreenenter"",""0"",""2551""
","
","null","<div style=""font-size:60px;"">+</div>","","null","fixation","2021-07-14 22:36:50.802","","","","",""
"","mars-trial","170","325674","0.0-10.0-1.77","841","""event"",""trial"",""time""
""fullscreenenter"",""0"",""2551""
","
","
","""event"",""trial"",""time""
""fullscreenenter"",""0"",""2551""
","
","2388.7999999970198","<img style='border: 4px solid darkgrey;' src='img/tf1_78_M_ss2.jpeg'></img>","2","","exp","","3","<img src='img/tf1_78_T1_ss2_md.jpeg'></img>","0","false",""
"","html-keyboard-response","171","326176","0.0-10.0-0.78","841","""event"",""trial"",""time""
""fullscreenenter"",""0"",""2551""
","
","
","""event"",""trial"",""time""
""fullscreenenter"",""0"",""2551""
","
","null","<div style=""font-size:60px;"">+</div>","","null","fixation","2021-07-14 22:36:54.298","","","","",""
"","mars-trial","172","328455","0.0-10.0-1.78","841","""event"",""trial"",""time""
""fullscreenenter"",""0"",""2551""
","
","
","""event"",""trial"",""time""
""fullscreenenter"",""0"",""2551""
","
","1672.2999999970198","<img style='border: 4px solid darkgrey;' src='img/tf1_79_M_ss3.jpeg'></img>","1","","exp","","3","<img src='img/tf1_79_T1_ss3_md.jpeg'></img>","0","false",""
"","html-keyboard-response","173","328957","0.0-10.0-0.79","841","""event"",""trial"",""time""
""fullscreenenter"",""0"",""2551""
","
","
","""event"",""trial"",""time""
""fullscreenenter"",""0"",""2551""
","
","null","<div style=""font-size:60px;"">+</div>","","null","fixation","2021-07-14 22:36:57.080","","","","",""
"","mars-trial","174","331011","0.0-10.0-1.79","841","""event"",""trial"",""time""
""fullscreenenter"",""0"",""2551""
","
","
","""event"",""trial"",""time""
""fullscreenenter"",""0"",""2551""
","
","1447.4000000059605","<img style='border: 4px solid darkgrey;' src='img/tf1_80_M_ss1.jpeg'></img>","2","","exp","","0","<img src='img/tf1_80_T1_ss1_md.jpeg'></img>","0","true",""
"","audio-button-response","175","335874","0.0-11.0","841","""event"",""trial"",""time""
""fullscreenenter"",""0"",""2551""
","
","
","""event"",""trial"",""time""
""fullscreenenter"",""0"",""2551""
","
","4860.600000008941","audio/mars_instructions_slide5.wav","0","","","","","","","",""
