"success","trial_type","trial_index","time_elapsed","internal_node_id","subject_id","interactions","blur_events","focus_events","fullscreenenter_events","fullscreenexit_events","rt","stimulus","button_pressed","key_press","part","timestamp","unshuffled_button","correct_response","correct_button","correct","value"
"true","fullscreen","0","3402","0.0-0.0","795","""event"",""trial"",""time""
""fullscreenenter"",""0"",""2422""
","
","
","""event"",""trial"",""time""
""fullscreenenter"",""0"",""2422""
","
","","","","","","","","","","",""
"","pavlovia","1","3406","0.0-1.0","795","""event"",""trial"",""time""
""fullscreenenter"",""0"",""2422""
","
","
","""event"",""trial"",""time""
""fullscreenenter"",""0"",""2422""
","
","","","","","","","","","","",""
"","html-button-response","2","5023","0.0-2.0","795","""event"",""trial"",""time""
""fullscreenenter"",""0"",""2422""
","
","
","""event"",""trial"",""time""
""fullscreenenter"",""0"",""2422""
","
","1615.9999999999854","<p>Welcome! Press START to begin.</p><br>","0","","","","","","","",""
"","audio-button-response","3","21195","0.0-3.0","795","""event"",""trial"",""time""
""fullscreenenter"",""0"",""2422""
","
","
","""event"",""trial"",""time""
""fullscreenenter"",""0"",""2422""
","
","16170.3","audio/mars_instructions_slide2.wav","0","","","","","","","",""
"","audio-button-response","4","22938","0.0-4.0","795","""event"",""trial"",""time""
""fullscreenenter"",""0"",""2422""
","
","
","""event"",""trial"",""time""
""fullscreenenter"",""0"",""2422""
","
","1741.8699999998353","audio/mars_instructions_slide3.wav","0","","","","","","","",""
"","html-keyboard-response","5","23442","0.0-5.0-0.0","795","""event"",""trial"",""time""
""fullscreenenter"",""0"",""2422""
","
","
","""event"",""trial"",""time""
""fullscreenenter"",""0"",""2422""
","
","null","<div style=""font-size:60px;"">+</div>","","null","fixation","2021-04-03 20:02:34.525","","","","",""
"","mars-trial","6","53551","0.0-5.0-1.0","795","""event"",""trial"",""time""
""fullscreenenter"",""0"",""2422""
","
","
","""event"",""trial"",""time""
""fullscreenenter"",""0"",""2422""
","
","null","<img style='border: 4px solid darkgrey;' src='practice/pt1_M1.png'></img>","null","","practice","","null","<img src='practice/pt1_T1.png'></img>","0","false",""
"","html-keyboard-response","7","54054","0.0-5.1-0.1","795","""event"",""trial"",""time""
""fullscreenenter"",""0"",""2422""
","
","
","""event"",""trial"",""time""
""fullscreenenter"",""0"",""2422""
","
","null","<div style=""font-size:60px;"">+</div>","","null","fixation","2021-04-03 20:03:05.137","","","","",""
"","mars-trial","8","67307","0.0-5.1-1.1","795","""event"",""trial"",""time""
""fullscreenenter"",""0"",""2422""
","
","
","""event"",""trial"",""time""
""fullscreenenter"",""0"",""2422""
","
","11146.344999999885","<img style='border: 4px solid darkgrey;' src='practice/pt1_M1.png'></img>","1","","practice","","1","<img src='practice/pt1_T1.png'></img>","0","false",""
"","html-keyboard-response","9","67811","0.0-5.2-0.2","795","""event"",""trial"",""time""
""fullscreenenter"",""0"",""2422""
","
","
","""event"",""trial"",""time""
""fullscreenenter"",""0"",""2422""
","
","null","<div style=""font-size:60px;"">+</div>","","null","fixation","2021-04-03 20:03:18.894","","","","",""
"","mars-trial","10","98602","0.0-5.2-1.2","795","""event"",""trial"",""time""
""fullscreenenter"",""0"",""2422""
","
","
","""event"",""trial"",""time""
""fullscreenenter"",""0"",""2422""
","
","28685.844999999972","<img style='border: 4px solid darkgrey;' src='practice/pt1_M1.png'></img>","3","","practice","","0","<img src='practice/pt1_T1.png'></img>","0","true",""
"","html-keyboard-response","11","99108","0.0-6.0-0.0","795","""event"",""trial"",""time""
""fullscreenenter"",""0"",""2422""
","
","
","""event"",""trial"",""time""
""fullscreenenter"",""0"",""2422""
","
","null","<div style=""font-size:60px;"">+</div>","","null","fixation","2021-04-03 20:03:50.191","","","","",""
"","mars-trial","12","106336","0.0-6.0-1.0","795","""event"",""trial"",""time""
""fullscreenenter"",""0"",""2422""
","
","
","""event"",""trial"",""time""
""fullscreenenter"",""0"",""2422""
","
","5123.855000000054","<img style='border: 4px solid darkgrey;' src='practice/pt2_M1.png'></img>","0","","practice","","0","<img src='practice/pt2_T1.png'></img>","0","true",""
"","html-keyboard-response","13","106841","0.0-7.0-0.0","795","""event"",""trial"",""time""
""fullscreenenter"",""0"",""2422""
","
","
","""event"",""trial"",""time""
""fullscreenenter"",""0"",""2422""
","
","null","<div style=""font-size:60px;"">+</div>","","null","fixation","2021-04-03 20:03:57.924","","","","",""
"","mars-trial","14","111225","0.0-7.0-1.0","795","""event"",""trial"",""time""
""fullscreenenter"",""0"",""2422""
","
","
","""event"",""trial"",""time""
""fullscreenenter"",""0"",""2422""
","
","2277.410000000149","<img style='border: 4px solid darkgrey;' src='practice/pt3_M1.png'></img>","1","","practice","","0","<img src='practice/pt3_T1.png'></img>","0","true",""
"","audio-button-response","15","114027","0.0-8.0","795","""event"",""trial"",""time""
""fullscreenenter"",""0"",""2422""
","
","
","""event"",""trial"",""time""
""fullscreenenter"",""0"",""2422""
","
","2800.960000000021","audio/mars_instructions_slide4.wav","0","","","","","","","",""
"","call-function","16","114028","0.0-9.0","795","""event"",""trial"",""time""
""fullscreenenter"",""0"",""2422""
","
","
","""event"",""trial"",""time""
""fullscreenenter"",""0"",""2422""
","
","","","","","","","","","","",""
"","html-keyboard-response","17","114532","0.0-10.0-0.0","795","""event"",""trial"",""time""
""fullscreenenter"",""0"",""2422""
","
","
","""event"",""trial"",""time""
""fullscreenenter"",""0"",""2422""
","
","null","<div style=""font-size:60px;"">+</div>","","null","fixation","2021-04-03 20:04:05.615","","","","",""
"","mars-trial","18","117342","0.0-10.0-1.0","795","""event"",""trial"",""time""
""fullscreenenter"",""0"",""2422""
","
","
","""event"",""trial"",""time""
""fullscreenenter"",""0"",""2422""
","
","2199.284999999916","<img style='border: 4px solid darkgrey;' src='img/tf1_1_M_ss3.jpeg'></img>","1","","exp","","0","<img src='img/tf1_1_T1_ss3_md.jpeg'></img>","0","true",""
"","html-keyboard-response","19","117847","0.0-10.0-0.1","795","""event"",""trial"",""time""
""fullscreenenter"",""0"",""2422""
","
","
","""event"",""trial"",""time""
""fullscreenenter"",""0"",""2422""
","
","null","<div style=""font-size:60px;"">+</div>","","null","fixation","2021-04-03 20:04:08.930","","","","",""
"","mars-trial","20","121036","0.0-10.0-1.1","795","""event"",""trial"",""time""
""fullscreenenter"",""0"",""2422""
","
","
","""event"",""trial"",""time""
""fullscreenenter"",""0"",""2422""
","
","2580.050000000032","<img style='border: 4px solid darkgrey;' src='img/tf1_2_M_ss1.jpeg'></img>","3","","exp","","0","<img src='img/tf1_2_T1_ss1_md.jpeg'></img>","0","true",""
"","html-keyboard-response","21","121542","0.0-10.0-0.2","795","""event"",""trial"",""time""
""fullscreenenter"",""0"",""2422""
","
","
","""event"",""trial"",""time""
""fullscreenenter"",""0"",""2422""
","
","null","<div style=""font-size:60px;"">+</div>","","null","fixation","2021-04-03 20:04:12.625","","","","",""
"","mars-trial","22","125066","0.0-10.0-1.2","795","""event"",""trial"",""time""
""fullscreenenter"",""0"",""2422""
","
","
","""event"",""trial"",""time""
""fullscreenenter"",""0"",""2422""
","
","2912.3250000000116","<img style='border: 4px solid darkgrey;' src='img/tf1_3_M_ss2.jpeg'></img>","3","","exp","","0","<img src='img/tf1_3_T1_ss2_md.jpeg'></img>","0","true",""
"","html-keyboard-response","23","125572","0.0-10.0-0.3","795","""event"",""trial"",""time""
""fullscreenenter"",""0"",""2422""
","
","
","""event"",""trial"",""time""
""fullscreenenter"",""0"",""2422""
","
","null","<div style=""font-size:60px;"">+</div>","","null","fixation","2021-04-03 20:04:16.655","","","","",""
"","mars-trial","24","129023","0.0-10.0-1.3","795","""event"",""trial"",""time""
""fullscreenenter"",""0"",""2422""
","
","
","""event"",""trial"",""time""
""fullscreenenter"",""0"",""2422""
","
","2837.829999999929","<img style='border: 4px solid darkgrey;' src='img/tf1_4_M_ss3.jpeg'></img>","2","","exp","","0","<img src='img/tf1_4_T1_ss3_md.jpeg'></img>","0","true",""
"","html-keyboard-response","25","129524","0.0-10.0-0.4","795","""event"",""trial"",""time""
""fullscreenenter"",""0"",""2422""
","
","
","""event"",""trial"",""time""
""fullscreenenter"",""0"",""2422""
","
","null","<div style=""font-size:60px;"">+</div>","","null","fixation","2021-04-03 20:04:20.607","","","","",""
"","mars-trial","26","132192","0.0-10.0-1.4","795","""event"",""trial"",""time""
""fullscreenenter"",""0"",""2422""
","
","
","""event"",""trial"",""time""
""fullscreenenter"",""0"",""2422""
","
","2061.179999999935","<img style='border: 4px solid darkgrey;' src='img/tf1_5_M_ss1.jpeg'></img>","1","","exp","","0","<img src='img/tf1_5_T1_ss1_md.jpeg'></img>","0","true",""
"","html-keyboard-response","27","132694","0.0-10.0-0.5","795","""event"",""trial"",""time""
""fullscreenenter"",""0"",""2422""
","
","
","""event"",""trial"",""time""
""fullscreenenter"",""0"",""2422""
","
","null","<div style=""font-size:60px;"">+</div>","","null","fixation","2021-04-03 20:04:23.777","","","","",""
"","mars-trial","28","139396","0.0-10.0-1.5","795","""event"",""trial"",""time""
""fullscreenenter"",""0"",""2422""
","
","
","""event"",""trial"",""time""
""fullscreenenter"",""0"",""2422""
","
","6095.160000000091","<img style='border: 4px solid darkgrey;' src='img/tf1_6_M_ss2.jpeg'></img>","2","","exp","","2","<img src='img/tf1_6_T1_ss2_md.jpeg'></img>","0","false",""
"","html-keyboard-response","29","139902","0.0-10.0-0.6","795","""event"",""trial"",""time""
""fullscreenenter"",""0"",""2422""
","
","
","""event"",""trial"",""time""
""fullscreenenter"",""0"",""2422""
","
","null","<div style=""font-size:60px;"">+</div>","","null","fixation","2021-04-03 20:04:30.985","","","","",""
"","mars-trial","30","147145","0.0-10.0-1.6","795","""event"",""trial"",""time""
""fullscreenenter"",""0"",""2422""
","
","
","""event"",""trial"",""time""
""fullscreenenter"",""0"",""2422""
","
","6635.949999999866","<img style='border: 4px solid darkgrey;' src='img/tf1_7_M_ss3.jpeg'></img>","1","","exp","","0","<img src='img/tf1_7_T1_ss3_md.jpeg'></img>","0","true",""
"","html-keyboard-response","31","147647","0.0-10.0-0.7","795","""event"",""trial"",""time""
""fullscreenenter"",""0"",""2422""
","
","
","""event"",""trial"",""time""
""fullscreenenter"",""0"",""2422""
","
","null","<div style=""font-size:60px;"">+</div>","","null","fixation","2021-04-03 20:04:38.730","","","","",""
"","mars-trial","32","155374","0.0-10.0-1.7","795","""event"",""trial"",""time""
""fullscreenenter"",""0"",""2422""
","
","
","""event"",""trial"",""time""
""fullscreenenter"",""0"",""2422""
","
","7122.19499999992","<img style='border: 4px solid darkgrey;' src='img/tf1_8_M_ss1.jpeg'></img>","3","","exp","","0","<img src='img/tf1_8_T1_ss1_md.jpeg'></img>","0","true",""
"","html-keyboard-response","33","155876","0.0-10.0-0.8","795","""event"",""trial"",""time""
""fullscreenenter"",""0"",""2422""
","
","
","""event"",""trial"",""time""
""fullscreenenter"",""0"",""2422""
","
","null","<div style=""font-size:60px;"">+</div>","","null","fixation","2021-04-03 20:04:46.960","","","","",""
"","mars-trial","34","165861","0.0-10.0-1.8","795","""event"",""trial"",""time""
""fullscreenenter"",""0"",""2422""
","
","
","""event"",""trial"",""time""
""fullscreenenter"",""0"",""2422""
","
","9377.840000000084","<img style='border: 4px solid darkgrey;' src='img/tf1_9_M_ss2.jpeg'></img>","1","","exp","","3","<img src='img/tf1_9_T1_ss2_md.jpeg'></img>","0","false",""
"","html-keyboard-response","35","166362","0.0-10.0-0.9","795","""event"",""trial"",""time""
""fullscreenenter"",""0"",""2422""
","
","
","""event"",""trial"",""time""
""fullscreenenter"",""0"",""2422""
","
","null","<div style=""font-size:60px;"">+</div>","","null","fixation","2021-04-03 20:04:57.445","","","","",""
"","mars-trial","36","175823","0.0-10.0-1.9","795","""event"",""trial"",""time""
""fullscreenenter"",""0"",""2422""
","
","
","""event"",""trial"",""time""
""fullscreenenter"",""0"",""2422""
","
","8853.969999999914","<img style='border: 4px solid darkgrey;' src='img/tf1_10_M_ss3.jpeg'></img>","3","","exp","","1","<img src='img/tf1_10_T1_ss3_md.jpeg'></img>","0","false",""
"","html-keyboard-response","37","176325","0.0-10.0-0.10","795","""event"",""trial"",""time""
""fullscreenenter"",""0"",""2422""
","
","
","""event"",""trial"",""time""
""fullscreenenter"",""0"",""2422""
","
","null","<div style=""font-size:60px;"">+</div>","","null","fixation","2021-04-03 20:05:07.408","","","","",""
"","mars-trial","38","184970","0.0-10.0-1.10","795","""event"",""trial"",""time""
""fullscreenenter"",""0"",""2422""
","
","
","""event"",""trial"",""time""
""fullscreenenter"",""0"",""2422""
","
","8039.004999999859","<img style='border: 4px solid darkgrey;' src='img/tf1_11_M_ss1.jpeg'></img>","3","","exp","","3","<img src='img/tf1_11_T1_ss1_md.jpeg'></img>","0","false",""
"","html-keyboard-response","39","185471","0.0-10.0-0.11","795","""event"",""trial"",""time""
""fullscreenenter"",""0"",""2422""
","
","
","""event"",""trial"",""time""
""fullscreenenter"",""0"",""2422""
","
","null","<div style=""font-size:60px;"">+</div>","","null","fixation","2021-04-03 20:05:16.554","","","","",""
"","mars-trial","40","189767","0.0-10.0-1.11","795","""event"",""trial"",""time""
""fullscreenenter"",""0"",""2422""
","
","
","""event"",""trial"",""time""
""fullscreenenter"",""0"",""2422""
","
","3690.1350000000675","<img style='border: 4px solid darkgrey;' src='img/tf1_12_M_ss2.jpeg'></img>","3","","exp","","2","<img src='img/tf1_12_T1_ss2_md.jpeg'></img>","0","false",""
"","html-keyboard-response","41","190271","0.0-10.0-0.12","795","""event"",""trial"",""time""
""fullscreenenter"",""0"",""2422""
","
","
","""event"",""trial"",""time""
""fullscreenenter"",""0"",""2422""
","
","null","<div style=""font-size:60px;"">+</div>","","null","fixation","2021-04-03 20:05:21.354","","","","",""
"","mars-trial","42","194538","0.0-10.0-1.12","795","""event"",""trial"",""time""
""fullscreenenter"",""0"",""2422""
","
","
","""event"",""trial"",""time""
""fullscreenenter"",""0"",""2422""
","
","3659.8949999999895","<img style='border: 4px solid darkgrey;' src='img/tf1_13_M_ss3.jpeg'></img>","1","","exp","","0","<img src='img/tf1_13_T1_ss3_md.jpeg'></img>","0","true",""
"","html-keyboard-response","43","195039","0.0-10.0-0.13","795","""event"",""trial"",""time""
""fullscreenenter"",""0"",""2422""
","
","
","""event"",""trial"",""time""
""fullscreenenter"",""0"",""2422""
","
","null","<div style=""font-size:60px;"">+</div>","","null","fixation","2021-04-03 20:05:26.122","","","","",""
"","mars-trial","44","205727","0.0-10.0-1.13","795","""event"",""trial"",""time""
""fullscreenenter"",""0"",""2422""
","
","
","""event"",""trial"",""time""
""fullscreenenter"",""0"",""2422""
","
","10077.344999999914","<img style='border: 4px solid darkgrey;' src='img/tf1_14_M_ss1.jpeg'></img>","2","","exp","","0","<img src='img/tf1_14_T1_ss1_md.jpeg'></img>","0","true",""
"","html-keyboard-response","45","206229","0.0-10.0-0.14","795","""event"",""trial"",""time""
""fullscreenenter"",""0"",""2422""
","
","
","""event"",""trial"",""time""
""fullscreenenter"",""0"",""2422""
","
","null","<div style=""font-size:60px;"">+</div>","","null","fixation","2021-04-03 20:05:37.312","","","","",""
"","mars-trial","46","215237","0.0-10.0-1.14","795","""event"",""trial"",""time""
""fullscreenenter"",""0"",""2422""
","
","
","""event"",""trial"",""time""
""fullscreenenter"",""0"",""2422""
","
","8400.939999999973","<img style='border: 4px solid darkgrey;' src='img/tf1_15_M_ss2.jpeg'></img>","3","","exp","","3","<img src='img/tf1_15_T1_ss2_md.jpeg'></img>","0","false",""
"","html-keyboard-response","47","215743","0.0-10.0-0.15","795","""event"",""trial"",""time""
""fullscreenenter"",""0"",""2422""
","
","
","""event"",""trial"",""time""
""fullscreenenter"",""0"",""2422""
","
","null","<div style=""font-size:60px;"">+</div>","","null","fixation","2021-04-03 20:05:46.826","","","","",""
"","mars-trial","48","221018","0.0-10.0-1.15","795","""event"",""trial"",""time""
""fullscreenenter"",""0"",""2422""
","
","
","""event"",""trial"",""time""
""fullscreenenter"",""0"",""2422""
","
","4668.374999999971","<img style='border: 4px solid darkgrey;' src='img/tf1_16_M_ss3.jpeg'></img>","2","","exp","","1","<img src='img/tf1_16_T1_ss3_md.jpeg'></img>","0","false",""
"","html-keyboard-response","49","221519","0.0-10.0-0.16","795","""event"",""trial"",""time""
""fullscreenenter"",""0"",""2422""
","
","
","""event"",""trial"",""time""
""fullscreenenter"",""0"",""2422""
","
","null","<div style=""font-size:60px;"">+</div>","","null","fixation","2021-04-03 20:05:52.602","","","","",""
"","mars-trial","50","227066","0.0-10.0-1.16","795","""event"",""trial"",""time""
""fullscreenenter"",""0"",""2422""
","
","
","""event"",""trial"",""time""
""fullscreenenter"",""0"",""2422""
","
","4938.645000000164","<img style='border: 4px solid darkgrey;' src='img/tf1_17_M_ss1.jpeg'></img>","3","","exp","","2","<img src='img/tf1_17_T1_ss1_md.jpeg'></img>","0","false",""
"","html-keyboard-response","51","227567","0.0-10.0-0.17","795","""event"",""trial"",""time""
""fullscreenenter"",""0"",""2422""
","
","
","""event"",""trial"",""time""
""fullscreenenter"",""0"",""2422""
","
","null","<div style=""font-size:60px;"">+</div>","","null","fixation","2021-04-03 20:05:58.650","","","","",""
"","mars-trial","52","232090","0.0-10.0-1.17","795","""event"",""trial"",""time""
""fullscreenenter"",""0"",""2422""
","
","
","""event"",""trial"",""time""
""fullscreenenter"",""0"",""2422""
","
","3916.8899999999558","<img style='border: 4px solid darkgrey;' src='img/tf1_18_M_ss2.jpeg'></img>","1","","exp","","2","<img src='img/tf1_18_T1_ss2_md.jpeg'></img>","0","false",""
"","html-keyboard-response","53","232591","0.0-10.0-0.18","795","""event"",""trial"",""time""
""fullscreenenter"",""0"",""2422""
","
","
","""event"",""trial"",""time""
""fullscreenenter"",""0"",""2422""
","
","null","<div style=""font-size:60px;"">+</div>","","null","fixation","2021-04-03 20:06:03.675","","","","",""
"","mars-trial","54","238129","0.0-10.0-1.18","795","""event"",""trial"",""time""
""fullscreenenter"",""0"",""2422""
","
","
","""event"",""trial"",""time""
""fullscreenenter"",""0"",""2422""
","
","4930.079999999871","<img style='border: 4px solid darkgrey;' src='img/tf1_19_M_ss3.jpeg'></img>","3","","exp","","2","<img src='img/tf1_19_T1_ss3_md.jpeg'></img>","0","false",""
"","html-keyboard-response","55","238630","0.0-10.0-0.19","795","""event"",""trial"",""time""
""fullscreenenter"",""0"",""2422""
","
","
","""event"",""trial"",""time""
""fullscreenenter"",""0"",""2422""
","
","null","<div style=""font-size:60px;"">+</div>","","null","fixation","2021-04-03 20:06:09.713","","","","",""
"","mars-trial","56","244953","0.0-10.0-1.19","795","""event"",""trial"",""time""
""fullscreenenter"",""0"",""2422""
","
","
","""event"",""trial"",""time""
""fullscreenenter"",""0"",""2422""
","
","5712.27999999997","<img style='border: 4px solid darkgrey;' src='img/tf1_20_M_ss1.jpeg'></img>","2","","exp","","1","<img src='img/tf1_20_T1_ss1_md.jpeg'></img>","0","false",""
"","html-keyboard-response","57","245457","0.0-10.0-0.20","795","""event"",""trial"",""time""
""fullscreenenter"",""0"",""2422""
","
","
","""event"",""trial"",""time""
""fullscreenenter"",""0"",""2422""
","
","null","<div style=""font-size:60px;"">+</div>","","null","fixation","2021-04-03 20:06:16.540","","","","",""
"","mars-trial","58","246705","0.0-10.0-1.20","795","""event"",""trial"",""time""
""fullscreenenter"",""0"",""2422""
","
","
","""event"",""trial"",""time""
""fullscreenenter"",""0"",""2422""
","
","642.5499999998137","<img style='border: 4px solid darkgrey;' src='img/tf1_21_M_ss2.jpeg'></img>","2","","exp","","1","<img src='img/tf1_21_T1_ss2_md.jpeg'></img>","0","false",""
"","html-keyboard-response","59","247207","0.0-10.0-0.21","795","""event"",""trial"",""time""
""fullscreenenter"",""0"",""2422""
","
","
","""event"",""trial"",""time""
""fullscreenenter"",""0"",""2422""
","
","null","<div style=""font-size:60px;"">+</div>","","null","fixation","2021-04-03 20:06:18.290","","","","",""
"","mars-trial","60","247973","0.0-10.0-1.21","795","""event"",""trial"",""time""
""fullscreenenter"",""0"",""2422""
","
","
","""event"",""trial"",""time""
""fullscreenenter"",""0"",""2422""
","
","158.7050000000454","<img style='border: 4px solid darkgrey;' src='img/tf1_22_M_ss3.jpeg'></img>","2","","exp","","2","<img src='img/tf1_22_T1_ss3_md.jpeg'></img>","0","false",""
"","html-keyboard-response","61","248474","0.0-10.0-0.22","795","""event"",""trial"",""time""
""fullscreenenter"",""0"",""2422""
","
","
","""event"",""trial"",""time""
""fullscreenenter"",""0"",""2422""
","
","null","<div style=""font-size:60px;"">+</div>","","null","fixation","2021-04-03 20:06:19.557","","","","",""
"","mars-trial","62","249192","0.0-10.0-1.22","795","""event"",""trial"",""time""
""fullscreenenter"",""0"",""2422""
","
","
","""event"",""trial"",""time""
""fullscreenenter"",""0"",""2422""
","
","111.7050000000454","<img style='border: 4px solid darkgrey;' src='img/tf1_23_M_ss1.jpeg'></img>","2","","exp","","0","<img src='img/tf1_23_T1_ss1_md.jpeg'></img>","0","true",""
"","html-keyboard-response","63","249695","0.0-10.0-0.23","795","""event"",""trial"",""time""
""fullscreenenter"",""0"",""2422""
","
","
","""event"",""trial"",""time""
""fullscreenenter"",""0"",""2422""
","
","null","<div style=""font-size:60px;"">+</div>","","null","fixation","2021-04-03 20:06:20.778","","","","",""
"","mars-trial","64","250490","0.0-10.0-1.23","795","""event"",""trial"",""time""
""fullscreenenter"",""0"",""2422""
","
","
","""event"",""trial"",""time""
""fullscreenenter"",""0"",""2422""
","
","190.48999999996158","<img style='border: 4px solid darkgrey;' src='img/tf1_24_M_ss2.jpeg'></img>","2","","exp","","3","<img src='img/tf1_24_T1_ss2_md.jpeg'></img>","0","false",""
"","html-keyboard-response","65","250991","0.0-10.0-0.24","795","""event"",""trial"",""time""
""fullscreenenter"",""0"",""2422""
","
","
","""event"",""trial"",""time""
""fullscreenenter"",""0"",""2422""
","
","null","<div style=""font-size:60px;"">+</div>","","null","fixation","2021-04-03 20:06:22.074","","","","",""
"","mars-trial","66","251857","0.0-10.0-1.24","795","""event"",""trial"",""time""
""fullscreenenter"",""0"",""2422""
","
","
","""event"",""trial"",""time""
""fullscreenenter"",""0"",""2422""
","
","259.07500000015716","<img style='border: 4px solid darkgrey;' src='img/tf1_25_M_ss3.jpeg'></img>","2","","exp","","2","<img src='img/tf1_25_T1_ss3_md.jpeg'></img>","0","false",""
"","html-keyboard-response","67","252362","0.0-10.0-0.25","795","""event"",""trial"",""time""
""fullscreenenter"",""0"",""2422""
","
","
","""event"",""trial"",""time""
""fullscreenenter"",""0"",""2422""
","
","null","<div style=""font-size:60px;"">+</div>","","null","fixation","2021-04-03 20:06:23.445","","","","",""
"","mars-trial","68","253189","0.0-10.0-1.25","795","""event"",""trial"",""time""
""fullscreenenter"",""0"",""2422""
","
","
","""event"",""trial"",""time""
""fullscreenenter"",""0"",""2422""
","
","220.54000000003725","<img style='border: 4px solid darkgrey;' src='img/tf1_26_M_ss1.jpeg'></img>","2","","exp","","3","<img src='img/tf1_26_T1_ss1_md.jpeg'></img>","0","false",""
"","html-keyboard-response","69","253690","0.0-10.0-0.26","795","""event"",""trial"",""time""
""fullscreenenter"",""0"",""2422""
","
","
","""event"",""trial"",""time""
""fullscreenenter"",""0"",""2422""
","
","null","<div style=""font-size:60px;"">+</div>","","null","fixation","2021-04-03 20:06:24.773","","","","",""
"","mars-trial","70","254462","0.0-10.0-1.26","795","""event"",""trial"",""time""
""fullscreenenter"",""0"",""2422""
","
","
","""event"",""trial"",""time""
""fullscreenenter"",""0"",""2422""
","
","165.8149999998568","<img style='border: 4px solid darkgrey;' src='img/tf1_27_M_ss2.jpeg'></img>","2","","exp","","1","<img src='img/tf1_27_T1_ss2_md.jpeg'></img>","0","false",""
"","html-keyboard-response","71","254964","0.0-10.0-0.27","795","""event"",""trial"",""time""
""fullscreenenter"",""0"",""2422""
","
","
","""event"",""trial"",""time""
""fullscreenenter"",""0"",""2422""
","
","null","<div style=""font-size:60px;"">+</div>","","null","fixation","2021-04-03 20:06:26.047","","","","",""
"","mars-trial","72","255814","0.0-10.0-1.27","795","""event"",""trial"",""time""
""fullscreenenter"",""0"",""2422""
","
","
","""event"",""trial"",""time""
""fullscreenenter"",""0"",""2422""
","
","238.170000000071","<img style='border: 4px solid darkgrey;' src='img/tf1_28_M_ss3.jpeg'></img>","2","","exp","","0","<img src='img/tf1_28_T1_ss3_md.jpeg'></img>","0","true",""
"","html-keyboard-response","73","256319","0.0-10.0-0.28","795","""event"",""trial"",""time""
""fullscreenenter"",""0"",""2422""
","
","
","""event"",""trial"",""time""
""fullscreenenter"",""0"",""2422""
","
","null","<div style=""font-size:60px;"">+</div>","","null","fixation","2021-04-03 20:06:27.402","","","","",""
"","mars-trial","74","257154","0.0-10.0-1.28","795","""event"",""trial"",""time""
""fullscreenenter"",""0"",""2422""
","
","
","""event"",""trial"",""time""
""fullscreenenter"",""0"",""2422""
","
","226.12500000014552","<img style='border: 4px solid darkgrey;' src='img/tf1_29_M_ss1.jpeg'></img>","2","","exp","","3","<img src='img/tf1_29_T1_ss1_md.jpeg'></img>","0","false",""
"","html-keyboard-response","75","257660","0.0-10.0-0.29","795","""event"",""trial"",""time""
""fullscreenenter"",""0"",""2422""
","
","
","""event"",""trial"",""time""
""fullscreenenter"",""0"",""2422""
","
","null","<div style=""font-size:60px;"">+</div>","","null","fixation","2021-04-03 20:06:28.743","","","","",""
"","mars-trial","76","258416","0.0-10.0-1.29","795","""event"",""trial"",""time""
""fullscreenenter"",""0"",""2422""
","
","
","""event"",""trial"",""time""
""fullscreenenter"",""0"",""2422""
","
","146.18500000005588","<img style='border: 4px solid darkgrey;' src='img/tf1_30_M_ss2.jpeg'></img>","2","","exp","","3","<img src='img/tf1_30_T1_ss2_md.jpeg'></img>","0","false",""
"","html-keyboard-response","77","258917","0.0-10.0-0.30","795","""event"",""trial"",""time""
""fullscreenenter"",""0"",""2422""
","
","
","""event"",""trial"",""time""
""fullscreenenter"",""0"",""2422""
","
","null","<div style=""font-size:60px;"">+</div>","","null","fixation","2021-04-03 20:06:30.000","","","","",""
"","mars-trial","78","259715","0.0-10.0-1.30","795","""event"",""trial"",""time""
""fullscreenenter"",""0"",""2422""
","
","
","""event"",""trial"",""time""
""fullscreenenter"",""0"",""2422""
","
","192.66500000003725","<img style='border: 4px solid darkgrey;' src='img/tf1_31_M_ss3.jpeg'></img>","2","","exp","","0","<img src='img/tf1_31_T1_ss3_md.jpeg'></img>","0","true",""
"","html-keyboard-response","79","260217","0.0-10.0-0.31","795","""event"",""trial"",""time""
""fullscreenenter"",""0"",""2422""
","
","
","""event"",""trial"",""time""
""fullscreenenter"",""0"",""2422""
","
","null","<div style=""font-size:60px;"">+</div>","","null","fixation","2021-04-03 20:06:31.300","","","","",""
"","mars-trial","80","261038","0.0-10.0-1.31","795","""event"",""trial"",""time""
""fullscreenenter"",""0"",""2422""
","
","
","""event"",""trial"",""time""
""fullscreenenter"",""0"",""2422""
","
","211.82499999983702","<img style='border: 4px solid darkgrey;' src='img/tf1_32_M_ss1.jpeg'></img>","2","","exp","","2","<img src='img/tf1_32_T1_ss1_md.jpeg'></img>","0","false",""
"","html-keyboard-response","81","261540","0.0-10.0-0.32","795","""event"",""trial"",""time""
""fullscreenenter"",""0"",""2422""
","
","
","""event"",""trial"",""time""
""fullscreenenter"",""0"",""2422""
","
","null","<div style=""font-size:60px;"">+</div>","","null","fixation","2021-04-03 20:06:32.623","","","","",""
"","mars-trial","82","262525","0.0-10.0-1.32","795","""event"",""trial"",""time""
""fullscreenenter"",""0"",""2422""
","
","
","""event"",""trial"",""time""
""fullscreenenter"",""0"",""2422""
","
","381.37000000011176","<img style='border: 4px solid darkgrey;' src='img/tf1_33_M_ss2.jpeg'></img>","2","","exp","","1","<img src='img/tf1_33_T1_ss2_md.jpeg'></img>","0","false",""
"","html-keyboard-response","83","263028","0.0-10.0-0.33","795","""event"",""trial"",""time""
""fullscreenenter"",""0"",""2422""
","
","
","""event"",""trial"",""time""
""fullscreenenter"",""0"",""2422""
","
","null","<div style=""font-size:60px;"">+</div>","","null","fixation","2021-04-03 20:06:34.112","","","","",""
"","mars-trial","84","263866","0.0-10.0-1.33","795","""event"",""trial"",""time""
""fullscreenenter"",""0"",""2422""
","
","
","""event"",""trial"",""time""
""fullscreenenter"",""0"",""2422""
","
","230.53000000002794","<img style='border: 4px solid darkgrey;' src='img/tf1_34_M_ss3.jpeg'></img>","2","","exp","","1","<img src='img/tf1_34_T1_ss3_md.jpeg'></img>","0","false",""
"","html-keyboard-response","85","264369","0.0-10.0-0.34","795","""event"",""trial"",""time""
""fullscreenenter"",""0"",""2422""
","
","
","""event"",""trial"",""time""
""fullscreenenter"",""0"",""2422""
","
","null","<div style=""font-size:60px;"">+</div>","","null","fixation","2021-04-03 20:06:35.452","","","","",""
"","mars-trial","86","265423","0.0-10.0-1.34","795","""event"",""trial"",""time""
""fullscreenenter"",""0"",""2422""
","
","
","""event"",""trial"",""time""
""fullscreenenter"",""0"",""2422""
","
","445.1249999999418","<img style='border: 4px solid darkgrey;' src='img/tf1_35_M_ss1.jpeg'></img>","1","","exp","","0","<img src='img/tf1_35_T1_ss1_md.jpeg'></img>","0","true",""
"","html-keyboard-response","87","265929","0.0-10.0-0.35","795","""event"",""trial"",""time""
""fullscreenenter"",""0"",""2422""
","
","
","""event"",""trial"",""time""
""fullscreenenter"",""0"",""2422""
","
","null","<div style=""font-size:60px;"">+</div>","","null","fixation","2021-04-03 20:06:37.012","","","","",""
"","mars-trial","88","266847","0.0-10.0-1.35","795","""event"",""trial"",""time""
""fullscreenenter"",""0"",""2422""
","
","
","""event"",""trial"",""time""
""fullscreenenter"",""0"",""2422""
","
","310.3400000000256","<img style='border: 4px solid darkgrey;' src='img/tf1_36_M_ss2.jpeg'></img>","3","","exp","","1","<img src='img/tf1_36_T1_ss2_md.jpeg'></img>","0","false",""
"","html-keyboard-response","89","267348","0.0-10.0-0.36","795","""event"",""trial"",""time""
""fullscreenenter"",""0"",""2422""
","
","
","""event"",""trial"",""time""
""fullscreenenter"",""0"",""2422""
","
","null","<div style=""font-size:60px;"">+</div>","","null","fixation","2021-04-03 20:06:38.431","","","","",""
"","mars-trial","90","268202","0.0-10.0-1.36","795","""event"",""trial"",""time""
""fullscreenenter"",""0"",""2422""
","
","
","""event"",""trial"",""time""
""fullscreenenter"",""0"",""2422""
","
","245.7500000000582","<img style='border: 4px solid darkgrey;' src='img/tf1_37_M_ss3.jpeg'></img>","1","","exp","","3","<img src='img/tf1_37_T1_ss3_md.jpeg'></img>","0","false",""
"","html-keyboard-response","91","268703","0.0-10.0-0.37","795","""event"",""trial"",""time""
""fullscreenenter"",""0"",""2422""
","
","
","""event"",""trial"",""time""
""fullscreenenter"",""0"",""2422""
","
","null","<div style=""font-size:60px;"">+</div>","","null","fixation","2021-04-03 20:06:39.786","","","","",""
"","mars-trial","92","269616","0.0-10.0-1.37","795","""event"",""trial"",""time""
""fullscreenenter"",""0"",""2422""
","
","
","""event"",""trial"",""time""
""fullscreenenter"",""0"",""2422""
","
","308.71000000002095","<img style='border: 4px solid darkgrey;' src='img/tf1_38_M_ss1.jpeg'></img>","2","","exp","","2","<img src='img/tf1_38_T1_ss1_md.jpeg'></img>","0","false",""
"","html-keyboard-response","93","270122","0.0-10.0-0.38","795","""event"",""trial"",""time""
""fullscreenenter"",""0"",""2422""
","
","
","""event"",""trial"",""time""
""fullscreenenter"",""0"",""2422""
","
","null","<div style=""font-size:60px;"">+</div>","","null","fixation","2021-04-03 20:06:41.205","","","","",""
"","mars-trial","94","271064","0.0-10.0-1.38","795","""event"",""trial"",""time""
""fullscreenenter"",""0"",""2422""
","
","
","""event"",""trial"",""time""
""fullscreenenter"",""0"",""2422""
","
","335.76500000001397","<img style='border: 4px solid darkgrey;' src='img/tf1_39_M_ss2.jpeg'></img>","0","","exp","","0","<img src='img/tf1_39_T1_ss2_md.jpeg'></img>","0","true",""
"","html-keyboard-response","95","271567","0.0-10.0-0.39","795","""event"",""trial"",""time""
""fullscreenenter"",""0"",""2422""
","
","
","""event"",""trial"",""time""
""fullscreenenter"",""0"",""2422""
","
","null","<div style=""font-size:60px;"">+</div>","","null","fixation","2021-04-03 20:06:42.650","","","","",""
"","mars-trial","96","272533","0.0-10.0-1.39","795","""event"",""trial"",""time""
""fullscreenenter"",""0"",""2422""
","
","
","""event"",""trial"",""time""
""fullscreenenter"",""0"",""2422""
","
","361.9300000000512","<img style='border: 4px solid darkgrey;' src='img/tf1_40_M_ss3.jpeg'></img>","2","","exp","","2","<img src='img/tf1_40_T1_ss3_md.jpeg'></img>","0","false",""
"","html-keyboard-response","97","273034","0.0-10.0-0.40","795","""event"",""trial"",""time""
""fullscreenenter"",""0"",""2422""
","
","
","""event"",""trial"",""time""
""fullscreenenter"",""0"",""2422""
","
","null","<div style=""font-size:60px;"">+</div>","","null","fixation","2021-04-03 20:06:44.117","","","","",""
"","mars-trial","98","273981","0.0-10.0-1.40","795","""event"",""trial"",""time""
""fullscreenenter"",""0"",""2422""
","
","
","""event"",""trial"",""time""
""fullscreenenter"",""0"",""2422""
","
","339.99500000005355","<img style='border: 4px solid darkgrey;' src='img/tf1_41_M_ss1.jpeg'></img>","2","","exp","","1","<img src='img/tf1_41_T1_ss1_md.jpeg'></img>","0","false",""
"","html-keyboard-response","99","274482","0.0-10.0-0.41","795","""event"",""trial"",""time""
""fullscreenenter"",""0"",""2422""
","
","
","""event"",""trial"",""time""
""fullscreenenter"",""0"",""2422""
","
","null","<div style=""font-size:60px;"">+</div>","","null","fixation","2021-04-03 20:06:45.565","","","","",""
"","mars-trial","100","275309","0.0-10.0-1.41","795","""event"",""trial"",""time""
""fullscreenenter"",""0"",""2422""
","
","
","""event"",""trial"",""time""
""fullscreenenter"",""0"",""2422""
","
","220.36499999993248","<img style='border: 4px solid darkgrey;' src='img/tf1_42_M_ss2.jpeg'></img>","3","","exp","","2","<img src='img/tf1_42_T1_ss2_md.jpeg'></img>","0","false",""
"","html-keyboard-response","101","275812","0.0-10.0-0.42","795","""event"",""trial"",""time""
""fullscreenenter"",""0"",""2422""
","
","
","""event"",""trial"",""time""
""fullscreenenter"",""0"",""2422""
","
","null","<div style=""font-size:60px;"">+</div>","","null","fixation","2021-04-03 20:06:46.895","","","","",""
"","mars-trial","102","276625","0.0-10.0-1.42","795","""event"",""trial"",""time""
""fullscreenenter"",""0"",""2422""
","
","
","""event"",""trial"",""time""
""fullscreenenter"",""0"",""2422""
","
","205.47999999986496","<img style='border: 4px solid darkgrey;' src='img/tf1_43_M_ss3.jpeg'></img>","1","","exp","","2","<img src='img/tf1_43_T1_ss3_md.jpeg'></img>","0","false",""
"","html-keyboard-response","103","277126","0.0-10.0-0.43","795","""event"",""trial"",""time""
""fullscreenenter"",""0"",""2422""
","
","
","""event"",""trial"",""time""
""fullscreenenter"",""0"",""2422""
","
","null","<div style=""font-size:60px;"">+</div>","","null","fixation","2021-04-03 20:06:48.209","","","","",""
"","mars-trial","104","277992","0.0-10.0-1.43","795","""event"",""trial"",""time""
""fullscreenenter"",""0"",""2422""
","
","
","""event"",""trial"",""time""
""fullscreenenter"",""0"",""2422""
","
","262.2600000000093","<img style='border: 4px solid darkgrey;' src='img/tf1_44_M_ss1.jpeg'></img>","0","","exp","","0","<img src='img/tf1_44_T1_ss1_md.jpeg'></img>","0","true",""
"","html-keyboard-response","105","278494","0.0-10.0-0.44","795","""event"",""trial"",""time""
""fullscreenenter"",""0"",""2422""
","
","
","""event"",""trial"",""time""
""fullscreenenter"",""0"",""2422""
","
","null","<div style=""font-size:60px;"">+</div>","","null","fixation","2021-04-03 20:06:49.577","","","","",""
"","mars-trial","106","279412","0.0-10.0-1.44","795","""event"",""trial"",""time""
""fullscreenenter"",""0"",""2422""
","
","
","""event"",""trial"",""time""
""fullscreenenter"",""0"",""2422""
","
","312.98500000004424","<img style='border: 4px solid darkgrey;' src='img/tf1_45_M_ss2.jpeg'></img>","2","","exp","","1","<img src='img/tf1_45_T1_ss2_md.jpeg'></img>","0","false",""
"","html-keyboard-response","107","279913","0.0-10.0-0.45","795","""event"",""trial"",""time""
""fullscreenenter"",""0"",""2422""
","
","
","""event"",""trial"",""time""
""fullscreenenter"",""0"",""2422""
","
","null","<div style=""font-size:60px;"">+</div>","","null","fixation","2021-04-03 20:06:50.996","","","","",""
"","mars-trial","108","281253","0.0-10.0-1.45","795","""event"",""trial"",""time""
""fullscreenenter"",""0"",""2422""
","
","
","""event"",""trial"",""time""
""fullscreenenter"",""0"",""2422""
","
","728.7100000000792","<img style='border: 4px solid darkgrey;' src='img/tf1_46_M_ss3.jpeg'></img>","1","","exp","","3","<img src='img/tf1_46_T1_ss3_md.jpeg'></img>","0","false",""
"","html-keyboard-response","109","281754","0.0-10.0-0.46","795","""event"",""trial"",""time""
""fullscreenenter"",""0"",""2422""
","
","
","""event"",""trial"",""time""
""fullscreenenter"",""0"",""2422""
","
","null","<div style=""font-size:60px;"">+</div>","","null","fixation","2021-04-03 20:06:52.837","","","","",""
"","mars-trial","110","283751","0.0-10.0-1.46","795","""event"",""trial"",""time""
""fullscreenenter"",""0"",""2422""
","
","
","""event"",""trial"",""time""
""fullscreenenter"",""0"",""2422""
","
","1392.1149999998743","<img style='border: 4px solid darkgrey;' src='img/tf1_47_M_ss1.jpeg'></img>","0","","exp","","0","<img src='img/tf1_47_T1_ss1_md.jpeg'></img>","0","true",""
"","html-keyboard-response","111","284253","0.0-10.0-0.47","795","""event"",""trial"",""time""
""fullscreenenter"",""0"",""2422""
","
","
","""event"",""trial"",""time""
""fullscreenenter"",""0"",""2422""
","
","null","<div style=""font-size:60px;"">+</div>","","null","fixation","2021-04-03 20:06:55.336","","","","",""
"","mars-trial","112","285898","0.0-10.0-1.47","795","""event"",""trial"",""time""
""fullscreenenter"",""0"",""2422""
","
","
","""event"",""trial"",""time""
""fullscreenenter"",""0"",""2422""
","
","1039.4750000000931","<img style='border: 4px solid darkgrey;' src='img/tf1_48_M_ss2.jpeg'></img>","3","","exp","","3","<img src='img/tf1_48_T1_ss2_md.jpeg'></img>","0","false",""
"","html-keyboard-response","113","286399","0.0-10.0-0.48","795","""event"",""trial"",""time""
""fullscreenenter"",""0"",""2422""
","
","
","""event"",""trial"",""time""
""fullscreenenter"",""0"",""2422""
","
","null","<div style=""font-size:60px;"">+</div>","","null","fixation","2021-04-03 20:06:57.482","","","","",""
"","mars-trial","114","287234","0.0-10.0-1.48","795","""event"",""trial"",""time""
""fullscreenenter"",""0"",""2422""
","
","
","""event"",""trial"",""time""
""fullscreenenter"",""0"",""2422""
","
","230.59499999997206","<img style='border: 4px solid darkgrey;' src='img/tf1_49_M_ss3.jpeg'></img>","2","","exp","","1","<img src='img/tf1_49_T1_ss3_md.jpeg'></img>","0","false",""
"","html-keyboard-response","115","287737","0.0-10.0-0.49","795","""event"",""trial"",""time""
""fullscreenenter"",""0"",""2422""
","
","
","""event"",""trial"",""time""
""fullscreenenter"",""0"",""2422""
","
","null","<div style=""font-size:60px;"">+</div>","","null","fixation","2021-04-03 20:06:58.821","","","","",""
"","mars-trial","116","288868","0.0-10.0-1.49","795","""event"",""trial"",""time""
""fullscreenenter"",""0"",""2422""
","
","
","""event"",""trial"",""time""
""fullscreenenter"",""0"",""2422""
","
","522.0749999998952","<img style='border: 4px solid darkgrey;' src='img/tf1_50_M_ss1.jpeg'></img>","1","","exp","","1","<img src='img/tf1_50_T1_ss1_md.jpeg'></img>","0","false",""
"","html-keyboard-response","117","289369","0.0-10.0-0.50","795","""event"",""trial"",""time""
""fullscreenenter"",""0"",""2422""
","
","
","""event"",""trial"",""time""
""fullscreenenter"",""0"",""2422""
","
","null","<div style=""font-size:60px;"">+</div>","","null","fixation","2021-04-03 20:07:00.452","","","","",""
"","mars-trial","118","290148","0.0-10.0-1.50","795","""event"",""trial"",""time""
""fullscreenenter"",""0"",""2422""
","
","
","""event"",""trial"",""time""
""fullscreenenter"",""0"",""2422""
","
","172.61000000010245","<img style='border: 4px solid darkgrey;' src='img/tf1_51_M_ss2.jpeg'></img>","0","","exp","","3","<img src='img/tf1_51_T1_ss2_md.jpeg'></img>","0","false",""
"","html-keyboard-response","119","290650","0.0-10.0-0.51","795","""event"",""trial"",""time""
""fullscreenenter"",""0"",""2422""
","
","
","""event"",""trial"",""time""
""fullscreenenter"",""0"",""2422""
","
","null","<div style=""font-size:60px;"">+</div>","","null","fixation","2021-04-03 20:07:01.733","","","","",""
"","mars-trial","120","291515","0.0-10.0-1.51","795","""event"",""trial"",""time""
""fullscreenenter"",""0"",""2422""
","
","
","""event"",""trial"",""time""
""fullscreenenter"",""0"",""2422""
","
","259.27499999984866","<img style='border: 4px solid darkgrey;' src='img/tf1_52_M_ss3.jpeg'></img>","1","","exp","","3","<img src='img/tf1_52_T1_ss3_md.jpeg'></img>","0","false",""
"","html-keyboard-response","121","292017","0.0-10.0-0.52","795","""event"",""trial"",""time""
""fullscreenenter"",""0"",""2422""
","
","
","""event"",""trial"",""time""
""fullscreenenter"",""0"",""2422""
","
","null","<div style=""font-size:60px;"">+</div>","","null","fixation","2021-04-03 20:07:03.100","","","","",""
"","mars-trial","122","292918","0.0-10.0-1.52","795","""event"",""trial"",""time""
""fullscreenenter"",""0"",""2422""
","
","
","""event"",""trial"",""time""
""fullscreenenter"",""0"",""2422""
","
","298.45999999996275","<img style='border: 4px solid darkgrey;' src='img/tf1_53_M_ss1.jpeg'></img>","2","","exp","","2","<img src='img/tf1_53_T1_ss1_md.jpeg'></img>","0","false",""
"","html-keyboard-response","123","293421","0.0-10.0-0.53","795","""event"",""trial"",""time""
""fullscreenenter"",""0"",""2422""
","
","
","""event"",""trial"",""time""
""fullscreenenter"",""0"",""2422""
","
","null","<div style=""font-size:60px;"">+</div>","","null","fixation","2021-04-03 20:07:04.504","","","","",""
"","mars-trial","124","294315","0.0-10.0-1.53","795","""event"",""trial"",""time""
""fullscreenenter"",""0"",""2422""
","
","
","""event"",""trial"",""time""
""fullscreenenter"",""0"",""2422""
","
","290.4100000000326","<img style='border: 4px solid darkgrey;' src='img/tf1_54_M_ss2.jpeg'></img>","3","","exp","","1","<img src='img/tf1_54_T1_ss2_md.jpeg'></img>","0","false",""
"","html-keyboard-response","125","294819","0.0-10.0-0.54","795","""event"",""trial"",""time""
""fullscreenenter"",""0"",""2422""
","
","
","""event"",""trial"",""time""
""fullscreenenter"",""0"",""2422""
","
","null","<div style=""font-size:60px;"">+</div>","","null","fixation","2021-04-03 20:07:05.902","","","","",""
"","mars-trial","126","295733","0.0-10.0-1.54","795","""event"",""trial"",""time""
""fullscreenenter"",""0"",""2422""
","
","
","""event"",""trial"",""time""
""fullscreenenter"",""0"",""2422""
","
","306.64500000007683","<img style='border: 4px solid darkgrey;' src='img/tf1_55_M_ss3.jpeg'></img>","2","","exp","","2","<img src='img/tf1_55_T1_ss3_md.jpeg'></img>","0","false",""
"","html-keyboard-response","127","296234","0.0-10.0-0.55","795","""event"",""trial"",""time""
""fullscreenenter"",""0"",""2422""
","
","
","""event"",""trial"",""time""
""fullscreenenter"",""0"",""2422""
","
","null","<div style=""font-size:60px;"">+</div>","","null","fixation","2021-04-03 20:07:07.317","","","","",""
"","mars-trial","128","297008","0.0-10.0-1.55","795","""event"",""trial"",""time""
""fullscreenenter"",""0"",""2422""
","
","
","""event"",""trial"",""time""
""fullscreenenter"",""0"",""2422""
","
","168.5549999999348","<img style='border: 4px solid darkgrey;' src='img/tf1_56_M_ss1.jpeg'></img>","2","","exp","","2","<img src='img/tf1_56_T1_ss1_md.jpeg'></img>","0","false",""
"","html-keyboard-response","129","297512","0.0-10.0-0.56","795","""event"",""trial"",""time""
""fullscreenenter"",""0"",""2422""
","
","
","""event"",""trial"",""time""
""fullscreenenter"",""0"",""2422""
","
","null","<div style=""font-size:60px;"">+</div>","","null","fixation","2021-04-03 20:07:08.595","","","","",""
"","mars-trial","130","298420","0.0-10.0-1.56","795","""event"",""trial"",""time""
""fullscreenenter"",""0"",""2422""
","
","
","""event"",""trial"",""time""
""fullscreenenter"",""0"",""2422""
","
","301.3200000000652","<img style='border: 4px solid darkgrey;' src='img/tf1_57_M_ss2.jpeg'></img>","2","","exp","","0","<img src='img/tf1_57_T1_ss2_md.jpeg'></img>","0","true",""
"","html-keyboard-response","131","298922","0.0-10.0-0.57","795","""event"",""trial"",""time""
""fullscreenenter"",""0"",""2422""
","
","
","""event"",""trial"",""time""
""fullscreenenter"",""0"",""2422""
","
","null","<div style=""font-size:60px;"">+</div>","","null","fixation","2021-04-03 20:07:10.005","","","","",""
"","mars-trial","132","299966","0.0-10.0-1.57","795","""event"",""trial"",""time""
""fullscreenenter"",""0"",""2422""
","
","
","""event"",""trial"",""time""
""fullscreenenter"",""0"",""2422""
","
","439.13000000000466","<img style='border: 4px solid darkgrey;' src='img/tf1_58_M_ss3.jpeg'></img>","1","","exp","","3","<img src='img/tf1_58_T1_ss3_md.jpeg'></img>","0","false",""
"","html-keyboard-response","133","300468","0.0-10.0-0.58","795","""event"",""trial"",""time""
""fullscreenenter"",""0"",""2422""
","
","
","""event"",""trial"",""time""
""fullscreenenter"",""0"",""2422""
","
","null","<div style=""font-size:60px;"">+</div>","","null","fixation","2021-04-03 20:07:11.551","","","","",""
"","mars-trial","134","301304","0.0-10.0-1.58","795","""event"",""trial"",""time""
""fullscreenenter"",""0"",""2422""
","
","
","""event"",""trial"",""time""
""fullscreenenter"",""0"",""2422""
","
","232.94999999983702","<img style='border: 4px solid darkgrey;' src='img/tf1_59_M_ss1.jpeg'></img>","2","","exp","","2","<img src='img/tf1_59_T1_ss1_md.jpeg'></img>","0","false",""
"","html-keyboard-response","135","301807","0.0-10.0-0.59","795","""event"",""trial"",""time""
""fullscreenenter"",""0"",""2422""
","
","
","""event"",""trial"",""time""
""fullscreenenter"",""0"",""2422""
","
","null","<div style=""font-size:60px;"">+</div>","","null","fixation","2021-04-03 20:07:12.890","","","","",""
"","mars-trial","136","303635","0.0-10.0-1.59","795","""event"",""trial"",""time""
""fullscreenenter"",""0"",""2422""
","
","
","""event"",""trial"",""time""
""fullscreenenter"",""0"",""2422""
","
","1223.1149999999907","<img style='border: 4px solid darkgrey;' src='img/tf1_60_M_ss2.jpeg'></img>","2","","exp","","0","<img src='img/tf1_60_T1_ss2_md.jpeg'></img>","0","true",""
"","html-keyboard-response","137","304137","0.0-10.0-0.60","795","""event"",""trial"",""time""
""fullscreenenter"",""0"",""2422""
","
","
","""event"",""trial"",""time""
""fullscreenenter"",""0"",""2422""
","
","null","<div style=""font-size:60px;"">+</div>","","null","fixation","2021-04-03 20:07:15.220","","","","",""
"","mars-trial","138","305300","0.0-10.0-1.60","795","""event"",""trial"",""time""
""fullscreenenter"",""0"",""2422""
","
","
","""event"",""trial"",""time""
""fullscreenenter"",""0"",""2422""
","
","552.7950000001001","<img style='border: 4px solid darkgrey;' src='img/tf1_61_M_ss3.jpeg'></img>","2","","exp","","0","<img src='img/tf1_61_T1_ss3_md.jpeg'></img>","0","true",""
"","html-keyboard-response","139","305802","0.0-10.0-0.61","795","""event"",""trial"",""time""
""fullscreenenter"",""0"",""2422""
","
","
","""event"",""trial"",""time""
""fullscreenenter"",""0"",""2422""
","
","null","<div style=""font-size:60px;"">+</div>","","null","fixation","2021-04-03 20:07:16.885","","","","",""
"","mars-trial","140","306799","0.0-10.0-1.61","795","""event"",""trial"",""time""
""fullscreenenter"",""0"",""2422""
","
","
","""event"",""trial"",""time""
""fullscreenenter"",""0"",""2422""
","
","392.86000000016065","<img style='border: 4px solid darkgrey;' src='img/tf1_62_M_ss1.jpeg'></img>","2","","exp","","0","<img src='img/tf1_62_T1_ss1_md.jpeg'></img>","0","true",""
"","html-keyboard-response","141","307301","0.0-10.0-0.62","795","""event"",""trial"",""time""
""fullscreenenter"",""0"",""2422""
","
","
","""event"",""trial"",""time""
""fullscreenenter"",""0"",""2422""
","
","null","<div style=""font-size:60px;"">+</div>","","null","fixation","2021-04-03 20:07:18.384","","","","",""
"","mars-trial","142","308223","0.0-10.0-1.62","795","""event"",""trial"",""time""
""fullscreenenter"",""0"",""2422""
","
","
","""event"",""trial"",""time""
""fullscreenenter"",""0"",""2422""
","
","316.83500000007916","<img style='border: 4px solid darkgrey;' src='img/tf1_63_M_ss2.jpeg'></img>","2","","exp","","3","<img src='img/tf1_63_T1_ss2_md.jpeg'></img>","0","false",""
"","html-keyboard-response","143","308725","0.0-10.0-0.63","795","""event"",""trial"",""time""
""fullscreenenter"",""0"",""2422""
","
","
","""event"",""trial"",""time""
""fullscreenenter"",""0"",""2422""
","
","null","<div style=""font-size:60px;"">+</div>","","null","fixation","2021-04-03 20:07:19.808","","","","",""
"","mars-trial","144","309659","0.0-10.0-1.63","795","""event"",""trial"",""time""
""fullscreenenter"",""0"",""2422""
","
","
","""event"",""trial"",""time""
""fullscreenenter"",""0"",""2422""
","
","330.76499999995576","<img style='border: 4px solid darkgrey;' src='img/tf1_64_M_ss3.jpeg'></img>","1","","exp","","2","<img src='img/tf1_64_T1_ss3_md.jpeg'></img>","0","false",""
"","html-keyboard-response","145","310164","0.0-10.0-0.64","795","""event"",""trial"",""time""
""fullscreenenter"",""0"",""2422""
","
","
","""event"",""trial"",""time""
""fullscreenenter"",""0"",""2422""
","
","null","<div style=""font-size:60px;"">+</div>","","null","fixation","2021-04-03 20:07:21.248","","","","",""
"","mars-trial","146","312006","0.0-10.0-1.64","795","""event"",""trial"",""time""
""fullscreenenter"",""0"",""2422""
","
","
","""event"",""trial"",""time""
""fullscreenenter"",""0"",""2422""
","
","1237.3049999998766","<img style='border: 4px solid darkgrey;' src='img/tf1_65_M_ss1.jpeg'></img>","3","","exp","","3","<img src='img/tf1_65_T1_ss1_md.jpeg'></img>","0","false",""
"","html-keyboard-response","147","312507","0.0-10.0-0.65","795","""event"",""trial"",""time""
""fullscreenenter"",""0"",""2422""
","
","
","""event"",""trial"",""time""
""fullscreenenter"",""0"",""2422""
","
","null","<div style=""font-size:60px;"">+</div>","","null","fixation","2021-04-03 20:07:23.591","","","","",""
"","mars-trial","148","314291","0.0-10.0-1.65","795","""event"",""trial"",""time""
""fullscreenenter"",""0"",""2422""
","
","
","""event"",""trial"",""time""
""fullscreenenter"",""0"",""2422""
","
","1179.7199999998556","<img style='border: 4px solid darkgrey;' src='img/tf1_66_M_ss2.jpeg'></img>","0","","exp","","3","<img src='img/tf1_66_T1_ss2_md.jpeg'></img>","0","false",""
"","html-keyboard-response","149","314794","0.0-10.0-0.66","795","""event"",""trial"",""time""
""fullscreenenter"",""0"",""2422""
","
","
","""event"",""trial"",""time""
""fullscreenenter"",""0"",""2422""
","
","null","<div style=""font-size:60px;"">+</div>","","null","fixation","2021-04-03 20:07:25.877","","","","",""
"","mars-trial","150","315641","0.0-10.0-1.66","795","""event"",""trial"",""time""
""fullscreenenter"",""0"",""2422""
","
","
","""event"",""trial"",""time""
""fullscreenenter"",""0"",""2422""
","
","236.73999999981606","<img style='border: 4px solid darkgrey;' src='img/tf1_67_M_ss3.jpeg'></img>","2","","exp","","2","<img src='img/tf1_67_T1_ss3_md.jpeg'></img>","0","false",""
"","html-keyboard-response","151","316143","0.0-10.0-0.67","795","""event"",""trial"",""time""
""fullscreenenter"",""0"",""2422""
","
","
","""event"",""trial"",""time""
""fullscreenenter"",""0"",""2422""
","
","null","<div style=""font-size:60px;"">+</div>","","null","fixation","2021-04-03 20:07:27.226","","","","",""
"","mars-trial","152","317022","0.0-10.0-1.67","795","""event"",""trial"",""time""
""fullscreenenter"",""0"",""2422""
","
","
","""event"",""trial"",""time""
""fullscreenenter"",""0"",""2422""
","
","274.38000000006286","<img style='border: 4px solid darkgrey;' src='img/tf1_68_M_ss1.jpeg'></img>","1","","exp","","3","<img src='img/tf1_68_T1_ss1_md.jpeg'></img>","0","false",""
"","html-keyboard-response","153","317523","0.0-10.0-0.68","795","""event"",""trial"",""time""
""fullscreenenter"",""0"",""2422""
","
","
","""event"",""trial"",""time""
""fullscreenenter"",""0"",""2422""
","
","null","<div style=""font-size:60px;"">+</div>","","null","fixation","2021-04-03 20:07:28.606","","","","",""
"","mars-trial","154","318565","0.0-10.0-1.68","795","""event"",""trial"",""time""
""fullscreenenter"",""0"",""2422""
","
","
","""event"",""trial"",""time""
""fullscreenenter"",""0"",""2422""
","
","436.1850000000559","<img style='border: 4px solid darkgrey;' src='img/tf1_69_M_ss2.jpeg'></img>","3","","exp","","1","<img src='img/tf1_69_T1_ss2_md.jpeg'></img>","0","false",""
"","html-keyboard-response","155","319066","0.0-10.0-0.69","795","""event"",""trial"",""time""
""fullscreenenter"",""0"",""2422""
","
","
","""event"",""trial"",""time""
""fullscreenenter"",""0"",""2422""
","
","null","<div style=""font-size:60px;"">+</div>","","null","fixation","2021-04-03 20:07:30.149","","","","",""
"","mars-trial","156","319973","0.0-10.0-1.69","795","""event"",""trial"",""time""
""fullscreenenter"",""0"",""2422""
","
","
","""event"",""trial"",""time""
""fullscreenenter"",""0"",""2422""
","
","301.2750000000233","<img style='border: 4px solid darkgrey;' src='img/tf1_70_M_ss3.jpeg'></img>","2","","exp","","2","<img src='img/tf1_70_T1_ss3_md.jpeg'></img>","0","false",""
"","html-keyboard-response","157","320477","0.0-10.0-0.70","795","""event"",""trial"",""time""
""fullscreenenter"",""0"",""2422""
","
","
","""event"",""trial"",""time""
""fullscreenenter"",""0"",""2422""
","
","null","<div style=""font-size:60px;"">+</div>","","null","fixation","2021-04-03 20:07:31.560","","","","",""
"","mars-trial","158","321612","0.0-10.0-1.70","795","""event"",""trial"",""time""
""fullscreenenter"",""0"",""2422""
","
","
","""event"",""trial"",""time""
""fullscreenenter"",""0"",""2422""
","
","528.8700000001118","<img style='border: 4px solid darkgrey;' src='img/tf1_71_M_ss1.jpeg'></img>","3","","exp","","0","<img src='img/tf1_71_T1_ss1_md.jpeg'></img>","0","true",""
"","html-keyboard-response","159","322112","0.0-10.0-0.71","795","""event"",""trial"",""time""
""fullscreenenter"",""0"",""2422""
","
","
","""event"",""trial"",""time""
""fullscreenenter"",""0"",""2422""
","
","null","<div style=""font-size:60px;"">+</div>","","null","fixation","2021-04-03 20:07:33.195","","","","",""
"","mars-trial","160","323120","0.0-10.0-1.71","795","""event"",""trial"",""time""
""fullscreenenter"",""0"",""2422""
","
","
","""event"",""trial"",""time""
""fullscreenenter"",""0"",""2422""
","
","404.83500000007916","<img style='border: 4px solid darkgrey;' src='img/tf1_72_M_ss2.jpeg'></img>","2","","exp","","3","<img src='img/tf1_72_T1_ss2_md.jpeg'></img>","0","false",""
"","html-keyboard-response","161","323622","0.0-10.0-0.72","795","""event"",""trial"",""time""
""fullscreenenter"",""0"",""2422""
","
","
","""event"",""trial"",""time""
""fullscreenenter"",""0"",""2422""
","
","null","<div style=""font-size:60px;"">+</div>","","null","fixation","2021-04-03 20:07:34.705","","","","",""
"","mars-trial","162","324626","0.0-10.0-1.72","795","""event"",""trial"",""time""
""fullscreenenter"",""0"",""2422""
","
","
","""event"",""trial"",""time""
""fullscreenenter"",""0"",""2422""
","
","399.02000000007683","<img style='border: 4px solid darkgrey;' src='img/tf1_73_M_ss3.jpeg'></img>","3","","exp","","0","<img src='img/tf1_73_T1_ss3_md.jpeg'></img>","0","true",""
"","html-keyboard-response","163","325128","0.0-10.0-0.73","795","""event"",""trial"",""time""
""fullscreenenter"",""0"",""2422""
","
","
","""event"",""trial"",""time""
""fullscreenenter"",""0"",""2422""
","
","null","<div style=""font-size:60px;"">+</div>","","null","fixation","2021-04-03 20:07:36.211","","","","",""
"","mars-trial","164","326050","0.0-10.0-1.73","795","""event"",""trial"",""time""
""fullscreenenter"",""0"",""2422""
","
","
","""event"",""trial"",""time""
""fullscreenenter"",""0"",""2422""
","
","317.9399999998859","<img style='border: 4px solid darkgrey;' src='img/tf1_74_M_ss1.jpeg'></img>","2","","exp","","3","<img src='img/tf1_74_T1_ss1_md.jpeg'></img>","0","false",""
"","html-keyboard-response","165","326551","0.0-10.0-0.74","795","""event"",""trial"",""time""
""fullscreenenter"",""0"",""2422""
","
","
","""event"",""trial"",""time""
""fullscreenenter"",""0"",""2422""
","
","null","<div style=""font-size:60px;"">+</div>","","null","fixation","2021-04-03 20:07:37.634","","","","",""
"","mars-trial","166","327292","0.0-10.0-1.74","795","""event"",""trial"",""time""
""fullscreenenter"",""0"",""2422""
","
","
","""event"",""trial"",""time""
""fullscreenenter"",""0"",""2422""
","
","137.39000000007218","<img style='border: 4px solid darkgrey;' src='img/tf1_75_M_ss2.jpeg'></img>","1","","exp","","3","<img src='img/tf1_75_T1_ss2_md.jpeg'></img>","0","false",""
"","html-keyboard-response","167","327793","0.0-10.0-0.75","795","""event"",""trial"",""time""
""fullscreenenter"",""0"",""2422""
","
","
","""event"",""trial"",""time""
""fullscreenenter"",""0"",""2422""
","
","null","<div style=""font-size:60px;"">+</div>","","null","fixation","2021-04-03 20:07:38.876","","","","",""
"","mars-trial","168","328880","0.0-10.0-1.75","795","""event"",""trial"",""time""
""fullscreenenter"",""0"",""2422""
","
","
","""event"",""trial"",""time""
""fullscreenenter"",""0"",""2422""
","
","482.2950000000419","<img style='border: 4px solid darkgrey;' src='img/tf1_76_M_ss3.jpeg'></img>","3","","exp","","1","<img src='img/tf1_76_T1_ss3_md.jpeg'></img>","0","false",""
"","html-keyboard-response","169","329381","0.0-10.0-0.76","795","""event"",""trial"",""time""
""fullscreenenter"",""0"",""2422""
","
","
","""event"",""trial"",""time""
""fullscreenenter"",""0"",""2422""
","
","null","<div style=""font-size:60px;"">+</div>","","null","fixation","2021-04-03 20:07:40.464","","","","",""
"","mars-trial","170","331084","0.0-10.0-1.76","795","""event"",""trial"",""time""
""fullscreenenter"",""0"",""2422""
","
","
","""event"",""trial"",""time""
""fullscreenenter"",""0"",""2422""
","
","1100.0650000001187","<img style='border: 4px solid darkgrey;' src='img/tf1_77_M_ss1.jpeg'></img>","0","","exp","","3","<img src='img/tf1_77_T1_ss1_md.jpeg'></img>","0","false",""
"","html-keyboard-response","171","331587","0.0-10.0-0.77","795","""event"",""trial"",""time""
""fullscreenenter"",""0"",""2422""
","
","
","""event"",""trial"",""time""
""fullscreenenter"",""0"",""2422""
","
","null","<div style=""font-size:60px;"">+</div>","","null","fixation","2021-04-03 20:07:42.670","","","","",""
"","mars-trial","172","333166","0.0-10.0-1.77","795","""event"",""trial"",""time""
""fullscreenenter"",""0"",""2422""
","
","
","""event"",""trial"",""time""
""fullscreenenter"",""0"",""2422""
","
","976.1100000000442","<img style='border: 4px solid darkgrey;' src='img/tf1_78_M_ss2.jpeg'></img>","3","","exp","","2","<img src='img/tf1_78_T1_ss2_md.jpeg'></img>","0","false",""
"","html-keyboard-response","173","333669","0.0-10.0-0.78","795","""event"",""trial"",""time""
""fullscreenenter"",""0"",""2422""
","
","
","""event"",""trial"",""time""
""fullscreenenter"",""0"",""2422""
","
","null","<div style=""font-size:60px;"">+</div>","","null","fixation","2021-04-03 20:07:44.752","","","","",""
"","mars-trial","174","334893","0.0-10.0-1.78","795","""event"",""trial"",""time""
""fullscreenenter"",""0"",""2422""
","
","
","""event"",""trial"",""time""
""fullscreenenter"",""0"",""2422""
","
","620.4899999999907","<img style='border: 4px solid darkgrey;' src='img/tf1_79_M_ss3.jpeg'></img>","2","","exp","","2","<img src='img/tf1_79_T1_ss3_md.jpeg'></img>","0","false",""
"","html-keyboard-response","175","335396","0.0-10.0-0.79","795","""event"",""trial"",""time""
""fullscreenenter"",""0"",""2422""
","
","
","""event"",""trial"",""time""
""fullscreenenter"",""0"",""2422""
","
","null","<div style=""font-size:60px;"">+</div>","","null","fixation","2021-04-03 20:07:46.479","","","","",""
"","mars-trial","176","336471","0.0-10.0-1.79","795","""event"",""trial"",""time""
""fullscreenenter"",""0"",""2422""
","
","
","""event"",""trial"",""time""
""fullscreenenter"",""0"",""2422""
","
","469.96999999985565","<img style='border: 4px solid darkgrey;' src='img/tf1_80_M_ss1.jpeg'></img>","1","","exp","","3","<img src='img/tf1_80_T1_ss1_md.jpeg'></img>","0","false",""
"","audio-button-response","177","342188","0.0-11.0","795","""event"",""trial"",""time""
""fullscreenenter"",""0"",""2422""
","
","
","""event"",""trial"",""time""
""fullscreenenter"",""0"",""2422""
","
","5716.280000000086","audio/mars_instructions_slide5.wav","0","","","","","","","",""
