"success","trial_type","trial_index","time_elapsed","internal_node_id","subject_id","interactions","blur_events","focus_events","fullscreenenter_events","fullscreenexit_events","rt","stimulus","button_pressed","key_press","part","timestamp","unshuffled_button","correct_response","correct_button","correct","value"
"true","fullscreen","0","2906","0.0-0.0","875","""event"",""trial"",""time""
""fullscreenenter"",""0"",""1930""
","
","
","""event"",""trial"",""time""
""fullscreenenter"",""0"",""1930""
","
","","","","","","","","","","",""
"","pavlovia","1","2909","0.0-1.0","875","""event"",""trial"",""time""
""fullscreenenter"",""0"",""1930""
","
","
","""event"",""trial"",""time""
""fullscreenenter"",""0"",""1930""
","
","","","","","","","","","","",""
"","html-button-response","2","4164","0.0-2.0","875","""event"",""trial"",""time""
""fullscreenenter"",""0"",""1930""
","
","
","""event"",""trial"",""time""
""fullscreenenter"",""0"",""1930""
","
","1254.5999999940395","<p>Welcome! Press START to begin.</p><br>","0","","","","","","","",""
"","audio-button-response","3","11735","0.0-3.0","875","""event"",""trial"",""time""
""fullscreenenter"",""0"",""1930""
","
","
","""event"",""trial"",""time""
""fullscreenenter"",""0"",""1930""
","
","7570.20000000298","audio/mars_instructions_slide2.wav","0","","","","","","","",""
"","audio-button-response","4","13108","0.0-4.0","875","""event"",""trial"",""time""
""fullscreenenter"",""0"",""1930""
","
","
","""event"",""trial"",""time""
""fullscreenenter"",""0"",""1930""
","
","1371.6000000014901","audio/mars_instructions_slide3.wav","0","","","","","","","",""
"","html-keyboard-response","5","13610","0.0-5.0-0.0","875","""event"",""trial"",""time""
""fullscreenenter"",""0"",""1930""
","
","
","""event"",""trial"",""time""
""fullscreenenter"",""0"",""1930""
","
","null","<div style=""font-size:60px;"">+</div>","","null","fixation","2021-06-25 22:42:22.370","","","","",""
"","mars-trial","6","18319","0.0-5.0-1.0","875","""event"",""trial"",""time""
""fullscreenenter"",""0"",""1930""
","
","
","""event"",""trial"",""time""
""fullscreenenter"",""0"",""1930""
","
","2599.10000000149","<img style='border: 4px solid darkgrey;' src='practice/pt1_M1.png'></img>","2","","practice","","0","<img src='practice/pt1_T1.png'></img>","0","true",""
"","html-keyboard-response","7","18821","0.0-6.0-0.0","875","""event"",""trial"",""time""
""fullscreenenter"",""0"",""1930""
","
","
","""event"",""trial"",""time""
""fullscreenenter"",""0"",""1930""
","
","null","<div style=""font-size:60px;"">+</div>","","null","fixation","2021-06-25 22:42:27.581","","","","",""
"","mars-trial","8","22759","0.0-6.0-1.0","875","""event"",""trial"",""time""
""fullscreenenter"",""0"",""1930""
","
","
","""event"",""trial"",""time""
""fullscreenenter"",""0"",""1930""
","
","1834.8000000044703","<img style='border: 4px solid darkgrey;' src='practice/pt2_M1.png'></img>","2","","practice","","0","<img src='practice/pt2_T1.png'></img>","0","true",""
"","html-keyboard-response","9","23260","0.0-7.0-0.0","875","""event"",""trial"",""time""
""fullscreenenter"",""0"",""1930""
","
","
","""event"",""trial"",""time""
""fullscreenenter"",""0"",""1930""
","
","null","<div style=""font-size:60px;"">+</div>","","null","fixation","2021-06-25 22:42:32.020","","","","",""
"","mars-trial","10","27113","0.0-7.0-1.0","875","""event"",""trial"",""time""
""fullscreenenter"",""0"",""1930""
","
","
","""event"",""trial"",""time""
""fullscreenenter"",""0"",""1930""
","
","1749.5","<img style='border: 4px solid darkgrey;' src='practice/pt3_M1.png'></img>","0","","practice","","0","<img src='practice/pt3_T1.png'></img>","0","true",""
"","audio-button-response","11","29398","0.0-8.0","875","""event"",""trial"",""time""
""fullscreenenter"",""0"",""1930""
","
","
","""event"",""trial"",""time""
""fullscreenenter"",""0"",""1930""
","
","2284.3000000044703","audio/mars_instructions_slide4.wav","0","","","","","","","",""
"","call-function","12","29398","0.0-9.0","875","""event"",""trial"",""time""
""fullscreenenter"",""0"",""1930""
","
","
","""event"",""trial"",""time""
""fullscreenenter"",""0"",""1930""
","
","","","","","","","","","","",""
"","html-keyboard-response","13","29903","0.0-10.0-0.0","875","""event"",""trial"",""time""
""fullscreenenter"",""0"",""1930""
","
","
","""event"",""trial"",""time""
""fullscreenenter"",""0"",""1930""
","
","null","<div style=""font-size:60px;"">+</div>","","null","fixation","2021-06-25 22:42:38.663","","","","",""
"","mars-trial","14","32420","0.0-10.0-1.0","875","""event"",""trial"",""time""
""fullscreenenter"",""0"",""1930""
","
","
","""event"",""trial"",""time""
""fullscreenenter"",""0"",""1930""
","
","1912.4000000059605","<img style='border: 4px solid darkgrey;' src='img/tf1_1_M_ss3.jpeg'></img>","1","","exp","","0","<img src='img/tf1_1_T1_ss3_md.jpeg'></img>","0","true",""
"","html-keyboard-response","15","32923","0.0-10.0-0.1","875","""event"",""trial"",""time""
""fullscreenenter"",""0"",""1930""
","
","
","""event"",""trial"",""time""
""fullscreenenter"",""0"",""1930""
","
","null","<div style=""font-size:60px;"">+</div>","","null","fixation","2021-06-25 22:42:41.683","","","","",""
"","mars-trial","16","36856","0.0-10.0-1.1","875","""event"",""trial"",""time""
""fullscreenenter"",""0"",""1930""
","
","
","""event"",""trial"",""time""
""fullscreenenter"",""0"",""1930""
","
","3324.7999999970198","<img style='border: 4px solid darkgrey;' src='img/tf1_2_M_ss1.jpeg'></img>","0","","exp","","0","<img src='img/tf1_2_T1_ss1_md.jpeg'></img>","0","true",""
"","html-keyboard-response","17","37357","0.0-10.0-0.2","875","""event"",""trial"",""time""
""fullscreenenter"",""0"",""1930""
","
","
","""event"",""trial"",""time""
""fullscreenenter"",""0"",""1930""
","
","null","<div style=""font-size:60px;"">+</div>","","null","fixation","2021-06-25 22:42:46.117","","","","",""
"","mars-trial","18","41048","0.0-10.0-1.2","875","""event"",""trial"",""time""
""fullscreenenter"",""0"",""1930""
","
","
","""event"",""trial"",""time""
""fullscreenenter"",""0"",""1930""
","
","3086.60000000149","<img style='border: 4px solid darkgrey;' src='img/tf1_3_M_ss2.jpeg'></img>","0","","exp","","0","<img src='img/tf1_3_T1_ss2_md.jpeg'></img>","0","true",""
"","html-keyboard-response","19","41549","0.0-10.0-0.3","875","""event"",""trial"",""time""
""fullscreenenter"",""0"",""1930""
","
","
","""event"",""trial"",""time""
""fullscreenenter"",""0"",""1930""
","
","null","<div style=""font-size:60px;"">+</div>","","null","fixation","2021-06-25 22:42:50.309","","","","",""
"","mars-trial","20","48889","0.0-10.0-1.3","875","""event"",""trial"",""time""
""fullscreenenter"",""0"",""1930""
","
","
","""event"",""trial"",""time""
""fullscreenenter"",""0"",""1930""
","
","6737.89999999851","<img style='border: 4px solid darkgrey;' src='img/tf1_4_M_ss3.jpeg'></img>","0","","exp","","0","<img src='img/tf1_4_T1_ss3_md.jpeg'></img>","0","true",""
"","html-keyboard-response","21","49390","0.0-10.0-0.4","875","""event"",""trial"",""time""
""fullscreenenter"",""0"",""1930""
","
","
","""event"",""trial"",""time""
""fullscreenenter"",""0"",""1930""
","
","null","<div style=""font-size:60px;"">+</div>","","null","fixation","2021-06-25 22:42:58.150","","","","",""
"","mars-trial","22","53090","0.0-10.0-1.4","875","""event"",""trial"",""time""
""fullscreenenter"",""0"",""1930""
","
","
","""event"",""trial"",""time""
""fullscreenenter"",""0"",""1930""
","
","3087.3000000044703","<img style='border: 4px solid darkgrey;' src='img/tf1_5_M_ss1.jpeg'></img>","0","","exp","","0","<img src='img/tf1_5_T1_ss1_md.jpeg'></img>","0","true",""
"","html-keyboard-response","23","53592","0.0-10.0-0.5","875","""event"",""trial"",""time""
""fullscreenenter"",""0"",""1930""
","
","
","""event"",""trial"",""time""
""fullscreenenter"",""0"",""1930""
","
","null","<div style=""font-size:60px;"">+</div>","","null","fixation","2021-06-25 22:43:02.352","","","","",""
"","mars-trial","24","62968","0.0-10.0-1.5","875","""event"",""trial"",""time""
""fullscreenenter"",""0"",""1930""
","
","
","""event"",""trial"",""time""
""fullscreenenter"",""0"",""1930""
","
","8768.10000000149","<img style='border: 4px solid darkgrey;' src='img/tf1_6_M_ss2.jpeg'></img>","3","","exp","","3","<img src='img/tf1_6_T1_ss2_md.jpeg'></img>","0","false",""
"","html-keyboard-response","25","63470","0.0-10.0-0.6","875","""event"",""trial"",""time""
""fullscreenenter"",""0"",""1930""
","
","
","""event"",""trial"",""time""
""fullscreenenter"",""0"",""1930""
","
","null","<div style=""font-size:60px;"">+</div>","","null","fixation","2021-06-25 22:43:12.230","","","","",""
"","mars-trial","26","67491","0.0-10.0-1.6","875","""event"",""trial"",""time""
""fullscreenenter"",""0"",""1930""
","
","
","""event"",""trial"",""time""
""fullscreenenter"",""0"",""1930""
","
","3413.2000000029802","<img style='border: 4px solid darkgrey;' src='img/tf1_7_M_ss3.jpeg'></img>","3","","exp","","2","<img src='img/tf1_7_T1_ss3_md.jpeg'></img>","0","false",""
"","html-keyboard-response","27","67993","0.0-10.0-0.7","875","""event"",""trial"",""time""
""fullscreenenter"",""0"",""1930""
","
","
","""event"",""trial"",""time""
""fullscreenenter"",""0"",""1930""
","
","null","<div style=""font-size:60px;"">+</div>","","null","fixation","2021-06-25 22:43:16.753","","","","",""
"","mars-trial","28","76171","0.0-10.0-1.7","875","""event"",""trial"",""time""
""fullscreenenter"",""0"",""1930""
","
","
","""event"",""trial"",""time""
""fullscreenenter"",""0"",""1930""
","
","7575.5999999940395","<img style='border: 4px solid darkgrey;' src='img/tf1_8_M_ss1.jpeg'></img>","2","","exp","","0","<img src='img/tf1_8_T1_ss1_md.jpeg'></img>","0","true",""
"","html-keyboard-response","29","76672","0.0-10.0-0.8","875","""event"",""trial"",""time""
""fullscreenenter"",""0"",""1930""
","
","
","""event"",""trial"",""time""
""fullscreenenter"",""0"",""1930""
","
","null","<div style=""font-size:60px;"">+</div>","","null","fixation","2021-06-25 22:43:25.432","","","","",""
"","mars-trial","30","82528","0.0-10.0-1.8","875","""event"",""trial"",""time""
""fullscreenenter"",""0"",""1930""
","
","
","""event"",""trial"",""time""
""fullscreenenter"",""0"",""1930""
","
","5250.60000000149","<img style='border: 4px solid darkgrey;' src='img/tf1_9_M_ss2.jpeg'></img>","2","","exp","","0","<img src='img/tf1_9_T1_ss2_md.jpeg'></img>","0","true",""
"","html-keyboard-response","31","83029","0.0-10.0-0.9","875","""event"",""trial"",""time""
""fullscreenenter"",""0"",""1930""
","
","
","""event"",""trial"",""time""
""fullscreenenter"",""0"",""1930""
","
","null","<div style=""font-size:60px;"">+</div>","","null","fixation","2021-06-25 22:43:31.789","","","","",""
"","mars-trial","32","88820","0.0-10.0-1.9","875","""event"",""trial"",""time""
""fullscreenenter"",""0"",""1930""
","
","
","""event"",""trial"",""time""
""fullscreenenter"",""0"",""1930""
","
","5183.69999999553","<img style='border: 4px solid darkgrey;' src='img/tf1_10_M_ss3.jpeg'></img>","2","","exp","","1","<img src='img/tf1_10_T1_ss3_md.jpeg'></img>","0","false",""
"","html-keyboard-response","33","89322","0.0-10.0-0.10","875","""event"",""trial"",""time""
""fullscreenenter"",""0"",""1930""
","
","
","""event"",""trial"",""time""
""fullscreenenter"",""0"",""1930""
","
","null","<div style=""font-size:60px;"">+</div>","","null","fixation","2021-06-25 22:43:38.083","","","","",""
"","mars-trial","34","98312","0.0-10.0-1.10","875","""event"",""trial"",""time""
""fullscreenenter"",""0"",""1930""
","
","
","""event"",""trial"",""time""
""fullscreenenter"",""0"",""1930""
","
","8385.60000000149","<img style='border: 4px solid darkgrey;' src='img/tf1_11_M_ss1.jpeg'></img>","3","","exp","","2","<img src='img/tf1_11_T1_ss1_md.jpeg'></img>","0","false",""
"","html-keyboard-response","35","98816","0.0-10.0-0.11","875","""event"",""trial"",""time""
""fullscreenenter"",""0"",""1930""
","
","
","""event"",""trial"",""time""
""fullscreenenter"",""0"",""1930""
","
","null","<div style=""font-size:60px;"">+</div>","","null","fixation","2021-06-25 22:43:47.576","","","","",""
"","mars-trial","36","110147","0.0-10.0-1.11","875","""event"",""trial"",""time""
""fullscreenenter"",""0"",""1930""
","
","
","""event"",""trial"",""time""
""fullscreenenter"",""0"",""1930""
","
","10724.40000000596","<img style='border: 4px solid darkgrey;' src='img/tf1_12_M_ss2.jpeg'></img>","2","","exp","","0","<img src='img/tf1_12_T1_ss2_md.jpeg'></img>","0","true",""
"","html-keyboard-response","37","110653","0.0-10.0-0.12","875","""event"",""trial"",""time""
""fullscreenenter"",""0"",""1930""
","
","
","""event"",""trial"",""time""
""fullscreenenter"",""0"",""1930""
","
","null","<div style=""font-size:60px;"">+</div>","","null","fixation","2021-06-25 22:43:59.413","","","","",""
"","mars-trial","38","122230","0.0-10.0-1.12","875","""event"",""trial"",""time""
""fullscreenenter"",""0"",""1930""
","
","
","""event"",""trial"",""time""
""fullscreenenter"",""0"",""1930""
","
","10969.90000000596","<img style='border: 4px solid darkgrey;' src='img/tf1_13_M_ss3.jpeg'></img>","2","","exp","","2","<img src='img/tf1_13_T1_ss3_md.jpeg'></img>","0","false",""
"","html-keyboard-response","39","122732","0.0-10.0-0.13","875","""event"",""trial"",""time""
""fullscreenenter"",""0"",""1930""
","
","
","""event"",""trial"",""time""
""fullscreenenter"",""0"",""1930""
","
","null","<div style=""font-size:60px;"">+</div>","","null","fixation","2021-06-25 22:44:11.492","","","","",""
"","mars-trial","40","138206","0.0-10.0-1.13","875","""event"",""trial"",""time""
""fullscreenenter"",""0"",""1930""
","
","
","""event"",""trial"",""time""
""fullscreenenter"",""0"",""1930""
","
","14870.29999999702","<img style='border: 4px solid darkgrey;' src='img/tf1_14_M_ss1.jpeg'></img>","2","","exp","","3","<img src='img/tf1_14_T1_ss1_md.jpeg'></img>","0","false",""
"","html-keyboard-response","41","138707","0.0-10.0-0.14","875","""event"",""trial"",""time""
""fullscreenenter"",""0"",""1930""
","
","
","""event"",""trial"",""time""
""fullscreenenter"",""0"",""1930""
","
","null","<div style=""font-size:60px;"">+</div>","","null","fixation","2021-06-25 22:44:27.467","","","","",""
"","mars-trial","42","144529","0.0-10.0-1.14","875","""event"",""trial"",""time""
""fullscreenenter"",""0"",""1930""
","
","
","""event"",""trial"",""time""
""fullscreenenter"",""0"",""1930""
","
","5216.89999999851","<img style='border: 4px solid darkgrey;' src='img/tf1_15_M_ss2.jpeg'></img>","3","","exp","","3","<img src='img/tf1_15_T1_ss2_md.jpeg'></img>","0","false",""
"","html-keyboard-response","43","145031","0.0-10.0-0.15","875","""event"",""trial"",""time""
""fullscreenenter"",""0"",""1930""
","
","
","""event"",""trial"",""time""
""fullscreenenter"",""0"",""1930""
","
","null","<div style=""font-size:60px;"">+</div>","","null","fixation","2021-06-25 22:44:33.791","","","","",""
"","mars-trial","44","155745","0.0-10.0-1.15","875","""event"",""trial"",""time""
""fullscreenenter"",""0"",""1930""
","
","
","""event"",""trial"",""time""
""fullscreenenter"",""0"",""1930""
","
","10109.59999999404","<img style='border: 4px solid darkgrey;' src='img/tf1_16_M_ss3.jpeg'></img>","3","","exp","","0","<img src='img/tf1_16_T1_ss3_md.jpeg'></img>","0","true",""
"","html-keyboard-response","45","156250","0.0-10.0-0.16","875","""event"",""trial"",""time""
""fullscreenenter"",""0"",""1930""
","
","
","""event"",""trial"",""time""
""fullscreenenter"",""0"",""1930""
","
","null","<div style=""font-size:60px;"">+</div>","","null","fixation","2021-06-25 22:44:45.010","","","","",""
"","mars-trial","46","162194","0.0-10.0-1.16","875","""event"",""trial"",""time""
""fullscreenenter"",""0"",""1930""
","
","
","""event"",""trial"",""time""
""fullscreenenter"",""0"",""1930""
","
","5333.89999999851","<img style='border: 4px solid darkgrey;' src='img/tf1_17_M_ss1.jpeg'></img>","2","","exp","","3","<img src='img/tf1_17_T1_ss1_md.jpeg'></img>","0","false",""
"","html-keyboard-response","47","162699","0.0-10.0-0.17","875","""event"",""trial"",""time""
""fullscreenenter"",""0"",""1930""
","
","
","""event"",""trial"",""time""
""fullscreenenter"",""0"",""1930""
","
","null","<div style=""font-size:60px;"">+</div>","","null","fixation","2021-06-25 22:44:51.459","","","","",""
"","mars-trial","48","168975","0.0-10.0-1.17","875","""event"",""trial"",""time""
""fullscreenenter"",""0"",""1930""
","
","
","""event"",""trial"",""time""
""fullscreenenter"",""0"",""1930""
","
","5668.30000000447","<img style='border: 4px solid darkgrey;' src='img/tf1_18_M_ss2.jpeg'></img>","1","","exp","","2","<img src='img/tf1_18_T1_ss2_md.jpeg'></img>","0","false",""
"","html-keyboard-response","49","169479","0.0-10.0-0.18","875","""event"",""trial"",""time""
""fullscreenenter"",""0"",""1930""
","
","
","""event"",""trial"",""time""
""fullscreenenter"",""0"",""1930""
","
","null","<div style=""font-size:60px;"">+</div>","","null","fixation","2021-06-25 22:44:58.240","","","","",""
"","mars-trial","50","170517","0.0-10.0-1.18","875","""event"",""trial"",""time""
""fullscreenenter"",""0"",""1930""
","
","
","""event"",""trial"",""time""
""fullscreenenter"",""0"",""1930""
","
","432.30000000447035","<img style='border: 4px solid darkgrey;' src='img/tf1_19_M_ss3.jpeg'></img>","2","","exp","","2","<img src='img/tf1_19_T1_ss3_md.jpeg'></img>","0","false",""
"","html-keyboard-response","51","171019","0.0-10.0-0.19","875","""event"",""trial"",""time""
""fullscreenenter"",""0"",""1930""
","
","
","""event"",""trial"",""time""
""fullscreenenter"",""0"",""1930""
","
","null","<div style=""font-size:60px;"">+</div>","","null","fixation","2021-06-25 22:44:59.779","","","","",""
"","mars-trial","52","172597","0.0-10.0-1.19","875","""event"",""trial"",""time""
""fullscreenenter"",""0"",""1930""
","
","
","""event"",""trial"",""time""
""fullscreenenter"",""0"",""1930""
","
","972.5","<img style='border: 4px solid darkgrey;' src='img/tf1_20_M_ss1.jpeg'></img>","1","","exp","","0","<img src='img/tf1_20_T1_ss1_md.jpeg'></img>","0","true",""
"","html-keyboard-response","53","173098","0.0-10.0-0.20","875","""event"",""trial"",""time""
""fullscreenenter"",""0"",""1930""
","
","
","""event"",""trial"",""time""
""fullscreenenter"",""0"",""1930""
","
","null","<div style=""font-size:60px;"">+</div>","","null","fixation","2021-06-25 22:45:01.858","","","","",""
"","mars-trial","54","174919","0.0-10.0-1.20","875","""event"",""trial"",""time""
""fullscreenenter"",""0"",""1930""
","
","
","""event"",""trial"",""time""
""fullscreenenter"",""0"",""1930""
","
","1214","<img style='border: 4px solid darkgrey;' src='img/tf1_21_M_ss2.jpeg'></img>","2","","exp","","2","<img src='img/tf1_21_T1_ss2_md.jpeg'></img>","0","false",""
"","html-keyboard-response","55","175421","0.0-10.0-0.21","875","""event"",""trial"",""time""
""fullscreenenter"",""0"",""1930""
","
","
","""event"",""trial"",""time""
""fullscreenenter"",""0"",""1930""
","
","null","<div style=""font-size:60px;"">+</div>","","null","fixation","2021-06-25 22:45:04.181","","","","",""
"","mars-trial","56","177101","0.0-10.0-1.21","875","""event"",""trial"",""time""
""fullscreenenter"",""0"",""1930""
","
","
","""event"",""trial"",""time""
""fullscreenenter"",""0"",""1930""
","
","1068.4000000059605","<img style='border: 4px solid darkgrey;' src='img/tf1_22_M_ss3.jpeg'></img>","1","","exp","","2","<img src='img/tf1_22_T1_ss3_md.jpeg'></img>","0","false",""
"","html-keyboard-response","57","177606","0.0-10.0-0.22","875","""event"",""trial"",""time""
""fullscreenenter"",""0"",""1930""
","
","
","""event"",""trial"",""time""
""fullscreenenter"",""0"",""1930""
","
","null","<div style=""font-size:60px;"">+</div>","","null","fixation","2021-06-25 22:45:06.366","","","","",""
"","mars-trial","58","179696","0.0-10.0-1.22","875","""event"",""trial"",""time""
""fullscreenenter"",""0"",""1930""
","
","
","""event"",""trial"",""time""
""fullscreenenter"",""0"",""1930""
","
","1482.7999999970198","<img style='border: 4px solid darkgrey;' src='img/tf1_23_M_ss1.jpeg'></img>","2","","exp","","1","<img src='img/tf1_23_T1_ss1_md.jpeg'></img>","0","false",""
"","html-keyboard-response","59","180198","0.0-10.0-0.23","875","""event"",""trial"",""time""
""fullscreenenter"",""0"",""1930""
","
","
","""event"",""trial"",""time""
""fullscreenenter"",""0"",""1930""
","
","null","<div style=""font-size:60px;"">+</div>","","null","fixation","2021-06-25 22:45:08.958","","","","",""
"","mars-trial","60","182378","0.0-10.0-1.23","875","""event"",""trial"",""time""
""fullscreenenter"",""0"",""1930""
","
","
","""event"",""trial"",""time""
""fullscreenenter"",""0"",""1930""
","
","1571.1000000014901","<img style='border: 4px solid darkgrey;' src='img/tf1_24_M_ss2.jpeg'></img>","3","","exp","","3","<img src='img/tf1_24_T1_ss2_md.jpeg'></img>","0","false",""
"","html-keyboard-response","61","182883","0.0-10.0-0.24","875","""event"",""trial"",""time""
""fullscreenenter"",""0"",""1930""
","
","
","""event"",""trial"",""time""
""fullscreenenter"",""0"",""1930""
","
","null","<div style=""font-size:60px;"">+</div>","","null","fixation","2021-06-25 22:45:11.643","","","","",""
"","mars-trial","62","184052","0.0-10.0-1.24","875","""event"",""trial"",""time""
""fullscreenenter"",""0"",""1930""
","
","
","""event"",""trial"",""time""
""fullscreenenter"",""0"",""1930""
","
","561.5","<img style='border: 4px solid darkgrey;' src='img/tf1_25_M_ss3.jpeg'></img>","2","","exp","","1","<img src='img/tf1_25_T1_ss3_md.jpeg'></img>","0","false",""
"","html-keyboard-response","63","184555","0.0-10.0-0.25","875","""event"",""trial"",""time""
""fullscreenenter"",""0"",""1930""
","
","
","""event"",""trial"",""time""
""fullscreenenter"",""0"",""1930""
","
","null","<div style=""font-size:60px;"">+</div>","","null","fixation","2021-06-25 22:45:13.315","","","","",""
"","mars-trial","64","186021","0.0-10.0-1.25","875","""event"",""trial"",""time""
""fullscreenenter"",""0"",""1930""
","
","
","""event"",""trial"",""time""
""fullscreenenter"",""0"",""1930""
","
","856.6000000014901","<img style='border: 4px solid darkgrey;' src='img/tf1_26_M_ss1.jpeg'></img>","1","","exp","","3","<img src='img/tf1_26_T1_ss1_md.jpeg'></img>","0","false",""
"","html-keyboard-response","65","186523","0.0-10.0-0.26","875","""event"",""trial"",""time""
""fullscreenenter"",""0"",""1930""
","
","
","""event"",""trial"",""time""
""fullscreenenter"",""0"",""1930""
","
","null","<div style=""font-size:60px;"">+</div>","","null","fixation","2021-06-25 22:45:15.283","","","","",""
"","mars-trial","66","187721","0.0-10.0-1.26","875","""event"",""trial"",""time""
""fullscreenenter"",""0"",""1930""
","
","
","""event"",""trial"",""time""
""fullscreenenter"",""0"",""1930""
","
","586.8999999985099","<img style='border: 4px solid darkgrey;' src='img/tf1_27_M_ss2.jpeg'></img>","2","","exp","","1","<img src='img/tf1_27_T1_ss2_md.jpeg'></img>","0","false",""
"","html-keyboard-response","67","188224","0.0-10.0-0.27","875","""event"",""trial"",""time""
""fullscreenenter"",""0"",""1930""
","
","
","""event"",""trial"",""time""
""fullscreenenter"",""0"",""1930""
","
","null","<div style=""font-size:60px;"">+</div>","","null","fixation","2021-06-25 22:45:16.984","","","","",""
"","mars-trial","68","190453","0.0-10.0-1.27","875","""event"",""trial"",""time""
""fullscreenenter"",""0"",""1930""
","
","
","""event"",""trial"",""time""
""fullscreenenter"",""0"",""1930""
","
","1620.5","<img style='border: 4px solid darkgrey;' src='img/tf1_28_M_ss3.jpeg'></img>","1","","exp","","1","<img src='img/tf1_28_T1_ss3_md.jpeg'></img>","0","false",""
"","html-keyboard-response","69","190957","0.0-10.0-0.28","875","""event"",""trial"",""time""
""fullscreenenter"",""0"",""1930""
","
","
","""event"",""trial"",""time""
""fullscreenenter"",""0"",""1930""
","
","null","<div style=""font-size:60px;"">+</div>","","null","fixation","2021-06-25 22:45:19.717","","","","",""
"","mars-trial","70","192322","0.0-10.0-1.28","875","""event"",""trial"",""time""
""fullscreenenter"",""0"",""1930""
","
","
","""event"",""trial"",""time""
""fullscreenenter"",""0"",""1930""
","
","755","<img style='border: 4px solid darkgrey;' src='img/tf1_29_M_ss1.jpeg'></img>","3","","exp","","0","<img src='img/tf1_29_T1_ss1_md.jpeg'></img>","0","true",""
"","html-keyboard-response","71","192828","0.0-10.0-0.29","875","""event"",""trial"",""time""
""fullscreenenter"",""0"",""1930""
","
","
","""event"",""trial"",""time""
""fullscreenenter"",""0"",""1930""
","
","null","<div style=""font-size:60px;"">+</div>","","null","fixation","2021-06-25 22:45:21.588","","","","",""
"","mars-trial","72","194314","0.0-10.0-1.29","875","""event"",""trial"",""time""
""fullscreenenter"",""0"",""1930""
","
","
","""event"",""trial"",""time""
""fullscreenenter"",""0"",""1930""
","
","879.6000000014901","<img style='border: 4px solid darkgrey;' src='img/tf1_30_M_ss2.jpeg'></img>","2","","exp","","0","<img src='img/tf1_30_T1_ss2_md.jpeg'></img>","0","true",""
"","html-keyboard-response","73","194818","0.0-10.0-0.30","875","""event"",""trial"",""time""
""fullscreenenter"",""0"",""1930""
","
","
","""event"",""trial"",""time""
""fullscreenenter"",""0"",""1930""
","
","null","<div style=""font-size:60px;"">+</div>","","null","fixation","2021-06-25 22:45:23.578","","","","",""
"","mars-trial","74","196133","0.0-10.0-1.30","875","""event"",""trial"",""time""
""fullscreenenter"",""0"",""1930""
","
","
","""event"",""trial"",""time""
""fullscreenenter"",""0"",""1930""
","
","707.6000000014901","<img style='border: 4px solid darkgrey;' src='img/tf1_31_M_ss3.jpeg'></img>","2","","exp","","3","<img src='img/tf1_31_T1_ss3_md.jpeg'></img>","0","false",""
"","html-keyboard-response","75","196634","0.0-10.0-0.31","875","""event"",""trial"",""time""
""fullscreenenter"",""0"",""1930""
","
","
","""event"",""trial"",""time""
""fullscreenenter"",""0"",""1930""
","
","null","<div style=""font-size:60px;"">+</div>","","null","fixation","2021-06-25 22:45:25.394","","","","",""
"","mars-trial","76","197731","0.0-10.0-1.31","875","""event"",""trial"",""time""
""fullscreenenter"",""0"",""1930""
","
","
","""event"",""trial"",""time""
""fullscreenenter"",""0"",""1930""
","
","491.20000000298023","<img style='border: 4px solid darkgrey;' src='img/tf1_32_M_ss1.jpeg'></img>","2","","exp","","3","<img src='img/tf1_32_T1_ss1_md.jpeg'></img>","0","false",""
"","html-keyboard-response","77","198233","0.0-10.0-0.32","875","""event"",""trial"",""time""
""fullscreenenter"",""0"",""1930""
","
","
","""event"",""trial"",""time""
""fullscreenenter"",""0"",""1930""
","
","null","<div style=""font-size:60px;"">+</div>","","null","fixation","2021-06-25 22:45:26.993","","","","",""
"","mars-trial","78","199363","0.0-10.0-1.32","875","""event"",""trial"",""time""
""fullscreenenter"",""0"",""1930""
","
","
","""event"",""trial"",""time""
""fullscreenenter"",""0"",""1930""
","
","525.2000000029802","<img style='border: 4px solid darkgrey;' src='img/tf1_33_M_ss2.jpeg'></img>","2","","exp","","2","<img src='img/tf1_33_T1_ss2_md.jpeg'></img>","0","false",""
"","html-keyboard-response","79","199865","0.0-10.0-0.33","875","""event"",""trial"",""time""
""fullscreenenter"",""0"",""1930""
","
","
","""event"",""trial"",""time""
""fullscreenenter"",""0"",""1930""
","
","null","<div style=""font-size:60px;"">+</div>","","null","fixation","2021-06-25 22:45:28.625","","","","",""
"","mars-trial","80","201312","0.0-10.0-1.33","875","""event"",""trial"",""time""
""fullscreenenter"",""0"",""1930""
","
","
","""event"",""trial"",""time""
""fullscreenenter"",""0"",""1930""
","
","836.1999999955297","<img style='border: 4px solid darkgrey;' src='img/tf1_34_M_ss3.jpeg'></img>","2","","exp","","2","<img src='img/tf1_34_T1_ss3_md.jpeg'></img>","0","false",""
"","html-keyboard-response","81","201815","0.0-10.0-0.34","875","""event"",""trial"",""time""
""fullscreenenter"",""0"",""1930""
","
","
","""event"",""trial"",""time""
""fullscreenenter"",""0"",""1930""
","
","null","<div style=""font-size:60px;"">+</div>","","null","fixation","2021-06-25 22:45:30.575","","","","",""
"","mars-trial","82","202887","0.0-10.0-1.34","875","""event"",""trial"",""time""
""fullscreenenter"",""0"",""1930""
","
","
","""event"",""trial"",""time""
""fullscreenenter"",""0"",""1930""
","
","463","<img style='border: 4px solid darkgrey;' src='img/tf1_35_M_ss1.jpeg'></img>","2","","exp","","3","<img src='img/tf1_35_T1_ss1_md.jpeg'></img>","0","false",""
"","html-keyboard-response","83","203389","0.0-10.0-0.35","875","""event"",""trial"",""time""
""fullscreenenter"",""0"",""1930""
","
","
","""event"",""trial"",""time""
""fullscreenenter"",""0"",""1930""
","
","null","<div style=""font-size:60px;"">+</div>","","null","fixation","2021-06-25 22:45:32.149","","","","",""
"","mars-trial","84","204639","0.0-10.0-1.35","875","""event"",""trial"",""time""
""fullscreenenter"",""0"",""1930""
","
","
","""event"",""trial"",""time""
""fullscreenenter"",""0"",""1930""
","
","644.6999999955297","<img style='border: 4px solid darkgrey;' src='img/tf1_36_M_ss2.jpeg'></img>","2","","exp","","3","<img src='img/tf1_36_T1_ss2_md.jpeg'></img>","0","false",""
"","html-keyboard-response","85","205141","0.0-10.0-0.36","875","""event"",""trial"",""time""
""fullscreenenter"",""0"",""1930""
","
","
","""event"",""trial"",""time""
""fullscreenenter"",""0"",""1930""
","
","null","<div style=""font-size:60px;"">+</div>","","null","fixation","2021-06-25 22:45:33.901","","","","",""
"","mars-trial","86","206217","0.0-10.0-1.36","875","""event"",""trial"",""time""
""fullscreenenter"",""0"",""1930""
","
","
","""event"",""trial"",""time""
""fullscreenenter"",""0"",""1930""
","
","466.70000000298023","<img style='border: 4px solid darkgrey;' src='img/tf1_37_M_ss3.jpeg'></img>","2","","exp","","1","<img src='img/tf1_37_T1_ss3_md.jpeg'></img>","0","false",""
"","html-keyboard-response","87","206717","0.0-10.0-0.37","875","""event"",""trial"",""time""
""fullscreenenter"",""0"",""1930""
","
","
","""event"",""trial"",""time""
""fullscreenenter"",""0"",""1930""
","
","null","<div style=""font-size:60px;"">+</div>","","null","fixation","2021-06-25 22:45:35.477","","","","",""
"","mars-trial","88","208059","0.0-10.0-1.37","875","""event"",""trial"",""time""
""fullscreenenter"",""0"",""1930""
","
","
","""event"",""trial"",""time""
""fullscreenenter"",""0"",""1930""
","
","733.3000000044703","<img style='border: 4px solid darkgrey;' src='img/tf1_38_M_ss1.jpeg'></img>","1","","exp","","2","<img src='img/tf1_38_T1_ss1_md.jpeg'></img>","0","false",""
"","html-keyboard-response","89","208564","0.0-10.0-0.38","875","""event"",""trial"",""time""
""fullscreenenter"",""0"",""1930""
","
","
","""event"",""trial"",""time""
""fullscreenenter"",""0"",""1930""
","
","null","<div style=""font-size:60px;"">+</div>","","null","fixation","2021-06-25 22:45:37.324","","","","",""
"","mars-trial","90","209783","0.0-10.0-1.38","875","""event"",""trial"",""time""
""fullscreenenter"",""0"",""1930""
","
","
","""event"",""trial"",""time""
""fullscreenenter"",""0"",""1930""
","
","611.7999999970198","<img style='border: 4px solid darkgrey;' src='img/tf1_39_M_ss2.jpeg'></img>","2","","exp","","2","<img src='img/tf1_39_T1_ss2_md.jpeg'></img>","0","false",""
"","html-keyboard-response","91","210288","0.0-10.0-0.39","875","""event"",""trial"",""time""
""fullscreenenter"",""0"",""1930""
","
","
","""event"",""trial"",""time""
""fullscreenenter"",""0"",""1930""
","
","null","<div style=""font-size:60px;"">+</div>","","null","fixation","2021-06-25 22:45:39.048","","","","",""
"","mars-trial","92","211490","0.0-10.0-1.39","875","""event"",""trial"",""time""
""fullscreenenter"",""0"",""1930""
","
","
","""event"",""trial"",""time""
""fullscreenenter"",""0"",""1930""
","
","597.6000000014901","<img style='border: 4px solid darkgrey;' src='img/tf1_40_M_ss3.jpeg'></img>","1","","exp","","1","<img src='img/tf1_40_T1_ss3_md.jpeg'></img>","0","false",""
"","html-keyboard-response","93","211995","0.0-10.0-0.40","875","""event"",""trial"",""time""
""fullscreenenter"",""0"",""1930""
","
","
","""event"",""trial"",""time""
""fullscreenenter"",""0"",""1930""
","
","null","<div style=""font-size:60px;"">+</div>","","null","fixation","2021-06-25 22:45:40.755","","","","",""
"","mars-trial","94","213268","0.0-10.0-1.40","875","""event"",""trial"",""time""
""fullscreenenter"",""0"",""1930""
","
","
","""event"",""trial"",""time""
""fullscreenenter"",""0"",""1930""
","
","665.5","<img style='border: 4px solid darkgrey;' src='img/tf1_41_M_ss1.jpeg'></img>","2","","exp","","3","<img src='img/tf1_41_T1_ss1_md.jpeg'></img>","0","false",""
"","html-keyboard-response","95","213771","0.0-10.0-0.41","875","""event"",""trial"",""time""
""fullscreenenter"",""0"",""1930""
","
","
","""event"",""trial"",""time""
""fullscreenenter"",""0"",""1930""
","
","null","<div style=""font-size:60px;"">+</div>","","null","fixation","2021-06-25 22:45:42.531","","","","",""
"","mars-trial","96","215588","0.0-10.0-1.41","875","""event"",""trial"",""time""
""fullscreenenter"",""0"",""1930""
","
","
","""event"",""trial"",""time""
""fullscreenenter"",""0"",""1930""
","
","1206.4000000059605","<img style='border: 4px solid darkgrey;' src='img/tf1_42_M_ss2.jpeg'></img>","1","","exp","","2","<img src='img/tf1_42_T1_ss2_md.jpeg'></img>","0","false",""
"","html-keyboard-response","97","216091","0.0-10.0-0.42","875","""event"",""trial"",""time""
""fullscreenenter"",""0"",""1930""
","
","
","""event"",""trial"",""time""
""fullscreenenter"",""0"",""1930""
","
","null","<div style=""font-size:60px;"">+</div>","","null","fixation","2021-06-25 22:45:44.851","","","","",""
"","mars-trial","98","217904","0.0-10.0-1.42","875","""event"",""trial"",""time""
""fullscreenenter"",""0"",""1930""
","
","
","""event"",""trial"",""time""
""fullscreenenter"",""0"",""1930""
","
","1207.5","<img style='border: 4px solid darkgrey;' src='img/tf1_43_M_ss3.jpeg'></img>","3","","exp","","2","<img src='img/tf1_43_T1_ss3_md.jpeg'></img>","0","false",""
"","html-keyboard-response","99","218409","0.0-10.0-0.43","875","""event"",""trial"",""time""
""fullscreenenter"",""0"",""1930""
","
","
","""event"",""trial"",""time""
""fullscreenenter"",""0"",""1930""
","
","null","<div style=""font-size:60px;"">+</div>","","null","fixation","2021-06-25 22:45:47.169","","","","",""
"","mars-trial","100","219715","0.0-10.0-1.43","875","""event"",""trial"",""time""
""fullscreenenter"",""0"",""1930""
","
","
","""event"",""trial"",""time""
""fullscreenenter"",""0"",""1930""
","
","700.3000000044703","<img style='border: 4px solid darkgrey;' src='img/tf1_44_M_ss1.jpeg'></img>","1","","exp","","2","<img src='img/tf1_44_T1_ss1_md.jpeg'></img>","0","false",""
"","html-keyboard-response","101","220220","0.0-10.0-0.44","875","""event"",""trial"",""time""
""fullscreenenter"",""0"",""1930""
","
","
","""event"",""trial"",""time""
""fullscreenenter"",""0"",""1930""
","
","null","<div style=""font-size:60px;"">+</div>","","null","fixation","2021-06-25 22:45:48.980","","","","",""
"","mars-trial","102","221259","0.0-10.0-1.44","875","""event"",""trial"",""time""
""fullscreenenter"",""0"",""1930""
","
","
","""event"",""trial"",""time""
""fullscreenenter"",""0"",""1930""
","
","427.69999999552965","<img style='border: 4px solid darkgrey;' src='img/tf1_45_M_ss2.jpeg'></img>","2","","exp","","3","<img src='img/tf1_45_T1_ss2_md.jpeg'></img>","0","false",""
"","html-keyboard-response","103","221760","0.0-10.0-0.45","875","""event"",""trial"",""time""
""fullscreenenter"",""0"",""1930""
","
","
","""event"",""trial"",""time""
""fullscreenenter"",""0"",""1930""
","
","null","<div style=""font-size:60px;"">+</div>","","null","fixation","2021-06-25 22:45:50.520","","","","",""
"","mars-trial","104","222856","0.0-10.0-1.45","875","""event"",""trial"",""time""
""fullscreenenter"",""0"",""1930""
","
","
","""event"",""trial"",""time""
""fullscreenenter"",""0"",""1930""
","
","488.69999999552965","<img style='border: 4px solid darkgrey;' src='img/tf1_46_M_ss3.jpeg'></img>","1","","exp","","3","<img src='img/tf1_46_T1_ss3_md.jpeg'></img>","0","false",""
"","html-keyboard-response","105","223358","0.0-10.0-0.46","875","""event"",""trial"",""time""
""fullscreenenter"",""0"",""1930""
","
","
","""event"",""trial"",""time""
""fullscreenenter"",""0"",""1930""
","
","null","<div style=""font-size:60px;"">+</div>","","null","fixation","2021-06-25 22:45:52.118","","","","",""
"","mars-trial","106","224452","0.0-10.0-1.46","875","""event"",""trial"",""time""
""fullscreenenter"",""0"",""1930""
","
","
","""event"",""trial"",""time""
""fullscreenenter"",""0"",""1930""
","
","487.3999999985099","<img style='border: 4px solid darkgrey;' src='img/tf1_47_M_ss1.jpeg'></img>","2","","exp","","1","<img src='img/tf1_47_T1_ss1_md.jpeg'></img>","0","false",""
"","html-keyboard-response","107","224955","0.0-10.0-0.47","875","""event"",""trial"",""time""
""fullscreenenter"",""0"",""1930""
","
","
","""event"",""trial"",""time""
""fullscreenenter"",""0"",""1930""
","
","null","<div style=""font-size:60px;"">+</div>","","null","fixation","2021-06-25 22:45:53.715","","","","",""
"","mars-trial","108","226396","0.0-10.0-1.47","875","""event"",""trial"",""time""
""fullscreenenter"",""0"",""1930""
","
","
","""event"",""trial"",""time""
""fullscreenenter"",""0"",""1930""
","
","836.8999999985099","<img style='border: 4px solid darkgrey;' src='img/tf1_48_M_ss2.jpeg'></img>","0","","exp","","2","<img src='img/tf1_48_T1_ss2_md.jpeg'></img>","0","false",""
"","html-keyboard-response","109","226898","0.0-10.0-0.48","875","""event"",""trial"",""time""
""fullscreenenter"",""0"",""1930""
","
","
","""event"",""trial"",""time""
""fullscreenenter"",""0"",""1930""
","
","null","<div style=""font-size:60px;"">+</div>","","null","fixation","2021-06-25 22:45:55.658","","","","",""
"","mars-trial","110","227960","0.0-10.0-1.48","875","""event"",""trial"",""time""
""fullscreenenter"",""0"",""1930""
","
","
","""event"",""trial"",""time""
""fullscreenenter"",""0"",""1930""
","
","458.20000000298023","<img style='border: 4px solid darkgrey;' src='img/tf1_49_M_ss3.jpeg'></img>","2","","exp","","3","<img src='img/tf1_49_T1_ss3_md.jpeg'></img>","0","false",""
"","html-keyboard-response","111","228461","0.0-10.0-0.49","875","""event"",""trial"",""time""
""fullscreenenter"",""0"",""1930""
","
","
","""event"",""trial"",""time""
""fullscreenenter"",""0"",""1930""
","
","null","<div style=""font-size:60px;"">+</div>","","null","fixation","2021-06-25 22:45:57.221","","","","",""
"","mars-trial","112","229547","0.0-10.0-1.49","875","""event"",""trial"",""time""
""fullscreenenter"",""0"",""1930""
","
","
","""event"",""trial"",""time""
""fullscreenenter"",""0"",""1930""
","
","481.90000000596046","<img style='border: 4px solid darkgrey;' src='img/tf1_50_M_ss1.jpeg'></img>","1","","exp","","3","<img src='img/tf1_50_T1_ss1_md.jpeg'></img>","0","false",""
"","html-keyboard-response","113","230049","0.0-10.0-0.50","875","""event"",""trial"",""time""
""fullscreenenter"",""0"",""1930""
","
","
","""event"",""trial"",""time""
""fullscreenenter"",""0"",""1930""
","
","null","<div style=""font-size:60px;"">+</div>","","null","fixation","2021-06-25 22:45:58.809","","","","",""
"","mars-trial","114","231256","0.0-10.0-1.50","875","""event"",""trial"",""time""
""fullscreenenter"",""0"",""1930""
","
","
","""event"",""trial"",""time""
""fullscreenenter"",""0"",""1930""
","
","601.4000000059605","<img style='border: 4px solid darkgrey;' src='img/tf1_51_M_ss2.jpeg'></img>","2","","exp","","0","<img src='img/tf1_51_T1_ss2_md.jpeg'></img>","0","true",""
"","html-keyboard-response","115","231757","0.0-10.0-0.51","875","""event"",""trial"",""time""
""fullscreenenter"",""0"",""1930""
","
","
","""event"",""trial"",""time""
""fullscreenenter"",""0"",""1930""
","
","null","<div style=""font-size:60px;"">+</div>","","null","fixation","2021-06-25 22:46:00.517","","","","",""
"","mars-trial","116","232764","0.0-10.0-1.51","875","""event"",""trial"",""time""
""fullscreenenter"",""0"",""1930""
","
","
","""event"",""trial"",""time""
""fullscreenenter"",""0"",""1930""
","
","404.40000000596046","<img style='border: 4px solid darkgrey;' src='img/tf1_52_M_ss3.jpeg'></img>","1","","exp","","3","<img src='img/tf1_52_T1_ss3_md.jpeg'></img>","0","false",""
"","html-keyboard-response","117","233265","0.0-10.0-0.52","875","""event"",""trial"",""time""
""fullscreenenter"",""0"",""1930""
","
","
","""event"",""trial"",""time""
""fullscreenenter"",""0"",""1930""
","
","null","<div style=""font-size:60px;"">+</div>","","null","fixation","2021-06-25 22:46:02.025","","","","",""
"","mars-trial","118","234428","0.0-10.0-1.52","875","""event"",""trial"",""time""
""fullscreenenter"",""0"",""1930""
","
","
","""event"",""trial"",""time""
""fullscreenenter"",""0"",""1930""
","
","560.7999999970198","<img style='border: 4px solid darkgrey;' src='img/tf1_53_M_ss1.jpeg'></img>","2","","exp","","2","<img src='img/tf1_53_T1_ss1_md.jpeg'></img>","0","false",""
"","html-keyboard-response","119","234930","0.0-10.0-0.53","875","""event"",""trial"",""time""
""fullscreenenter"",""0"",""1930""
","
","
","""event"",""trial"",""time""
""fullscreenenter"",""0"",""1930""
","
","null","<div style=""font-size:60px;"">+</div>","","null","fixation","2021-06-25 22:46:03.690","","","","",""
"","mars-trial","120","236601","0.0-10.0-1.53","875","""event"",""trial"",""time""
""fullscreenenter"",""0"",""1930""
","
","
","""event"",""trial"",""time""
""fullscreenenter"",""0"",""1930""
","
","1066.2999999970198","<img style='border: 4px solid darkgrey;' src='img/tf1_54_M_ss2.jpeg'></img>","2","","exp","","1","<img src='img/tf1_54_T1_ss2_md.jpeg'></img>","0","false",""
"","html-keyboard-response","121","237107","0.0-10.0-0.54","875","""event"",""trial"",""time""
""fullscreenenter"",""0"",""1930""
","
","
","""event"",""trial"",""time""
""fullscreenenter"",""0"",""1930""
","
","null","<div style=""font-size:60px;"">+</div>","","null","fixation","2021-06-25 22:46:05.867","","","","",""
"","mars-trial","122","238198","0.0-10.0-1.54","875","""event"",""trial"",""time""
""fullscreenenter"",""0"",""1930""
","
","
","""event"",""trial"",""time""
""fullscreenenter"",""0"",""1930""
","
","483.69999999552965","<img style='border: 4px solid darkgrey;' src='img/tf1_55_M_ss3.jpeg'></img>","2","","exp","","1","<img src='img/tf1_55_T1_ss3_md.jpeg'></img>","0","false",""
"","html-keyboard-response","123","238703","0.0-10.0-0.55","875","""event"",""trial"",""time""
""fullscreenenter"",""0"",""1930""
","
","
","""event"",""trial"",""time""
""fullscreenenter"",""0"",""1930""
","
","null","<div style=""font-size:60px;"">+</div>","","null","fixation","2021-06-25 22:46:07.463","","","","",""
"","mars-trial","124","239796","0.0-10.0-1.55","875","""event"",""trial"",""time""
""fullscreenenter"",""0"",""1930""
","
","
","""event"",""trial"",""time""
""fullscreenenter"",""0"",""1930""
","
","484.5","<img style='border: 4px solid darkgrey;' src='img/tf1_56_M_ss1.jpeg'></img>","2","","exp","","1","<img src='img/tf1_56_T1_ss1_md.jpeg'></img>","0","false",""
"","html-keyboard-response","125","240299","0.0-10.0-0.56","875","""event"",""trial"",""time""
""fullscreenenter"",""0"",""1930""
","
","
","""event"",""trial"",""time""
""fullscreenenter"",""0"",""1930""
","
","null","<div style=""font-size:60px;"">+</div>","","null","fixation","2021-06-25 22:46:09.060","","","","",""
"","mars-trial","126","246122","0.0-10.0-1.56","875","""event"",""trial"",""time""
""fullscreenenter"",""0"",""1930""
","
","
","""event"",""trial"",""time""
""fullscreenenter"",""0"",""1930""
","
","5211","<img style='border: 4px solid darkgrey;' src='img/tf1_57_M_ss2.jpeg'></img>","1","","exp","","3","<img src='img/tf1_57_T1_ss2_md.jpeg'></img>","0","false",""
"","html-keyboard-response","127","246627","0.0-10.0-0.57","875","""event"",""trial"",""time""
""fullscreenenter"",""0"",""1930""
","
","
","""event"",""trial"",""time""
""fullscreenenter"",""0"",""1930""
","
","null","<div style=""font-size:60px;"">+</div>","","null","fixation","2021-06-25 22:46:15.387","","","","",""
"","mars-trial","128","252496","0.0-10.0-1.57","875","""event"",""trial"",""time""
""fullscreenenter"",""0"",""1930""
","
","
","""event"",""trial"",""time""
""fullscreenenter"",""0"",""1930""
","
","5265.79999999702","<img style='border: 4px solid darkgrey;' src='img/tf1_58_M_ss3.jpeg'></img>","3","","exp","","0","<img src='img/tf1_58_T1_ss3_md.jpeg'></img>","0","true",""
"","html-keyboard-response","129","253001","0.0-10.0-0.58","875","""event"",""trial"",""time""
""fullscreenenter"",""0"",""1930""
","
","
","""event"",""trial"",""time""
""fullscreenenter"",""0"",""1930""
","
","null","<div style=""font-size:60px;"">+</div>","","null","fixation","2021-06-25 22:46:21.761","","","","",""
"","mars-trial","130","257885","0.0-10.0-1.58","875","""event"",""trial"",""time""
""fullscreenenter"",""0"",""1930""
","
","
","""event"",""trial"",""time""
""fullscreenenter"",""0"",""1930""
","
","4277.39999999851","<img style='border: 4px solid darkgrey;' src='img/tf1_59_M_ss1.jpeg'></img>","1","","exp","","2","<img src='img/tf1_59_T1_ss1_md.jpeg'></img>","0","false",""
"","html-keyboard-response","131","258387","0.0-10.0-0.59","875","""event"",""trial"",""time""
""fullscreenenter"",""0"",""1930""
","
","
","""event"",""trial"",""time""
""fullscreenenter"",""0"",""1930""
","
","null","<div style=""font-size:60px;"">+</div>","","null","fixation","2021-06-25 22:46:27.147","","","","",""
"","mars-trial","132","259685","0.0-10.0-1.59","875","""event"",""trial"",""time""
""fullscreenenter"",""0"",""1930""
","
","
","""event"",""trial"",""time""
""fullscreenenter"",""0"",""1930""
","
","695.2000000029802","<img style='border: 4px solid darkgrey;' src='img/tf1_60_M_ss2.jpeg'></img>","3","","exp","","2","<img src='img/tf1_60_T1_ss2_md.jpeg'></img>","0","false",""
"","html-keyboard-response","133","260187","0.0-10.0-0.60","875","""event"",""trial"",""time""
""fullscreenenter"",""0"",""1930""
","
","
","""event"",""trial"",""time""
""fullscreenenter"",""0"",""1930""
","
","null","<div style=""font-size:60px;"">+</div>","","null","fixation","2021-06-25 22:46:28.947","","","","",""
"","mars-trial","134","266819","0.0-10.0-1.60","875","""event"",""trial"",""time""
""fullscreenenter"",""0"",""1930""
","
","
","""event"",""trial"",""time""
""fullscreenenter"",""0"",""1930""
","
","6027.39999999851","<img style='border: 4px solid darkgrey;' src='img/tf1_61_M_ss3.jpeg'></img>","2","","exp","","0","<img src='img/tf1_61_T1_ss3_md.jpeg'></img>","0","true",""
"","html-keyboard-response","135","267324","0.0-10.0-0.61","875","""event"",""trial"",""time""
""fullscreenenter"",""0"",""1930""
","
","
","""event"",""trial"",""time""
""fullscreenenter"",""0"",""1930""
","
","null","<div style=""font-size:60px;"">+</div>","","null","fixation","2021-06-25 22:46:36.084","","","","",""
"","mars-trial","136","268934","0.0-10.0-1.61","875","""event"",""trial"",""time""
""fullscreenenter"",""0"",""1930""
","
","
","""event"",""trial"",""time""
""fullscreenenter"",""0"",""1930""
","
","1004.9000000059605","<img style='border: 4px solid darkgrey;' src='img/tf1_62_M_ss1.jpeg'></img>","2","","exp","","3","<img src='img/tf1_62_T1_ss1_md.jpeg'></img>","0","false",""
"","html-keyboard-response","137","269437","0.0-10.0-0.62","875","""event"",""trial"",""time""
""fullscreenenter"",""0"",""1930""
","
","
","""event"",""trial"",""time""
""fullscreenenter"",""0"",""1930""
","
","null","<div style=""font-size:60px;"">+</div>","","null","fixation","2021-06-25 22:46:38.197","","","","",""
"","mars-trial","138","275245","0.0-10.0-1.62","875","""event"",""trial"",""time""
""fullscreenenter"",""0"",""1930""
","
","
","""event"",""trial"",""time""
""fullscreenenter"",""0"",""1930""
","
","5203.5999999940395","<img style='border: 4px solid darkgrey;' src='img/tf1_63_M_ss2.jpeg'></img>","1","","exp","","2","<img src='img/tf1_63_T1_ss2_md.jpeg'></img>","0","false",""
"","html-keyboard-response","139","275746","0.0-10.0-0.63","875","""event"",""trial"",""time""
""fullscreenenter"",""0"",""1930""
","
","
","""event"",""trial"",""time""
""fullscreenenter"",""0"",""1930""
","
","null","<div style=""font-size:60px;"">+</div>","","null","fixation","2021-06-25 22:46:44.506","","","","",""
"","mars-trial","140","277248","0.0-10.0-1.63","875","""event"",""trial"",""time""
""fullscreenenter"",""0"",""1930""
","
","
","""event"",""trial"",""time""
""fullscreenenter"",""0"",""1930""
","
","897.2999999970198","<img style='border: 4px solid darkgrey;' src='img/tf1_64_M_ss3.jpeg'></img>","2","","exp","","1","<img src='img/tf1_64_T1_ss3_md.jpeg'></img>","0","false",""
"","html-keyboard-response","141","277749","0.0-10.0-0.64","875","""event"",""trial"",""time""
""fullscreenenter"",""0"",""1930""
","
","
","""event"",""trial"",""time""
""fullscreenenter"",""0"",""1930""
","
","null","<div style=""font-size:60px;"">+</div>","","null","fixation","2021-06-25 22:46:46.509","","","","",""
"","mars-trial","142","279330","0.0-10.0-1.64","875","""event"",""trial"",""time""
""fullscreenenter"",""0"",""1930""
","
","
","""event"",""trial"",""time""
""fullscreenenter"",""0"",""1930""
","
","975.6999999955297","<img style='border: 4px solid darkgrey;' src='img/tf1_65_M_ss1.jpeg'></img>","0","","exp","","2","<img src='img/tf1_65_T1_ss1_md.jpeg'></img>","0","false",""
"","html-keyboard-response","143","279831","0.0-10.0-0.65","875","""event"",""trial"",""time""
""fullscreenenter"",""0"",""1930""
","
","
","""event"",""trial"",""time""
""fullscreenenter"",""0"",""1930""
","
","null","<div style=""font-size:60px;"">+</div>","","null","fixation","2021-06-25 22:46:48.591","","","","",""
"","mars-trial","144","280892","0.0-10.0-1.65","875","""event"",""trial"",""time""
""fullscreenenter"",""0"",""1930""
","
","
","""event"",""trial"",""time""
""fullscreenenter"",""0"",""1930""
","
","457.79999999701977","<img style='border: 4px solid darkgrey;' src='img/tf1_66_M_ss2.jpeg'></img>","3","","exp","","3","<img src='img/tf1_66_T1_ss2_md.jpeg'></img>","0","false",""
"","html-keyboard-response","145","281393","0.0-10.0-0.66","875","""event"",""trial"",""time""
""fullscreenenter"",""0"",""1930""
","
","
","""event"",""trial"",""time""
""fullscreenenter"",""0"",""1930""
","
","null","<div style=""font-size:60px;"">+</div>","","null","fixation","2021-06-25 22:46:50.153","","","","",""
"","mars-trial","146","282434","0.0-10.0-1.66","875","""event"",""trial"",""time""
""fullscreenenter"",""0"",""1930""
","
","
","""event"",""trial"",""time""
""fullscreenenter"",""0"",""1930""
","
","437","<img style='border: 4px solid darkgrey;' src='img/tf1_67_M_ss3.jpeg'></img>","2","","exp","","1","<img src='img/tf1_67_T1_ss3_md.jpeg'></img>","0","false",""
"","html-keyboard-response","147","282936","0.0-10.0-0.67","875","""event"",""trial"",""time""
""fullscreenenter"",""0"",""1930""
","
","
","""event"",""trial"",""time""
""fullscreenenter"",""0"",""1930""
","
","null","<div style=""font-size:60px;"">+</div>","","null","fixation","2021-06-25 22:46:51.696","","","","",""
"","mars-trial","148","283697","0.0-10.0-1.67","875","""event"",""trial"",""time""
""fullscreenenter"",""0"",""1930""
","
","
","""event"",""trial"",""time""
""fullscreenenter"",""0"",""1930""
","
","151.79999999701977","<img style='border: 4px solid darkgrey;' src='img/tf1_68_M_ss1.jpeg'></img>","1","","exp","","1","<img src='img/tf1_68_T1_ss1_md.jpeg'></img>","0","false",""
"","html-keyboard-response","149","284202","0.0-10.0-0.68","875","""event"",""trial"",""time""
""fullscreenenter"",""0"",""1930""
","
","
","""event"",""trial"",""time""
""fullscreenenter"",""0"",""1930""
","
","null","<div style=""font-size:60px;"">+</div>","","null","fixation","2021-06-25 22:46:52.962","","","","",""
"","mars-trial","150","286507","0.0-10.0-1.68","875","""event"",""trial"",""time""
""fullscreenenter"",""0"",""1930""
","
","
","""event"",""trial"",""time""
""fullscreenenter"",""0"",""1930""
","
","1700.5999999940395","<img style='border: 4px solid darkgrey;' src='img/tf1_69_M_ss2.jpeg'></img>","2","","exp","","0","<img src='img/tf1_69_T1_ss2_md.jpeg'></img>","0","true",""
"","html-keyboard-response","151","287011","0.0-10.0-0.69","875","""event"",""trial"",""time""
""fullscreenenter"",""0"",""1930""
","
","
","""event"",""trial"",""time""
""fullscreenenter"",""0"",""1930""
","
","null","<div style=""font-size:60px;"">+</div>","","null","fixation","2021-06-25 22:46:55.771","","","","",""
"","mars-trial","152","288227","0.0-10.0-1.69","875","""event"",""trial"",""time""
""fullscreenenter"",""0"",""1930""
","
","
","""event"",""trial"",""time""
""fullscreenenter"",""0"",""1930""
","
","610.5","<img style='border: 4px solid darkgrey;' src='img/tf1_70_M_ss3.jpeg'></img>","2","","exp","","1","<img src='img/tf1_70_T1_ss3_md.jpeg'></img>","0","false",""
"","html-keyboard-response","153","288729","0.0-10.0-0.70","875","""event"",""trial"",""time""
""fullscreenenter"",""0"",""1930""
","
","
","""event"",""trial"",""time""
""fullscreenenter"",""0"",""1930""
","
","null","<div style=""font-size:60px;"">+</div>","","null","fixation","2021-06-25 22:46:57.489","","","","",""
"","mars-trial","154","290016","0.0-10.0-1.70","875","""event"",""trial"",""time""
""fullscreenenter"",""0"",""1930""
","
","
","""event"",""trial"",""time""
""fullscreenenter"",""0"",""1930""
","
","682.7000000029802","<img style='border: 4px solid darkgrey;' src='img/tf1_71_M_ss1.jpeg'></img>","0","","exp","","3","<img src='img/tf1_71_T1_ss1_md.jpeg'></img>","0","false",""
"","html-keyboard-response","155","290518","0.0-10.0-0.71","875","""event"",""trial"",""time""
""fullscreenenter"",""0"",""1930""
","
","
","""event"",""trial"",""time""
""fullscreenenter"",""0"",""1930""
","
","null","<div style=""font-size:60px;"">+</div>","","null","fixation","2021-06-25 22:46:59.278","","","","",""
"","mars-trial","156","292901","0.0-10.0-1.71","875","""event"",""trial"",""time""
""fullscreenenter"",""0"",""1930""
","
","
","""event"",""trial"",""time""
""fullscreenenter"",""0"",""1930""
","
","1780.1000000014901","<img style='border: 4px solid darkgrey;' src='img/tf1_72_M_ss2.jpeg'></img>","2","","exp","","0","<img src='img/tf1_72_T1_ss2_md.jpeg'></img>","0","true",""
"","html-keyboard-response","157","293404","0.0-10.0-0.72","875","""event"",""trial"",""time""
""fullscreenenter"",""0"",""1930""
","
","
","""event"",""trial"",""time""
""fullscreenenter"",""0"",""1930""
","
","null","<div style=""font-size:60px;"">+</div>","","null","fixation","2021-06-25 22:47:02.164","","","","",""
"","mars-trial","158","295350","0.0-10.0-1.72","875","""event"",""trial"",""time""
""fullscreenenter"",""0"",""1930""
","
","
","""event"",""trial"",""time""
""fullscreenenter"",""0"",""1930""
","
","1338.1000000014901","<img style='border: 4px solid darkgrey;' src='img/tf1_73_M_ss3.jpeg'></img>","2","","exp","","2","<img src='img/tf1_73_T1_ss3_md.jpeg'></img>","0","false",""
"","html-keyboard-response","159","295853","0.0-10.0-0.73","875","""event"",""trial"",""time""
""fullscreenenter"",""0"",""1930""
","
","
","""event"",""trial"",""time""
""fullscreenenter"",""0"",""1930""
","
","null","<div style=""font-size:60px;"">+</div>","","null","fixation","2021-06-25 22:47:04.613","","","","",""
"","mars-trial","160","297653","0.0-10.0-1.73","875","""event"",""trial"",""time""
""fullscreenenter"",""0"",""1930""
","
","
","""event"",""trial"",""time""
""fullscreenenter"",""0"",""1930""
","
","1191.1999999955297","<img style='border: 4px solid darkgrey;' src='img/tf1_74_M_ss1.jpeg'></img>","1","","exp","","0","<img src='img/tf1_74_T1_ss1_md.jpeg'></img>","0","true",""
"","html-keyboard-response","161","298154","0.0-10.0-0.74","875","""event"",""trial"",""time""
""fullscreenenter"",""0"",""1930""
","
","
","""event"",""trial"",""time""
""fullscreenenter"",""0"",""1930""
","
","null","<div style=""font-size:60px;"">+</div>","","null","fixation","2021-06-25 22:47:06.914","","","","",""
"","mars-trial","162","301380","0.0-10.0-1.74","875","""event"",""trial"",""time""
""fullscreenenter"",""0"",""1930""
","
","
","""event"",""trial"",""time""
""fullscreenenter"",""0"",""1930""
","
","2616.89999999851","<img style='border: 4px solid darkgrey;' src='img/tf1_75_M_ss2.jpeg'></img>","1","","exp","","3","<img src='img/tf1_75_T1_ss2_md.jpeg'></img>","0","false",""
"","html-keyboard-response","163","301881","0.0-10.0-0.75","875","""event"",""trial"",""time""
""fullscreenenter"",""0"",""1930""
","
","
","""event"",""trial"",""time""
""fullscreenenter"",""0"",""1930""
","
","null","<div style=""font-size:60px;"">+</div>","","null","fixation","2021-06-25 22:47:10.641","","","","",""
"","mars-trial","164","302967","0.0-10.0-1.75","875","""event"",""trial"",""time""
""fullscreenenter"",""0"",""1930""
","
","
","""event"",""trial"",""time""
""fullscreenenter"",""0"",""1930""
","
","482.5","<img style='border: 4px solid darkgrey;' src='img/tf1_76_M_ss3.jpeg'></img>","2","","exp","","2","<img src='img/tf1_76_T1_ss3_md.jpeg'></img>","0","false",""
"","html-keyboard-response","165","303469","0.0-10.0-0.76","875","""event"",""trial"",""time""
""fullscreenenter"",""0"",""1930""
","
","
","""event"",""trial"",""time""
""fullscreenenter"",""0"",""1930""
","
","null","<div style=""font-size:60px;"">+</div>","","null","fixation","2021-06-25 22:47:12.229","","","","",""
"","mars-trial","166","304518","0.0-10.0-1.76","875","""event"",""trial"",""time""
""fullscreenenter"",""0"",""1930""
","
","
","""event"",""trial"",""time""
""fullscreenenter"",""0"",""1930""
","
","445.5","<img style='border: 4px solid darkgrey;' src='img/tf1_77_M_ss1.jpeg'></img>","0","","exp","","1","<img src='img/tf1_77_T1_ss1_md.jpeg'></img>","0","false",""
"","html-keyboard-response","167","305020","0.0-10.0-0.77","875","""event"",""trial"",""time""
""fullscreenenter"",""0"",""1930""
","
","
","""event"",""trial"",""time""
""fullscreenenter"",""0"",""1930""
","
","null","<div style=""font-size:60px;"">+</div>","","null","fixation","2021-06-25 22:47:13.780","","","","",""
"","mars-trial","168","306523","0.0-10.0-1.77","875","""event"",""trial"",""time""
""fullscreenenter"",""0"",""1930""
","
","
","""event"",""trial"",""time""
""fullscreenenter"",""0"",""1930""
","
","893.5","<img style='border: 4px solid darkgrey;' src='img/tf1_78_M_ss2.jpeg'></img>","1","","exp","","2","<img src='img/tf1_78_T1_ss2_md.jpeg'></img>","0","false",""
"","html-keyboard-response","169","307027","0.0-10.0-0.78","875","""event"",""trial"",""time""
""fullscreenenter"",""0"",""1930""
","
","
","""event"",""trial"",""time""
""fullscreenenter"",""0"",""1930""
","
","null","<div style=""font-size:60px;"">+</div>","","null","fixation","2021-06-25 22:47:15.787","","","","",""
"","mars-trial","170","309232","0.0-10.0-1.78","875","""event"",""trial"",""time""
""fullscreenenter"",""0"",""1930""
","
","
","""event"",""trial"",""time""
""fullscreenenter"",""0"",""1930""
","
","1600.5999999940395","<img style='border: 4px solid darkgrey;' src='img/tf1_79_M_ss3.jpeg'></img>","1","","exp","","3","<img src='img/tf1_79_T1_ss3_md.jpeg'></img>","0","false",""
"","html-keyboard-response","171","309735","0.0-10.0-0.79","875","""event"",""trial"",""time""
""fullscreenenter"",""0"",""1930""
","
","
","""event"",""trial"",""time""
""fullscreenenter"",""0"",""1930""
","
","null","<div style=""font-size:60px;"">+</div>","","null","fixation","2021-06-25 22:47:18.495","","","","",""
"","mars-trial","172","311760","0.0-10.0-1.79","875","""event"",""trial"",""time""
""fullscreenenter"",""0"",""1930""
","
","
","""event"",""trial"",""time""
""fullscreenenter"",""0"",""1930""
","
","1419.3999999985099","<img style='border: 4px solid darkgrey;' src='img/tf1_80_M_ss1.jpeg'></img>","0","","exp","","1","<img src='img/tf1_80_T1_ss1_md.jpeg'></img>","0","false",""
"","audio-button-response","173","314805","0.0-11.0","875","""event"",""trial"",""time""
""fullscreenenter"",""0"",""1930""
","
","
","""event"",""trial"",""time""
""fullscreenenter"",""0"",""1930""
","
","3044.10000000149","audio/mars_instructions_slide5.wav","0","","","","","","","",""
