"success","trial_type","trial_index","time_elapsed","internal_node_id","subject_id","interactions","blur_events","focus_events","fullscreenenter_events","fullscreenexit_events","rt","stimulus","button_pressed","key_press","part","timestamp","unshuffled_button","correct_response","correct_button","correct","value"
"true","fullscreen","0","28406","0.0-0.0","946","""event"",""trial"",""time""
""fullscreenenter"",""0"",""27408""
","
","
","""event"",""trial"",""time""
""fullscreenenter"",""0"",""27408""
","
","","","","","","","","","","",""
"","pavlovia","1","28412","0.0-1.0","946","""event"",""trial"",""time""
""fullscreenenter"",""0"",""27408""
","
","
","""event"",""trial"",""time""
""fullscreenenter"",""0"",""27408""
","
","","","","","","","","","","",""
"","html-button-response","2","33208","0.0-2.0","946","""event"",""trial"",""time""
""fullscreenenter"",""0"",""27408""
","
","
","""event"",""trial"",""time""
""fullscreenenter"",""0"",""27408""
","
","4793.0949999718","<p>Welcome! Press START to begin.</p><br>","0","","","","","","","",""
"","audio-button-response","3","48171","0.0-3.0","946","""event"",""trial"",""time""
""fullscreenenter"",""0"",""27408""
","
","
","""event"",""trial"",""time""
""fullscreenenter"",""0"",""27408""
","
","14959.374999976717","audio/mars_instructions_slide2.wav","0","","","","","","","",""
"","audio-button-response","4","65075","0.0-4.0","946","""event"",""trial"",""time""
""fullscreenenter"",""0"",""27408""
","
","
","""event"",""trial"",""time""
""fullscreenenter"",""0"",""27408""
","
","16901.354999979958","audio/mars_instructions_slide3.wav","0","","","","","","","",""
"","html-keyboard-response","5","65579","0.0-5.0-0.0","946","""event"",""trial"",""time""
""fullscreenenter"",""0"",""27408""
","
","
","""event"",""trial"",""time""
""fullscreenenter"",""0"",""27408""
","
","null","<div style=""font-size:60px;"">+</div>","","null","fixation","2021-06-26 11:19:21.560","","","","",""
"","mars-trial","6","73703","0.0-5.0-1.0","946","""event"",""trial"",""time""
""fullscreenenter"",""0"",""27408""
","
","
","""event"",""trial"",""time""
""fullscreenenter"",""0"",""27408""
","
","6011.274999997113","<img style='border: 4px solid darkgrey;' src='practice/pt1_M1.png'></img>","2","","practice","","3","<img src='practice/pt1_T1.png'></img>","0","false",""
"","html-keyboard-response","7","74206","0.0-5.1-0.1","946","""event"",""trial"",""time""
""fullscreenenter"",""0"",""27408""
","
","
","""event"",""trial"",""time""
""fullscreenenter"",""0"",""27408""
","
","null","<div style=""font-size:60px;"">+</div>","","null","fixation","2021-06-26 11:19:30.187","","","","",""
"","mars-trial","8","95543","0.0-5.1-1.1","946","""event"",""trial"",""time""
""fullscreenenter"",""0"",""27408""
","
","
","""event"",""trial"",""time""
""fullscreenenter"",""0"",""27408""
","
","19226.46000003442","<img style='border: 4px solid darkgrey;' src='practice/pt1_M1.png'></img>","2","","practice","","0","<img src='practice/pt1_T1.png'></img>","0","true",""
"","html-keyboard-response","9","96050","0.0-6.0-0.0","946","""event"",""trial"",""time""
""fullscreenenter"",""0"",""27408""
","
","
","""event"",""trial"",""time""
""fullscreenenter"",""0"",""27408""
","
","null","<div style=""font-size:60px;"">+</div>","","null","fixation","2021-06-26 11:19:52.031","","","","",""
"","mars-trial","10","105414","0.0-6.0-1.0","946","""event"",""trial"",""time""
""fullscreenenter"",""0"",""27408""
","
","
","""event"",""trial"",""time""
""fullscreenenter"",""0"",""27408""
","
","7254.215000022668","<img style='border: 4px solid darkgrey;' src='practice/pt2_M1.png'></img>","0","","practice","","0","<img src='practice/pt2_T1.png'></img>","0","true",""
"","html-keyboard-response","11","105919","0.0-7.0-0.0","946","""event"",""trial"",""time""
""fullscreenenter"",""0"",""27408""
","
","
","""event"",""trial"",""time""
""fullscreenenter"",""0"",""27408""
","
","null","<div style=""font-size:60px;"">+</div>","","null","fixation","2021-06-26 11:20:01.900","","","","",""
"","mars-trial","12","111823","0.0-7.0-1.0","946","""event"",""trial"",""time""
""fullscreenenter"",""0"",""27408""
","
","
","""event"",""trial"",""time""
""fullscreenenter"",""0"",""27408""
","
","3793.9900000346825","<img style='border: 4px solid darkgrey;' src='practice/pt3_M1.png'></img>","3","","practice","","0","<img src='practice/pt3_T1.png'></img>","0","true",""
"","audio-button-response","13","117255","0.0-8.0","946","""event"",""trial"",""time""
""fullscreenenter"",""0"",""27408""
","
","
","""event"",""trial"",""time""
""fullscreenenter"",""0"",""27408""
","
","5428.5950000048615","audio/mars_instructions_slide4.wav","0","","","","","","","",""
"","call-function","14","117256","0.0-9.0","946","""event"",""trial"",""time""
""fullscreenenter"",""0"",""27408""
","
","
","""event"",""trial"",""time""
""fullscreenenter"",""0"",""27408""
","
","","","","","","","","","","",""
"","html-keyboard-response","15","117762","0.0-10.0-0.0","946","""event"",""trial"",""time""
""fullscreenenter"",""0"",""27408""
","
","
","""event"",""trial"",""time""
""fullscreenenter"",""0"",""27408""
","
","null","<div style=""font-size:60px;"">+</div>","","null","fixation","2021-06-26 11:20:13.743","","","","",""
"","mars-trial","16","120720","0.0-10.0-1.0","946","""event"",""trial"",""time""
""fullscreenenter"",""0"",""27408""
","
","
","""event"",""trial"",""time""
""fullscreenenter"",""0"",""27408""
","
","2344.489999988582","<img style='border: 4px solid darkgrey;' src='img/tf1_1_M_ss3.jpeg'></img>","1","","exp","","0","<img src='img/tf1_1_T1_ss3_md.jpeg'></img>","0","true",""
"","html-keyboard-response","17","121222","0.0-10.0-0.1","946","""event"",""trial"",""time""
""fullscreenenter"",""0"",""27408""
","
","
","""event"",""trial"",""time""
""fullscreenenter"",""0"",""27408""
","
","null","<div style=""font-size:60px;"">+</div>","","null","fixation","2021-06-26 11:20:17.203","","","","",""
"","mars-trial","18","125943","0.0-10.0-1.1","946","""event"",""trial"",""time""
""fullscreenenter"",""0"",""27408""
","
","
","""event"",""trial"",""time""
""fullscreenenter"",""0"",""27408""
","
","4111.319999967236","<img style='border: 4px solid darkgrey;' src='img/tf1_2_M_ss1.jpeg'></img>","1","","exp","","0","<img src='img/tf1_2_T1_ss1_md.jpeg'></img>","0","true",""
"","html-keyboard-response","19","126446","0.0-10.0-0.2","946","""event"",""trial"",""time""
""fullscreenenter"",""0"",""27408""
","
","
","""event"",""trial"",""time""
""fullscreenenter"",""0"",""27408""
","
","null","<div style=""font-size:60px;"">+</div>","","null","fixation","2021-06-26 11:20:22.427","","","","",""
"","mars-trial","20","132484","0.0-10.0-1.2","946","""event"",""trial"",""time""
""fullscreenenter"",""0"",""27408""
","
","
","""event"",""trial"",""time""
""fullscreenenter"",""0"",""27408""
","
","5423.644999973476","<img style='border: 4px solid darkgrey;' src='img/tf1_3_M_ss2.jpeg'></img>","2","","exp","","0","<img src='img/tf1_3_T1_ss2_md.jpeg'></img>","0","true",""
"","html-keyboard-response","21","132989","0.0-10.0-0.3","946","""event"",""trial"",""time""
""fullscreenenter"",""0"",""27408""
","
","
","""event"",""trial"",""time""
""fullscreenenter"",""0"",""27408""
","
","null","<div style=""font-size:60px;"">+</div>","","null","fixation","2021-06-26 11:20:28.970","","","","",""
"","mars-trial","22","138480","0.0-10.0-1.3","946","""event"",""trial"",""time""
""fullscreenenter"",""0"",""27408""
","
","
","""event"",""trial"",""time""
""fullscreenenter"",""0"",""27408""
","
","4877.395000017714","<img style='border: 4px solid darkgrey;' src='img/tf1_4_M_ss3.jpeg'></img>","0","","exp","","0","<img src='img/tf1_4_T1_ss3_md.jpeg'></img>","0","true",""
"","html-keyboard-response","23","138982","0.0-10.0-0.4","946","""event"",""trial"",""time""
""fullscreenenter"",""0"",""27408""
","
","
","""event"",""trial"",""time""
""fullscreenenter"",""0"",""27408""
","
","null","<div style=""font-size:60px;"">+</div>","","null","fixation","2021-06-26 11:20:34.963","","","","",""
"","mars-trial","24","141726","0.0-10.0-1.4","946","""event"",""trial"",""time""
""fullscreenenter"",""0"",""27408""
","
","
","""event"",""trial"",""time""
""fullscreenenter"",""0"",""27408""
","
","2135.874999978114","<img style='border: 4px solid darkgrey;' src='img/tf1_5_M_ss1.jpeg'></img>","1","","exp","","0","<img src='img/tf1_5_T1_ss1_md.jpeg'></img>","0","true",""
"","html-keyboard-response","25","142230","0.0-10.0-0.5","946","""event"",""trial"",""time""
""fullscreenenter"",""0"",""27408""
","
","
","""event"",""trial"",""time""
""fullscreenenter"",""0"",""27408""
","
","null","<div style=""font-size:60px;"">+</div>","","null","fixation","2021-06-26 11:20:38.211","","","","",""
"","mars-trial","26","150346","0.0-10.0-1.5","946","""event"",""trial"",""time""
""fullscreenenter"",""0"",""27408""
","
","
","""event"",""trial"",""time""
""fullscreenenter"",""0"",""27408""
","
","7504.744999983814","<img style='border: 4px solid darkgrey;' src='img/tf1_6_M_ss2.jpeg'></img>","2","","exp","","3","<img src='img/tf1_6_T1_ss2_md.jpeg'></img>","0","false",""
"","html-keyboard-response","27","150849","0.0-10.0-0.6","946","""event"",""trial"",""time""
""fullscreenenter"",""0"",""27408""
","
","
","""event"",""trial"",""time""
""fullscreenenter"",""0"",""27408""
","
","null","<div style=""font-size:60px;"">+</div>","","null","fixation","2021-06-26 11:20:46.830","","","","",""
"","mars-trial","28","156848","0.0-10.0-1.6","946","""event"",""trial"",""time""
""fullscreenenter"",""0"",""27408""
","
","
","""event"",""trial"",""time""
""fullscreenenter"",""0"",""27408""
","
","5389.854999957606","<img style='border: 4px solid darkgrey;' src='img/tf1_7_M_ss3.jpeg'></img>","3","","exp","","0","<img src='img/tf1_7_T1_ss3_md.jpeg'></img>","0","true",""
"","html-keyboard-response","29","157353","0.0-10.0-0.7","946","""event"",""trial"",""time""
""fullscreenenter"",""0"",""27408""
","
","
","""event"",""trial"",""time""
""fullscreenenter"",""0"",""27408""
","
","null","<div style=""font-size:60px;"">+</div>","","null","fixation","2021-06-26 11:20:53.334","","","","",""
"","mars-trial","30","167969","0.0-10.0-1.7","946","""event"",""trial"",""time""
""fullscreenenter"",""0"",""27408""
","
","
","""event"",""trial"",""time""
""fullscreenenter"",""0"",""27408""
","
","10002.34000000637","<img style='border: 4px solid darkgrey;' src='img/tf1_8_M_ss1.jpeg'></img>","3","","exp","","0","<img src='img/tf1_8_T1_ss1_md.jpeg'></img>","0","true",""
"","html-keyboard-response","31","168474","0.0-10.0-0.8","946","""event"",""trial"",""time""
""fullscreenenter"",""0"",""27408""
","
","
","""event"",""trial"",""time""
""fullscreenenter"",""0"",""27408""
","
","null","<div style=""font-size:60px;"">+</div>","","null","fixation","2021-06-26 11:21:04.455","","","","",""
"","mars-trial","32","173948","0.0-10.0-1.8","946","""event"",""trial"",""time""
""fullscreenenter"",""0"",""27408""
","
","
","""event"",""trial"",""time""
""fullscreenenter"",""0"",""27408""
","
","4860.065000015311","<img style='border: 4px solid darkgrey;' src='img/tf1_9_M_ss2.jpeg'></img>","2","","exp","","0","<img src='img/tf1_9_T1_ss2_md.jpeg'></img>","0","true",""
"","html-keyboard-response","33","174453","0.0-10.0-0.9","946","""event"",""trial"",""time""
""fullscreenenter"",""0"",""27408""
","
","
","""event"",""trial"",""time""
""fullscreenenter"",""0"",""27408""
","
","null","<div style=""font-size:60px;"">+</div>","","null","fixation","2021-06-26 11:21:10.434","","","","",""
"","mars-trial","34","187935","0.0-10.0-1.9","946","""event"",""trial"",""time""
""fullscreenenter"",""0"",""27408""
","
","
","""event"",""trial"",""time""
""fullscreenenter"",""0"",""27408""
","
","12869.445000018459","<img style='border: 4px solid darkgrey;' src='img/tf1_10_M_ss3.jpeg'></img>","1","","exp","","0","<img src='img/tf1_10_T1_ss3_md.jpeg'></img>","0","true",""
"","html-keyboard-response","35","188440","0.0-10.0-0.10","946","""event"",""trial"",""time""
""fullscreenenter"",""0"",""27408""
","
","
","""event"",""trial"",""time""
""fullscreenenter"",""0"",""27408""
","
","null","<div style=""font-size:60px;"">+</div>","","null","fixation","2021-06-26 11:21:24.421","","","","",""
"","mars-trial","36","196803","0.0-10.0-1.10","946","""event"",""trial"",""time""
""fullscreenenter"",""0"",""27408""
","
","
","""event"",""trial"",""time""
""fullscreenenter"",""0"",""27408""
","
","7750.7349999505095","<img style='border: 4px solid darkgrey;' src='img/tf1_11_M_ss1.jpeg'></img>","0","","exp","","1","<img src='img/tf1_11_T1_ss1_md.jpeg'></img>","0","false",""
"","html-keyboard-response","37","197305","0.0-10.0-0.11","946","""event"",""trial"",""time""
""fullscreenenter"",""0"",""27408""
","
","
","""event"",""trial"",""time""
""fullscreenenter"",""0"",""27408""
","
","null","<div style=""font-size:60px;"">+</div>","","null","fixation","2021-06-26 11:21:33.287","","","","",""
"","mars-trial","38","210172","0.0-10.0-1.11","946","""event"",""trial"",""time""
""fullscreenenter"",""0"",""27408""
","
","
","""event"",""trial"",""time""
""fullscreenenter"",""0"",""27408""
","
","12253.495000011753","<img style='border: 4px solid darkgrey;' src='img/tf1_12_M_ss2.jpeg'></img>","2","","exp","","3","<img src='img/tf1_12_T1_ss2_md.jpeg'></img>","0","false",""
"","html-keyboard-response","39","210675","0.0-10.0-0.12","946","""event"",""trial"",""time""
""fullscreenenter"",""0"",""27408""
","
","
","""event"",""trial"",""time""
""fullscreenenter"",""0"",""27408""
","
","null","<div style=""font-size:60px;"">+</div>","","null","fixation","2021-06-26 11:21:46.656","","","","",""
"","mars-trial","40","229555","0.0-10.0-1.12","946","""event"",""trial"",""time""
""fullscreenenter"",""0"",""27408""
","
","
","""event"",""trial"",""time""
""fullscreenenter"",""0"",""27408""
","
","18271.035000041593","<img style='border: 4px solid darkgrey;' src='img/tf1_13_M_ss3.jpeg'></img>","3","","exp","","2","<img src='img/tf1_13_T1_ss3_md.jpeg'></img>","0","false",""
"","html-keyboard-response","41","230057","0.0-10.0-0.13","946","""event"",""trial"",""time""
""fullscreenenter"",""0"",""27408""
","
","
","""event"",""trial"",""time""
""fullscreenenter"",""0"",""27408""
","
","null","<div style=""font-size:60px;"">+</div>","","null","fixation","2021-06-26 11:22:06.038","","","","",""
"","mars-trial","42","236174","0.0-10.0-1.13","946","""event"",""trial"",""time""
""fullscreenenter"",""0"",""27408""
","
","
","""event"",""trial"",""time""
""fullscreenenter"",""0"",""27408""
","
","5505.215000011958","<img style='border: 4px solid darkgrey;' src='img/tf1_14_M_ss1.jpeg'></img>","0","","exp","","2","<img src='img/tf1_14_T1_ss1_md.jpeg'></img>","0","false",""
"","html-keyboard-response","43","236676","0.0-10.0-0.14","946","""event"",""trial"",""time""
""fullscreenenter"",""0"",""27408""
","
","
","""event"",""trial"",""time""
""fullscreenenter"",""0"",""27408""
","
","null","<div style=""font-size:60px;"">+</div>","","null","fixation","2021-06-26 11:22:12.657","","","","",""
"","mars-trial","44","248637","0.0-10.0-1.14","946","""event"",""trial"",""time""
""fullscreenenter"",""0"",""27408""
","
","
","""event"",""trial"",""time""
""fullscreenenter"",""0"",""27408""
","
","11348.345000005793","<img style='border: 4px solid darkgrey;' src='img/tf1_15_M_ss2.jpeg'></img>","3","","exp","","1","<img src='img/tf1_15_T1_ss2_md.jpeg'></img>","0","false",""
"","html-keyboard-response","45","249139","0.0-10.0-0.15","946","""event"",""trial"",""time""
""fullscreenenter"",""0"",""27408""
","
","
","""event"",""trial"",""time""
""fullscreenenter"",""0"",""27408""
","
","null","<div style=""font-size:60px;"">+</div>","","null","fixation","2021-06-26 11:22:25.120","","","","",""
"","mars-trial","46","257438","0.0-10.0-1.15","946","""event"",""trial"",""time""
""fullscreenenter"",""0"",""27408""
","
","
","""event"",""trial"",""time""
""fullscreenenter"",""0"",""27408""
","
","7686.664999986533","<img style='border: 4px solid darkgrey;' src='img/tf1_16_M_ss3.jpeg'></img>","3","","exp","","3","<img src='img/tf1_16_T1_ss3_md.jpeg'></img>","0","false",""
"","html-keyboard-response","47","257943","0.0-10.0-0.16","946","""event"",""trial"",""time""
""fullscreenenter"",""0"",""27408""
","
","
","""event"",""trial"",""time""
""fullscreenenter"",""0"",""27408""
","
","null","<div style=""font-size:60px;"">+</div>","","null","fixation","2021-06-26 11:22:33.924","","","","",""
"","mars-trial","48","282739","0.0-10.0-1.16","946","""event"",""trial"",""time""
""fullscreenenter"",""0"",""27408""
","
","
","""event"",""trial"",""time""
""fullscreenenter"",""0"",""27408""
","
","24181.809999980032","<img style='border: 4px solid darkgrey;' src='img/tf1_17_M_ss1.jpeg'></img>","1","","exp","","2","<img src='img/tf1_17_T1_ss1_md.jpeg'></img>","0","false",""
"","html-keyboard-response","49","283241","0.0-10.0-0.17","946","""event"",""trial"",""time""
""fullscreenenter"",""0"",""27408""
","
","
","""event"",""trial"",""time""
""fullscreenenter"",""0"",""27408""
","
","null","<div style=""font-size:60px;"">+</div>","","null","fixation","2021-06-26 11:22:59.222","","","","",""
"","mars-trial","50","304485","0.0-10.0-1.17","946","""event"",""trial"",""time""
""fullscreenenter"",""0"",""27408""
","
","
","""event"",""trial"",""time""
""fullscreenenter"",""0"",""27408""
","
","20629.1800000472","<img style='border: 4px solid darkgrey;' src='img/tf1_18_M_ss2.jpeg'></img>","0","","exp","","0","<img src='img/tf1_18_T1_ss2_md.jpeg'></img>","0","true",""
"","html-keyboard-response","51","304990","0.0-10.0-0.18","946","""event"",""trial"",""time""
""fullscreenenter"",""0"",""27408""
","
","
","""event"",""trial"",""time""
""fullscreenenter"",""0"",""27408""
","
","null","<div style=""font-size:60px;"">+</div>","","null","fixation","2021-06-26 11:23:20.971","","","","",""
"","mars-trial","52","324534","0.0-10.0-1.18","946","""event"",""trial"",""time""
""fullscreenenter"",""0"",""27408""
","
","
","""event"",""trial"",""time""
""fullscreenenter"",""0"",""27408""
","
","18930.1399999531","<img style='border: 4px solid darkgrey;' src='img/tf1_19_M_ss3.jpeg'></img>","2","","exp","","1","<img src='img/tf1_19_T1_ss3_md.jpeg'></img>","0","false",""
"","html-keyboard-response","53","325036","0.0-10.0-0.19","946","""event"",""trial"",""time""
""fullscreenenter"",""0"",""27408""
","
","
","""event"",""trial"",""time""
""fullscreenenter"",""0"",""27408""
","
","null","<div style=""font-size:60px;"">+</div>","","null","fixation","2021-06-26 11:23:41.017","","","","",""
"","mars-trial","54","332413","0.0-10.0-1.19","946","""event"",""trial"",""time""
""fullscreenenter"",""0"",""27408""
","
","
","""event"",""trial"",""time""
""fullscreenenter"",""0"",""27408""
","
","6764.364999951795","<img style='border: 4px solid darkgrey;' src='img/tf1_20_M_ss1.jpeg'></img>","3","","exp","","2","<img src='img/tf1_20_T1_ss1_md.jpeg'></img>","0","false",""
"","html-keyboard-response","55","332918","0.0-10.0-0.20","946","""event"",""trial"",""time""
""fullscreenenter"",""0"",""27408""
","
","
","""event"",""trial"",""time""
""fullscreenenter"",""0"",""27408""
","
","null","<div style=""font-size:60px;"">+</div>","","null","fixation","2021-06-26 11:23:48.900","","","","",""
"","mars-trial","56","361381","0.0-10.0-1.20","946","""event"",""trial"",""time""
""fullscreenenter"",""0"",""27408""
","
","
","""event"",""trial"",""time""
""fullscreenenter"",""0"",""27408""
","
","27846.859999990556","<img style='border: 4px solid darkgrey;' src='img/tf1_21_M_ss2.jpeg'></img>","3","","exp","","3","<img src='img/tf1_21_T1_ss2_md.jpeg'></img>","0","false",""
"","html-keyboard-response","57","361886","0.0-10.0-0.21","946","""event"",""trial"",""time""
""fullscreenenter"",""0"",""27408""
","
","
","""event"",""trial"",""time""
""fullscreenenter"",""0"",""27408""
","
","null","<div style=""font-size:60px;"">+</div>","","null","fixation","2021-06-26 11:24:17.867","","","","",""
"","mars-trial","58","377976","0.0-10.0-1.21","946","""event"",""trial"",""time""
""fullscreenenter"",""0"",""27408""
","
","
","""event"",""trial"",""time""
""fullscreenenter"",""0"",""27408""
","
","15475.939999974798","<img style='border: 4px solid darkgrey;' src='img/tf1_22_M_ss3.jpeg'></img>","0","","exp","","2","<img src='img/tf1_22_T1_ss3_md.jpeg'></img>","0","false",""
"","html-keyboard-response","59","378478","0.0-10.0-0.22","946","""event"",""trial"",""time""
""fullscreenenter"",""0"",""27408""
","
","
","""event"",""trial"",""time""
""fullscreenenter"",""0"",""27408""
","
","null","<div style=""font-size:60px;"">+</div>","","null","fixation","2021-06-26 11:24:34.459","","","","",""
"","mars-trial","60","403885","0.0-10.0-1.22","946","""event"",""trial"",""time""
""fullscreenenter"",""0"",""27408""
","
","
","""event"",""trial"",""time""
""fullscreenenter"",""0"",""27408""
","
","24795.255000004545","<img style='border: 4px solid darkgrey;' src='img/tf1_23_M_ss1.jpeg'></img>","2","","exp","","0","<img src='img/tf1_23_T1_ss1_md.jpeg'></img>","0","true",""
"","html-keyboard-response","61","404386","0.0-10.0-0.23","946","""event"",""trial"",""time""
""fullscreenenter"",""0"",""27408""
","
","
","""event"",""trial"",""time""
""fullscreenenter"",""0"",""27408""
","
","null","<div style=""font-size:60px;"">+</div>","","null","fixation","2021-06-26 11:25:00.367","","","","",""
"","mars-trial","62","415646","0.0-10.0-1.23","946","""event"",""trial"",""time""
""fullscreenenter"",""0"",""27408""
","
","
","""event"",""trial"",""time""
""fullscreenenter"",""0"",""27408""
","
","10648.930000024848","<img style='border: 4px solid darkgrey;' src='img/tf1_24_M_ss2.jpeg'></img>","2","","exp","","1","<img src='img/tf1_24_T1_ss2_md.jpeg'></img>","0","false",""
"","html-keyboard-response","63","416153","0.0-10.0-0.24","946","""event"",""trial"",""time""
""fullscreenenter"",""0"",""27408""
","
","
","""event"",""trial"",""time""
""fullscreenenter"",""0"",""27408""
","
","null","<div style=""font-size:60px;"">+</div>","","null","fixation","2021-06-26 11:25:12.134","","","","",""
"","mars-trial","64","421854","0.0-10.0-1.24","946","""event"",""trial"",""time""
""fullscreenenter"",""0"",""27408""
","
","
","""event"",""trial"",""time""
""fullscreenenter"",""0"",""27408""
","
","5089.824999973644","<img style='border: 4px solid darkgrey;' src='img/tf1_25_M_ss3.jpeg'></img>","3","","exp","","0","<img src='img/tf1_25_T1_ss3_md.jpeg'></img>","0","true",""
"","html-keyboard-response","65","422358","0.0-10.0-0.25","946","""event"",""trial"",""time""
""fullscreenenter"",""0"",""27408""
","
","
","""event"",""trial"",""time""
""fullscreenenter"",""0"",""27408""
","
","null","<div style=""font-size:60px;"">+</div>","","null","fixation","2021-06-26 11:25:18.339","","","","",""
"","mars-trial","66","428667","0.0-10.0-1.25","946","""event"",""trial"",""time""
""fullscreenenter"",""0"",""27408""
","
","
","""event"",""trial"",""time""
""fullscreenenter"",""0"",""27408""
","
","5695.964999962598","<img style='border: 4px solid darkgrey;' src='img/tf1_26_M_ss1.jpeg'></img>","3","","exp","","2","<img src='img/tf1_26_T1_ss1_md.jpeg'></img>","0","false",""
"","html-keyboard-response","67","429173","0.0-10.0-0.26","946","""event"",""trial"",""time""
""fullscreenenter"",""0"",""27408""
","
","
","""event"",""trial"",""time""
""fullscreenenter"",""0"",""27408""
","
","null","<div style=""font-size:60px;"">+</div>","","null","fixation","2021-06-26 11:25:25.154","","","","",""
"","mars-trial","68","440254","0.0-10.0-1.26","946","""event"",""trial"",""time""
""fullscreenenter"",""0"",""27408""
","
","
","""event"",""trial"",""time""
""fullscreenenter"",""0"",""27408""
","
","10465.855000016745","<img style='border: 4px solid darkgrey;' src='img/tf1_27_M_ss2.jpeg'></img>","1","","exp","","1","<img src='img/tf1_27_T1_ss2_md.jpeg'></img>","0","false",""
"","html-keyboard-response","69","440759","0.0-10.0-0.27","946","""event"",""trial"",""time""
""fullscreenenter"",""0"",""27408""
","
","
","""event"",""trial"",""time""
""fullscreenenter"",""0"",""27408""
","
","null","<div style=""font-size:60px;"">+</div>","","null","fixation","2021-06-26 11:25:36.740","","","","",""
"","mars-trial","70","454453","0.0-10.0-1.27","946","""event"",""trial"",""time""
""fullscreenenter"",""0"",""27408""
","
","
","""event"",""trial"",""time""
""fullscreenenter"",""0"",""27408""
","
","13081.22499997262","<img style='border: 4px solid darkgrey;' src='img/tf1_28_M_ss3.jpeg'></img>","1","","exp","","1","<img src='img/tf1_28_T1_ss3_md.jpeg'></img>","0","false",""
"","html-keyboard-response","71","454958","0.0-10.0-0.28","946","""event"",""trial"",""time""
""fullscreenenter"",""0"",""27408""
","
","
","""event"",""trial"",""time""
""fullscreenenter"",""0"",""27408""
","
","null","<div style=""font-size:60px;"">+</div>","","null","fixation","2021-06-26 11:25:50.939","","","","",""
"","mars-trial","72","460583","0.0-10.0-1.28","946","""event"",""trial"",""time""
""fullscreenenter"",""0"",""27408""
","
","
","""event"",""trial"",""time""
""fullscreenenter"",""0"",""27408""
","
","5011.325000028592","<img style='border: 4px solid darkgrey;' src='img/tf1_29_M_ss1.jpeg'></img>","3","","exp","","2","<img src='img/tf1_29_T1_ss1_md.jpeg'></img>","0","false",""
"","html-keyboard-response","73","461085","0.0-10.0-0.29","946","""event"",""trial"",""time""
""fullscreenenter"",""0"",""27408""
","
","
","""event"",""trial"",""time""
""fullscreenenter"",""0"",""27408""
","
","null","<div style=""font-size:60px;"">+</div>","","null","fixation","2021-06-26 11:25:57.066","","","","",""
"","mars-trial","74","465317","0.0-10.0-1.29","946","""event"",""trial"",""time""
""fullscreenenter"",""0"",""27408""
","
","
","""event"",""trial"",""time""
""fullscreenenter"",""0"",""27408""
","
","3625.705000013113","<img style='border: 4px solid darkgrey;' src='img/tf1_30_M_ss2.jpeg'></img>","2","","exp","","0","<img src='img/tf1_30_T1_ss2_md.jpeg'></img>","0","true",""
"","html-keyboard-response","75","465822","0.0-10.0-0.30","946","""event"",""trial"",""time""
""fullscreenenter"",""0"",""27408""
","
","
","""event"",""trial"",""time""
""fullscreenenter"",""0"",""27408""
","
","null","<div style=""font-size:60px;"">+</div>","","null","fixation","2021-06-26 11:26:01.803","","","","",""
"","mars-trial","76","472027","0.0-10.0-1.30","946","""event"",""trial"",""time""
""fullscreenenter"",""0"",""27408""
","
","
","""event"",""trial"",""time""
""fullscreenenter"",""0"",""27408""
","
","5592.7600000286475","<img style='border: 4px solid darkgrey;' src='img/tf1_31_M_ss3.jpeg'></img>","2","","exp","","0","<img src='img/tf1_31_T1_ss3_md.jpeg'></img>","0","true",""
"","html-keyboard-response","77","472530","0.0-10.0-0.31","946","""event"",""trial"",""time""
""fullscreenenter"",""0"",""27408""
","
","
","""event"",""trial"",""time""
""fullscreenenter"",""0"",""27408""
","
","null","<div style=""font-size:60px;"">+</div>","","null","fixation","2021-06-26 11:26:08.511","","","","",""
"","mars-trial","78","474321","0.0-10.0-1.31","946","""event"",""trial"",""time""
""fullscreenenter"",""0"",""27408""
","
","
","""event"",""trial"",""time""
""fullscreenenter"",""0"",""27408""
","
","1177.849999978207","<img style='border: 4px solid darkgrey;' src='img/tf1_32_M_ss1.jpeg'></img>","2","","exp","","3","<img src='img/tf1_32_T1_ss1_md.jpeg'></img>","0","false",""
"","html-keyboard-response","79","474826","0.0-10.0-0.32","946","""event"",""trial"",""time""
""fullscreenenter"",""0"",""27408""
","
","
","""event"",""trial"",""time""
""fullscreenenter"",""0"",""27408""
","
","null","<div style=""font-size:60px;"">+</div>","","null","fixation","2021-06-26 11:26:10.807","","","","",""
"","mars-trial","80","477152","0.0-10.0-1.32","946","""event"",""trial"",""time""
""fullscreenenter"",""0"",""27408""
","
","
","""event"",""trial"",""time""
""fullscreenenter"",""0"",""27408""
","
","1712.7100000507198","<img style='border: 4px solid darkgrey;' src='img/tf1_33_M_ss2.jpeg'></img>","2","","exp","","0","<img src='img/tf1_33_T1_ss2_md.jpeg'></img>","0","true",""
"","html-keyboard-response","81","477653","0.0-10.0-0.33","946","""event"",""trial"",""time""
""fullscreenenter"",""0"",""27408""
","
","
","""event"",""trial"",""time""
""fullscreenenter"",""0"",""27408""
","
","null","<div style=""font-size:60px;"">+</div>","","null","fixation","2021-06-26 11:26:13.634","","","","",""
"","mars-trial","82","480863","0.0-10.0-1.33","946","""event"",""trial"",""time""
""fullscreenenter"",""0"",""27408""
","
","
","""event"",""trial"",""time""
""fullscreenenter"",""0"",""27408""
","
","2597.490000014659","<img style='border: 4px solid darkgrey;' src='img/tf1_34_M_ss3.jpeg'></img>","2","","exp","","2","<img src='img/tf1_34_T1_ss3_md.jpeg'></img>","0","false",""
"","html-keyboard-response","83","481368","0.0-10.0-0.34","946","""event"",""trial"",""time""
""fullscreenenter"",""0"",""27408""
","
","
","""event"",""trial"",""time""
""fullscreenenter"",""0"",""27408""
","
","null","<div style=""font-size:60px;"">+</div>","","null","fixation","2021-06-26 11:26:17.349","","","","",""
"","mars-trial","84","490529","0.0-10.0-1.34","946","""event"",""trial"",""time""
""fullscreenenter"",""0"",""27408""
","
","
","""event"",""trial"",""time""
""fullscreenenter"",""0"",""27408""
","
","8549.159999995027","<img style='border: 4px solid darkgrey;' src='img/tf1_35_M_ss1.jpeg'></img>","1","","exp","","0","<img src='img/tf1_35_T1_ss1_md.jpeg'></img>","0","true",""
"","html-keyboard-response","85","491034","0.0-10.0-0.35","946","""event"",""trial"",""time""
""fullscreenenter"",""0"",""27408""
","
","
","""event"",""trial"",""time""
""fullscreenenter"",""0"",""27408""
","
","null","<div style=""font-size:60px;"">+</div>","","null","fixation","2021-06-26 11:26:27.015","","","","",""
"","mars-trial","86","494823","0.0-10.0-1.35","946","""event"",""trial"",""time""
""fullscreenenter"",""0"",""27408""
","
","
","""event"",""trial"",""time""
""fullscreenenter"",""0"",""27408""
","
","3174.6099999872968","<img style='border: 4px solid darkgrey;' src='img/tf1_36_M_ss2.jpeg'></img>","3","","exp","","0","<img src='img/tf1_36_T1_ss2_md.jpeg'></img>","0","true",""
"","html-keyboard-response","87","495327","0.0-10.0-0.36","946","""event"",""trial"",""time""
""fullscreenenter"",""0"",""27408""
","
","
","""event"",""trial"",""time""
""fullscreenenter"",""0"",""27408""
","
","null","<div style=""font-size:60px;"">+</div>","","null","fixation","2021-06-26 11:26:31.308","","","","",""
"","mars-trial","88","505193","0.0-10.0-1.36","946","""event"",""trial"",""time""
""fullscreenenter"",""0"",""27408""
","
","
","""event"",""trial"",""time""
""fullscreenenter"",""0"",""27408""
","
","9253.459999978077","<img style='border: 4px solid darkgrey;' src='img/tf1_37_M_ss3.jpeg'></img>","1","","exp","","0","<img src='img/tf1_37_T1_ss3_md.jpeg'></img>","0","true",""
"","html-keyboard-response","89","505697","0.0-10.0-0.37","946","""event"",""trial"",""time""
""fullscreenenter"",""0"",""27408""
","
","
","""event"",""trial"",""time""
""fullscreenenter"",""0"",""27408""
","
","null","<div style=""font-size:60px;"">+</div>","","null","fixation","2021-06-26 11:26:41.678","","","","",""
"","mars-trial","90","511164","0.0-10.0-1.37","946","""event"",""trial"",""time""
""fullscreenenter"",""0"",""27408""
","
","
","""event"",""trial"",""time""
""fullscreenenter"",""0"",""27408""
","
","4852.569999988191","<img style='border: 4px solid darkgrey;' src='img/tf1_38_M_ss1.jpeg'></img>","0","","exp","","0","<img src='img/tf1_38_T1_ss1_md.jpeg'></img>","0","true",""
"","html-keyboard-response","91","511669","0.0-10.0-0.38","946","""event"",""trial"",""time""
""fullscreenenter"",""0"",""27408""
","
","
","""event"",""trial"",""time""
""fullscreenenter"",""0"",""27408""
","
","null","<div style=""font-size:60px;"">+</div>","","null","fixation","2021-06-26 11:26:47.650","","","","",""
"","mars-trial","92","515739","0.0-10.0-1.38","946","""event"",""trial"",""time""
""fullscreenenter"",""0"",""27408""
","
","
","""event"",""trial"",""time""
""fullscreenenter"",""0"",""27408""
","
","3455.245000019204","<img style='border: 4px solid darkgrey;' src='img/tf1_39_M_ss2.jpeg'></img>","1","","exp","","3","<img src='img/tf1_39_T1_ss2_md.jpeg'></img>","0","false",""
"","html-keyboard-response","93","516243","0.0-10.0-0.39","946","""event"",""trial"",""time""
""fullscreenenter"",""0"",""27408""
","
","
","""event"",""trial"",""time""
""fullscreenenter"",""0"",""27408""
","
","null","<div style=""font-size:60px;"">+</div>","","null","fixation","2021-06-26 11:26:52.225","","","","",""
"","mars-trial","94","525006","0.0-10.0-1.39","946","""event"",""trial"",""time""
""fullscreenenter"",""0"",""27408""
","
","
","""event"",""trial"",""time""
""fullscreenenter"",""0"",""27408""
","
","8149.460000044201","<img style='border: 4px solid darkgrey;' src='img/tf1_40_M_ss3.jpeg'></img>","0","","exp","","3","<img src='img/tf1_40_T1_ss3_md.jpeg'></img>","0","false",""
"","html-keyboard-response","95","525510","0.0-10.0-0.40","946","""event"",""trial"",""time""
""fullscreenenter"",""0"",""27408""
","
","
","""event"",""trial"",""time""
""fullscreenenter"",""0"",""27408""
","
","null","<div style=""font-size:60px;"">+</div>","","null","fixation","2021-06-26 11:27:01.492","","","","",""
"","mars-trial","96","534292","0.0-10.0-1.40","946","""event"",""trial"",""time""
""fullscreenenter"",""0"",""27408""
","
","
","""event"",""trial"",""time""
""fullscreenenter"",""0"",""27408""
","
","8169.114999996964","<img style='border: 4px solid darkgrey;' src='img/tf1_41_M_ss1.jpeg'></img>","0","","exp","","0","<img src='img/tf1_41_T1_ss1_md.jpeg'></img>","0","true",""
"","html-keyboard-response","97","534793","0.0-10.0-0.41","946","""event"",""trial"",""time""
""fullscreenenter"",""0"",""27408""
","
","
","""event"",""trial"",""time""
""fullscreenenter"",""0"",""27408""
","
","null","<div style=""font-size:60px;"">+</div>","","null","fixation","2021-06-26 11:27:10.774","","","","",""
"","mars-trial","98","541295","0.0-10.0-1.41","946","""event"",""trial"",""time""
""fullscreenenter"",""0"",""27408""
","
","
","""event"",""trial"",""time""
""fullscreenenter"",""0"",""27408""
","
","5889.194999996107","<img style='border: 4px solid darkgrey;' src='img/tf1_42_M_ss2.jpeg'></img>","2","","exp","","2","<img src='img/tf1_42_T1_ss2_md.jpeg'></img>","0","false",""
"","html-keyboard-response","99","541798","0.0-10.0-0.42","946","""event"",""trial"",""time""
""fullscreenenter"",""0"",""27408""
","
","
","""event"",""trial"",""time""
""fullscreenenter"",""0"",""27408""
","
","null","<div style=""font-size:60px;"">+</div>","","null","fixation","2021-06-26 11:27:17.779","","","","",""
"","mars-trial","100","548464","0.0-10.0-1.42","946","""event"",""trial"",""time""
""fullscreenenter"",""0"",""27408""
","
","
","""event"",""trial"",""time""
""fullscreenenter"",""0"",""27408""
","
","6053.239999979269","<img style='border: 4px solid darkgrey;' src='img/tf1_43_M_ss3.jpeg'></img>","2","","exp","","2","<img src='img/tf1_43_T1_ss3_md.jpeg'></img>","0","false",""
"","html-keyboard-response","101","548966","0.0-10.0-0.43","946","""event"",""trial"",""time""
""fullscreenenter"",""0"",""27408""
","
","
","""event"",""trial"",""time""
""fullscreenenter"",""0"",""27408""
","
","null","<div style=""font-size:60px;"">+</div>","","null","fixation","2021-06-26 11:27:24.948","","","","",""
"","mars-trial","102","559335","0.0-10.0-1.43","946","""event"",""trial"",""time""
""fullscreenenter"",""0"",""27408""
","
","
","""event"",""trial"",""time""
""fullscreenenter"",""0"",""27408""
","
","9754.109999979846","<img style='border: 4px solid darkgrey;' src='img/tf1_44_M_ss1.jpeg'></img>","1","","exp","","0","<img src='img/tf1_44_T1_ss1_md.jpeg'></img>","0","true",""
"","html-keyboard-response","103","559837","0.0-10.0-0.44","946","""event"",""trial"",""time""
""fullscreenenter"",""0"",""27408""
","
","
","""event"",""trial"",""time""
""fullscreenenter"",""0"",""27408""
","
","null","<div style=""font-size:60px;"">+</div>","","null","fixation","2021-06-26 11:27:35.818","","","","",""
"","mars-trial","104","569878","0.0-10.0-1.44","946","""event"",""trial"",""time""
""fullscreenenter"",""0"",""27408""
","
","
","""event"",""trial"",""time""
""fullscreenenter"",""0"",""27408""
","
","9426.934999995865","<img style='border: 4px solid darkgrey;' src='img/tf1_45_M_ss2.jpeg'></img>","1","","exp","","2","<img src='img/tf1_45_T1_ss2_md.jpeg'></img>","0","false",""
"","html-keyboard-response","105","570384","0.0-10.0-0.45","946","""event"",""trial"",""time""
""fullscreenenter"",""0"",""27408""
","
","
","""event"",""trial"",""time""
""fullscreenenter"",""0"",""27408""
","
","null","<div style=""font-size:60px;"">+</div>","","null","fixation","2021-06-26 11:27:46.365","","","","",""
"","mars-trial","106","573419","0.0-10.0-1.45","946","""event"",""trial"",""time""
""fullscreenenter"",""0"",""27408""
","
","
","""event"",""trial"",""time""
""fullscreenenter"",""0"",""27408""
","
","2421.3400000007823","<img style='border: 4px solid darkgrey;' src='img/tf1_46_M_ss3.jpeg'></img>","1","","exp","","3","<img src='img/tf1_46_T1_ss3_md.jpeg'></img>","0","false",""
"","html-keyboard-response","107","573920","0.0-10.0-0.46","946","""event"",""trial"",""time""
""fullscreenenter"",""0"",""27408""
","
","
","""event"",""trial"",""time""
""fullscreenenter"",""0"",""27408""
","
","null","<div style=""font-size:60px;"">+</div>","","null","fixation","2021-06-26 11:27:49.901","","","","",""
"","mars-trial","108","581798","0.0-10.0-1.46","946","""event"",""trial"",""time""
""fullscreenenter"",""0"",""27408""
","
","
","""event"",""trial"",""time""
""fullscreenenter"",""0"",""27408""
","
","7265.214999963064","<img style='border: 4px solid darkgrey;' src='img/tf1_47_M_ss1.jpeg'></img>","1","","exp","","0","<img src='img/tf1_47_T1_ss1_md.jpeg'></img>","0","true",""
"","html-keyboard-response","109","582302","0.0-10.0-0.47","946","""event"",""trial"",""time""
""fullscreenenter"",""0"",""27408""
","
","
","""event"",""trial"",""time""
""fullscreenenter"",""0"",""27408""
","
","null","<div style=""font-size:60px;"">+</div>","","null","fixation","2021-06-26 11:27:58.283","","","","",""
"","mars-trial","110","586152","0.0-10.0-1.47","946","""event"",""trial"",""time""
""fullscreenenter"",""0"",""27408""
","
","
","""event"",""trial"",""time""
""fullscreenenter"",""0"",""27408""
","
","3241.4649999700487","<img style='border: 4px solid darkgrey;' src='img/tf1_48_M_ss2.jpeg'></img>","3","","exp","","1","<img src='img/tf1_48_T1_ss2_md.jpeg'></img>","0","false",""
"","html-keyboard-response","111","586656","0.0-10.0-0.48","946","""event"",""trial"",""time""
""fullscreenenter"",""0"",""27408""
","
","
","""event"",""trial"",""time""
""fullscreenenter"",""0"",""27408""
","
","null","<div style=""font-size:60px;"">+</div>","","null","fixation","2021-06-26 11:28:02.637","","","","",""
"","mars-trial","112","589025","0.0-10.0-1.48","946","""event"",""trial"",""time""
""fullscreenenter"",""0"",""27408""
","
","
","""event"",""trial"",""time""
""fullscreenenter"",""0"",""27408""
","
","1757.4349999777041","<img style='border: 4px solid darkgrey;' src='img/tf1_49_M_ss3.jpeg'></img>","1","","exp","","0","<img src='img/tf1_49_T1_ss3_md.jpeg'></img>","0","true",""
"","html-keyboard-response","113","589530","0.0-10.0-0.49","946","""event"",""trial"",""time""
""fullscreenenter"",""0"",""27408""
","
","
","""event"",""trial"",""time""
""fullscreenenter"",""0"",""27408""
","
","null","<div style=""font-size:60px;"">+</div>","","null","fixation","2021-06-26 11:28:05.511","","","","",""
"","mars-trial","114","593257","0.0-10.0-1.49","946","""event"",""trial"",""time""
""fullscreenenter"",""0"",""27408""
","
","
","""event"",""trial"",""time""
""fullscreenenter"",""0"",""27408""
","
","3116.6100000264123","<img style='border: 4px solid darkgrey;' src='img/tf1_50_M_ss1.jpeg'></img>","1","","exp","","0","<img src='img/tf1_50_T1_ss1_md.jpeg'></img>","0","true",""
"","html-keyboard-response","115","593762","0.0-10.0-0.50","946","""event"",""trial"",""time""
""fullscreenenter"",""0"",""27408""
","
","
","""event"",""trial"",""time""
""fullscreenenter"",""0"",""27408""
","
","null","<div style=""font-size:60px;"">+</div>","","null","fixation","2021-06-26 11:28:09.743","","","","",""
"","mars-trial","116","596959","0.0-10.0-1.50","946","""event"",""trial"",""time""
""fullscreenenter"",""0"",""27408""
","
","
","""event"",""trial"",""time""
""fullscreenenter"",""0"",""27408""
","
","2583.6399999679998","<img style='border: 4px solid darkgrey;' src='img/tf1_51_M_ss2.jpeg'></img>","2","","exp","","1","<img src='img/tf1_51_T1_ss2_md.jpeg'></img>","0","false",""
"","html-keyboard-response","117","597274","0.0-10.0-0.51","946","""event"",""trial"",""time""
""fullscreenenter"",""0"",""27408""
","
","
","""event"",""trial"",""time""
""fullscreenenter"",""0"",""27408""
","
","","","","","fixation","2021-06-26 11:28:13.255","","","","",""
"","audio-button-response","118","597462","0.0-11.0","946","""event"",""trial"",""time""
""fullscreenenter"",""0"",""27408""
","
","
","""event"",""trial"",""time""
""fullscreenenter"",""0"",""27408""
","
","null","<div style=""font-size:60px;"">+</div>","","null","","","","","","",""
