"success","trial_type","trial_index","time_elapsed","internal_node_id","subject_id","interactions","blur_events","focus_events","fullscreenenter_events","fullscreenexit_events","rt","stimulus","button_pressed","key_press","part","timestamp","unshuffled_button","correct_response","correct_button","correct","value"
"true","fullscreen","0","3617","0.0-0.0","228","""event"",""trial"",""time""
""fullscreenenter"",""0"",""2632""
","
","
","""event"",""trial"",""time""
""fullscreenenter"",""0"",""2632""
","
","","","","","","","","","","",""
"","pavlovia","1","3625","0.0-1.0","228","""event"",""trial"",""time""
""fullscreenenter"",""0"",""2632""
","
","
","""event"",""trial"",""time""
""fullscreenenter"",""0"",""2632""
","
","","","","","","","","","","",""
"","html-button-response","2","7771","0.0-2.0","228","""event"",""trial"",""time""
""fullscreenenter"",""0"",""2632""
","
","
","""event"",""trial"",""time""
""fullscreenenter"",""0"",""2632""
","
","4143.800000011921","<p>Welcome! Press START to begin.</p><br>","0","","","","","","","",""
"","audio-button-response","3","20837","0.0-3.0","228","""event"",""trial"",""time""
""fullscreenenter"",""0"",""2632""
","
","
","""event"",""trial"",""time""
""fullscreenenter"",""0"",""2632""
","
","13064.799999952316","audio/mars_instructions_slide2.wav","0","","","","","","","",""
"","audio-button-response","4","25236","0.0-4.0","228","""event"",""trial"",""time""
""fullscreenenter"",""0"",""2632""
","
","
","""event"",""trial"",""time""
""fullscreenenter"",""0"",""2632""
","
","4396.300000011921","audio/mars_instructions_slide3.wav","0","","","","","","","",""
"","html-keyboard-response","5","25742","0.0-5.0-0.0","228","""event"",""trial"",""time""
""fullscreenenter"",""0"",""2632""
","
","
","""event"",""trial"",""time""
""fullscreenenter"",""0"",""2632""
","
","null","<div style=""font-size:60px;"">+</div>","","null","fixation","2021-08-25 03:14:03.282","","","","",""
"","mars-trial","6","34432","0.0-5.0-1.0","228","""event"",""trial"",""time""
""fullscreenenter"",""0"",""2632""
","
","
","""event"",""trial"",""time""
""fullscreenenter"",""0"",""2632""
","
","6575.100000023842","<img style='border: 4px solid darkgrey;' src='practice/pt1_M1.png'></img>","2","","practice","","0","<img src='practice/pt1_T1.png'></img>","0","true",""
"","html-keyboard-response","7","34940","0.0-6.0-0.0","228","""event"",""trial"",""time""
""fullscreenenter"",""0"",""2632""
","
","
","""event"",""trial"",""time""
""fullscreenenter"",""0"",""2632""
","
","null","<div style=""font-size:60px;"">+</div>","","null","fixation","2021-08-25 03:14:12.480","","","","",""
"","mars-trial","8","40362","0.0-6.0-1.0","228","""event"",""trial"",""time""
""fullscreenenter"",""0"",""2632""
","
","
","""event"",""trial"",""time""
""fullscreenenter"",""0"",""2632""
","
","3307.2999999523163","<img style='border: 4px solid darkgrey;' src='practice/pt2_M1.png'></img>","3","","practice","","0","<img src='practice/pt2_T1.png'></img>","0","true",""
"","html-keyboard-response","9","40867","0.0-7.0-0.0","228","""event"",""trial"",""time""
""fullscreenenter"",""0"",""2632""
","
","
","""event"",""trial"",""time""
""fullscreenenter"",""0"",""2632""
","
","null","<div style=""font-size:60px;"">+</div>","","null","fixation","2021-08-25 03:14:18.407","","","","",""
"","mars-trial","10","45407","0.0-7.0-1.0","228","""event"",""trial"",""time""
""fullscreenenter"",""0"",""2632""
","
","
","""event"",""trial"",""time""
""fullscreenenter"",""0"",""2632""
","
","2425.400000035763","<img style='border: 4px solid darkgrey;' src='practice/pt3_M1.png'></img>","0","","practice","","0","<img src='practice/pt3_T1.png'></img>","0","true",""
"","audio-button-response","11","47546","0.0-8.0","228","""event"",""trial"",""time""
""fullscreenenter"",""0"",""2632""
","
","
","""event"",""trial"",""time""
""fullscreenenter"",""0"",""2632""
","
","2135.899999976158","audio/mars_instructions_slide4.wav","0","","","","","","","",""
"","call-function","12","47547","0.0-9.0","228","""event"",""trial"",""time""
""fullscreenenter"",""0"",""2632""
","
","
","""event"",""trial"",""time""
""fullscreenenter"",""0"",""2632""
","
","","","","","","","","","","",""
"","html-keyboard-response","13","48050","0.0-10.0-0.0","228","""event"",""trial"",""time""
""fullscreenenter"",""0"",""2632""
","
","
","""event"",""trial"",""time""
""fullscreenenter"",""0"",""2632""
","
","null","<div style=""font-size:60px;"">+</div>","","null","fixation","2021-08-25 03:14:25.590","","","","",""
"","mars-trial","14","50342","0.0-10.0-1.0","228","""event"",""trial"",""time""
""fullscreenenter"",""0"",""2632""
","
","
","""event"",""trial"",""time""
""fullscreenenter"",""0"",""2632""
","
","1679.0999999642372","<img style='border: 4px solid darkgrey;' src='img/tf1_1_M_ss3.jpeg'></img>","0","","exp","","0","<img src='img/tf1_1_T1_ss3_md.jpeg'></img>","0","true",""
"","html-keyboard-response","15","50848","0.0-10.0-0.1","228","""event"",""trial"",""time""
""fullscreenenter"",""0"",""2632""
","
","
","""event"",""trial"",""time""
""fullscreenenter"",""0"",""2632""
","
","null","<div style=""font-size:60px;"">+</div>","","null","fixation","2021-08-25 03:14:28.388","","","","",""
"","mars-trial","16","53347","0.0-10.0-1.1","228","""event"",""trial"",""time""
""fullscreenenter"",""0"",""2632""
","
","
","""event"",""trial"",""time""
""fullscreenenter"",""0"",""2632""
","
","1890.800000011921","<img style='border: 4px solid darkgrey;' src='img/tf1_2_M_ss1.jpeg'></img>","0","","exp","","0","<img src='img/tf1_2_T1_ss1_md.jpeg'></img>","0","true",""
"","html-keyboard-response","17","53849","0.0-10.0-0.2","228","""event"",""trial"",""time""
""fullscreenenter"",""0"",""2632""
","
","
","""event"",""trial"",""time""
""fullscreenenter"",""0"",""2632""
","
","null","<div style=""font-size:60px;"">+</div>","","null","fixation","2021-08-25 03:14:31.389","","","","",""
"","mars-trial","18","57129","0.0-10.0-1.2","228","""event"",""trial"",""time""
""fullscreenenter"",""0"",""2632""
","
","
","""event"",""trial"",""time""
""fullscreenenter"",""0"",""2632""
","
","2668.5","<img style='border: 4px solid darkgrey;' src='img/tf1_3_M_ss2.jpeg'></img>","3","","exp","","0","<img src='img/tf1_3_T1_ss2_md.jpeg'></img>","0","true",""
"","html-keyboard-response","19","57636","0.0-10.0-0.3","228","""event"",""trial"",""time""
""fullscreenenter"",""0"",""2632""
","
","
","""event"",""trial"",""time""
""fullscreenenter"",""0"",""2632""
","
","null","<div style=""font-size:60px;"">+</div>","","null","fixation","2021-08-25 03:14:35.176","","","","",""
"","mars-trial","20","60644","0.0-10.0-1.3","228","""event"",""trial"",""time""
""fullscreenenter"",""0"",""2632""
","
","
","""event"",""trial"",""time""
""fullscreenenter"",""0"",""2632""
","
","2396.599999964237","<img style='border: 4px solid darkgrey;' src='img/tf1_4_M_ss3.jpeg'></img>","2","","exp","","0","<img src='img/tf1_4_T1_ss3_md.jpeg'></img>","0","true",""
"","html-keyboard-response","21","61147","0.0-10.0-0.4","228","""event"",""trial"",""time""
""fullscreenenter"",""0"",""2632""
","
","
","""event"",""trial"",""time""
""fullscreenenter"",""0"",""2632""
","
","null","<div style=""font-size:60px;"">+</div>","","null","fixation","2021-08-25 03:14:38.687","","","","",""
"","mars-trial","22","63817","0.0-10.0-1.4","228","""event"",""trial"",""time""
""fullscreenenter"",""0"",""2632""
","
","
","""event"",""trial"",""time""
""fullscreenenter"",""0"",""2632""
","
","2056.5","<img style='border: 4px solid darkgrey;' src='img/tf1_5_M_ss1.jpeg'></img>","1","","exp","","0","<img src='img/tf1_5_T1_ss1_md.jpeg'></img>","0","true",""
"","html-keyboard-response","23","64321","0.0-10.0-0.5","228","""event"",""trial"",""time""
""fullscreenenter"",""0"",""2632""
","
","
","""event"",""trial"",""time""
""fullscreenenter"",""0"",""2632""
","
","null","<div style=""font-size:60px;"">+</div>","","null","fixation","2021-08-25 03:14:41.861","","","","",""
"","mars-trial","24","67873","0.0-10.0-1.5","228","""event"",""trial"",""time""
""fullscreenenter"",""0"",""2632""
","
","
","""event"",""trial"",""time""
""fullscreenenter"",""0"",""2632""
","
","2943.300000011921","<img style='border: 4px solid darkgrey;' src='img/tf1_6_M_ss2.jpeg'></img>","1","","exp","","2","<img src='img/tf1_6_T1_ss2_md.jpeg'></img>","0","false",""
"","html-keyboard-response","25","68376","0.0-10.0-0.6","228","""event"",""trial"",""time""
""fullscreenenter"",""0"",""2632""
","
","
","""event"",""trial"",""time""
""fullscreenenter"",""0"",""2632""
","
","null","<div style=""font-size:60px;"">+</div>","","null","fixation","2021-08-25 03:14:45.916","","","","",""
"","mars-trial","26","71835","0.0-10.0-1.6","228","""event"",""trial"",""time""
""fullscreenenter"",""0"",""2632""
","
","
","""event"",""trial"",""time""
""fullscreenenter"",""0"",""2632""
","
","2852.899999976158","<img style='border: 4px solid darkgrey;' src='img/tf1_7_M_ss3.jpeg'></img>","3","","exp","","0","<img src='img/tf1_7_T1_ss3_md.jpeg'></img>","0","true",""
"","html-keyboard-response","27","72341","0.0-10.0-0.7","228","""event"",""trial"",""time""
""fullscreenenter"",""0"",""2632""
","
","
","""event"",""trial"",""time""
""fullscreenenter"",""0"",""2632""
","
","null","<div style=""font-size:60px;"">+</div>","","null","fixation","2021-08-25 03:14:49.881","","","","",""
"","mars-trial","28","79011","0.0-10.0-1.7","228","""event"",""trial"",""time""
""fullscreenenter"",""0"",""2632""
","
","
","""event"",""trial"",""time""
""fullscreenenter"",""0"",""2632""
","
","6058.5","<img style='border: 4px solid darkgrey;' src='img/tf1_8_M_ss1.jpeg'></img>","0","","exp","","0","<img src='img/tf1_8_T1_ss1_md.jpeg'></img>","0","true",""
"","html-keyboard-response","29","79517","0.0-10.0-0.8","228","""event"",""trial"",""time""
""fullscreenenter"",""0"",""2632""
","
","
","""event"",""trial"",""time""
""fullscreenenter"",""0"",""2632""
","
","null","<div style=""font-size:60px;"">+</div>","","null","fixation","2021-08-25 03:14:57.058","","","","",""
"","mars-trial","30","87832","0.0-10.0-1.8","228","""event"",""trial"",""time""
""fullscreenenter"",""0"",""2632""
","
","
","""event"",""trial"",""time""
""fullscreenenter"",""0"",""2632""
","
","7703.399999976158","<img style='border: 4px solid darkgrey;' src='img/tf1_9_M_ss2.jpeg'></img>","1","","exp","","3","<img src='img/tf1_9_T1_ss2_md.jpeg'></img>","0","false",""
"","html-keyboard-response","31","88339","0.0-10.0-0.9","228","""event"",""trial"",""time""
""fullscreenenter"",""0"",""2632""
","
","
","""event"",""trial"",""time""
""fullscreenenter"",""0"",""2632""
","
","null","<div style=""font-size:60px;"">+</div>","","null","fixation","2021-08-25 03:15:05.879","","","","",""
"","mars-trial","32","96947","0.0-10.0-1.9","228","""event"",""trial"",""time""
""fullscreenenter"",""0"",""2632""
","
","
","""event"",""trial"",""time""
""fullscreenenter"",""0"",""2632""
","
","7993.699999988079","<img style='border: 4px solid darkgrey;' src='img/tf1_10_M_ss3.jpeg'></img>","2","","exp","","2","<img src='img/tf1_10_T1_ss3_md.jpeg'></img>","0","false",""
"","html-keyboard-response","33","97453","0.0-10.0-0.10","228","""event"",""trial"",""time""
""fullscreenenter"",""0"",""2632""
","
","
","""event"",""trial"",""time""
""fullscreenenter"",""0"",""2632""
","
","null","<div style=""font-size:60px;"">+</div>","","null","fixation","2021-08-25 03:15:14.993","","","","",""
"","mars-trial","34","99528","0.0-10.0-1.10","228","""event"",""trial"",""time""
""fullscreenenter"",""0"",""2632""
","
","
","""event"",""trial"",""time""
""fullscreenenter"",""0"",""2632""
","
","1468.3999999761581","<img style='border: 4px solid darkgrey;' src='img/tf1_11_M_ss1.jpeg'></img>","1","","exp","","0","<img src='img/tf1_11_T1_ss1_md.jpeg'></img>","0","true",""
"","html-keyboard-response","35","100034","0.0-10.0-0.11","228","""event"",""trial"",""time""
""fullscreenenter"",""0"",""2632""
","
","
","""event"",""trial"",""time""
""fullscreenenter"",""0"",""2632""
","
","null","<div style=""font-size:60px;"">+</div>","","null","fixation","2021-08-25 03:15:17.574","","","","",""
"","mars-trial","36","111180","0.0-10.0-1.11","228","""event"",""trial"",""time""
""fullscreenenter"",""0"",""2632""
","
","
","""event"",""trial"",""time""
""fullscreenenter"",""0"",""2632""
","
","10541.699999988079","<img style='border: 4px solid darkgrey;' src='img/tf1_12_M_ss2.jpeg'></img>","0","","exp","","2","<img src='img/tf1_12_T1_ss2_md.jpeg'></img>","0","false",""
"","html-keyboard-response","37","111687","0.0-10.0-0.12","228","""event"",""trial"",""time""
""fullscreenenter"",""0"",""2632""
","
","
","""event"",""trial"",""time""
""fullscreenenter"",""0"",""2632""
","
","null","<div style=""font-size:60px;"">+</div>","","null","fixation","2021-08-25 03:15:29.227","","","","",""
"","mars-trial","38","120280","0.0-10.0-1.12","228","""event"",""trial"",""time""
""fullscreenenter"",""0"",""2632""
","
","
","""event"",""trial"",""time""
""fullscreenenter"",""0"",""2632""
","
","7981.300000011921","<img style='border: 4px solid darkgrey;' src='img/tf1_13_M_ss3.jpeg'></img>","2","","exp","","1","<img src='img/tf1_13_T1_ss3_md.jpeg'></img>","0","false",""
"","html-keyboard-response","39","120785","0.0-10.0-0.13","228","""event"",""trial"",""time""
""fullscreenenter"",""0"",""2632""
","
","
","""event"",""trial"",""time""
""fullscreenenter"",""0"",""2632""
","
","null","<div style=""font-size:60px;"">+</div>","","null","fixation","2021-08-25 03:15:38.326","","","","",""
"","mars-trial","40","124748","0.0-10.0-1.13","228","""event"",""trial"",""time""
""fullscreenenter"",""0"",""2632""
","
","
","""event"",""trial"",""time""
""fullscreenenter"",""0"",""2632""
","
","3353.800000011921","<img style='border: 4px solid darkgrey;' src='img/tf1_14_M_ss1.jpeg'></img>","2","","exp","","2","<img src='img/tf1_14_T1_ss1_md.jpeg'></img>","0","false",""
"","html-keyboard-response","41","125255","0.0-10.0-0.14","228","""event"",""trial"",""time""
""fullscreenenter"",""0"",""2632""
","
","
","""event"",""trial"",""time""
""fullscreenenter"",""0"",""2632""
","
","null","<div style=""font-size:60px;"">+</div>","","null","fixation","2021-08-25 03:15:42.796","","","","",""
"","mars-trial","42","127669","0.0-10.0-1.14","228","""event"",""trial"",""time""
""fullscreenenter"",""0"",""2632""
","
","
","""event"",""trial"",""time""
""fullscreenenter"",""0"",""2632""
","
","1803","<img style='border: 4px solid darkgrey;' src='img/tf1_15_M_ss2.jpeg'></img>","1","","exp","","2","<img src='img/tf1_15_T1_ss2_md.jpeg'></img>","0","false",""
"","html-keyboard-response","43","128172","0.0-10.0-0.15","228","""event"",""trial"",""time""
""fullscreenenter"",""0"",""2632""
","
","
","""event"",""trial"",""time""
""fullscreenenter"",""0"",""2632""
","
","null","<div style=""font-size:60px;"">+</div>","","null","fixation","2021-08-25 03:15:45.712","","","","",""
"","mars-trial","44","133532","0.0-10.0-1.15","228","""event"",""trial"",""time""
""fullscreenenter"",""0"",""2632""
","
","
","""event"",""trial"",""time""
""fullscreenenter"",""0"",""2632""
","
","4748.799999952316","<img style='border: 4px solid darkgrey;' src='img/tf1_16_M_ss3.jpeg'></img>","3","","exp","","3","<img src='img/tf1_16_T1_ss3_md.jpeg'></img>","0","false",""
"","html-keyboard-response","45","134039","0.0-10.0-0.16","228","""event"",""trial"",""time""
""fullscreenenter"",""0"",""2632""
","
","
","""event"",""trial"",""time""
""fullscreenenter"",""0"",""2632""
","
","null","<div style=""font-size:60px;"">+</div>","","null","fixation","2021-08-25 03:15:51.579","","","","",""
"","mars-trial","46","139604","0.0-10.0-1.16","228","""event"",""trial"",""time""
""fullscreenenter"",""0"",""2632""
","
","
","""event"",""trial"",""time""
""fullscreenenter"",""0"",""2632""
","
","4953.899999976158","<img style='border: 4px solid darkgrey;' src='img/tf1_17_M_ss1.jpeg'></img>","3","","exp","","0","<img src='img/tf1_17_T1_ss1_md.jpeg'></img>","0","true",""
"","html-keyboard-response","47","140110","0.0-10.0-0.17","228","""event"",""trial"",""time""
""fullscreenenter"",""0"",""2632""
","
","
","""event"",""trial"",""time""
""fullscreenenter"",""0"",""2632""
","
","null","<div style=""font-size:60px;"">+</div>","","null","fixation","2021-08-25 03:15:57.650","","","","",""
"","mars-trial","48","143249","0.0-10.0-1.17","228","""event"",""trial"",""time""
""fullscreenenter"",""0"",""2632""
","
","
","""event"",""trial"",""time""
""fullscreenenter"",""0"",""2632""
","
","2529.7000000476837","<img style='border: 4px solid darkgrey;' src='img/tf1_18_M_ss2.jpeg'></img>","1","","exp","","1","<img src='img/tf1_18_T1_ss2_md.jpeg'></img>","0","false",""
"","html-keyboard-response","49","143756","0.0-10.0-0.18","228","""event"",""trial"",""time""
""fullscreenenter"",""0"",""2632""
","
","
","""event"",""trial"",""time""
""fullscreenenter"",""0"",""2632""
","
","null","<div style=""font-size:60px;"">+</div>","","null","fixation","2021-08-25 03:16:01.296","","","","",""
"","mars-trial","50","159665","0.0-10.0-1.18","228","""event"",""trial"",""time""
""fullscreenenter"",""0"",""2632""
","
","
","""event"",""trial"",""time""
""fullscreenenter"",""0"",""2632""
","
","15299.200000047684","<img style='border: 4px solid darkgrey;' src='img/tf1_19_M_ss3.jpeg'></img>","0","","exp","","3","<img src='img/tf1_19_T1_ss3_md.jpeg'></img>","0","false",""
"","html-keyboard-response","51","160167","0.0-10.0-0.19","228","""event"",""trial"",""time""
""fullscreenenter"",""0"",""2632""
","
","
","""event"",""trial"",""time""
""fullscreenenter"",""0"",""2632""
","
","null","<div style=""font-size:60px;"">+</div>","","null","fixation","2021-08-25 03:16:17.708","","","","",""
"","mars-trial","52","161894","0.0-10.0-1.19","228","""event"",""trial"",""time""
""fullscreenenter"",""0"",""2632""
","
","
","""event"",""trial"",""time""
""fullscreenenter"",""0"",""2632""
","
","1115.5","<img style='border: 4px solid darkgrey;' src='img/tf1_20_M_ss1.jpeg'></img>","1","","exp","","2","<img src='img/tf1_20_T1_ss1_md.jpeg'></img>","0","false",""
"","html-keyboard-response","53","162398","0.0-10.0-0.20","228","""event"",""trial"",""time""
""fullscreenenter"",""0"",""2632""
","
","
","""event"",""trial"",""time""
""fullscreenenter"",""0"",""2632""
","
","null","<div style=""font-size:60px;"">+</div>","","null","fixation","2021-08-25 03:16:19.938","","","","",""
"","mars-trial","54","163953","0.0-10.0-1.20","228","""event"",""trial"",""time""
""fullscreenenter"",""0"",""2632""
","
","
","""event"",""trial"",""time""
""fullscreenenter"",""0"",""2632""
","
","948.3000000119209","<img style='border: 4px solid darkgrey;' src='img/tf1_21_M_ss2.jpeg'></img>","2","","exp","","1","<img src='img/tf1_21_T1_ss2_md.jpeg'></img>","0","false",""
"","html-keyboard-response","55","164456","0.0-10.0-0.21","228","""event"",""trial"",""time""
""fullscreenenter"",""0"",""2632""
","
","
","""event"",""trial"",""time""
""fullscreenenter"",""0"",""2632""
","
","null","<div style=""font-size:60px;"">+</div>","","null","fixation","2021-08-25 03:16:21.996","","","","",""
"","mars-trial","56","167651","0.0-10.0-1.21","228","""event"",""trial"",""time""
""fullscreenenter"",""0"",""2632""
","
","
","""event"",""trial"",""time""
""fullscreenenter"",""0"",""2632""
","
","2588.899999976158","<img style='border: 4px solid darkgrey;' src='img/tf1_22_M_ss3.jpeg'></img>","0","","exp","","3","<img src='img/tf1_22_T1_ss3_md.jpeg'></img>","0","false",""
"","html-keyboard-response","57","168155","0.0-10.0-0.22","228","""event"",""trial"",""time""
""fullscreenenter"",""0"",""2632""
","
","
","""event"",""trial"",""time""
""fullscreenenter"",""0"",""2632""
","
","null","<div style=""font-size:60px;"">+</div>","","null","fixation","2021-08-25 03:16:25.695","","","","",""
"","mars-trial","58","170210","0.0-10.0-1.22","228","""event"",""trial"",""time""
""fullscreenenter"",""0"",""2632""
","
","
","""event"",""trial"",""time""
""fullscreenenter"",""0"",""2632""
","
","1445.1000000238419","<img style='border: 4px solid darkgrey;' src='img/tf1_23_M_ss1.jpeg'></img>","3","","exp","","1","<img src='img/tf1_23_T1_ss1_md.jpeg'></img>","0","false",""
"","html-keyboard-response","59","170717","0.0-10.0-0.23","228","""event"",""trial"",""time""
""fullscreenenter"",""0"",""2632""
","
","
","""event"",""trial"",""time""
""fullscreenenter"",""0"",""2632""
","
","null","<div style=""font-size:60px;"">+</div>","","null","fixation","2021-08-25 03:16:28.257","","","","",""
"","mars-trial","60","177902","0.0-10.0-1.23","228","""event"",""trial"",""time""
""fullscreenenter"",""0"",""2632""
","
","
","""event"",""trial"",""time""
""fullscreenenter"",""0"",""2632""
","
","6571.600000023842","<img style='border: 4px solid darkgrey;' src='img/tf1_24_M_ss2.jpeg'></img>","1","","exp","","2","<img src='img/tf1_24_T1_ss2_md.jpeg'></img>","0","false",""
"","html-keyboard-response","61","178406","0.0-10.0-0.24","228","""event"",""trial"",""time""
""fullscreenenter"",""0"",""2632""
","
","
","""event"",""trial"",""time""
""fullscreenenter"",""0"",""2632""
","
","null","<div style=""font-size:60px;"">+</div>","","null","fixation","2021-08-25 03:16:35.946","","","","",""
"","mars-trial","62","181448","0.0-10.0-1.24","228","""event"",""trial"",""time""
""fullscreenenter"",""0"",""2632""
","
","
","""event"",""trial"",""time""
""fullscreenenter"",""0"",""2632""
","
","2430.399999976158","<img style='border: 4px solid darkgrey;' src='img/tf1_25_M_ss3.jpeg'></img>","2","","exp","","0","<img src='img/tf1_25_T1_ss3_md.jpeg'></img>","0","true",""
"","html-keyboard-response","63","181958","0.0-10.0-0.25","228","""event"",""trial"",""time""
""fullscreenenter"",""0"",""2632""
","
","
","""event"",""trial"",""time""
""fullscreenenter"",""0"",""2632""
","
","null","<div style=""font-size:60px;"">+</div>","","null","fixation","2021-08-25 03:16:39.498","","","","",""
"","mars-trial","64","183795","0.0-10.0-1.25","228","""event"",""trial"",""time""
""fullscreenenter"",""0"",""2632""
","
","
","""event"",""trial"",""time""
""fullscreenenter"",""0"",""2632""
","
","1227.1000000238419","<img style='border: 4px solid darkgrey;' src='img/tf1_26_M_ss1.jpeg'></img>","2","","exp","","2","<img src='img/tf1_26_T1_ss1_md.jpeg'></img>","0","false",""
"","html-keyboard-response","65","184300","0.0-10.0-0.26","228","""event"",""trial"",""time""
""fullscreenenter"",""0"",""2632""
","
","
","""event"",""trial"",""time""
""fullscreenenter"",""0"",""2632""
","
","null","<div style=""font-size:60px;"">+</div>","","null","fixation","2021-08-25 03:16:41.840","","","","",""
"","mars-trial","66","186623","0.0-10.0-1.26","228","""event"",""trial"",""time""
""fullscreenenter"",""0"",""2632""
","
","
","""event"",""trial"",""time""
""fullscreenenter"",""0"",""2632""
","
","1711.5","<img style='border: 4px solid darkgrey;' src='img/tf1_27_M_ss2.jpeg'></img>","1","","exp","","1","<img src='img/tf1_27_T1_ss2_md.jpeg'></img>","0","false",""
"","html-keyboard-response","67","187131","0.0-10.0-0.27","228","""event"",""trial"",""time""
""fullscreenenter"",""0"",""2632""
","
","
","""event"",""trial"",""time""
""fullscreenenter"",""0"",""2632""
","
","null","<div style=""font-size:60px;"">+</div>","","null","fixation","2021-08-25 03:16:44.671","","","","",""
"","mars-trial","68","188748","0.0-10.0-1.27","228","""event"",""trial"",""time""
""fullscreenenter"",""0"",""2632""
","
","
","""event"",""trial"",""time""
""fullscreenenter"",""0"",""2632""
","
","1010.5999999642372","<img style='border: 4px solid darkgrey;' src='img/tf1_28_M_ss3.jpeg'></img>","3","","exp","","3","<img src='img/tf1_28_T1_ss3_md.jpeg'></img>","0","false",""
"","html-keyboard-response","69","189249","0.0-10.0-0.28","228","""event"",""trial"",""time""
""fullscreenenter"",""0"",""2632""
","
","
","""event"",""trial"",""time""
""fullscreenenter"",""0"",""2632""
","
","null","<div style=""font-size:60px;"">+</div>","","null","fixation","2021-08-25 03:16:46.789","","","","",""
"","mars-trial","70","190992","0.0-10.0-1.28","228","""event"",""trial"",""time""
""fullscreenenter"",""0"",""2632""
","
","
","""event"",""trial"",""time""
""fullscreenenter"",""0"",""2632""
","
","1133.800000011921","<img style='border: 4px solid darkgrey;' src='img/tf1_29_M_ss1.jpeg'></img>","0","","exp","","2","<img src='img/tf1_29_T1_ss1_md.jpeg'></img>","0","false",""
"","html-keyboard-response","71","191499","0.0-10.0-0.29","228","""event"",""trial"",""time""
""fullscreenenter"",""0"",""2632""
","
","
","""event"",""trial"",""time""
""fullscreenenter"",""0"",""2632""
","
","null","<div style=""font-size:60px;"">+</div>","","null","fixation","2021-08-25 03:16:49.039","","","","",""
"","mars-trial","72","194842","0.0-10.0-1.29","228","""event"",""trial"",""time""
""fullscreenenter"",""0"",""2632""
","
","
","""event"",""trial"",""time""
""fullscreenenter"",""0"",""2632""
","
","2731","<img style='border: 4px solid darkgrey;' src='img/tf1_30_M_ss2.jpeg'></img>","1","","exp","","3","<img src='img/tf1_30_T1_ss2_md.jpeg'></img>","0","false",""
"","html-keyboard-response","73","195345","0.0-10.0-0.30","228","""event"",""trial"",""time""
""fullscreenenter"",""0"",""2632""
","
","
","""event"",""trial"",""time""
""fullscreenenter"",""0"",""2632""
","
","null","<div style=""font-size:60px;"">+</div>","","null","fixation","2021-08-25 03:16:52.885","","","","",""
"","mars-trial","74","196597","0.0-10.0-1.30","228","""event"",""trial"",""time""
""fullscreenenter"",""0"",""2632""
","
","
","""event"",""trial"",""time""
""fullscreenenter"",""0"",""2632""
","
","642.5","<img style='border: 4px solid darkgrey;' src='img/tf1_31_M_ss3.jpeg'></img>","2","","exp","","3","<img src='img/tf1_31_T1_ss3_md.jpeg'></img>","0","false",""
"","html-keyboard-response","75","197101","0.0-10.0-0.31","228","""event"",""trial"",""time""
""fullscreenenter"",""0"",""2632""
","
","
","""event"",""trial"",""time""
""fullscreenenter"",""0"",""2632""
","
","null","<div style=""font-size:60px;"">+</div>","","null","fixation","2021-08-25 03:16:54.642","","","","",""
"","mars-trial","76","199330","0.0-10.0-1.31","228","""event"",""trial"",""time""
""fullscreenenter"",""0"",""2632""
","
","
","""event"",""trial"",""time""
""fullscreenenter"",""0"",""2632""
","
","1617.3999999761581","<img style='border: 4px solid darkgrey;' src='img/tf1_32_M_ss1.jpeg'></img>","2","","exp","","2","<img src='img/tf1_32_T1_ss1_md.jpeg'></img>","0","false",""
"","html-keyboard-response","77","199835","0.0-10.0-0.32","228","""event"",""trial"",""time""
""fullscreenenter"",""0"",""2632""
","
","
","""event"",""trial"",""time""
""fullscreenenter"",""0"",""2632""
","
","null","<div style=""font-size:60px;"">+</div>","","null","fixation","2021-08-25 03:16:57.375","","","","",""
"","mars-trial","78","201365","0.0-10.0-1.32","228","""event"",""trial"",""time""
""fullscreenenter"",""0"",""2632""
","
","
","""event"",""trial"",""time""
""fullscreenenter"",""0"",""2632""
","
","920.3999999761581","<img style='border: 4px solid darkgrey;' src='img/tf1_33_M_ss2.jpeg'></img>","1","","exp","","0","<img src='img/tf1_33_T1_ss2_md.jpeg'></img>","0","true",""
"","html-keyboard-response","79","201869","0.0-10.0-0.33","228","""event"",""trial"",""time""
""fullscreenenter"",""0"",""2632""
","
","
","""event"",""trial"",""time""
""fullscreenenter"",""0"",""2632""
","
","null","<div style=""font-size:60px;"">+</div>","","null","fixation","2021-08-25 03:16:59.409","","","","",""
"","mars-trial","80","202987","0.0-10.0-1.33","228","""event"",""trial"",""time""
""fullscreenenter"",""0"",""2632""
","
","
","""event"",""trial"",""time""
""fullscreenenter"",""0"",""2632""
","
","505.19999998807907","<img style='border: 4px solid darkgrey;' src='img/tf1_34_M_ss3.jpeg'></img>","1","","exp","","3","<img src='img/tf1_34_T1_ss3_md.jpeg'></img>","0","false",""
"","html-keyboard-response","81","203489","0.0-10.0-0.34","228","""event"",""trial"",""time""
""fullscreenenter"",""0"",""2632""
","
","
","""event"",""trial"",""time""
""fullscreenenter"",""0"",""2632""
","
","null","<div style=""font-size:60px;"">+</div>","","null","fixation","2021-08-25 03:17:01.029","","","","",""
"","mars-trial","82","204693","0.0-10.0-1.34","228","""event"",""trial"",""time""
""fullscreenenter"",""0"",""2632""
","
","
","""event"",""trial"",""time""
""fullscreenenter"",""0"",""2632""
","
","599.3000000119209","<img style='border: 4px solid darkgrey;' src='img/tf1_35_M_ss1.jpeg'></img>","3","","exp","","2","<img src='img/tf1_35_T1_ss1_md.jpeg'></img>","0","false",""
"","html-keyboard-response","83","205196","0.0-10.0-0.35","228","""event"",""trial"",""time""
""fullscreenenter"",""0"",""2632""
","
","
","""event"",""trial"",""time""
""fullscreenenter"",""0"",""2632""
","
","null","<div style=""font-size:60px;"">+</div>","","null","fixation","2021-08-25 03:17:02.736","","","","",""
"","mars-trial","84","206240","0.0-10.0-1.35","228","""event"",""trial"",""time""
""fullscreenenter"",""0"",""2632""
","
","
","""event"",""trial"",""time""
""fullscreenenter"",""0"",""2632""
","
","436.10000002384186","<img style='border: 4px solid darkgrey;' src='img/tf1_36_M_ss2.jpeg'></img>","0","","exp","","2","<img src='img/tf1_36_T1_ss2_md.jpeg'></img>","0","false",""
"","html-keyboard-response","85","206742","0.0-10.0-0.36","228","""event"",""trial"",""time""
""fullscreenenter"",""0"",""2632""
","
","
","""event"",""trial"",""time""
""fullscreenenter"",""0"",""2632""
","
","null","<div style=""font-size:60px;"">+</div>","","null","fixation","2021-08-25 03:17:04.283","","","","",""
"","mars-trial","86","208035","0.0-10.0-1.36","228","""event"",""trial"",""time""
""fullscreenenter"",""0"",""2632""
","
","
","""event"",""trial"",""time""
""fullscreenenter"",""0"",""2632""
","
","687.3999999761581","<img style='border: 4px solid darkgrey;' src='img/tf1_37_M_ss3.jpeg'></img>","2","","exp","","3","<img src='img/tf1_37_T1_ss3_md.jpeg'></img>","0","false",""
"","html-keyboard-response","87","208537","0.0-10.0-0.37","228","""event"",""trial"",""time""
""fullscreenenter"",""0"",""2632""
","
","
","""event"",""trial"",""time""
""fullscreenenter"",""0"",""2632""
","
","null","<div style=""font-size:60px;"">+</div>","","null","fixation","2021-08-25 03:17:06.077","","","","",""
"","mars-trial","88","209685","0.0-10.0-1.37","228","""event"",""trial"",""time""
""fullscreenenter"",""0"",""2632""
","
","
","""event"",""trial"",""time""
""fullscreenenter"",""0"",""2632""
","
","537.8000000119209","<img style='border: 4px solid darkgrey;' src='img/tf1_38_M_ss1.jpeg'></img>","1","","exp","","3","<img src='img/tf1_38_T1_ss1_md.jpeg'></img>","0","false",""
"","html-keyboard-response","89","210191","0.0-10.0-0.38","228","""event"",""trial"",""time""
""fullscreenenter"",""0"",""2632""
","
","
","""event"",""trial"",""time""
""fullscreenenter"",""0"",""2632""
","
","null","<div style=""font-size:60px;"">+</div>","","null","fixation","2021-08-25 03:17:07.731","","","","",""
"","mars-trial","90","211659","0.0-10.0-1.38","228","""event"",""trial"",""time""
""fullscreenenter"",""0"",""2632""
","
","
","""event"",""trial"",""time""
""fullscreenenter"",""0"",""2632""
","
","860.6999999880791","<img style='border: 4px solid darkgrey;' src='img/tf1_39_M_ss2.jpeg'></img>","3","","exp","","0","<img src='img/tf1_39_T1_ss2_md.jpeg'></img>","0","true",""
"","html-keyboard-response","91","212165","0.0-10.0-0.39","228","""event"",""trial"",""time""
""fullscreenenter"",""0"",""2632""
","
","
","""event"",""trial"",""time""
""fullscreenenter"",""0"",""2632""
","
","null","<div style=""font-size:60px;"">+</div>","","null","fixation","2021-08-25 03:17:09.706","","","","",""
"","mars-trial","92","213893","0.0-10.0-1.39","228","""event"",""trial"",""time""
""fullscreenenter"",""0"",""2632""
","
","
","""event"",""trial"",""time""
""fullscreenenter"",""0"",""2632""
","
","1121.699999988079","<img style='border: 4px solid darkgrey;' src='img/tf1_40_M_ss3.jpeg'></img>","0","","exp","","3","<img src='img/tf1_40_T1_ss3_md.jpeg'></img>","0","false",""
"","html-keyboard-response","93","214400","0.0-10.0-0.40","228","""event"",""trial"",""time""
""fullscreenenter"",""0"",""2632""
","
","
","""event"",""trial"",""time""
""fullscreenenter"",""0"",""2632""
","
","null","<div style=""font-size:60px;"">+</div>","","null","fixation","2021-08-25 03:17:11.940","","","","",""
"","mars-trial","94","217317","0.0-10.0-1.40","228","""event"",""trial"",""time""
""fullscreenenter"",""0"",""2632""
","
","
","""event"",""trial"",""time""
""fullscreenenter"",""0"",""2632""
","
","2310.100000023842","<img style='border: 4px solid darkgrey;' src='img/tf1_41_M_ss1.jpeg'></img>","1","","exp","","2","<img src='img/tf1_41_T1_ss1_md.jpeg'></img>","0","false",""
"","html-keyboard-response","95","217822","0.0-10.0-0.41","228","""event"",""trial"",""time""
""fullscreenenter"",""0"",""2632""
","
","
","""event"",""trial"",""time""
""fullscreenenter"",""0"",""2632""
","
","null","<div style=""font-size:60px;"">+</div>","","null","fixation","2021-08-25 03:17:15.362","","","","",""
"","mars-trial","96","219296","0.0-10.0-1.41","228","""event"",""trial"",""time""
""fullscreenenter"",""0"",""2632""
","
","
","""event"",""trial"",""time""
""fullscreenenter"",""0"",""2632""
","
","864.1999999880791","<img style='border: 4px solid darkgrey;' src='img/tf1_42_M_ss2.jpeg'></img>","3","","exp","","1","<img src='img/tf1_42_T1_ss2_md.jpeg'></img>","0","false",""
"","html-keyboard-response","97","219802","0.0-10.0-0.42","228","""event"",""trial"",""time""
""fullscreenenter"",""0"",""2632""
","
","
","""event"",""trial"",""time""
""fullscreenenter"",""0"",""2632""
","
","null","<div style=""font-size:60px;"">+</div>","","null","fixation","2021-08-25 03:17:17.342","","","","",""
"","mars-trial","98","222229","0.0-10.0-1.42","228","""event"",""trial"",""time""
""fullscreenenter"",""0"",""2632""
","
","
","""event"",""trial"",""time""
""fullscreenenter"",""0"",""2632""
","
","1816.4000000357628","<img style='border: 4px solid darkgrey;' src='img/tf1_43_M_ss3.jpeg'></img>","0","","exp","","1","<img src='img/tf1_43_T1_ss3_md.jpeg'></img>","0","false",""
"","html-keyboard-response","99","222731","0.0-10.0-0.43","228","""event"",""trial"",""time""
""fullscreenenter"",""0"",""2632""
","
","
","""event"",""trial"",""time""
""fullscreenenter"",""0"",""2632""
","
","null","<div style=""font-size:60px;"">+</div>","","null","fixation","2021-08-25 03:17:20.271","","","","",""
"","mars-trial","100","224269","0.0-10.0-1.43","228","""event"",""trial"",""time""
""fullscreenenter"",""0"",""2632""
","
","
","""event"",""trial"",""time""
""fullscreenenter"",""0"",""2632""
","
","929.9000000357628","<img style='border: 4px solid darkgrey;' src='img/tf1_44_M_ss1.jpeg'></img>","2","","exp","","2","<img src='img/tf1_44_T1_ss1_md.jpeg'></img>","0","false",""
"","html-keyboard-response","101","224772","0.0-10.0-0.44","228","""event"",""trial"",""time""
""fullscreenenter"",""0"",""2632""
","
","
","""event"",""trial"",""time""
""fullscreenenter"",""0"",""2632""
","
","null","<div style=""font-size:60px;"">+</div>","","null","fixation","2021-08-25 03:17:22.312","","","","",""
"","mars-trial","102","226741","0.0-10.0-1.44","228","""event"",""trial"",""time""
""fullscreenenter"",""0"",""2632""
","
","
","""event"",""trial"",""time""
""fullscreenenter"",""0"",""2632""
","
","1359.3999999761581","<img style='border: 4px solid darkgrey;' src='img/tf1_45_M_ss2.jpeg'></img>","1","","exp","","1","<img src='img/tf1_45_T1_ss2_md.jpeg'></img>","0","false",""
"","html-keyboard-response","103","227245","0.0-10.0-0.45","228","""event"",""trial"",""time""
""fullscreenenter"",""0"",""2632""
","
","
","""event"",""trial"",""time""
""fullscreenenter"",""0"",""2632""
","
","null","<div style=""font-size:60px;"">+</div>","","null","fixation","2021-08-25 03:17:24.786","","","","",""
"","mars-trial","104","228417","0.0-10.0-1.45","228","""event"",""trial"",""time""
""fullscreenenter"",""0"",""2632""
","
","
","""event"",""trial"",""time""
""fullscreenenter"",""0"",""2632""
","
","560.1000000238419","<img style='border: 4px solid darkgrey;' src='img/tf1_46_M_ss3.jpeg'></img>","3","","exp","","2","<img src='img/tf1_46_T1_ss3_md.jpeg'></img>","0","false",""
"","html-keyboard-response","105","228923","0.0-10.0-0.46","228","""event"",""trial"",""time""
""fullscreenenter"",""0"",""2632""
","
","
","""event"",""trial"",""time""
""fullscreenenter"",""0"",""2632""
","
","null","<div style=""font-size:60px;"">+</div>","","null","fixation","2021-08-25 03:17:26.463","","","","",""
"","mars-trial","106","230238","0.0-10.0-1.46","228","""event"",""trial"",""time""
""fullscreenenter"",""0"",""2632""
","
","
","""event"",""trial"",""time""
""fullscreenenter"",""0"",""2632""
","
","708.6000000238419","<img style='border: 4px solid darkgrey;' src='img/tf1_47_M_ss1.jpeg'></img>","1","","exp","","1","<img src='img/tf1_47_T1_ss1_md.jpeg'></img>","0","false",""
"","html-keyboard-response","107","230740","0.0-10.0-0.47","228","""event"",""trial"",""time""
""fullscreenenter"",""0"",""2632""
","
","
","""event"",""trial"",""time""
""fullscreenenter"",""0"",""2632""
","
","null","<div style=""font-size:60px;"">+</div>","","null","fixation","2021-08-25 03:17:28.280","","","","",""
"","mars-trial","108","231834","0.0-10.0-1.47","228","""event"",""trial"",""time""
""fullscreenenter"",""0"",""2632""
","
","
","""event"",""trial"",""time""
""fullscreenenter"",""0"",""2632""
","
","486.39999997615814","<img style='border: 4px solid darkgrey;' src='img/tf1_48_M_ss2.jpeg'></img>","3","","exp","","0","<img src='img/tf1_48_T1_ss2_md.jpeg'></img>","0","true",""
"","html-keyboard-response","109","232337","0.0-10.0-0.48","228","""event"",""trial"",""time""
""fullscreenenter"",""0"",""2632""
","
","
","""event"",""trial"",""time""
""fullscreenenter"",""0"",""2632""
","
","null","<div style=""font-size:60px;"">+</div>","","null","fixation","2021-08-25 03:17:29.878","","","","",""
"","mars-trial","110","233345","0.0-10.0-1.48","228","""event"",""trial"",""time""
""fullscreenenter"",""0"",""2632""
","
","
","""event"",""trial"",""time""
""fullscreenenter"",""0"",""2632""
","
","400.2999999523163","<img style='border: 4px solid darkgrey;' src='img/tf1_49_M_ss3.jpeg'></img>","3","","exp","","1","<img src='img/tf1_49_T1_ss3_md.jpeg'></img>","0","false",""
"","html-keyboard-response","111","233851","0.0-10.0-0.49","228","""event"",""trial"",""time""
""fullscreenenter"",""0"",""2632""
","
","
","""event"",""trial"",""time""
""fullscreenenter"",""0"",""2632""
","
","null","<div style=""font-size:60px;"">+</div>","","null","fixation","2021-08-25 03:17:31.391","","","","",""
"","mars-trial","112","241865","0.0-10.0-1.49","228","""event"",""trial"",""time""
""fullscreenenter"",""0"",""2632""
","
","
","""event"",""trial"",""time""
""fullscreenenter"",""0"",""2632""
","
","7402.900000035763","<img style='border: 4px solid darkgrey;' src='img/tf1_50_M_ss1.jpeg'></img>","3","","exp","","3","<img src='img/tf1_50_T1_ss1_md.jpeg'></img>","0","false",""
"","html-keyboard-response","113","242368","0.0-10.0-0.50","228","""event"",""trial"",""time""
""fullscreenenter"",""0"",""2632""
","
","
","""event"",""trial"",""time""
""fullscreenenter"",""0"",""2632""
","
","null","<div style=""font-size:60px;"">+</div>","","null","fixation","2021-08-25 03:17:39.909","","","","",""
"","mars-trial","114","244885","0.0-10.0-1.50","228","""event"",""trial"",""time""
""fullscreenenter"",""0"",""2632""
","
","
","""event"",""trial"",""time""
""fullscreenenter"",""0"",""2632""
","
","1907.699999988079","<img style='border: 4px solid darkgrey;' src='img/tf1_51_M_ss2.jpeg'></img>","3","","exp","","1","<img src='img/tf1_51_T1_ss2_md.jpeg'></img>","0","false",""
"","html-keyboard-response","115","245391","0.0-10.0-0.51","228","""event"",""trial"",""time""
""fullscreenenter"",""0"",""2632""
","
","
","""event"",""trial"",""time""
""fullscreenenter"",""0"",""2632""
","
","null","<div style=""font-size:60px;"">+</div>","","null","fixation","2021-08-25 03:17:42.931","","","","",""
"","mars-trial","116","248109","0.0-10.0-1.51","228","""event"",""trial"",""time""
""fullscreenenter"",""0"",""2632""
","
","
","""event"",""trial"",""time""
""fullscreenenter"",""0"",""2632""
","
","2108.399999976158","<img style='border: 4px solid darkgrey;' src='img/tf1_52_M_ss3.jpeg'></img>","2","","exp","","2","<img src='img/tf1_52_T1_ss3_md.jpeg'></img>","0","false",""
"","html-keyboard-response","117","248615","0.0-10.0-0.52","228","""event"",""trial"",""time""
""fullscreenenter"",""0"",""2632""
","
","
","""event"",""trial"",""time""
""fullscreenenter"",""0"",""2632""
","
","null","<div style=""font-size:60px;"">+</div>","","null","fixation","2021-08-25 03:17:46.155","","","","",""
"","mars-trial","118","250826","0.0-10.0-1.52","228","""event"",""trial"",""time""
""fullscreenenter"",""0"",""2632""
","
","
","""event"",""trial"",""time""
""fullscreenenter"",""0"",""2632""
","
","1599.5","<img style='border: 4px solid darkgrey;' src='img/tf1_53_M_ss1.jpeg'></img>","3","","exp","","2","<img src='img/tf1_53_T1_ss1_md.jpeg'></img>","0","false",""
"","html-keyboard-response","119","251332","0.0-10.0-0.53","228","""event"",""trial"",""time""
""fullscreenenter"",""0"",""2632""
","
","
","""event"",""trial"",""time""
""fullscreenenter"",""0"",""2632""
","
","null","<div style=""font-size:60px;"">+</div>","","null","fixation","2021-08-25 03:17:48.872","","","","",""
"","mars-trial","120","252623","0.0-10.0-1.53","228","""event"",""trial"",""time""
""fullscreenenter"",""0"",""2632""
","
","
","""event"",""trial"",""time""
""fullscreenenter"",""0"",""2632""
","
","683","<img style='border: 4px solid darkgrey;' src='img/tf1_54_M_ss2.jpeg'></img>","2","","exp","","1","<img src='img/tf1_54_T1_ss2_md.jpeg'></img>","0","false",""
"","html-keyboard-response","121","253129","0.0-10.0-0.54","228","""event"",""trial"",""time""
""fullscreenenter"",""0"",""2632""
","
","
","""event"",""trial"",""time""
""fullscreenenter"",""0"",""2632""
","
","null","<div style=""font-size:60px;"">+</div>","","null","fixation","2021-08-25 03:17:50.669","","","","",""
"","mars-trial","122","255243","0.0-10.0-1.54","228","""event"",""trial"",""time""
""fullscreenenter"",""0"",""2632""
","
","
","""event"",""trial"",""time""
""fullscreenenter"",""0"",""2632""
","
","1509","<img style='border: 4px solid darkgrey;' src='img/tf1_55_M_ss3.jpeg'></img>","3","","exp","","2","<img src='img/tf1_55_T1_ss3_md.jpeg'></img>","0","false",""
"","html-keyboard-response","123","255746","0.0-10.0-0.55","228","""event"",""trial"",""time""
""fullscreenenter"",""0"",""2632""
","
","
","""event"",""trial"",""time""
""fullscreenenter"",""0"",""2632""
","
","null","<div style=""font-size:60px;"">+</div>","","null","fixation","2021-08-25 03:17:53.286","","","","",""
"","mars-trial","124","256892","0.0-10.0-1.55","228","""event"",""trial"",""time""
""fullscreenenter"",""0"",""2632""
","
","
","""event"",""trial"",""time""
""fullscreenenter"",""0"",""2632""
","
","537.9000000357628","<img style='border: 4px solid darkgrey;' src='img/tf1_56_M_ss1.jpeg'></img>","1","","exp","","3","<img src='img/tf1_56_T1_ss1_md.jpeg'></img>","0","false",""
"","html-keyboard-response","125","257395","0.0-10.0-0.56","228","""event"",""trial"",""time""
""fullscreenenter"",""0"",""2632""
","
","
","""event"",""trial"",""time""
""fullscreenenter"",""0"",""2632""
","
","null","<div style=""font-size:60px;"">+</div>","","null","fixation","2021-08-25 03:17:54.936","","","","",""
"","mars-trial","126","258411","0.0-10.0-1.56","228","""event"",""trial"",""time""
""fullscreenenter"",""0"",""2632""
","
","
","""event"",""trial"",""time""
""fullscreenenter"",""0"",""2632""
","
","407.5","<img style='border: 4px solid darkgrey;' src='img/tf1_57_M_ss2.jpeg'></img>","2","","exp","","1","<img src='img/tf1_57_T1_ss2_md.jpeg'></img>","0","false",""
"","html-keyboard-response","127","258914","0.0-10.0-0.57","228","""event"",""trial"",""time""
""fullscreenenter"",""0"",""2632""
","
","
","""event"",""trial"",""time""
""fullscreenenter"",""0"",""2632""
","
","null","<div style=""font-size:60px;"">+</div>","","null","fixation","2021-08-25 03:17:56.454","","","","",""
"","mars-trial","128","259961","0.0-10.0-1.57","228","""event"",""trial"",""time""
""fullscreenenter"",""0"",""2632""
","
","
","""event"",""trial"",""time""
""fullscreenenter"",""0"",""2632""
","
","439","<img style='border: 4px solid darkgrey;' src='img/tf1_58_M_ss3.jpeg'></img>","3","","exp","","2","<img src='img/tf1_58_T1_ss3_md.jpeg'></img>","0","false",""
"","html-keyboard-response","129","260465","0.0-10.0-0.58","228","""event"",""trial"",""time""
""fullscreenenter"",""0"",""2632""
","
","
","""event"",""trial"",""time""
""fullscreenenter"",""0"",""2632""
","
","null","<div style=""font-size:60px;"">+</div>","","null","fixation","2021-08-25 03:17:58.005","","","","",""
"","mars-trial","130","262052","0.0-10.0-1.58","228","""event"",""trial"",""time""
""fullscreenenter"",""0"",""2632""
","
","
","""event"",""trial"",""time""
""fullscreenenter"",""0"",""2632""
","
","979.8000000119209","<img style='border: 4px solid darkgrey;' src='img/tf1_59_M_ss1.jpeg'></img>","0","","exp","","2","<img src='img/tf1_59_T1_ss1_md.jpeg'></img>","0","false",""
"","html-keyboard-response","131","262555","0.0-10.0-0.59","228","""event"",""trial"",""time""
""fullscreenenter"",""0"",""2632""
","
","
","""event"",""trial"",""time""
""fullscreenenter"",""0"",""2632""
","
","null","<div style=""font-size:60px;"">+</div>","","null","fixation","2021-08-25 03:18:00.095","","","","",""
"","mars-trial","132","263940","0.0-10.0-1.59","228","""event"",""trial"",""time""
""fullscreenenter"",""0"",""2632""
","
","
","""event"",""trial"",""time""
""fullscreenenter"",""0"",""2632""
","
","778.8999999761581","<img style='border: 4px solid darkgrey;' src='img/tf1_60_M_ss2.jpeg'></img>","1","","exp","","0","<img src='img/tf1_60_T1_ss2_md.jpeg'></img>","0","true",""
"","html-keyboard-response","133","264442","0.0-10.0-0.60","228","""event"",""trial"",""time""
""fullscreenenter"",""0"",""2632""
","
","
","""event"",""trial"",""time""
""fullscreenenter"",""0"",""2632""
","
","null","<div style=""font-size:60px;"">+</div>","","null","fixation","2021-08-25 03:18:01.982","","","","",""
"","mars-trial","134","266009","0.0-10.0-1.60","228","""event"",""trial"",""time""
""fullscreenenter"",""0"",""2632""
","
","
","""event"",""trial"",""time""
""fullscreenenter"",""0"",""2632""
","
","954","<img style='border: 4px solid darkgrey;' src='img/tf1_61_M_ss3.jpeg'></img>","2","","exp","","0","<img src='img/tf1_61_T1_ss3_md.jpeg'></img>","0","true",""
"","html-keyboard-response","135","266516","0.0-10.0-0.61","228","""event"",""trial"",""time""
""fullscreenenter"",""0"",""2632""
","
","
","""event"",""trial"",""time""
""fullscreenenter"",""0"",""2632""
","
","null","<div style=""font-size:60px;"">+</div>","","null","fixation","2021-08-25 03:18:04.057","","","","",""
"","mars-trial","136","267935","0.0-10.0-1.61","228","""event"",""trial"",""time""
""fullscreenenter"",""0"",""2632""
","
","
","""event"",""trial"",""time""
""fullscreenenter"",""0"",""2632""
","
","809.1999999880791","<img style='border: 4px solid darkgrey;' src='img/tf1_62_M_ss1.jpeg'></img>","2","","exp","","2","<img src='img/tf1_62_T1_ss1_md.jpeg'></img>","0","false",""
"","html-keyboard-response","137","268442","0.0-10.0-0.62","228","""event"",""trial"",""time""
""fullscreenenter"",""0"",""2632""
","
","
","""event"",""trial"",""time""
""fullscreenenter"",""0"",""2632""
","
","null","<div style=""font-size:60px;"">+</div>","","null","fixation","2021-08-25 03:18:05.982","","","","",""
"","mars-trial","138","281188","0.0-10.0-1.62","228","""event"",""trial"",""time""
""fullscreenenter"",""0"",""2632""
","
","
","""event"",""trial"",""time""
""fullscreenenter"",""0"",""2632""
","
","12138.300000011921","<img style='border: 4px solid darkgrey;' src='img/tf1_63_M_ss2.jpeg'></img>","2","","exp","","2","<img src='img/tf1_63_T1_ss2_md.jpeg'></img>","0","false",""
"","html-keyboard-response","139","281694","0.0-10.0-0.63","228","""event"",""trial"",""time""
""fullscreenenter"",""0"",""2632""
","
","
","""event"",""trial"",""time""
""fullscreenenter"",""0"",""2632""
","
","null","<div style=""font-size:60px;"">+</div>","","null","fixation","2021-08-25 03:18:19.234","","","","",""
"","mars-trial","140","286766","0.0-10.0-1.63","228","""event"",""trial"",""time""
""fullscreenenter"",""0"",""2632""
","
","
","""event"",""trial"",""time""
""fullscreenenter"",""0"",""2632""
","
","4460.5","<img style='border: 4px solid darkgrey;' src='img/tf1_64_M_ss3.jpeg'></img>","2","","exp","","2","<img src='img/tf1_64_T1_ss3_md.jpeg'></img>","0","false",""
"","html-keyboard-response","141","287272","0.0-10.0-0.64","228","""event"",""trial"",""time""
""fullscreenenter"",""0"",""2632""
","
","
","""event"",""trial"",""time""
""fullscreenenter"",""0"",""2632""
","
","null","<div style=""font-size:60px;"">+</div>","","null","fixation","2021-08-25 03:18:24.813","","","","",""
"","mars-trial","142","291230","0.0-10.0-1.64","228","""event"",""trial"",""time""
""fullscreenenter"",""0"",""2632""
","
","
","""event"",""trial"",""time""
""fullscreenenter"",""0"",""2632""
","
","3350.599999964237","<img style='border: 4px solid darkgrey;' src='img/tf1_65_M_ss1.jpeg'></img>","2","","exp","","1","<img src='img/tf1_65_T1_ss1_md.jpeg'></img>","0","false",""
"","html-keyboard-response","143","291736","0.0-10.0-0.65","228","""event"",""trial"",""time""
""fullscreenenter"",""0"",""2632""
","
","
","""event"",""trial"",""time""
""fullscreenenter"",""0"",""2632""
","
","null","<div style=""font-size:60px;"">+</div>","","null","fixation","2021-08-25 03:18:29.276","","","","",""
"","mars-trial","144","294542","0.0-10.0-1.65","228","""event"",""trial"",""time""
""fullscreenenter"",""0"",""2632""
","
","
","""event"",""trial"",""time""
""fullscreenenter"",""0"",""2632""
","
","2195.300000011921","<img style='border: 4px solid darkgrey;' src='img/tf1_66_M_ss2.jpeg'></img>","2","","exp","","1","<img src='img/tf1_66_T1_ss2_md.jpeg'></img>","0","false",""
"","html-keyboard-response","145","295048","0.0-10.0-0.66","228","""event"",""trial"",""time""
""fullscreenenter"",""0"",""2632""
","
","
","""event"",""trial"",""time""
""fullscreenenter"",""0"",""2632""
","
","null","<div style=""font-size:60px;"">+</div>","","null","fixation","2021-08-25 03:18:32.588","","","","",""
"","mars-trial","146","299369","0.0-10.0-1.66","228","""event"",""trial"",""time""
""fullscreenenter"",""0"",""2632""
","
","
","""event"",""trial"",""time""
""fullscreenenter"",""0"",""2632""
","
","3712.7000000476837","<img style='border: 4px solid darkgrey;' src='img/tf1_67_M_ss3.jpeg'></img>","2","","exp","","1","<img src='img/tf1_67_T1_ss3_md.jpeg'></img>","0","false",""
"","html-keyboard-response","147","299876","0.0-10.0-0.67","228","""event"",""trial"",""time""
""fullscreenenter"",""0"",""2632""
","
","
","""event"",""trial"",""time""
""fullscreenenter"",""0"",""2632""
","
","null","<div style=""font-size:60px;"">+</div>","","null","fixation","2021-08-25 03:18:37.416","","","","",""
"","mars-trial","148","304328","0.0-10.0-1.67","228","""event"",""trial"",""time""
""fullscreenenter"",""0"",""2632""
","
","
","""event"",""trial"",""time""
""fullscreenenter"",""0"",""2632""
","
","3839.899999976158","<img style='border: 4px solid darkgrey;' src='img/tf1_68_M_ss1.jpeg'></img>","2","","exp","","2","<img src='img/tf1_68_T1_ss1_md.jpeg'></img>","0","false",""
"","html-keyboard-response","149","304835","0.0-10.0-0.68","228","""event"",""trial"",""time""
""fullscreenenter"",""0"",""2632""
","
","
","""event"",""trial"",""time""
""fullscreenenter"",""0"",""2632""
","
","null","<div style=""font-size:60px;"">+</div>","","null","fixation","2021-08-25 03:18:42.375","","","","",""
"","mars-trial","150","308950","0.0-10.0-1.68","228","""event"",""trial"",""time""
""fullscreenenter"",""0"",""2632""
","
","
","""event"",""trial"",""time""
""fullscreenenter"",""0"",""2632""
","
","3503.900000035763","<img style='border: 4px solid darkgrey;' src='img/tf1_69_M_ss2.jpeg'></img>","2","","exp","","3","<img src='img/tf1_69_T1_ss2_md.jpeg'></img>","0","false",""
"","html-keyboard-response","151","309453","0.0-10.0-0.69","228","""event"",""trial"",""time""
""fullscreenenter"",""0"",""2632""
","
","
","""event"",""trial"",""time""
""fullscreenenter"",""0"",""2632""
","
","null","<div style=""font-size:60px;"">+</div>","","null","fixation","2021-08-25 03:18:46.994","","","","",""
"","mars-trial","152","311811","0.0-10.0-1.69","228","""event"",""trial"",""time""
""fullscreenenter"",""0"",""2632""
","
","
","""event"",""trial"",""time""
""fullscreenenter"",""0"",""2632""
","
","1742.0999999642372","<img style='border: 4px solid darkgrey;' src='img/tf1_70_M_ss3.jpeg'></img>","1","","exp","","3","<img src='img/tf1_70_T1_ss3_md.jpeg'></img>","0","false",""
"","html-keyboard-response","153","312315","0.0-10.0-0.70","228","""event"",""trial"",""time""
""fullscreenenter"",""0"",""2632""
","
","
","""event"",""trial"",""time""
""fullscreenenter"",""0"",""2632""
","
","null","<div style=""font-size:60px;"">+</div>","","null","fixation","2021-08-25 03:18:49.855","","","","",""
"","mars-trial","154","314172","0.0-10.0-1.70","228","""event"",""trial"",""time""
""fullscreenenter"",""0"",""2632""
","
","
","""event"",""trial"",""time""
""fullscreenenter"",""0"",""2632""
","
","1247.699999988079","<img style='border: 4px solid darkgrey;' src='img/tf1_71_M_ss1.jpeg'></img>","3","","exp","","1","<img src='img/tf1_71_T1_ss1_md.jpeg'></img>","0","false",""
"","html-keyboard-response","155","314674","0.0-10.0-0.71","228","""event"",""trial"",""time""
""fullscreenenter"",""0"",""2632""
","
","
","""event"",""trial"",""time""
""fullscreenenter"",""0"",""2632""
","
","null","<div style=""font-size:60px;"">+</div>","","null","fixation","2021-08-25 03:18:52.214","","","","",""
"","mars-trial","156","315856","0.0-10.0-1.71","228","""event"",""trial"",""time""
""fullscreenenter"",""0"",""2632""
","
","
","""event"",""trial"",""time""
""fullscreenenter"",""0"",""2632""
","
","571.6000000238419","<img style='border: 4px solid darkgrey;' src='img/tf1_72_M_ss2.jpeg'></img>","2","","exp","","0","<img src='img/tf1_72_T1_ss2_md.jpeg'></img>","0","true",""
"","html-keyboard-response","157","316362","0.0-10.0-0.72","228","""event"",""trial"",""time""
""fullscreenenter"",""0"",""2632""
","
","
","""event"",""trial"",""time""
""fullscreenenter"",""0"",""2632""
","
","null","<div style=""font-size:60px;"">+</div>","","null","fixation","2021-08-25 03:18:53.902","","","","",""
"","mars-trial","158","317644","0.0-10.0-1.72","228","""event"",""trial"",""time""
""fullscreenenter"",""0"",""2632""
","
","
","""event"",""trial"",""time""
""fullscreenenter"",""0"",""2632""
","
","670.8999999761581","<img style='border: 4px solid darkgrey;' src='img/tf1_73_M_ss3.jpeg'></img>","3","","exp","","0","<img src='img/tf1_73_T1_ss3_md.jpeg'></img>","0","true",""
"","html-keyboard-response","159","318145","0.0-10.0-0.73","228","""event"",""trial"",""time""
""fullscreenenter"",""0"",""2632""
","
","
","""event"",""trial"",""time""
""fullscreenenter"",""0"",""2632""
","
","null","<div style=""font-size:60px;"">+</div>","","null","fixation","2021-08-25 03:18:55.685","","","","",""
"","mars-trial","160","319346","0.0-10.0-1.73","228","""event"",""trial"",""time""
""fullscreenenter"",""0"",""2632""
","
","
","""event"",""trial"",""time""
""fullscreenenter"",""0"",""2632""
","
","593.5999999642372","<img style='border: 4px solid darkgrey;' src='img/tf1_74_M_ss1.jpeg'></img>","1","","exp","","0","<img src='img/tf1_74_T1_ss1_md.jpeg'></img>","0","true",""
"","html-keyboard-response","161","319848","0.0-10.0-0.74","228","""event"",""trial"",""time""
""fullscreenenter"",""0"",""2632""
","
","
","""event"",""trial"",""time""
""fullscreenenter"",""0"",""2632""
","
","null","<div style=""font-size:60px;"">+</div>","","null","fixation","2021-08-25 03:18:57.388","","","","",""
"","mars-trial","162","321208","0.0-10.0-1.74","228","""event"",""trial"",""time""
""fullscreenenter"",""0"",""2632""
","
","
","""event"",""trial"",""time""
""fullscreenenter"",""0"",""2632""
","
","753.8000000119209","<img style='border: 4px solid darkgrey;' src='img/tf1_75_M_ss2.jpeg'></img>","2","","exp","","3","<img src='img/tf1_75_T1_ss2_md.jpeg'></img>","0","false",""
"","html-keyboard-response","163","321711","0.0-10.0-0.75","228","""event"",""trial"",""time""
""fullscreenenter"",""0"",""2632""
","
","
","""event"",""trial"",""time""
""fullscreenenter"",""0"",""2632""
","
","null","<div style=""font-size:60px;"">+</div>","","null","fixation","2021-08-25 03:18:59.251","","","","",""
"","mars-trial","164","322962","0.0-10.0-1.75","228","""event"",""trial"",""time""
""fullscreenenter"",""0"",""2632""
","
","
","""event"",""trial"",""time""
""fullscreenenter"",""0"",""2632""
","
","642.4000000357628","<img style='border: 4px solid darkgrey;' src='img/tf1_76_M_ss3.jpeg'></img>","0","","exp","","2","<img src='img/tf1_76_T1_ss3_md.jpeg'></img>","0","false",""
"","html-keyboard-response","165","323465","0.0-10.0-0.76","228","""event"",""trial"",""time""
""fullscreenenter"",""0"",""2632""
","
","
","""event"",""trial"",""time""
""fullscreenenter"",""0"",""2632""
","
","null","<div style=""font-size:60px;"">+</div>","","null","fixation","2021-08-25 03:19:01.005","","","","",""
"","mars-trial","166","324571","0.0-10.0-1.76","228","""event"",""trial"",""time""
""fullscreenenter"",""0"",""2632""
","
","
","""event"",""trial"",""time""
""fullscreenenter"",""0"",""2632""
","
","499.9000000357628","<img style='border: 4px solid darkgrey;' src='img/tf1_77_M_ss1.jpeg'></img>","3","","exp","","0","<img src='img/tf1_77_T1_ss1_md.jpeg'></img>","0","true",""
"","html-keyboard-response","167","325073","0.0-10.0-0.77","228","""event"",""trial"",""time""
""fullscreenenter"",""0"",""2632""
","
","
","""event"",""trial"",""time""
""fullscreenenter"",""0"",""2632""
","
","null","<div style=""font-size:60px;"">+</div>","","null","fixation","2021-08-25 03:19:02.613","","","","",""
"","mars-trial","168","326291","0.0-10.0-1.77","228","""event"",""trial"",""time""
""fullscreenenter"",""0"",""2632""
","
","
","""event"",""trial"",""time""
""fullscreenenter"",""0"",""2632""
","
","606.6999999880791","<img style='border: 4px solid darkgrey;' src='img/tf1_78_M_ss2.jpeg'></img>","1","","exp","","3","<img src='img/tf1_78_T1_ss2_md.jpeg'></img>","0","false",""
"","html-keyboard-response","169","326793","0.0-10.0-0.78","228","""event"",""trial"",""time""
""fullscreenenter"",""0"",""2632""
","
","
","""event"",""trial"",""time""
""fullscreenenter"",""0"",""2632""
","
","null","<div style=""font-size:60px;"">+</div>","","null","fixation","2021-08-25 03:19:04.333","","","","",""
"","mars-trial","170","327843","0.0-10.0-1.78","228","""event"",""trial"",""time""
""fullscreenenter"",""0"",""2632""
","
","
","""event"",""trial"",""time""
""fullscreenenter"",""0"",""2632""
","
","441.19999998807907","<img style='border: 4px solid darkgrey;' src='img/tf1_79_M_ss3.jpeg'></img>","2","","exp","","3","<img src='img/tf1_79_T1_ss3_md.jpeg'></img>","0","false",""
"","html-keyboard-response","171","328346","0.0-10.0-0.79","228","""event"",""trial"",""time""
""fullscreenenter"",""0"",""2632""
","
","
","""event"",""trial"",""time""
""fullscreenenter"",""0"",""2632""
","
","null","<div style=""font-size:60px;"">+</div>","","null","fixation","2021-08-25 03:19:05.887","","","","",""
"","mars-trial","172","329338","0.0-10.0-1.79","228","""event"",""trial"",""time""
""fullscreenenter"",""0"",""2632""
","
","
","""event"",""trial"",""time""
""fullscreenenter"",""0"",""2632""
","
","385.60000002384186","<img style='border: 4px solid darkgrey;' src='img/tf1_80_M_ss1.jpeg'></img>","0","","exp","","1","<img src='img/tf1_80_T1_ss1_md.jpeg'></img>","0","false",""
"","audio-button-response","173","331380","0.0-11.0","228","""event"",""trial"",""time""
""fullscreenenter"",""0"",""2632""
","
","
","""event"",""trial"",""time""
""fullscreenenter"",""0"",""2632""
","
","2039.8999999761581","audio/mars_instructions_slide5.wav","0","","","","","","","",""
