"success","trial_type","trial_index","time_elapsed","internal_node_id","subject_id","interactions","blur_events","focus_events","fullscreenenter_events","fullscreenexit_events","rt","stimulus","button_pressed","key_press","part","timestamp","unshuffled_button","correct_response","correct_button","correct","value"
"true","fullscreen","0","3265","0.0-0.0","594","""event"",""trial"",""time""
""fullscreenenter"",""0"",""2271""
","
","
","""event"",""trial"",""time""
""fullscreenenter"",""0"",""2271""
","
","","","","","","","","","","",""
"","pavlovia","1","3270","0.0-1.0","594","""event"",""trial"",""time""
""fullscreenenter"",""0"",""2271""
","
","
","""event"",""trial"",""time""
""fullscreenenter"",""0"",""2271""
","
","","","","","","","","","","",""
"","html-button-response","2","4517","0.0-2.0","594","""event"",""trial"",""time""
""fullscreenenter"",""0"",""2271""
","
","
","""event"",""trial"",""time""
""fullscreenenter"",""0"",""2271""
","
","1245.2899999916553","<p>Welcome! Press START to begin.</p><br>","0","","","","","","","",""
"","audio-button-response","3","13064","0.0-3.0","594","""event"",""trial"",""time""
""fullscreenenter"",""0"",""2271""
","
","
","""event"",""trial"",""time""
""fullscreenenter"",""0"",""2271""
","
","8544.685000000754","audio/mars_instructions_slide2.wav","0","","","","","","","",""
"","audio-button-response","4","17026","0.0-4.0","594","""event"",""trial"",""time""
""fullscreenenter"",""0"",""2271""
","
","
","""event"",""trial"",""time""
""fullscreenenter"",""0"",""2271""
","
","3960.0199999986216","audio/mars_instructions_slide3.wav","0","","","","","","","",""
"","html-keyboard-response","5","17532","0.0-5.0-0.0","594","""event"",""trial"",""time""
""fullscreenenter"",""0"",""2271""
","
","
","""event"",""trial"",""time""
""fullscreenenter"",""0"",""2271""
","
","null","<div style=""font-size:60px;"">+</div>","","null","fixation","2021-06-08 21:53:23.725","","","","",""
"","mars-trial","6","25335","0.0-5.0-1.0","594","""event"",""trial"",""time""
""fullscreenenter"",""0"",""2271""
","
","
","""event"",""trial"",""time""
""fullscreenenter"",""0"",""2271""
","
","5689.439999987371","<img style='border: 4px solid darkgrey;' src='practice/pt1_M1.png'></img>","1","","practice","","0","<img src='practice/pt1_T1.png'></img>","0","true",""
"","html-keyboard-response","7","25840","0.0-6.0-0.0","594","""event"",""trial"",""time""
""fullscreenenter"",""0"",""2271""
","
","
","""event"",""trial"",""time""
""fullscreenenter"",""0"",""2271""
","
","null","<div style=""font-size:60px;"">+</div>","","null","fixation","2021-06-08 21:53:32.033","","","","",""
"","mars-trial","8","30856","0.0-6.0-1.0","594","""event"",""trial"",""time""
""fullscreenenter"",""0"",""2271""
","
","
","""event"",""trial"",""time""
""fullscreenenter"",""0"",""2271""
","
","2903.8850000069942","<img style='border: 4px solid darkgrey;' src='practice/pt2_M1.png'></img>","2","","practice","","0","<img src='practice/pt2_T1.png'></img>","0","true",""
"","html-keyboard-response","9","31360","0.0-7.0-0.0","594","""event"",""trial"",""time""
""fullscreenenter"",""0"",""2271""
","
","
","""event"",""trial"",""time""
""fullscreenenter"",""0"",""2271""
","
","null","<div style=""font-size:60px;"">+</div>","","null","fixation","2021-06-08 21:53:37.553","","","","",""
"","mars-trial","10","34977","0.0-7.0-1.0","594","""event"",""trial"",""time""
""fullscreenenter"",""0"",""2271""
","
","
","""event"",""trial"",""time""
""fullscreenenter"",""0"",""2271""
","
","1508.7300000013784","<img style='border: 4px solid darkgrey;' src='practice/pt3_M1.png'></img>","0","","practice","","0","<img src='practice/pt3_T1.png'></img>","0","true",""
"","audio-button-response","11","36358","0.0-8.0","594","""event"",""trial"",""time""
""fullscreenenter"",""0"",""2271""
","
","
","""event"",""trial"",""time""
""fullscreenenter"",""0"",""2271""
","
","1379.0699999954086","audio/mars_instructions_slide4.wav","0","","","","","","","",""
"","call-function","12","36359","0.0-9.0","594","""event"",""trial"",""time""
""fullscreenenter"",""0"",""2271""
","
","
","""event"",""trial"",""time""
""fullscreenenter"",""0"",""2271""
","
","","","","","","","","","","",""
"","html-keyboard-response","13","36863","0.0-10.0-0.0","594","""event"",""trial"",""time""
""fullscreenenter"",""0"",""2271""
","
","
","""event"",""trial"",""time""
""fullscreenenter"",""0"",""2271""
","
","null","<div style=""font-size:60px;"">+</div>","","null","fixation","2021-06-08 21:53:43.056","","","","",""
"","mars-trial","14","38947","0.0-10.0-1.0","594","""event"",""trial"",""time""
""fullscreenenter"",""0"",""2271""
","
","
","""event"",""trial"",""time""
""fullscreenenter"",""0"",""2271""
","
","1471.5999999898486","<img style='border: 4px solid darkgrey;' src='img/tf1_1_M_ss3.jpeg'></img>","3","","exp","","0","<img src='img/tf1_1_T1_ss3_md.jpeg'></img>","0","true",""
"","html-keyboard-response","15","39452","0.0-10.0-0.1","594","""event"",""trial"",""time""
""fullscreenenter"",""0"",""2271""
","
","
","""event"",""trial"",""time""
""fullscreenenter"",""0"",""2271""
","
","null","<div style=""font-size:60px;"">+</div>","","null","fixation","2021-06-08 21:53:45.645","","","","",""
"","mars-trial","16","42502","0.0-10.0-1.1","594","""event"",""trial"",""time""
""fullscreenenter"",""0"",""2271""
","
","
","""event"",""trial"",""time""
""fullscreenenter"",""0"",""2271""
","
","2438.7149999965914","<img style='border: 4px solid darkgrey;' src='img/tf1_2_M_ss1.jpeg'></img>","0","","exp","","0","<img src='img/tf1_2_T1_ss1_md.jpeg'></img>","0","true",""
"","html-keyboard-response","17","43003","0.0-10.0-0.2","594","""event"",""trial"",""time""
""fullscreenenter"",""0"",""2271""
","
","
","""event"",""trial"",""time""
""fullscreenenter"",""0"",""2271""
","
","null","<div style=""font-size:60px;"">+</div>","","null","fixation","2021-06-08 21:53:49.196","","","","",""
"","mars-trial","18","46858","0.0-10.0-1.2","594","""event"",""trial"",""time""
""fullscreenenter"",""0"",""2271""
","
","
","""event"",""trial"",""time""
""fullscreenenter"",""0"",""2271""
","
","3245.6100000126753","<img style='border: 4px solid darkgrey;' src='img/tf1_3_M_ss2.jpeg'></img>","1","","exp","","0","<img src='img/tf1_3_T1_ss2_md.jpeg'></img>","0","true",""
"","html-keyboard-response","19","47364","0.0-10.0-0.3","594","""event"",""trial"",""time""
""fullscreenenter"",""0"",""2271""
","
","
","""event"",""trial"",""time""
""fullscreenenter"",""0"",""2271""
","
","null","<div style=""font-size:60px;"">+</div>","","null","fixation","2021-06-08 21:53:53.557","","","","",""
"","mars-trial","20","50621","0.0-10.0-1.3","594","""event"",""trial"",""time""
""fullscreenenter"",""0"",""2271""
","
","
","""event"",""trial"",""time""
""fullscreenenter"",""0"",""2271""
","
","2643.609999999171","<img style='border: 4px solid darkgrey;' src='img/tf1_4_M_ss3.jpeg'></img>","1","","exp","","0","<img src='img/tf1_4_T1_ss3_md.jpeg'></img>","0","true",""
"","html-keyboard-response","21","51126","0.0-10.0-0.4","594","""event"",""trial"",""time""
""fullscreenenter"",""0"",""2271""
","
","
","""event"",""trial"",""time""
""fullscreenenter"",""0"",""2271""
","
","null","<div style=""font-size:60px;"">+</div>","","null","fixation","2021-06-08 21:53:57.319","","","","",""
"","mars-trial","22","52967","0.0-10.0-1.4","594","""event"",""trial"",""time""
""fullscreenenter"",""0"",""2271""
","
","
","""event"",""trial"",""time""
""fullscreenenter"",""0"",""2271""
","
","1232.045000011567","<img style='border: 4px solid darkgrey;' src='img/tf1_5_M_ss1.jpeg'></img>","3","","exp","","0","<img src='img/tf1_5_T1_ss1_md.jpeg'></img>","0","true",""
"","html-keyboard-response","23","53468","0.0-10.0-0.5","594","""event"",""trial"",""time""
""fullscreenenter"",""0"",""2271""
","
","
","""event"",""trial"",""time""
""fullscreenenter"",""0"",""2271""
","
","null","<div style=""font-size:60px;"">+</div>","","null","fixation","2021-06-08 21:53:59.661","","","","",""
"","mars-trial","24","59909","0.0-10.0-1.5","594","""event"",""trial"",""time""
""fullscreenenter"",""0"",""2271""
","
","
","""event"",""trial"",""time""
""fullscreenenter"",""0"",""2271""
","
","5834.70499998657","<img style='border: 4px solid darkgrey;' src='img/tf1_6_M_ss2.jpeg'></img>","1","","exp","","1","<img src='img/tf1_6_T1_ss2_md.jpeg'></img>","0","false",""
"","html-keyboard-response","25","60411","0.0-10.0-0.6","594","""event"",""trial"",""time""
""fullscreenenter"",""0"",""2271""
","
","
","""event"",""trial"",""time""
""fullscreenenter"",""0"",""2271""
","
","null","<div style=""font-size:60px;"">+</div>","","null","fixation","2021-06-08 21:54:06.605","","","","",""
"","mars-trial","26","63416","0.0-10.0-1.6","594","""event"",""trial"",""time""
""fullscreenenter"",""0"",""2271""
","
","
","""event"",""trial"",""time""
""fullscreenenter"",""0"",""2271""
","
","2393.7950000108685","<img style='border: 4px solid darkgrey;' src='img/tf1_7_M_ss3.jpeg'></img>","3","","exp","","0","<img src='img/tf1_7_T1_ss3_md.jpeg'></img>","0","true",""
"","html-keyboard-response","27","63917","0.0-10.0-0.7","594","""event"",""trial"",""time""
""fullscreenenter"",""0"",""2271""
","
","
","""event"",""trial"",""time""
""fullscreenenter"",""0"",""2271""
","
","null","<div style=""font-size:60px;"">+</div>","","null","fixation","2021-06-08 21:54:10.110","","","","",""
"","mars-trial","28","68852","0.0-10.0-1.7","594","""event"",""trial"",""time""
""fullscreenenter"",""0"",""2271""
","
","
","""event"",""trial"",""time""
""fullscreenenter"",""0"",""2271""
","
","4328.929999988759","<img style='border: 4px solid darkgrey;' src='img/tf1_8_M_ss1.jpeg'></img>","2","","exp","","0","<img src='img/tf1_8_T1_ss1_md.jpeg'></img>","0","true",""
"","html-keyboard-response","29","69355","0.0-10.0-0.8","594","""event"",""trial"",""time""
""fullscreenenter"",""0"",""2271""
","
","
","""event"",""trial"",""time""
""fullscreenenter"",""0"",""2271""
","
","null","<div style=""font-size:60px;"">+</div>","","null","fixation","2021-06-08 21:54:15.548","","","","",""
"","mars-trial","30","73210","0.0-10.0-1.8","594","""event"",""trial"",""time""
""fullscreenenter"",""0"",""2271""
","
","
","""event"",""trial"",""time""
""fullscreenenter"",""0"",""2271""
","
","3242.4799999862444","<img style='border: 4px solid darkgrey;' src='img/tf1_9_M_ss2.jpeg'></img>","1","","exp","","0","<img src='img/tf1_9_T1_ss2_md.jpeg'></img>","0","true",""
"","html-keyboard-response","31","73714","0.0-10.0-0.9","594","""event"",""trial"",""time""
""fullscreenenter"",""0"",""2271""
","
","
","""event"",""trial"",""time""
""fullscreenenter"",""0"",""2271""
","
","null","<div style=""font-size:60px;"">+</div>","","null","fixation","2021-06-08 21:54:19.907","","","","",""
"","mars-trial","32","81464","0.0-10.0-1.9","594","""event"",""trial"",""time""
""fullscreenenter"",""0"",""2271""
","
","
","""event"",""trial"",""time""
""fullscreenenter"",""0"",""2271""
","
","7138.319999998203","<img style='border: 4px solid darkgrey;' src='img/tf1_10_M_ss3.jpeg'></img>","1","","exp","","3","<img src='img/tf1_10_T1_ss3_md.jpeg'></img>","0","false",""
"","html-keyboard-response","33","81969","0.0-10.0-0.10","594","""event"",""trial"",""time""
""fullscreenenter"",""0"",""2271""
","
","
","""event"",""trial"",""time""
""fullscreenenter"",""0"",""2271""
","
","null","<div style=""font-size:60px;"">+</div>","","null","fixation","2021-06-08 21:54:28.162","","","","",""
"","mars-trial","34","83717","0.0-10.0-1.10","594","""event"",""trial"",""time""
""fullscreenenter"",""0"",""2271""
","
","
","""event"",""trial"",""time""
""fullscreenenter"",""0"",""2271""
","
","1135.5599999951664","<img style='border: 4px solid darkgrey;' src='img/tf1_11_M_ss1.jpeg'></img>","2","","exp","","2","<img src='img/tf1_11_T1_ss1_md.jpeg'></img>","0","false",""
"","html-keyboard-response","35","84222","0.0-10.0-0.11","594","""event"",""trial"",""time""
""fullscreenenter"",""0"",""2271""
","
","
","""event"",""trial"",""time""
""fullscreenenter"",""0"",""2271""
","
","null","<div style=""font-size:60px;"">+</div>","","null","fixation","2021-06-08 21:54:30.415","","","","",""
"","mars-trial","36","90148","0.0-10.0-1.11","594","""event"",""trial"",""time""
""fullscreenenter"",""0"",""2271""
","
","
","""event"",""trial"",""time""
""fullscreenenter"",""0"",""2271""
","
","5319.459999998799","<img style='border: 4px solid darkgrey;' src='img/tf1_12_M_ss2.jpeg'></img>","0","","exp","","2","<img src='img/tf1_12_T1_ss2_md.jpeg'></img>","0","false",""
"","html-keyboard-response","37","90649","0.0-10.0-0.12","594","""event"",""trial"",""time""
""fullscreenenter"",""0"",""2271""
","
","
","""event"",""trial"",""time""
""fullscreenenter"",""0"",""2271""
","
","null","<div style=""font-size:60px;"">+</div>","","null","fixation","2021-06-08 21:54:36.842","","","","",""
"","mars-trial","38","106481","0.0-10.0-1.12","594","""event"",""trial"",""time""
""fullscreenenter"",""0"",""2271""
","
","
","""event"",""trial"",""time""
""fullscreenenter"",""0"",""2271""
","
","15221.770000003744","<img style='border: 4px solid darkgrey;' src='img/tf1_13_M_ss3.jpeg'></img>","0","","exp","","2","<img src='img/tf1_13_T1_ss3_md.jpeg'></img>","0","false",""
"","html-keyboard-response","39","106983","0.0-10.0-0.13","594","""event"",""trial"",""time""
""fullscreenenter"",""0"",""2271""
","
","
","""event"",""trial"",""time""
""fullscreenenter"",""0"",""2271""
","
","null","<div style=""font-size:60px;"">+</div>","","null","fixation","2021-06-08 21:54:53.176","","","","",""
"","mars-trial","40","116759","0.0-10.0-1.13","594","""event"",""trial"",""time""
""fullscreenenter"",""0"",""2271""
","
","
","""event"",""trial"",""time""
""fullscreenenter"",""0"",""2271""
","
","9166.67000000598","<img style='border: 4px solid darkgrey;' src='img/tf1_14_M_ss1.jpeg'></img>","3","","exp","","2","<img src='img/tf1_14_T1_ss1_md.jpeg'></img>","0","false",""
"","html-keyboard-response","41","117264","0.0-10.0-0.14","594","""event"",""trial"",""time""
""fullscreenenter"",""0"",""2271""
","
","
","""event"",""trial"",""time""
""fullscreenenter"",""0"",""2271""
","
","null","<div style=""font-size:60px;"">+</div>","","null","fixation","2021-06-08 21:55:03.457","","","","",""
"","mars-trial","42","124102","0.0-10.0-1.14","594","""event"",""trial"",""time""
""fullscreenenter"",""0"",""2271""
","
","
","""event"",""trial"",""time""
""fullscreenenter"",""0"",""2271""
","
","6228.449999995064","<img style='border: 4px solid darkgrey;' src='img/tf1_15_M_ss2.jpeg'></img>","1","","exp","","1","<img src='img/tf1_15_T1_ss2_md.jpeg'></img>","0","false",""
"","html-keyboard-response","43","124606","0.0-10.0-0.15","594","""event"",""trial"",""time""
""fullscreenenter"",""0"",""2271""
","
","
","""event"",""trial"",""time""
""fullscreenenter"",""0"",""2271""
","
","null","<div style=""font-size:60px;"">+</div>","","null","fixation","2021-06-08 21:55:10.799","","","","",""
"","mars-trial","44","126539","0.0-10.0-1.15","594","""event"",""trial"",""time""
""fullscreenenter"",""0"",""2271""
","
","
","""event"",""trial"",""time""
""fullscreenenter"",""0"",""2271""
","
","1323.4949999896344","<img style='border: 4px solid darkgrey;' src='img/tf1_16_M_ss3.jpeg'></img>","1","","exp","","0","<img src='img/tf1_16_T1_ss3_md.jpeg'></img>","0","true",""
"","html-keyboard-response","45","127045","0.0-10.0-0.16","594","""event"",""trial"",""time""
""fullscreenenter"",""0"",""2271""
","
","
","""event"",""trial"",""time""
""fullscreenenter"",""0"",""2271""
","
","null","<div style=""font-size:60px;"">+</div>","","null","fixation","2021-06-08 21:55:13.238","","","","",""
"","mars-trial","46","130017","0.0-10.0-1.16","594","""event"",""trial"",""time""
""fullscreenenter"",""0"",""2271""
","
","
","""event"",""trial"",""time""
""fullscreenenter"",""0"",""2271""
","
","2361.2300000095274","<img style='border: 4px solid darkgrey;' src='img/tf1_17_M_ss1.jpeg'></img>","1","","exp","","0","<img src='img/tf1_17_T1_ss1_md.jpeg'></img>","0","true",""
"","html-keyboard-response","47","130522","0.0-10.0-0.17","594","""event"",""trial"",""time""
""fullscreenenter"",""0"",""2271""
","
","
","""event"",""trial"",""time""
""fullscreenenter"",""0"",""2271""
","
","null","<div style=""font-size:60px;"">+</div>","","null","fixation","2021-06-08 21:55:16.715","","","","",""
"","mars-trial","48","132438","0.0-10.0-1.17","594","""event"",""trial"",""time""
""fullscreenenter"",""0"",""2271""
","
","
","""event"",""trial"",""time""
""fullscreenenter"",""0"",""2271""
","
","1304.999999993015","<img style='border: 4px solid darkgrey;' src='img/tf1_18_M_ss2.jpeg'></img>","1","","exp","","2","<img src='img/tf1_18_T1_ss2_md.jpeg'></img>","0","false",""
"","html-keyboard-response","49","132942","0.0-10.0-0.18","594","""event"",""trial"",""time""
""fullscreenenter"",""0"",""2271""
","
","
","""event"",""trial"",""time""
""fullscreenenter"",""0"",""2271""
","
","null","<div style=""font-size:60px;"">+</div>","","null","fixation","2021-06-08 21:55:19.136","","","","",""
"","mars-trial","50","134028","0.0-10.0-1.18","594","""event"",""trial"",""time""
""fullscreenenter"",""0"",""2271""
","
","
","""event"",""trial"",""time""
""fullscreenenter"",""0"",""2271""
","
","477.3750000167638","<img style='border: 4px solid darkgrey;' src='img/tf1_19_M_ss3.jpeg'></img>","2","","exp","","0","<img src='img/tf1_19_T1_ss3_md.jpeg'></img>","0","true",""
"","html-keyboard-response","51","134533","0.0-10.0-0.19","594","""event"",""trial"",""time""
""fullscreenenter"",""0"",""2271""
","
","
","""event"",""trial"",""time""
""fullscreenenter"",""0"",""2271""
","
","null","<div style=""font-size:60px;"">+</div>","","null","fixation","2021-06-08 21:55:20.726","","","","",""
"","mars-trial","52","135677","0.0-10.0-1.19","594","""event"",""trial"",""time""
""fullscreenenter"",""0"",""2271""
","
","
","""event"",""trial"",""time""
""fullscreenenter"",""0"",""2271""
","
","530.3600000042934","<img style='border: 4px solid darkgrey;' src='img/tf1_20_M_ss1.jpeg'></img>","2","","exp","","3","<img src='img/tf1_20_T1_ss1_md.jpeg'></img>","0","false",""
"","html-keyboard-response","53","136180","0.0-10.0-0.20","594","""event"",""trial"",""time""
""fullscreenenter"",""0"",""2271""
","
","
","""event"",""trial"",""time""
""fullscreenenter"",""0"",""2271""
","
","null","<div style=""font-size:60px;"">+</div>","","null","fixation","2021-06-08 21:55:22.373","","","","",""
"","mars-trial","54","137198","0.0-10.0-1.20","594","""event"",""trial"",""time""
""fullscreenenter"",""0"",""2271""
","
","
","""event"",""trial"",""time""
""fullscreenenter"",""0"",""2271""
","
","414.09000000567175","<img style='border: 4px solid darkgrey;' src='img/tf1_21_M_ss2.jpeg'></img>","0","","exp","","2","<img src='img/tf1_21_T1_ss2_md.jpeg'></img>","0","false",""
"","html-keyboard-response","55","137699","0.0-10.0-0.21","594","""event"",""trial"",""time""
""fullscreenenter"",""0"",""2271""
","
","
","""event"",""trial"",""time""
""fullscreenenter"",""0"",""2271""
","
","null","<div style=""font-size:60px;"">+</div>","","null","fixation","2021-06-08 21:55:23.893","","","","",""
"","mars-trial","56","140019","0.0-10.0-1.21","594","""event"",""trial"",""time""
""fullscreenenter"",""0"",""2271""
","
","
","""event"",""trial"",""time""
""fullscreenenter"",""0"",""2271""
","
","1714.0650000073947","<img style='border: 4px solid darkgrey;' src='img/tf1_22_M_ss3.jpeg'></img>","3","","exp","","2","<img src='img/tf1_22_T1_ss3_md.jpeg'></img>","0","false",""
"","html-keyboard-response","57","140524","0.0-10.0-0.22","594","""event"",""trial"",""time""
""fullscreenenter"",""0"",""2271""
","
","
","""event"",""trial"",""time""
""fullscreenenter"",""0"",""2271""
","
","null","<div style=""font-size:60px;"">+</div>","","null","fixation","2021-06-08 21:55:26.717","","","","",""
"","mars-trial","58","144535","0.0-10.0-1.22","594","""event"",""trial"",""time""
""fullscreenenter"",""0"",""2271""
","
","
","""event"",""trial"",""time""
""fullscreenenter"",""0"",""2271""
","
","3403.074999980163","<img style='border: 4px solid darkgrey;' src='img/tf1_23_M_ss1.jpeg'></img>","2","","exp","","0","<img src='img/tf1_23_T1_ss1_md.jpeg'></img>","0","true",""
"","html-keyboard-response","59","145040","0.0-10.0-0.23","594","""event"",""trial"",""time""
""fullscreenenter"",""0"",""2271""
","
","
","""event"",""trial"",""time""
""fullscreenenter"",""0"",""2271""
","
","null","<div style=""font-size:60px;"">+</div>","","null","fixation","2021-06-08 21:55:31.234","","","","",""
"","mars-trial","60","151217","0.0-10.0-1.23","594","""event"",""trial"",""time""
""fullscreenenter"",""0"",""2271""
","
","
","""event"",""trial"",""time""
""fullscreenenter"",""0"",""2271""
","
","5567.095000005793","<img style='border: 4px solid darkgrey;' src='img/tf1_24_M_ss2.jpeg'></img>","2","","exp","","1","<img src='img/tf1_24_T1_ss2_md.jpeg'></img>","0","false",""
"","html-keyboard-response","61","151722","0.0-10.0-0.24","594","""event"",""trial"",""time""
""fullscreenenter"",""0"",""2271""
","
","
","""event"",""trial"",""time""
""fullscreenenter"",""0"",""2271""
","
","null","<div style=""font-size:60px;"">+</div>","","null","fixation","2021-06-08 21:55:37.915","","","","",""
"","mars-trial","62","156151","0.0-10.0-1.24","594","""event"",""trial"",""time""
""fullscreenenter"",""0"",""2271""
","
","
","""event"",""trial"",""time""
""fullscreenenter"",""0"",""2271""
","
","3816.319999983534","<img style='border: 4px solid darkgrey;' src='img/tf1_25_M_ss3.jpeg'></img>","0","","exp","","1","<img src='img/tf1_25_T1_ss3_md.jpeg'></img>","0","false",""
"","html-keyboard-response","63","156655","0.0-10.0-0.25","594","""event"",""trial"",""time""
""fullscreenenter"",""0"",""2271""
","
","
","""event"",""trial"",""time""
""fullscreenenter"",""0"",""2271""
","
","null","<div style=""font-size:60px;"">+</div>","","null","fixation","2021-06-08 21:55:42.848","","","","",""
"","mars-trial","64","164644","0.0-10.0-1.25","594","""event"",""trial"",""time""
""fullscreenenter"",""0"",""2271""
","
","
","""event"",""trial"",""time""
""fullscreenenter"",""0"",""2271""
","
","7376.850000000559","<img style='border: 4px solid darkgrey;' src='img/tf1_26_M_ss1.jpeg'></img>","0","","exp","","2","<img src='img/tf1_26_T1_ss1_md.jpeg'></img>","0","false",""
"","html-keyboard-response","65","165149","0.0-10.0-0.26","594","""event"",""trial"",""time""
""fullscreenenter"",""0"",""2271""
","
","
","""event"",""trial"",""time""
""fullscreenenter"",""0"",""2271""
","
","null","<div style=""font-size:60px;"">+</div>","","null","fixation","2021-06-08 21:55:51.342","","","","",""
"","mars-trial","66","168336","0.0-10.0-1.26","594","""event"",""trial"",""time""
""fullscreenenter"",""0"",""2271""
","
","
","""event"",""trial"",""time""
""fullscreenenter"",""0"",""2271""
","
","2574.3899999943096","<img style='border: 4px solid darkgrey;' src='img/tf1_27_M_ss2.jpeg'></img>","1","","exp","","2","<img src='img/tf1_27_T1_ss2_md.jpeg'></img>","0","false",""
"","html-keyboard-response","67","168840","0.0-10.0-0.27","594","""event"",""trial"",""time""
""fullscreenenter"",""0"",""2271""
","
","
","""event"",""trial"",""time""
""fullscreenenter"",""0"",""2271""
","
","null","<div style=""font-size:60px;"">+</div>","","null","fixation","2021-06-08 21:55:55.034","","","","",""
"","mars-trial","68","176222","0.0-10.0-1.27","594","""event"",""trial"",""time""
""fullscreenenter"",""0"",""2271""
","
","
","""event"",""trial"",""time""
""fullscreenenter"",""0"",""2271""
","
","6771.344999986468","<img style='border: 4px solid darkgrey;' src='img/tf1_28_M_ss3.jpeg'></img>","2","","exp","","0","<img src='img/tf1_28_T1_ss3_md.jpeg'></img>","0","true",""
"","html-keyboard-response","69","176724","0.0-10.0-0.28","594","""event"",""trial"",""time""
""fullscreenenter"",""0"",""2271""
","
","
","""event"",""trial"",""time""
""fullscreenenter"",""0"",""2271""
","
","null","<div style=""font-size:60px;"">+</div>","","null","fixation","2021-06-08 21:56:02.917","","","","",""
"","mars-trial","70","190737","0.0-10.0-1.28","594","""event"",""trial"",""time""
""fullscreenenter"",""0"",""2271""
","
","
","""event"",""trial"",""time""
""fullscreenenter"",""0"",""2271""
","
","13404.749999986961","<img style='border: 4px solid darkgrey;' src='img/tf1_29_M_ss1.jpeg'></img>","1","","exp","","0","<img src='img/tf1_29_T1_ss1_md.jpeg'></img>","0","true",""
"","html-keyboard-response","71","191243","0.0-10.0-0.29","594","""event"",""trial"",""time""
""fullscreenenter"",""0"",""2271""
","
","
","""event"",""trial"",""time""
""fullscreenenter"",""0"",""2271""
","
","null","<div style=""font-size:60px;"">+</div>","","null","fixation","2021-06-08 21:56:17.436","","","","",""
"","mars-trial","72","200361","0.0-10.0-1.29","594","""event"",""trial"",""time""
""fullscreenenter"",""0"",""2271""
","
","
","""event"",""trial"",""time""
""fullscreenenter"",""0"",""2271""
","
","8508.399999991525","<img style='border: 4px solid darkgrey;' src='img/tf1_30_M_ss2.jpeg'></img>","0","","exp","","0","<img src='img/tf1_30_T1_ss2_md.jpeg'></img>","0","true",""
"","html-keyboard-response","73","200866","0.0-10.0-0.30","594","""event"",""trial"",""time""
""fullscreenenter"",""0"",""2271""
","
","
","""event"",""trial"",""time""
""fullscreenenter"",""0"",""2271""
","
","null","<div style=""font-size:60px;"">+</div>","","null","fixation","2021-06-08 21:56:27.059","","","","",""
"","mars-trial","74","204541","0.0-10.0-1.30","594","""event"",""trial"",""time""
""fullscreenenter"",""0"",""2271""
","
","
","""event"",""trial"",""time""
""fullscreenenter"",""0"",""2271""
","
","3061.2350000010338","<img style='border: 4px solid darkgrey;' src='img/tf1_31_M_ss3.jpeg'></img>","1","","exp","","1","<img src='img/tf1_31_T1_ss3_md.jpeg'></img>","0","false",""
"","html-keyboard-response","75","205046","0.0-10.0-0.31","594","""event"",""trial"",""time""
""fullscreenenter"",""0"",""2271""
","
","
","""event"",""trial"",""time""
""fullscreenenter"",""0"",""2271""
","
","null","<div style=""font-size:60px;"">+</div>","","null","fixation","2021-06-08 21:56:31.239","","","","",""
"","mars-trial","76","210892","0.0-10.0-1.31","594","""event"",""trial"",""time""
""fullscreenenter"",""0"",""2271""
","
","
","""event"",""trial"",""time""
""fullscreenenter"",""0"",""2271""
","
","5232.664999988629","<img style='border: 4px solid darkgrey;' src='img/tf1_32_M_ss1.jpeg'></img>","0","","exp","","0","<img src='img/tf1_32_T1_ss1_md.jpeg'></img>","0","true",""
"","html-keyboard-response","77","211397","0.0-10.0-0.32","594","""event"",""trial"",""time""
""fullscreenenter"",""0"",""2271""
","
","
","""event"",""trial"",""time""
""fullscreenenter"",""0"",""2271""
","
","null","<div style=""font-size:60px;"">+</div>","","null","fixation","2021-06-08 21:56:37.590","","","","",""
"","mars-trial","78","219290","0.0-10.0-1.32","594","""event"",""trial"",""time""
""fullscreenenter"",""0"",""2271""
","
","
","""event"",""trial"",""time""
""fullscreenenter"",""0"",""2271""
","
","7279.815000016242","<img style='border: 4px solid darkgrey;' src='img/tf1_33_M_ss2.jpeg'></img>","1","","exp","","2","<img src='img/tf1_33_T1_ss2_md.jpeg'></img>","0","false",""
"","html-keyboard-response","79","219797","0.0-10.0-0.33","594","""event"",""trial"",""time""
""fullscreenenter"",""0"",""2271""
","
","
","""event"",""trial"",""time""
""fullscreenenter"",""0"",""2271""
","
","null","<div style=""font-size:60px;"">+</div>","","null","fixation","2021-06-08 21:56:45.990","","","","",""
"","mars-trial","80","225283","0.0-10.0-1.33","594","""event"",""trial"",""time""
""fullscreenenter"",""0"",""2271""
","
","
","""event"",""trial"",""time""
""fullscreenenter"",""0"",""2271""
","
","4872.529999993276","<img style='border: 4px solid darkgrey;' src='img/tf1_34_M_ss3.jpeg'></img>","3","","exp","","1","<img src='img/tf1_34_T1_ss3_md.jpeg'></img>","0","false",""
"","html-keyboard-response","81","225787","0.0-10.0-0.34","594","""event"",""trial"",""time""
""fullscreenenter"",""0"",""2271""
","
","
","""event"",""trial"",""time""
""fullscreenenter"",""0"",""2271""
","
","null","<div style=""font-size:60px;"">+</div>","","null","fixation","2021-06-08 21:56:51.980","","","","",""
"","mars-trial","82","231098","0.0-10.0-1.34","594","""event"",""trial"",""time""
""fullscreenenter"",""0"",""2271""
","
","
","""event"",""trial"",""time""
""fullscreenenter"",""0"",""2271""
","
","4699.614999990445","<img style='border: 4px solid darkgrey;' src='img/tf1_35_M_ss1.jpeg'></img>","0","","exp","","2","<img src='img/tf1_35_T1_ss1_md.jpeg'></img>","0","false",""
"","html-keyboard-response","83","231603","0.0-10.0-0.35","594","""event"",""trial"",""time""
""fullscreenenter"",""0"",""2271""
","
","
","""event"",""trial"",""time""
""fullscreenenter"",""0"",""2271""
","
","null","<div style=""font-size:60px;"">+</div>","","null","fixation","2021-06-08 21:56:57.796","","","","",""
"","mars-trial","84","235581","0.0-10.0-1.35","594","""event"",""trial"",""time""
""fullscreenenter"",""0"",""2271""
","
","
","""event"",""trial"",""time""
""fullscreenenter"",""0"",""2271""
","
","3370.0149999931455","<img style='border: 4px solid darkgrey;' src='img/tf1_36_M_ss2.jpeg'></img>","1","","exp","","2","<img src='img/tf1_36_T1_ss2_md.jpeg'></img>","0","false",""
"","html-keyboard-response","85","236086","0.0-10.0-0.36","594","""event"",""trial"",""time""
""fullscreenenter"",""0"",""2271""
","
","
","""event"",""trial"",""time""
""fullscreenenter"",""0"",""2271""
","
","null","<div style=""font-size:60px;"">+</div>","","null","fixation","2021-06-08 21:57:02.279","","","","",""
"","mars-trial","86","237217","0.0-10.0-1.36","594","""event"",""trial"",""time""
""fullscreenenter"",""0"",""2271""
","
","
","""event"",""trial"",""time""
""fullscreenenter"",""0"",""2271""
","
","522.449999989476","<img style='border: 4px solid darkgrey;' src='img/tf1_37_M_ss3.jpeg'></img>","1","","exp","","3","<img src='img/tf1_37_T1_ss3_md.jpeg'></img>","0","false",""
"","html-keyboard-response","87","237719","0.0-10.0-0.37","594","""event"",""trial"",""time""
""fullscreenenter"",""0"",""2271""
","
","
","""event"",""trial"",""time""
""fullscreenenter"",""0"",""2271""
","
","null","<div style=""font-size:60px;"">+</div>","","null","fixation","2021-06-08 21:57:03.912","","","","",""
"","mars-trial","88","238571","0.0-10.0-1.37","594","""event"",""trial"",""time""
""fullscreenenter"",""0"",""2271""
","
","
","""event"",""trial"",""time""
""fullscreenenter"",""0"",""2271""
","
","243.5399999958463","<img style='border: 4px solid darkgrey;' src='img/tf1_38_M_ss1.jpeg'></img>","2","","exp","","2","<img src='img/tf1_38_T1_ss1_md.jpeg'></img>","0","false",""
"","html-keyboard-response","89","239074","0.0-10.0-0.38","594","""event"",""trial"",""time""
""fullscreenenter"",""0"",""2271""
","
","
","""event"",""trial"",""time""
""fullscreenenter"",""0"",""2271""
","
","null","<div style=""font-size:60px;"">+</div>","","null","fixation","2021-06-08 21:57:05.267","","","","",""
"","mars-trial","90","242819","0.0-10.0-1.38","594","""event"",""trial"",""time""
""fullscreenenter"",""0"",""2271""
","
","
","""event"",""trial"",""time""
""fullscreenenter"",""0"",""2271""
","
","3132.805000001099","<img style='border: 4px solid darkgrey;' src='img/tf1_39_M_ss2.jpeg'></img>","1","","exp","","1","<img src='img/tf1_39_T1_ss2_md.jpeg'></img>","0","false",""
"","html-keyboard-response","91","243322","0.0-10.0-0.39","594","""event"",""trial"",""time""
""fullscreenenter"",""0"",""2271""
","
","
","""event"",""trial"",""time""
""fullscreenenter"",""0"",""2271""
","
","null","<div style=""font-size:60px;"">+</div>","","null","fixation","2021-06-08 21:57:09.515","","","","",""
"","mars-trial","92","262887","0.0-10.0-1.39","594","""event"",""trial"",""time""
""fullscreenenter"",""0"",""2271""
","
","
","""event"",""trial"",""time""
""fullscreenenter"",""0"",""2271""
","
","18955.53999999538","<img style='border: 4px solid darkgrey;' src='img/tf1_40_M_ss3.jpeg'></img>","2","","exp","","3","<img src='img/tf1_40_T1_ss3_md.jpeg'></img>","0","false",""
"","html-keyboard-response","93","263394","0.0-10.0-0.40","594","""event"",""trial"",""time""
""fullscreenenter"",""0"",""2271""
","
","
","""event"",""trial"",""time""
""fullscreenenter"",""0"",""2271""
","
","null","<div style=""font-size:60px;"">+</div>","","null","fixation","2021-06-08 21:57:29.587","","","","",""
"","mars-trial","94","267072","0.0-10.0-1.40","594","""event"",""trial"",""time""
""fullscreenenter"",""0"",""2271""
","
","
","""event"",""trial"",""time""
""fullscreenenter"",""0"",""2271""
","
","3066.895000025397","<img style='border: 4px solid darkgrey;' src='img/tf1_41_M_ss1.jpeg'></img>","1","","exp","","0","<img src='img/tf1_41_T1_ss1_md.jpeg'></img>","0","true",""
"","html-keyboard-response","95","267577","0.0-10.0-0.41","594","""event"",""trial"",""time""
""fullscreenenter"",""0"",""2271""
","
","
","""event"",""trial"",""time""
""fullscreenenter"",""0"",""2271""
","
","null","<div style=""font-size:60px;"">+</div>","","null","fixation","2021-06-08 21:57:33.770","","","","",""
"","mars-trial","96","282583","0.0-10.0-1.41","594","""event"",""trial"",""time""
""fullscreenenter"",""0"",""2271""
","
","
","""event"",""trial"",""time""
""fullscreenenter"",""0"",""2271""
","
","14390.87499998277","<img style='border: 4px solid darkgrey;' src='img/tf1_42_M_ss2.jpeg'></img>","2","","exp","","1","<img src='img/tf1_42_T1_ss2_md.jpeg'></img>","0","false",""
"","html-keyboard-response","97","283088","0.0-10.0-0.42","594","""event"",""trial"",""time""
""fullscreenenter"",""0"",""2271""
","
","
","""event"",""trial"",""time""
""fullscreenenter"",""0"",""2271""
","
","null","<div style=""font-size:60px;"">+</div>","","null","fixation","2021-06-08 21:57:49.281","","","","",""
"","mars-trial","98","291736","0.0-10.0-1.42","594","""event"",""trial"",""time""
""fullscreenenter"",""0"",""2271""
","
","
","""event"",""trial"",""time""
""fullscreenenter"",""0"",""2271""
","
","8038.144999998622","<img style='border: 4px solid darkgrey;' src='img/tf1_43_M_ss3.jpeg'></img>","0","","exp","","3","<img src='img/tf1_43_T1_ss3_md.jpeg'></img>","0","false",""
"","html-keyboard-response","99","292243","0.0-10.0-0.43","594","""event"",""trial"",""time""
""fullscreenenter"",""0"",""2271""
","
","
","""event"",""trial"",""time""
""fullscreenenter"",""0"",""2271""
","
","null","<div style=""font-size:60px;"">+</div>","","null","fixation","2021-06-08 21:57:58.436","","","","",""
"","mars-trial","100","307874","0.0-10.0-1.43","594","""event"",""trial"",""time""
""fullscreenenter"",""0"",""2271""
","
","
","""event"",""trial"",""time""
""fullscreenenter"",""0"",""2271""
","
","15017.5150000141","<img style='border: 4px solid darkgrey;' src='img/tf1_44_M_ss1.jpeg'></img>","1","","exp","","2","<img src='img/tf1_44_T1_ss1_md.jpeg'></img>","0","false",""
"","html-keyboard-response","101","308381","0.0-10.0-0.44","594","""event"",""trial"",""time""
""fullscreenenter"",""0"",""2271""
","
","
","""event"",""trial"",""time""
""fullscreenenter"",""0"",""2271""
","
","null","<div style=""font-size:60px;"">+</div>","","null","fixation","2021-06-08 21:58:14.574","","","","",""
"","mars-trial","102","317628","0.0-10.0-1.44","594","""event"",""trial"",""time""
""fullscreenenter"",""0"",""2271""
","
","
","""event"",""trial"",""time""
""fullscreenenter"",""0"",""2271""
","
","8641.060000023572","<img style='border: 4px solid darkgrey;' src='img/tf1_45_M_ss2.jpeg'></img>","2","","exp","","0","<img src='img/tf1_45_T1_ss2_md.jpeg'></img>","0","true",""
"","html-keyboard-response","103","318133","0.0-10.0-0.45","594","""event"",""trial"",""time""
""fullscreenenter"",""0"",""2271""
","
","
","""event"",""trial"",""time""
""fullscreenenter"",""0"",""2271""
","
","null","<div style=""font-size:60px;"">+</div>","","null","fixation","2021-06-08 21:58:24.326","","","","",""
"","mars-trial","104","323560","0.0-10.0-1.45","594","""event"",""trial"",""time""
""fullscreenenter"",""0"",""2271""
","
","
","""event"",""trial"",""time""
""fullscreenenter"",""0"",""2271""
","
","4818.760000023758","<img style='border: 4px solid darkgrey;' src='img/tf1_46_M_ss3.jpeg'></img>","0","","exp","","0","<img src='img/tf1_46_T1_ss3_md.jpeg'></img>","0","true",""
"","html-keyboard-response","105","324062","0.0-10.0-0.46","594","""event"",""trial"",""time""
""fullscreenenter"",""0"",""2271""
","
","
","""event"",""trial"",""time""
""fullscreenenter"",""0"",""2271""
","
","null","<div style=""font-size:60px;"">+</div>","","null","fixation","2021-06-08 21:58:30.255","","","","",""
"","mars-trial","106","325825","0.0-10.0-1.46","594","""event"",""trial"",""time""
""fullscreenenter"",""0"",""2271""
","
","
","""event"",""trial"",""time""
""fullscreenenter"",""0"",""2271""
","
","1159.685000020545","<img style='border: 4px solid darkgrey;' src='img/tf1_47_M_ss1.jpeg'></img>","1","","exp","","2","<img src='img/tf1_47_T1_ss1_md.jpeg'></img>","0","false",""
"","html-keyboard-response","107","326328","0.0-10.0-0.47","594","""event"",""trial"",""time""
""fullscreenenter"",""0"",""2271""
","
","
","""event"",""trial"",""time""
""fullscreenenter"",""0"",""2271""
","
","null","<div style=""font-size:60px;"">+</div>","","null","fixation","2021-06-08 21:58:32.521","","","","",""
"","mars-trial","108","327136","0.0-10.0-1.47","594","""event"",""trial"",""time""
""fullscreenenter"",""0"",""2271""
","
","
","""event"",""trial"",""time""
""fullscreenenter"",""0"",""2271""
","
","199.9000000068918","<img style='border: 4px solid darkgrey;' src='img/tf1_48_M_ss2.jpeg'></img>","1","","exp","","3","<img src='img/tf1_48_T1_ss2_md.jpeg'></img>","0","false",""
"","html-keyboard-response","109","327639","0.0-10.0-0.48","594","""event"",""trial"",""time""
""fullscreenenter"",""0"",""2271""
","
","
","""event"",""trial"",""time""
""fullscreenenter"",""0"",""2271""
","
","null","<div style=""font-size:60px;"">+</div>","","null","fixation","2021-06-08 21:58:33.832","","","","",""
"","mars-trial","110","328634","0.0-10.0-1.48","594","""event"",""trial"",""time""
""fullscreenenter"",""0"",""2271""
","
","
","""event"",""trial"",""time""
""fullscreenenter"",""0"",""2271""
","
","391.0850000102073","<img style='border: 4px solid darkgrey;' src='img/tf1_49_M_ss3.jpeg'></img>","0","","exp","","1","<img src='img/tf1_49_T1_ss3_md.jpeg'></img>","0","false",""
"","html-keyboard-response","111","329135","0.0-10.0-0.49","594","""event"",""trial"",""time""
""fullscreenenter"",""0"",""2271""
","
","
","""event"",""trial"",""time""
""fullscreenenter"",""0"",""2271""
","
","null","<div style=""font-size:60px;"">+</div>","","null","fixation","2021-06-08 21:58:35.328","","","","",""
"","mars-trial","112","330271","0.0-10.0-1.49","594","""event"",""trial"",""time""
""fullscreenenter"",""0"",""2271""
","
","
","""event"",""trial"",""time""
""fullscreenenter"",""0"",""2271""
","
","531.6899999743327","<img style='border: 4px solid darkgrey;' src='img/tf1_50_M_ss1.jpeg'></img>","2","","exp","","3","<img src='img/tf1_50_T1_ss1_md.jpeg'></img>","0","false",""
"","html-keyboard-response","113","330773","0.0-10.0-0.50","594","""event"",""trial"",""time""
""fullscreenenter"",""0"",""2271""
","
","
","""event"",""trial"",""time""
""fullscreenenter"",""0"",""2271""
","
","null","<div style=""font-size:60px;"">+</div>","","null","fixation","2021-06-08 21:58:36.966","","","","",""
"","mars-trial","114","335222","0.0-10.0-1.50","594","""event"",""trial"",""time""
""fullscreenenter"",""0"",""2271""
","
","
","""event"",""trial"",""time""
""fullscreenenter"",""0"",""2271""
","
","3844.344999990426","<img style='border: 4px solid darkgrey;' src='img/tf1_51_M_ss2.jpeg'></img>","2","","exp","","1","<img src='img/tf1_51_T1_ss2_md.jpeg'></img>","0","false",""
"","html-keyboard-response","115","335724","0.0-10.0-0.51","594","""event"",""trial"",""time""
""fullscreenenter"",""0"",""2271""
","
","
","""event"",""trial"",""time""
""fullscreenenter"",""0"",""2271""
","
","null","<div style=""font-size:60px;"">+</div>","","null","fixation","2021-06-08 21:58:41.917","","","","",""
"","mars-trial","116","346316","0.0-10.0-1.51","594","""event"",""trial"",""time""
""fullscreenenter"",""0"",""2271""
","
","
","""event"",""trial"",""time""
""fullscreenenter"",""0"",""2271""
","
","9979.66000001179","<img style='border: 4px solid darkgrey;' src='img/tf1_52_M_ss3.jpeg'></img>","1","","exp","","0","<img src='img/tf1_52_T1_ss3_md.jpeg'></img>","0","true",""
"","html-keyboard-response","117","346821","0.0-10.0-0.52","594","""event"",""trial"",""time""
""fullscreenenter"",""0"",""2271""
","
","
","""event"",""trial"",""time""
""fullscreenenter"",""0"",""2271""
","
","null","<div style=""font-size:60px;"">+</div>","","null","fixation","2021-06-08 21:58:53.014","","","","",""
"","mars-trial","118","350481","0.0-10.0-1.52","594","""event"",""trial"",""time""
""fullscreenenter"",""0"",""2271""
","
","
","""event"",""trial"",""time""
""fullscreenenter"",""0"",""2271""
","
","3050.6599999789614","<img style='border: 4px solid darkgrey;' src='img/tf1_53_M_ss1.jpeg'></img>","2","","exp","","3","<img src='img/tf1_53_T1_ss1_md.jpeg'></img>","0","false",""
"","html-keyboard-response","119","350983","0.0-10.0-0.53","594","""event"",""trial"",""time""
""fullscreenenter"",""0"",""2271""
","
","
","""event"",""trial"",""time""
""fullscreenenter"",""0"",""2271""
","
","null","<div style=""font-size:60px;"">+</div>","","null","fixation","2021-06-08 21:58:57.176","","","","",""
"","mars-trial","120","352523","0.0-10.0-1.53","594","""event"",""trial"",""time""
""fullscreenenter"",""0"",""2271""
","
","
","""event"",""trial"",""time""
""fullscreenenter"",""0"",""2271""
","
","928.0500000168104","<img style='border: 4px solid darkgrey;' src='img/tf1_54_M_ss2.jpeg'></img>","1","","exp","","0","<img src='img/tf1_54_T1_ss2_md.jpeg'></img>","0","true",""
"","html-keyboard-response","121","353024","0.0-10.0-0.54","594","""event"",""trial"",""time""
""fullscreenenter"",""0"",""2271""
","
","
","""event"",""trial"",""time""
""fullscreenenter"",""0"",""2271""
","
","null","<div style=""font-size:60px;"">+</div>","","null","fixation","2021-06-08 21:58:59.217","","","","",""
"","mars-trial","122","354504","0.0-10.0-1.54","594","""event"",""trial"",""time""
""fullscreenenter"",""0"",""2271""
","
","
","""event"",""trial"",""time""
""fullscreenenter"",""0"",""2271""
","
","872.735000011744","<img style='border: 4px solid darkgrey;' src='img/tf1_55_M_ss3.jpeg'></img>","1","","exp","","1","<img src='img/tf1_55_T1_ss3_md.jpeg'></img>","0","false",""
"","html-keyboard-response","123","355006","0.0-10.0-0.55","594","""event"",""trial"",""time""
""fullscreenenter"",""0"",""2271""
","
","
","""event"",""trial"",""time""
""fullscreenenter"",""0"",""2271""
","
","null","<div style=""font-size:60px;"">+</div>","","null","fixation","2021-06-08 21:59:01.199","","","","",""
"","mars-trial","124","356429","0.0-10.0-1.55","594","""event"",""trial"",""time""
""fullscreenenter"",""0"",""2271""
","
","
","""event"",""trial"",""time""
""fullscreenenter"",""0"",""2271""
","
","815.679999999702","<img style='border: 4px solid darkgrey;' src='img/tf1_56_M_ss1.jpeg'></img>","2","","exp","","0","<img src='img/tf1_56_T1_ss1_md.jpeg'></img>","0","true",""
"","html-keyboard-response","125","356933","0.0-10.0-0.56","594","""event"",""trial"",""time""
""fullscreenenter"",""0"",""2271""
","
","
","""event"",""trial"",""time""
""fullscreenenter"",""0"",""2271""
","
","null","<div style=""font-size:60px;"">+</div>","","null","fixation","2021-06-08 21:59:03.126","","","","",""
"","mars-trial","126","359732","0.0-10.0-1.56","594","""event"",""trial"",""time""
""fullscreenenter"",""0"",""2271""
","
","
","""event"",""trial"",""time""
""fullscreenenter"",""0"",""2271""
","
","2186.3650000013877","<img style='border: 4px solid darkgrey;' src='img/tf1_57_M_ss2.jpeg'></img>","2","","exp","","1","<img src='img/tf1_57_T1_ss2_md.jpeg'></img>","0","false",""
"","html-keyboard-response","127","360236","0.0-10.0-0.57","594","""event"",""trial"",""time""
""fullscreenenter"",""0"",""2271""
","
","
","""event"",""trial"",""time""
""fullscreenenter"",""0"",""2271""
","
","null","<div style=""font-size:60px;"">+</div>","","null","fixation","2021-06-08 21:59:06.429","","","","",""
"","mars-trial","128","361583","0.0-10.0-1.57","594","""event"",""trial"",""time""
""fullscreenenter"",""0"",""2271""
","
","
","""event"",""trial"",""time""
""fullscreenenter"",""0"",""2271""
","
","739.5649999962188","<img style='border: 4px solid darkgrey;' src='img/tf1_58_M_ss3.jpeg'></img>","2","","exp","","1","<img src='img/tf1_58_T1_ss3_md.jpeg'></img>","0","false",""
"","html-keyboard-response","129","362087","0.0-10.0-0.58","594","""event"",""trial"",""time""
""fullscreenenter"",""0"",""2271""
","
","
","""event"",""trial"",""time""
""fullscreenenter"",""0"",""2271""
","
","null","<div style=""font-size:60px;"">+</div>","","null","fixation","2021-06-08 21:59:08.280","","","","",""
"","mars-trial","130","365188","0.0-10.0-1.58","594","""event"",""trial"",""time""
""fullscreenenter"",""0"",""2271""
","
","
","""event"",""trial"",""time""
""fullscreenenter"",""0"",""2271""
","
","2488.43999998644","<img style='border: 4px solid darkgrey;' src='img/tf1_59_M_ss1.jpeg'></img>","0","","exp","","2","<img src='img/tf1_59_T1_ss1_md.jpeg'></img>","0","false",""
"","html-keyboard-response","131","365691","0.0-10.0-0.59","594","""event"",""trial"",""time""
""fullscreenenter"",""0"",""2271""
","
","
","""event"",""trial"",""time""
""fullscreenenter"",""0"",""2271""
","
","null","<div style=""font-size:60px;"">+</div>","","null","fixation","2021-06-08 21:59:11.884","","","","",""
"","mars-trial","132","367225","0.0-10.0-1.59","594","""event"",""trial"",""time""
""fullscreenenter"",""0"",""2271""
","
","
","""event"",""trial"",""time""
""fullscreenenter"",""0"",""2271""
","
","925.954999984242","<img style='border: 4px solid darkgrey;' src='img/tf1_60_M_ss2.jpeg'></img>","1","","exp","","1","<img src='img/tf1_60_T1_ss2_md.jpeg'></img>","0","false",""
"","html-keyboard-response","133","367727","0.0-10.0-0.60","594","""event"",""trial"",""time""
""fullscreenenter"",""0"",""2271""
","
","
","""event"",""trial"",""time""
""fullscreenenter"",""0"",""2271""
","
","null","<div style=""font-size:60px;"">+</div>","","null","fixation","2021-06-08 21:59:13.920","","","","",""
"","mars-trial","134","369444","0.0-10.0-1.60","594","""event"",""trial"",""time""
""fullscreenenter"",""0"",""2271""
","
","
","""event"",""trial"",""time""
""fullscreenenter"",""0"",""2271""
","
","1110.3450000227895","<img style='border: 4px solid darkgrey;' src='img/tf1_61_M_ss3.jpeg'></img>","3","","exp","","1","<img src='img/tf1_61_T1_ss3_md.jpeg'></img>","0","false",""
"","html-keyboard-response","135","369946","0.0-10.0-0.61","594","""event"",""trial"",""time""
""fullscreenenter"",""0"",""2271""
","
","
","""event"",""trial"",""time""
""fullscreenenter"",""0"",""2271""
","
","null","<div style=""font-size:60px;"">+</div>","","null","fixation","2021-06-08 21:59:16.139","","","","",""
"","mars-trial","136","371579","0.0-10.0-1.61","594","""event"",""trial"",""time""
""fullscreenenter"",""0"",""2271""
","
","
","""event"",""trial"",""time""
""fullscreenenter"",""0"",""2271""
","
","1026.7099999764469","<img style='border: 4px solid darkgrey;' src='img/tf1_62_M_ss1.jpeg'></img>","0","","exp","","3","<img src='img/tf1_62_T1_ss1_md.jpeg'></img>","0","false",""
"","html-keyboard-response","137","372081","0.0-10.0-0.62","594","""event"",""trial"",""time""
""fullscreenenter"",""0"",""2271""
","
","
","""event"",""trial"",""time""
""fullscreenenter"",""0"",""2271""
","
","null","<div style=""font-size:60px;"">+</div>","","null","fixation","2021-06-08 21:59:18.275","","","","",""
"","mars-trial","138","376663","0.0-10.0-1.62","594","""event"",""trial"",""time""
""fullscreenenter"",""0"",""2271""
","
","
","""event"",""trial"",""time""
""fullscreenenter"",""0"",""2271""
","
","3973.214999976335","<img style='border: 4px solid darkgrey;' src='img/tf1_63_M_ss2.jpeg'></img>","2","","exp","","3","<img src='img/tf1_63_T1_ss2_md.jpeg'></img>","0","false",""
"","html-keyboard-response","139","377167","0.0-10.0-0.63","594","""event"",""trial"",""time""
""fullscreenenter"",""0"",""2271""
","
","
","""event"",""trial"",""time""
""fullscreenenter"",""0"",""2271""
","
","null","<div style=""font-size:60px;"">+</div>","","null","fixation","2021-06-08 21:59:23.361","","","","",""
"","mars-trial","140","378411","0.0-10.0-1.63","594","""event"",""trial"",""time""
""fullscreenenter"",""0"",""2271""
","
","
","""event"",""trial"",""time""
""fullscreenenter"",""0"",""2271""
","
","636.1150000011548","<img style='border: 4px solid darkgrey;' src='img/tf1_64_M_ss3.jpeg'></img>","2","","exp","","3","<img src='img/tf1_64_T1_ss3_md.jpeg'></img>","0","false",""
"","html-keyboard-response","141","378912","0.0-10.0-0.64","594","""event"",""trial"",""time""
""fullscreenenter"",""0"",""2271""
","
","
","""event"",""trial"",""time""
""fullscreenenter"",""0"",""2271""
","
","null","<div style=""font-size:60px;"">+</div>","","null","fixation","2021-06-08 21:59:25.105","","","","",""
"","mars-trial","142","380057","0.0-10.0-1.64","594","""event"",""trial"",""time""
""fullscreenenter"",""0"",""2271""
","
","
","""event"",""trial"",""time""
""fullscreenenter"",""0"",""2271""
","
","536.8100000196137","<img style='border: 4px solid darkgrey;' src='img/tf1_65_M_ss1.jpeg'></img>","1","","exp","","1","<img src='img/tf1_65_T1_ss1_md.jpeg'></img>","0","false",""
"","html-keyboard-response","143","380560","0.0-10.0-0.65","594","""event"",""trial"",""time""
""fullscreenenter"",""0"",""2271""
","
","
","""event"",""trial"",""time""
""fullscreenenter"",""0"",""2271""
","
","null","<div style=""font-size:60px;"">+</div>","","null","fixation","2021-06-08 21:59:26.753","","","","",""
"","mars-trial","144","382316","0.0-10.0-1.65","594","""event"",""trial"",""time""
""fullscreenenter"",""0"",""2271""
","
","
","""event"",""trial"",""time""
""fullscreenenter"",""0"",""2271""
","
","1147.7349999768194","<img style='border: 4px solid darkgrey;' src='img/tf1_66_M_ss2.jpeg'></img>","0","","exp","","1","<img src='img/tf1_66_T1_ss2_md.jpeg'></img>","0","false",""
"","html-keyboard-response","145","382818","0.0-10.0-0.66","594","""event"",""trial"",""time""
""fullscreenenter"",""0"",""2271""
","
","
","""event"",""trial"",""time""
""fullscreenenter"",""0"",""2271""
","
","null","<div style=""font-size:60px;"">+</div>","","null","fixation","2021-06-08 21:59:29.011","","","","",""
"","mars-trial","146","388418","0.0-10.0-1.66","594","""event"",""trial"",""time""
""fullscreenenter"",""0"",""2271""
","
","
","""event"",""trial"",""time""
""fullscreenenter"",""0"",""2271""
","
","4991.345000016736","<img style='border: 4px solid darkgrey;' src='img/tf1_67_M_ss3.jpeg'></img>","2","","exp","","3","<img src='img/tf1_67_T1_ss3_md.jpeg'></img>","0","false",""
"","html-keyboard-response","147","388921","0.0-10.0-0.67","594","""event"",""trial"",""time""
""fullscreenenter"",""0"",""2271""
","
","
","""event"",""trial"",""time""
""fullscreenenter"",""0"",""2271""
","
","null","<div style=""font-size:60px;"">+</div>","","null","fixation","2021-06-08 21:59:35.114","","","","",""
"","mars-trial","148","391659","0.0-10.0-1.67","594","""event"",""trial"",""time""
""fullscreenenter"",""0"",""2271""
","
","
","""event"",""trial"",""time""
""fullscreenenter"",""0"",""2271""
","
","2127.1700000215787","<img style='border: 4px solid darkgrey;' src='img/tf1_68_M_ss1.jpeg'></img>","0","","exp","","0","<img src='img/tf1_68_T1_ss1_md.jpeg'></img>","0","true",""
"","html-keyboard-response","149","392164","0.0-10.0-0.68","594","""event"",""trial"",""time""
""fullscreenenter"",""0"",""2271""
","
","
","""event"",""trial"",""time""
""fullscreenenter"",""0"",""2271""
","
","null","<div style=""font-size:60px;"">+</div>","","null","fixation","2021-06-08 21:59:38.357","","","","",""
"","mars-trial","150","398329","0.0-10.0-1.68","594","""event"",""trial"",""time""
""fullscreenenter"",""0"",""2271""
","
","
","""event"",""trial"",""time""
""fullscreenenter"",""0"",""2271""
","
","5554.42500000936","<img style='border: 4px solid darkgrey;' src='img/tf1_69_M_ss2.jpeg'></img>","1","","exp","","1","<img src='img/tf1_69_T1_ss2_md.jpeg'></img>","0","false",""
"","html-keyboard-response","151","398831","0.0-10.0-0.69","594","""event"",""trial"",""time""
""fullscreenenter"",""0"",""2271""
","
","
","""event"",""trial"",""time""
""fullscreenenter"",""0"",""2271""
","
","null","<div style=""font-size:60px;"">+</div>","","null","fixation","2021-06-08 21:59:45.024","","","","",""
"","mars-trial","152","410415","0.0-10.0-1.69","594","""event"",""trial"",""time""
""fullscreenenter"",""0"",""2271""
","
","
","""event"",""trial"",""time""
""fullscreenenter"",""0"",""2271""
","
","10977.424999990035","<img style='border: 4px solid darkgrey;' src='img/tf1_70_M_ss3.jpeg'></img>","1","","exp","","0","<img src='img/tf1_70_T1_ss3_md.jpeg'></img>","0","true",""
"","html-keyboard-response","153","410920","0.0-10.0-0.70","594","""event"",""trial"",""time""
""fullscreenenter"",""0"",""2271""
","
","
","""event"",""trial"",""time""
""fullscreenenter"",""0"",""2271""
","
","null","<div style=""font-size:60px;"">+</div>","","null","fixation","2021-06-08 21:59:57.113","","","","",""
"","mars-trial","154","417956","0.0-10.0-1.70","594","""event"",""trial"",""time""
""fullscreenenter"",""0"",""2271""
","
","
","""event"",""trial"",""time""
""fullscreenenter"",""0"",""2271""
","
","6429.984999995213","<img style='border: 4px solid darkgrey;' src='img/tf1_71_M_ss1.jpeg'></img>","0","","exp","","1","<img src='img/tf1_71_T1_ss1_md.jpeg'></img>","0","false",""
"","html-keyboard-response","155","418460","0.0-10.0-0.71","594","""event"",""trial"",""time""
""fullscreenenter"",""0"",""2271""
","
","
","""event"",""trial"",""time""
""fullscreenenter"",""0"",""2271""
","
","null","<div style=""font-size:60px;"">+</div>","","null","fixation","2021-06-08 22:00:04.653","","","","",""
"","mars-trial","156","426680","0.0-10.0-1.71","594","""event"",""trial"",""time""
""fullscreenenter"",""0"",""2271""
","
","
","""event"",""trial"",""time""
""fullscreenenter"",""0"",""2271""
","
","7613.455000013346","<img style='border: 4px solid darkgrey;' src='img/tf1_72_M_ss2.jpeg'></img>","3","","exp","","2","<img src='img/tf1_72_T1_ss2_md.jpeg'></img>","0","false",""
"","html-keyboard-response","157","427185","0.0-10.0-0.72","594","""event"",""trial"",""time""
""fullscreenenter"",""0"",""2271""
","
","
","""event"",""trial"",""time""
""fullscreenenter"",""0"",""2271""
","
","null","<div style=""font-size:60px;"">+</div>","","null","fixation","2021-06-08 22:00:13.378","","","","",""
"","mars-trial","158","428277","0.0-10.0-1.72","594","""event"",""trial"",""time""
""fullscreenenter"",""0"",""2271""
","
","
","""event"",""trial"",""time""
""fullscreenenter"",""0"",""2271""
","
","486.25499999616295","<img style='border: 4px solid darkgrey;' src='img/tf1_73_M_ss3.jpeg'></img>","2","","exp","","1","<img src='img/tf1_73_T1_ss3_md.jpeg'></img>","0","false",""
"","html-keyboard-response","159","428778","0.0-10.0-0.73","594","""event"",""trial"",""time""
""fullscreenenter"",""0"",""2271""
","
","
","""event"",""trial"",""time""
""fullscreenenter"",""0"",""2271""
","
","null","<div style=""font-size:60px;"">+</div>","","null","fixation","2021-06-08 22:00:14.971","","","","",""
"","mars-trial","160","429780","0.0-10.0-1.73","594","""event"",""trial"",""time""
""fullscreenenter"",""0"",""2271""
","
","
","""event"",""trial"",""time""
""fullscreenenter"",""0"",""2271""
","
","394.98499999172054","<img style='border: 4px solid darkgrey;' src='img/tf1_74_M_ss1.jpeg'></img>","1","","exp","","3","<img src='img/tf1_74_T1_ss1_md.jpeg'></img>","0","false",""
"","html-keyboard-response","161","430285","0.0-10.0-0.74","594","""event"",""trial"",""time""
""fullscreenenter"",""0"",""2271""
","
","
","""event"",""trial"",""time""
""fullscreenenter"",""0"",""2271""
","
","null","<div style=""font-size:60px;"">+</div>","","null","fixation","2021-06-08 22:00:16.478","","","","",""
"","mars-trial","162","440752","0.0-10.0-1.74","594","""event"",""trial"",""time""
""fullscreenenter"",""0"",""2271""
","
","
","""event"",""trial"",""time""
""fullscreenenter"",""0"",""2271""
","
","9856.570000003558","<img style='border: 4px solid darkgrey;' src='img/tf1_75_M_ss2.jpeg'></img>","2","","exp","","0","<img src='img/tf1_75_T1_ss2_md.jpeg'></img>","0","true",""
"","html-keyboard-response","163","441254","0.0-10.0-0.75","594","""event"",""trial"",""time""
""fullscreenenter"",""0"",""2271""
","
","
","""event"",""trial"",""time""
""fullscreenenter"",""0"",""2271""
","
","null","<div style=""font-size:60px;"">+</div>","","null","fixation","2021-06-08 22:00:27.448","","","","",""
"","mars-trial","164","452175","0.0-10.0-1.75","594","""event"",""trial"",""time""
""fullscreenenter"",""0"",""2271""
","
","
","""event"",""trial"",""time""
""fullscreenenter"",""0"",""2271""
","
","10310.28000000515","<img style='border: 4px solid darkgrey;' src='img/tf1_76_M_ss3.jpeg'></img>","0","","exp","","3","<img src='img/tf1_76_T1_ss3_md.jpeg'></img>","0","false",""
"","html-keyboard-response","165","452680","0.0-10.0-0.76","594","""event"",""trial"",""time""
""fullscreenenter"",""0"",""2271""
","
","
","""event"",""trial"",""time""
""fullscreenenter"",""0"",""2271""
","
","null","<div style=""font-size:60px;"">+</div>","","null","fixation","2021-06-08 22:00:38.873","","","","",""
"","mars-trial","166","455132","0.0-10.0-1.76","594","""event"",""trial"",""time""
""fullscreenenter"",""0"",""2271""
","
","
","""event"",""trial"",""time""
""fullscreenenter"",""0"",""2271""
","
","1841.8750000128057","<img style='border: 4px solid darkgrey;' src='img/tf1_77_M_ss1.jpeg'></img>","2","","exp","","0","<img src='img/tf1_77_T1_ss1_md.jpeg'></img>","0","true",""
"","html-keyboard-response","167","455637","0.0-10.0-0.77","594","""event"",""trial"",""time""
""fullscreenenter"",""0"",""2271""
","
","
","""event"",""trial"",""time""
""fullscreenenter"",""0"",""2271""
","
","null","<div style=""font-size:60px;"">+</div>","","null","fixation","2021-06-08 22:00:41.830","","","","",""
"","mars-trial","168","456890","0.0-10.0-1.77","594","""event"",""trial"",""time""
""fullscreenenter"",""0"",""2271""
","
","
","""event"",""trial"",""time""
""fullscreenenter"",""0"",""2271""
","
","643.6150000081398","<img style='border: 4px solid darkgrey;' src='img/tf1_78_M_ss2.jpeg'></img>","2","","exp","","1","<img src='img/tf1_78_T1_ss2_md.jpeg'></img>","0","false",""
"","html-keyboard-response","169","457394","0.0-10.0-0.78","594","""event"",""trial"",""time""
""fullscreenenter"",""0"",""2271""
","
","
","""event"",""trial"",""time""
""fullscreenenter"",""0"",""2271""
","
","null","<div style=""font-size:60px;"">+</div>","","null","fixation","2021-06-08 22:00:43.587","","","","",""
"","mars-trial","170","458550","0.0-10.0-1.78","594","""event"",""trial"",""time""
""fullscreenenter"",""0"",""2271""
","
","
","""event"",""trial"",""time""
""fullscreenenter"",""0"",""2271""
","
","544.9650000082329","<img style='border: 4px solid darkgrey;' src='img/tf1_79_M_ss3.jpeg'></img>","1","","exp","","2","<img src='img/tf1_79_T1_ss3_md.jpeg'></img>","0","false",""
"","html-keyboard-response","171","459051","0.0-10.0-0.79","594","""event"",""trial"",""time""
""fullscreenenter"",""0"",""2271""
","
","
","""event"",""trial"",""time""
""fullscreenenter"",""0"",""2271""
","
","null","<div style=""font-size:60px;"">+</div>","","null","fixation","2021-06-08 22:00:45.244","","","","",""
"","mars-trial","172","460075","0.0-10.0-1.79","594","""event"",""trial"",""time""
""fullscreenenter"",""0"",""2271""
","
","
","""event"",""trial"",""time""
""fullscreenenter"",""0"",""2271""
","
","416.75999999279156","<img style='border: 4px solid darkgrey;' src='img/tf1_80_M_ss1.jpeg'></img>","3","","exp","","3","<img src='img/tf1_80_T1_ss1_md.jpeg'></img>","0","false",""
"","audio-button-response","173","516360","0.0-11.0","594","""event"",""trial"",""time""
""fullscreenenter"",""0"",""2271""
","
","
","""event"",""trial"",""time""
""fullscreenenter"",""0"",""2271""
","
","","","","","","","","","","",""
