"success","trial_type","trial_index","time_elapsed","internal_node_id","subject_id","interactions","blur_events","focus_events","fullscreenenter_events","fullscreenexit_events","rt","stimulus","button_pressed","key_press","part","timestamp","unshuffled_button","correct_response","correct_button","correct","value"
"true","fullscreen","0","3864","0.0-0.0","120","""event"",""trial"",""time""
""fullscreenenter"",""0"",""2869""
","
","
","""event"",""trial"",""time""
""fullscreenenter"",""0"",""2869""
","
","","","","","","","","","","",""
"","pavlovia","1","3876","0.0-1.0","120","""event"",""trial"",""time""
""fullscreenenter"",""0"",""2869""
","
","
","""event"",""trial"",""time""
""fullscreenenter"",""0"",""2869""
","
","","","","","","","","","","",""
"","html-button-response","2","5825","0.0-2.0","120","""event"",""trial"",""time""
""fullscreenenter"",""0"",""2869""
","
","
","""event"",""trial"",""time""
""fullscreenenter"",""0"",""2869""
","
","1945.5","<p>Welcome! Press START to begin.</p><br>","0","","","","","","","",""
"","audio-button-response","3","22666","0.0-3.0","120","""event"",""trial"",""time""
""fullscreenenter"",""0"",""2869""
","
","
","""event"",""trial"",""time""
""fullscreenenter"",""0"",""2869""
","
","16840.60000014305","audio/mars_instructions_slide2.wav","0","","","","","","","",""
"","audio-button-response","4","38681","0.0-4.0","120","""event"",""trial"",""time""
""fullscreenenter"",""0"",""2869""
","
","
","""event"",""trial"",""time""
""fullscreenenter"",""0"",""2869""
","
","16013.799999952316","audio/mars_instructions_slide3.wav","0","","","","","","","",""
"","html-keyboard-response","5","39183","0.0-5.0-0.0","120","""event"",""trial"",""time""
""fullscreenenter"",""0"",""2869""
","
","
","""event"",""trial"",""time""
""fullscreenenter"",""0"",""2869""
","
","null","<div style=""font-size:60px;"">+</div>","","null","fixation","2021-06-22 20:54:37.075","","","","",""
"","mars-trial","6","45196","0.0-5.0-1.0","120","""event"",""trial"",""time""
""fullscreenenter"",""0"",""2869""
","
","
","""event"",""trial"",""time""
""fullscreenenter"",""0"",""2869""
","
","3892.600000143051","<img style='border: 4px solid darkgrey;' src='practice/pt1_M1.png'></img>","0","","practice","","2","<img src='practice/pt1_T1.png'></img>","0","false",""
"","html-keyboard-response","7","45715","0.0-5.1-0.1","120","""event"",""trial"",""time""
""fullscreenenter"",""0"",""2869""
","
","
","""event"",""trial"",""time""
""fullscreenenter"",""0"",""2869""
","
","null","<div style=""font-size:60px;"">+</div>","","null","fixation","2021-06-22 20:54:43.607","","","","",""
"","mars-trial","8","50694","0.0-5.1-1.1","120","""event"",""trial"",""time""
""fullscreenenter"",""0"",""2869""
","
","
","""event"",""trial"",""time""
""fullscreenenter"",""0"",""2869""
","
","2846.399999856949","<img style='border: 4px solid darkgrey;' src='practice/pt1_M1.png'></img>","1","","practice","","0","<img src='practice/pt1_T1.png'></img>","0","true",""
"","html-keyboard-response","9","51213","0.0-6.0-0.0","120","""event"",""trial"",""time""
""fullscreenenter"",""0"",""2869""
","
","
","""event"",""trial"",""time""
""fullscreenenter"",""0"",""2869""
","
","null","<div style=""font-size:60px;"">+</div>","","null","fixation","2021-06-22 20:54:49.106","","","","",""
"","mars-trial","10","56494","0.0-6.0-1.0","120","""event"",""trial"",""time""
""fullscreenenter"",""0"",""2869""
","
","
","""event"",""trial"",""time""
""fullscreenenter"",""0"",""2869""
","
","3148.7000000476837","<img style='border: 4px solid darkgrey;' src='practice/pt2_M1.png'></img>","2","","practice","","0","<img src='practice/pt2_T1.png'></img>","0","true",""
"","html-keyboard-response","11","57014","0.0-7.0-0.0","120","""event"",""trial"",""time""
""fullscreenenter"",""0"",""2869""
","
","
","""event"",""trial"",""time""
""fullscreenenter"",""0"",""2869""
","
","null","<div style=""font-size:60px;"">+</div>","","null","fixation","2021-06-22 20:54:54.906","","","","",""
"","mars-trial","12","61214","0.0-7.0-1.0","120","""event"",""trial"",""time""
""fullscreenenter"",""0"",""2869""
","
","
","""event"",""trial"",""time""
""fullscreenenter"",""0"",""2869""
","
","2070.5999999046326","<img style='border: 4px solid darkgrey;' src='practice/pt3_M1.png'></img>","3","","practice","","0","<img src='practice/pt3_T1.png'></img>","0","true",""
"","audio-button-response","13","65362","0.0-8.0","120","""event"",""trial"",""time""
""fullscreenenter"",""0"",""2869""
","
","
","""event"",""trial"",""time""
""fullscreenenter"",""0"",""2869""
","
","4144.799999952316","audio/mars_instructions_slide4.wav","0","","","","","","","",""
"","call-function","14","65363","0.0-9.0","120","""event"",""trial"",""time""
""fullscreenenter"",""0"",""2869""
","
","
","""event"",""trial"",""time""
""fullscreenenter"",""0"",""2869""
","
","","","","","","","","","","",""
"","html-keyboard-response","15","65883","0.0-10.0-0.0","120","""event"",""trial"",""time""
""fullscreenenter"",""0"",""2869""
","
","
","""event"",""trial"",""time""
""fullscreenenter"",""0"",""2869""
","
","null","<div style=""font-size:60px;"">+</div>","","null","fixation","2021-06-22 20:55:03.776","","","","",""
"","mars-trial","16","68444","0.0-10.0-1.0","120","""event"",""trial"",""time""
""fullscreenenter"",""0"",""2869""
","
","
","""event"",""trial"",""time""
""fullscreenenter"",""0"",""2869""
","
","1929","<img style='border: 4px solid darkgrey;' src='img/tf1_1_M_ss3.jpeg'></img>","3","","exp","","0","<img src='img/tf1_1_T1_ss3_md.jpeg'></img>","0","true",""
"","html-keyboard-response","17","68963","0.0-10.0-0.1","120","""event"",""trial"",""time""
""fullscreenenter"",""0"",""2869""
","
","
","""event"",""trial"",""time""
""fullscreenenter"",""0"",""2869""
","
","null","<div style=""font-size:60px;"">+</div>","","null","fixation","2021-06-22 20:55:06.856","","","","",""
"","mars-trial","18","72374","0.0-10.0-1.1","120","""event"",""trial"",""time""
""fullscreenenter"",""0"",""2869""
","
","
","""event"",""trial"",""time""
""fullscreenenter"",""0"",""2869""
","
","2780.7000000476837","<img style='border: 4px solid darkgrey;' src='img/tf1_2_M_ss1.jpeg'></img>","1","","exp","","0","<img src='img/tf1_2_T1_ss1_md.jpeg'></img>","0","true",""
"","html-keyboard-response","19","72894","0.0-10.0-0.2","120","""event"",""trial"",""time""
""fullscreenenter"",""0"",""2869""
","
","
","""event"",""trial"",""time""
""fullscreenenter"",""0"",""2869""
","
","null","<div style=""font-size:60px;"">+</div>","","null","fixation","2021-06-22 20:55:10.786","","","","",""
"","mars-trial","20","75725","0.0-10.0-1.2","120","""event"",""trial"",""time""
""fullscreenenter"",""0"",""2869""
","
","
","""event"",""trial"",""time""
""fullscreenenter"",""0"",""2869""
","
","2197.7000000476837","<img style='border: 4px solid darkgrey;' src='img/tf1_3_M_ss2.jpeg'></img>","2","","exp","","0","<img src='img/tf1_3_T1_ss2_md.jpeg'></img>","0","true",""
"","html-keyboard-response","21","76244","0.0-10.0-0.3","120","""event"",""trial"",""time""
""fullscreenenter"",""0"",""2869""
","
","
","""event"",""trial"",""time""
""fullscreenenter"",""0"",""2869""
","
","null","<div style=""font-size:60px;"">+</div>","","null","fixation","2021-06-22 20:55:14.137","","","","",""
"","mars-trial","22","82364","0.0-10.0-1.3","120","""event"",""trial"",""time""
""fullscreenenter"",""0"",""2869""
","
","
","""event"",""trial"",""time""
""fullscreenenter"",""0"",""2869""
","
","5495.299999952316","<img style='border: 4px solid darkgrey;' src='img/tf1_4_M_ss3.jpeg'></img>","3","","exp","","1","<img src='img/tf1_4_T1_ss3_md.jpeg'></img>","0","false",""
"","html-keyboard-response","23","82874","0.0-10.0-0.4","120","""event"",""trial"",""time""
""fullscreenenter"",""0"",""2869""
","
","
","""event"",""trial"",""time""
""fullscreenenter"",""0"",""2869""
","
","null","<div style=""font-size:60px;"">+</div>","","null","fixation","2021-06-22 20:55:20.766","","","","",""
"","mars-trial","24","87665","0.0-10.0-1.4","120","""event"",""trial"",""time""
""fullscreenenter"",""0"",""2869""
","
","
","""event"",""trial"",""time""
""fullscreenenter"",""0"",""2869""
","
","4146.699999809265","<img style='border: 4px solid darkgrey;' src='img/tf1_5_M_ss1.jpeg'></img>","1","","exp","","1","<img src='img/tf1_5_T1_ss1_md.jpeg'></img>","0","false",""
"","html-keyboard-response","25","88184","0.0-10.0-0.5","120","""event"",""trial"",""time""
""fullscreenenter"",""0"",""2869""
","
","
","""event"",""trial"",""time""
""fullscreenenter"",""0"",""2869""
","
","null","<div style=""font-size:60px;"">+</div>","","null","fixation","2021-06-22 20:55:26.076","","","","",""
"","mars-trial","26","96731","0.0-10.0-1.5","120","""event"",""trial"",""time""
""fullscreenenter"",""0"",""2869""
","
","
","""event"",""trial"",""time""
""fullscreenenter"",""0"",""2869""
","
","7930.800000190735","<img style='border: 4px solid darkgrey;' src='img/tf1_6_M_ss2.jpeg'></img>","0","","exp","","1","<img src='img/tf1_6_T1_ss2_md.jpeg'></img>","0","false",""
"","html-keyboard-response","27","97233","0.0-10.0-0.6","120","""event"",""trial"",""time""
""fullscreenenter"",""0"",""2869""
","
","
","""event"",""trial"",""time""
""fullscreenenter"",""0"",""2869""
","
","null","<div style=""font-size:60px;"">+</div>","","null","fixation","2021-06-22 20:55:35.126","","","","",""
"","mars-trial","28","103635","0.0-10.0-1.6","120","""event"",""trial"",""time""
""fullscreenenter"",""0"",""2869""
","
","
","""event"",""trial"",""time""
""fullscreenenter"",""0"",""2869""
","
","5786.299999952316","<img style='border: 4px solid darkgrey;' src='img/tf1_7_M_ss3.jpeg'></img>","1","","exp","","0","<img src='img/tf1_7_T1_ss3_md.jpeg'></img>","0","true",""
"","html-keyboard-response","29","104138","0.0-10.0-0.7","120","""event"",""trial"",""time""
""fullscreenenter"",""0"",""2869""
","
","
","""event"",""trial"",""time""
""fullscreenenter"",""0"",""2869""
","
","null","<div style=""font-size:60px;"">+</div>","","null","fixation","2021-06-22 20:55:42.031","","","","",""
"","mars-trial","30","111462","0.0-10.0-1.7","120","""event"",""trial"",""time""
""fullscreenenter"",""0"",""2869""
","
","
","""event"",""trial"",""time""
""fullscreenenter"",""0"",""2869""
","
","6717.799999952316","<img style='border: 4px solid darkgrey;' src='img/tf1_8_M_ss1.jpeg'></img>","1","","exp","","1","<img src='img/tf1_8_T1_ss1_md.jpeg'></img>","0","false",""
"","html-keyboard-response","31","111965","0.0-10.0-0.8","120","""event"",""trial"",""time""
""fullscreenenter"",""0"",""2869""
","
","
","""event"",""trial"",""time""
""fullscreenenter"",""0"",""2869""
","
","null","<div style=""font-size:60px;"">+</div>","","null","fixation","2021-06-22 20:55:49.858","","","","",""
"","mars-trial","32","117916","0.0-10.0-1.8","120","""event"",""trial"",""time""
""fullscreenenter"",""0"",""2869""
","
","
","""event"",""trial"",""time""
""fullscreenenter"",""0"",""2869""
","
","5344.399999856949","<img style='border: 4px solid darkgrey;' src='img/tf1_9_M_ss2.jpeg'></img>","2","","exp","","0","<img src='img/tf1_9_T1_ss2_md.jpeg'></img>","0","true",""
"","html-keyboard-response","33","118419","0.0-10.0-0.9","120","""event"",""trial"",""time""
""fullscreenenter"",""0"",""2869""
","
","
","""event"",""trial"",""time""
""fullscreenenter"",""0"",""2869""
","
","null","<div style=""font-size:60px;"">+</div>","","null","fixation","2021-06-22 20:55:56.311","","","","",""
"","mars-trial","34","123497","0.0-10.0-1.9","120","""event"",""trial"",""time""
""fullscreenenter"",""0"",""2869""
","
","
","""event"",""trial"",""time""
""fullscreenenter"",""0"",""2869""
","
","4470.599999904633","<img style='border: 4px solid darkgrey;' src='img/tf1_10_M_ss3.jpeg'></img>","1","","exp","","1","<img src='img/tf1_10_T1_ss3_md.jpeg'></img>","0","false",""
"","html-keyboard-response","35","124007","0.0-10.0-0.10","120","""event"",""trial"",""time""
""fullscreenenter"",""0"",""2869""
","
","
","""event"",""trial"",""time""
""fullscreenenter"",""0"",""2869""
","
","null","<div style=""font-size:60px;"">+</div>","","null","fixation","2021-06-22 20:56:01.900","","","","",""
"","mars-trial","36","131119","0.0-10.0-1.10","120","""event"",""trial"",""time""
""fullscreenenter"",""0"",""2869""
","
","
","""event"",""trial"",""time""
""fullscreenenter"",""0"",""2869""
","
","6503.399999856949","<img style='border: 4px solid darkgrey;' src='img/tf1_11_M_ss1.jpeg'></img>","1","","exp","","2","<img src='img/tf1_11_T1_ss1_md.jpeg'></img>","0","false",""
"","html-keyboard-response","37","131622","0.0-10.0-0.11","120","""event"",""trial"",""time""
""fullscreenenter"",""0"",""2869""
","
","
","""event"",""trial"",""time""
""fullscreenenter"",""0"",""2869""
","
","null","<div style=""font-size:60px;"">+</div>","","null","fixation","2021-06-22 20:56:09.514","","","","",""
"","mars-trial","38","144326","0.0-10.0-1.11","120","""event"",""trial"",""time""
""fullscreenenter"",""0"",""2869""
","
","
","""event"",""trial"",""time""
""fullscreenenter"",""0"",""2869""
","
","12097.600000143051","<img style='border: 4px solid darkgrey;' src='img/tf1_12_M_ss2.jpeg'></img>","3","","exp","","2","<img src='img/tf1_12_T1_ss2_md.jpeg'></img>","0","false",""
"","html-keyboard-response","39","144829","0.0-10.0-0.12","120","""event"",""trial"",""time""
""fullscreenenter"",""0"",""2869""
","
","
","""event"",""trial"",""time""
""fullscreenenter"",""0"",""2869""
","
","null","<div style=""font-size:60px;"">+</div>","","null","fixation","2021-06-22 20:56:22.721","","","","",""
"","mars-trial","40","154911","0.0-10.0-1.12","120","""event"",""trial"",""time""
""fullscreenenter"",""0"",""2869""
","
","
","""event"",""trial"",""time""
""fullscreenenter"",""0"",""2869""
","
","9475.600000143051","<img style='border: 4px solid darkgrey;' src='img/tf1_13_M_ss3.jpeg'></img>","3","","exp","","1","<img src='img/tf1_13_T1_ss3_md.jpeg'></img>","0","false",""
"","html-keyboard-response","41","155415","0.0-10.0-0.13","120","""event"",""trial"",""time""
""fullscreenenter"",""0"",""2869""
","
","
","""event"",""trial"",""time""
""fullscreenenter"",""0"",""2869""
","
","null","<div style=""font-size:60px;"">+</div>","","null","fixation","2021-06-22 20:56:33.307","","","","",""
"","mars-trial","42","160456","0.0-10.0-1.13","120","""event"",""trial"",""time""
""fullscreenenter"",""0"",""2869""
","
","
","""event"",""trial"",""time""
""fullscreenenter"",""0"",""2869""
","
","4433.899999856949","<img style='border: 4px solid darkgrey;' src='img/tf1_14_M_ss1.jpeg'></img>","3","","exp","","0","<img src='img/tf1_14_T1_ss1_md.jpeg'></img>","0","true",""
"","html-keyboard-response","43","160959","0.0-10.0-0.14","120","""event"",""trial"",""time""
""fullscreenenter"",""0"",""2869""
","
","
","""event"",""trial"",""time""
""fullscreenenter"",""0"",""2869""
","
","null","<div style=""font-size:60px;"">+</div>","","null","fixation","2021-06-22 20:56:38.852","","","","",""
"","mars-trial","44","164935","0.0-10.0-1.14","120","""event"",""trial"",""time""
""fullscreenenter"",""0"",""2869""
","
","
","""event"",""trial"",""time""
""fullscreenenter"",""0"",""2869""
","
","3365.7999999523163","<img style='border: 4px solid darkgrey;' src='img/tf1_15_M_ss2.jpeg'></img>","2","","exp","","2","<img src='img/tf1_15_T1_ss2_md.jpeg'></img>","0","false",""
"","html-keyboard-response","45","165438","0.0-10.0-0.15","120","""event"",""trial"",""time""
""fullscreenenter"",""0"",""2869""
","
","
","""event"",""trial"",""time""
""fullscreenenter"",""0"",""2869""
","
","null","<div style=""font-size:60px;"">+</div>","","null","fixation","2021-06-22 20:56:43.330","","","","",""
"","mars-trial","46","172055","0.0-10.0-1.15","120","""event"",""trial"",""time""
""fullscreenenter"",""0"",""2869""
","
","
","""event"",""trial"",""time""
""fullscreenenter"",""0"",""2869""
","
","6008.700000047684","<img style='border: 4px solid darkgrey;' src='img/tf1_16_M_ss3.jpeg'></img>","2","","exp","","1","<img src='img/tf1_16_T1_ss3_md.jpeg'></img>","0","false",""
"","html-keyboard-response","47","172558","0.0-10.0-0.16","120","""event"",""trial"",""time""
""fullscreenenter"",""0"",""2869""
","
","
","""event"",""trial"",""time""
""fullscreenenter"",""0"",""2869""
","
","null","<div style=""font-size:60px;"">+</div>","","null","fixation","2021-06-22 20:56:50.451","","","","",""
"","mars-trial","48","178589","0.0-10.0-1.16","120","""event"",""trial"",""time""
""fullscreenenter"",""0"",""2869""
","
","
","""event"",""trial"",""time""
""fullscreenenter"",""0"",""2869""
","
","5423.299999952316","<img style='border: 4px solid darkgrey;' src='img/tf1_17_M_ss1.jpeg'></img>","0","","exp","","3","<img src='img/tf1_17_T1_ss1_md.jpeg'></img>","0","false",""
"","html-keyboard-response","49","179093","0.0-10.0-0.17","120","""event"",""trial"",""time""
""fullscreenenter"",""0"",""2869""
","
","
","""event"",""trial"",""time""
""fullscreenenter"",""0"",""2869""
","
","null","<div style=""font-size:60px;"">+</div>","","null","fixation","2021-06-22 20:56:56.985","","","","",""
"","mars-trial","50","185929","0.0-10.0-1.17","120","""event"",""trial"",""time""
""fullscreenenter"",""0"",""2869""
","
","
","""event"",""trial"",""time""
""fullscreenenter"",""0"",""2869""
","
","6228.599999904633","<img style='border: 4px solid darkgrey;' src='img/tf1_18_M_ss2.jpeg'></img>","1","","exp","","1","<img src='img/tf1_18_T1_ss2_md.jpeg'></img>","0","false",""
"","html-keyboard-response","51","186432","0.0-10.0-0.18","120","""event"",""trial"",""time""
""fullscreenenter"",""0"",""2869""
","
","
","""event"",""trial"",""time""
""fullscreenenter"",""0"",""2869""
","
","null","<div style=""font-size:60px;"">+</div>","","null","fixation","2021-06-22 20:57:04.324","","","","",""
"","mars-trial","52","190579","0.0-10.0-1.18","120","""event"",""trial"",""time""
""fullscreenenter"",""0"",""2869""
","
","
","""event"",""trial"",""time""
""fullscreenenter"",""0"",""2869""
","
","3539.5999999046326","<img style='border: 4px solid darkgrey;' src='img/tf1_19_M_ss3.jpeg'></img>","3","","exp","","1","<img src='img/tf1_19_T1_ss3_md.jpeg'></img>","0","false",""
"","html-keyboard-response","53","191082","0.0-10.0-0.19","120","""event"",""trial"",""time""
""fullscreenenter"",""0"",""2869""
","
","
","""event"",""trial"",""time""
""fullscreenenter"",""0"",""2869""
","
","null","<div style=""font-size:60px;"">+</div>","","null","fixation","2021-06-22 20:57:08.975","","","","",""
"","mars-trial","54","201935","0.0-10.0-1.19","120","""event"",""trial"",""time""
""fullscreenenter"",""0"",""2869""
","
","
","""event"",""trial"",""time""
""fullscreenenter"",""0"",""2869""
","
","10244.399999856949","<img style='border: 4px solid darkgrey;' src='img/tf1_20_M_ss1.jpeg'></img>","2","","exp","","0","<img src='img/tf1_20_T1_ss1_md.jpeg'></img>","0","true",""
"","html-keyboard-response","55","202439","0.0-10.0-0.20","120","""event"",""trial"",""time""
""fullscreenenter"",""0"",""2869""
","
","
","""event"",""trial"",""time""
""fullscreenenter"",""0"",""2869""
","
","null","<div style=""font-size:60px;"">+</div>","","null","fixation","2021-06-22 20:57:20.332","","","","",""
"","mars-trial","56","207724","0.0-10.0-1.20","120","""event"",""trial"",""time""
""fullscreenenter"",""0"",""2869""
","
","
","""event"",""trial"",""time""
""fullscreenenter"",""0"",""2869""
","
","4665.200000047684","<img style='border: 4px solid darkgrey;' src='img/tf1_21_M_ss2.jpeg'></img>","3","","exp","","1","<img src='img/tf1_21_T1_ss2_md.jpeg'></img>","0","false",""
"","html-keyboard-response","57","208227","0.0-10.0-0.21","120","""event"",""trial"",""time""
""fullscreenenter"",""0"",""2869""
","
","
","""event"",""trial"",""time""
""fullscreenenter"",""0"",""2869""
","
","null","<div style=""font-size:60px;"">+</div>","","null","fixation","2021-06-22 20:57:26.120","","","","",""
"","mars-trial","58","213880","0.0-10.0-1.21","120","""event"",""trial"",""time""
""fullscreenenter"",""0"",""2869""
","
","
","""event"",""trial"",""time""
""fullscreenenter"",""0"",""2869""
","
","5045.599999904633","<img style='border: 4px solid darkgrey;' src='img/tf1_22_M_ss3.jpeg'></img>","3","","exp","","2","<img src='img/tf1_22_T1_ss3_md.jpeg'></img>","0","false",""
"","html-keyboard-response","59","214383","0.0-10.0-0.22","120","""event"",""trial"",""time""
""fullscreenenter"",""0"",""2869""
","
","
","""event"",""trial"",""time""
""fullscreenenter"",""0"",""2869""
","
","null","<div style=""font-size:60px;"">+</div>","","null","fixation","2021-06-22 20:57:32.275","","","","",""
"","mars-trial","60","222109","0.0-10.0-1.22","120","""event"",""trial"",""time""
""fullscreenenter"",""0"",""2869""
","
","
","""event"",""trial"",""time""
""fullscreenenter"",""0"",""2869""
","
","7118.799999952316","<img style='border: 4px solid darkgrey;' src='img/tf1_23_M_ss1.jpeg'></img>","3","","exp","","3","<img src='img/tf1_23_T1_ss1_md.jpeg'></img>","0","false",""
"","html-keyboard-response","61","222613","0.0-10.0-0.23","120","""event"",""trial"",""time""
""fullscreenenter"",""0"",""2869""
","
","
","""event"",""trial"",""time""
""fullscreenenter"",""0"",""2869""
","
","null","<div style=""font-size:60px;"">+</div>","","null","fixation","2021-06-22 20:57:40.506","","","","",""
"","mars-trial","62","229634","0.0-10.0-1.23","120","""event"",""trial"",""time""
""fullscreenenter"",""0"",""2869""
","
","
","""event"",""trial"",""time""
""fullscreenenter"",""0"",""2869""
","
","6413.5","<img style='border: 4px solid darkgrey;' src='img/tf1_24_M_ss2.jpeg'></img>","2","","exp","","1","<img src='img/tf1_24_T1_ss2_md.jpeg'></img>","0","false",""
"","html-keyboard-response","63","230142","0.0-10.0-0.24","120","""event"",""trial"",""time""
""fullscreenenter"",""0"",""2869""
","
","
","""event"",""trial"",""time""
""fullscreenenter"",""0"",""2869""
","
","null","<div style=""font-size:60px;"">+</div>","","null","fixation","2021-06-22 20:57:48.034","","","","",""
"","mars-trial","64","232503","0.0-10.0-1.24","120","""event"",""trial"",""time""
""fullscreenenter"",""0"",""2869""
","
","
","""event"",""trial"",""time""
""fullscreenenter"",""0"",""2869""
","
","1753.9000000953674","<img style='border: 4px solid darkgrey;' src='img/tf1_25_M_ss3.jpeg'></img>","3","","exp","","3","<img src='img/tf1_25_T1_ss3_md.jpeg'></img>","0","false",""
"","html-keyboard-response","65","233006","0.0-10.0-0.25","120","""event"",""trial"",""time""
""fullscreenenter"",""0"",""2869""
","
","
","""event"",""trial"",""time""
""fullscreenenter"",""0"",""2869""
","
","null","<div style=""font-size:60px;"">+</div>","","null","fixation","2021-06-22 20:57:50.898","","","","",""
"","mars-trial","66","244205","0.0-10.0-1.25","120","""event"",""trial"",""time""
""fullscreenenter"",""0"",""2869""
","
","
","""event"",""trial"",""time""
""fullscreenenter"",""0"",""2869""
","
","10592.900000095367","<img style='border: 4px solid darkgrey;' src='img/tf1_26_M_ss1.jpeg'></img>","0","","exp","","3","<img src='img/tf1_26_T1_ss1_md.jpeg'></img>","0","false",""
"","html-keyboard-response","67","244708","0.0-10.0-0.26","120","""event"",""trial"",""time""
""fullscreenenter"",""0"",""2869""
","
","
","""event"",""trial"",""time""
""fullscreenenter"",""0"",""2869""
","
","null","<div style=""font-size:60px;"">+</div>","","null","fixation","2021-06-22 20:58:02.600","","","","",""
"","mars-trial","68","253454","0.0-10.0-1.26","120","""event"",""trial"",""time""
""fullscreenenter"",""0"",""2869""
","
","
","""event"",""trial"",""time""
""fullscreenenter"",""0"",""2869""
","
","8138.699999809265","<img style='border: 4px solid darkgrey;' src='img/tf1_27_M_ss2.jpeg'></img>","2","","exp","","1","<img src='img/tf1_27_T1_ss2_md.jpeg'></img>","0","false",""
"","html-keyboard-response","69","253958","0.0-10.0-0.27","120","""event"",""trial"",""time""
""fullscreenenter"",""0"",""2869""
","
","
","""event"",""trial"",""time""
""fullscreenenter"",""0"",""2869""
","
","null","<div style=""font-size:60px;"">+</div>","","null","fixation","2021-06-22 20:58:11.851","","","","",""
"","mars-trial","70","260079","0.0-10.0-1.27","120","""event"",""trial"",""time""
""fullscreenenter"",""0"",""2869""
","
","
","""event"",""trial"",""time""
""fullscreenenter"",""0"",""2869""
","
","5511.799999952316","<img style='border: 4px solid darkgrey;' src='img/tf1_28_M_ss3.jpeg'></img>","1","","exp","","2","<img src='img/tf1_28_T1_ss3_md.jpeg'></img>","0","false",""
"","html-keyboard-response","71","260582","0.0-10.0-0.28","120","""event"",""trial"",""time""
""fullscreenenter"",""0"",""2869""
","
","
","""event"",""trial"",""time""
""fullscreenenter"",""0"",""2869""
","
","null","<div style=""font-size:60px;"">+</div>","","null","fixation","2021-06-22 20:58:18.474","","","","",""
"","mars-trial","72","273112","0.0-10.0-1.28","120","""event"",""trial"",""time""
""fullscreenenter"",""0"",""2869""
","
","
","""event"",""trial"",""time""
""fullscreenenter"",""0"",""2869""
","
","11923.399999856949","<img style='border: 4px solid darkgrey;' src='img/tf1_29_M_ss1.jpeg'></img>","2","","exp","","2","<img src='img/tf1_29_T1_ss1_md.jpeg'></img>","0","false",""
"","html-keyboard-response","73","273616","0.0-10.0-0.29","120","""event"",""trial"",""time""
""fullscreenenter"",""0"",""2869""
","
","
","""event"",""trial"",""time""
""fullscreenenter"",""0"",""2869""
","
","null","<div style=""font-size:60px;"">+</div>","","null","fixation","2021-06-22 20:58:31.508","","","","",""
"","mars-trial","74","284646","0.0-10.0-1.29","120","""event"",""trial"",""time""
""fullscreenenter"",""0"",""2869""
","
","
","""event"",""trial"",""time""
""fullscreenenter"",""0"",""2869""
","
","10423.699999809265","<img style='border: 4px solid darkgrey;' src='img/tf1_30_M_ss2.jpeg'></img>","3","","exp","","1","<img src='img/tf1_30_T1_ss2_md.jpeg'></img>","0","false",""
"","html-keyboard-response","75","285150","0.0-10.0-0.30","120","""event"",""trial"",""time""
""fullscreenenter"",""0"",""2869""
","
","
","""event"",""trial"",""time""
""fullscreenenter"",""0"",""2869""
","
","null","<div style=""font-size:60px;"">+</div>","","null","fixation","2021-06-22 20:58:43.042","","","","",""
"","mars-trial","76","294496","0.0-10.0-1.30","120","""event"",""trial"",""time""
""fullscreenenter"",""0"",""2869""
","
","
","""event"",""trial"",""time""
""fullscreenenter"",""0"",""2869""
","
","8737.399999856949","<img style='border: 4px solid darkgrey;' src='img/tf1_31_M_ss3.jpeg'></img>","2","","exp","","0","<img src='img/tf1_31_T1_ss3_md.jpeg'></img>","0","true",""
"","html-keyboard-response","77","295000","0.0-10.0-0.31","120","""event"",""trial"",""time""
""fullscreenenter"",""0"",""2869""
","
","
","""event"",""trial"",""time""
""fullscreenenter"",""0"",""2869""
","
","null","<div style=""font-size:60px;"">+</div>","","null","fixation","2021-06-22 20:58:52.892","","","","",""
"","mars-trial","78","300795","0.0-10.0-1.31","120","""event"",""trial"",""time""
""fullscreenenter"",""0"",""2869""
","
","
","""event"",""trial"",""time""
""fullscreenenter"",""0"",""2869""
","
","5186.5","<img style='border: 4px solid darkgrey;' src='img/tf1_32_M_ss1.jpeg'></img>","3","","exp","","2","<img src='img/tf1_32_T1_ss1_md.jpeg'></img>","0","false",""
"","html-keyboard-response","79","301298","0.0-10.0-0.32","120","""event"",""trial"",""time""
""fullscreenenter"",""0"",""2869""
","
","
","""event"",""trial"",""time""
""fullscreenenter"",""0"",""2869""
","
","null","<div style=""font-size:60px;"">+</div>","","null","fixation","2021-06-22 20:58:59.190","","","","",""
"","mars-trial","80","309563","0.0-10.0-1.32","120","""event"",""trial"",""time""
""fullscreenenter"",""0"",""2869""
","
","
","""event"",""trial"",""time""
""fullscreenenter"",""0"",""2869""
","
","7658","<img style='border: 4px solid darkgrey;' src='img/tf1_33_M_ss2.jpeg'></img>","1","","exp","","3","<img src='img/tf1_33_T1_ss2_md.jpeg'></img>","0","false",""
"","html-keyboard-response","81","310066","0.0-10.0-0.33","120","""event"",""trial"",""time""
""fullscreenenter"",""0"",""2869""
","
","
","""event"",""trial"",""time""
""fullscreenenter"",""0"",""2869""
","
","null","<div style=""font-size:60px;"">+</div>","","null","fixation","2021-06-22 20:59:07.958","","","","",""
"","mars-trial","82","319583","0.0-10.0-1.33","120","""event"",""trial"",""time""
""fullscreenenter"",""0"",""2869""
","
","
","""event"",""trial"",""time""
""fullscreenenter"",""0"",""2869""
","
","8909.299999952316","<img style='border: 4px solid darkgrey;' src='img/tf1_34_M_ss3.jpeg'></img>","0","","exp","","2","<img src='img/tf1_34_T1_ss3_md.jpeg'></img>","0","false",""
"","html-keyboard-response","83","320087","0.0-10.0-0.34","120","""event"",""trial"",""time""
""fullscreenenter"",""0"",""2869""
","
","
","""event"",""trial"",""time""
""fullscreenenter"",""0"",""2869""
","
","null","<div style=""font-size:60px;"">+</div>","","null","fixation","2021-06-22 20:59:17.979","","","","",""
"","mars-trial","84","329704","0.0-10.0-1.34","120","""event"",""trial"",""time""
""fullscreenenter"",""0"",""2869""
","
","
","""event"",""trial"",""time""
""fullscreenenter"",""0"",""2869""
","
","9009.900000095367","<img style='border: 4px solid darkgrey;' src='img/tf1_35_M_ss1.jpeg'></img>","1","","exp","","2","<img src='img/tf1_35_T1_ss1_md.jpeg'></img>","0","false",""
"","html-keyboard-response","85","330208","0.0-10.0-0.35","120","""event"",""trial"",""time""
""fullscreenenter"",""0"",""2869""
","
","
","""event"",""trial"",""time""
""fullscreenenter"",""0"",""2869""
","
","null","<div style=""font-size:60px;"">+</div>","","null","fixation","2021-06-22 20:59:28.100","","","","",""
"","mars-trial","86","336795","0.0-10.0-1.35","120","""event"",""trial"",""time""
""fullscreenenter"",""0"",""2869""
","
","
","""event"",""trial"",""time""
""fullscreenenter"",""0"",""2869""
","
","5979.299999952316","<img style='border: 4px solid darkgrey;' src='img/tf1_36_M_ss2.jpeg'></img>","1","","exp","","3","<img src='img/tf1_36_T1_ss2_md.jpeg'></img>","0","false",""
"","html-keyboard-response","87","337299","0.0-10.0-0.36","120","""event"",""trial"",""time""
""fullscreenenter"",""0"",""2869""
","
","
","""event"",""trial"",""time""
""fullscreenenter"",""0"",""2869""
","
","null","<div style=""font-size:60px;"">+</div>","","null","fixation","2021-06-22 20:59:35.191","","","","",""
"","mars-trial","88","350260","0.0-10.0-1.36","120","""event"",""trial"",""time""
""fullscreenenter"",""0"",""2869""
","
","
","""event"",""trial"",""time""
""fullscreenenter"",""0"",""2869""
","
","12352.700000047684","<img style='border: 4px solid darkgrey;' src='img/tf1_37_M_ss3.jpeg'></img>","2","","exp","","3","<img src='img/tf1_37_T1_ss3_md.jpeg'></img>","0","false",""
"","html-keyboard-response","89","350763","0.0-10.0-0.37","120","""event"",""trial"",""time""
""fullscreenenter"",""0"",""2869""
","
","
","""event"",""trial"",""time""
""fullscreenenter"",""0"",""2869""
","
","null","<div style=""font-size:60px;"">+</div>","","null","fixation","2021-06-22 20:59:48.655","","","","",""
"","mars-trial","90","356567","0.0-10.0-1.37","120","""event"",""trial"",""time""
""fullscreenenter"",""0"",""2869""
","
","
","""event"",""trial"",""time""
""fullscreenenter"",""0"",""2869""
","
","5196.700000047684","<img style='border: 4px solid darkgrey;' src='img/tf1_38_M_ss1.jpeg'></img>","2","","exp","","1","<img src='img/tf1_38_T1_ss1_md.jpeg'></img>","0","false",""
"","html-keyboard-response","91","357075","0.0-10.0-0.38","120","""event"",""trial"",""time""
""fullscreenenter"",""0"",""2869""
","
","
","""event"",""trial"",""time""
""fullscreenenter"",""0"",""2869""
","
","null","<div style=""font-size:60px;"">+</div>","","null","fixation","2021-06-22 20:59:54.968","","","","",""
"","mars-trial","92","362942","0.0-10.0-1.38","120","""event"",""trial"",""time""
""fullscreenenter"",""0"",""2869""
","
","
","""event"",""trial"",""time""
""fullscreenenter"",""0"",""2869""
","
","5258","<img style='border: 4px solid darkgrey;' src='img/tf1_39_M_ss2.jpeg'></img>","2","","exp","","3","<img src='img/tf1_39_T1_ss2_md.jpeg'></img>","0","false",""
"","html-keyboard-response","93","363447","0.0-10.0-0.39","120","""event"",""trial"",""time""
""fullscreenenter"",""0"",""2869""
","
","
","""event"",""trial"",""time""
""fullscreenenter"",""0"",""2869""
","
","null","<div style=""font-size:60px;"">+</div>","","null","fixation","2021-06-22 21:00:01.339","","","","",""
"","mars-trial","94","368629","0.0-10.0-1.39","120","""event"",""trial"",""time""
""fullscreenenter"",""0"",""2869""
","
","
","""event"",""trial"",""time""
""fullscreenenter"",""0"",""2869""
","
","4575.5","<img style='border: 4px solid darkgrey;' src='img/tf1_40_M_ss3.jpeg'></img>","1","","exp","","3","<img src='img/tf1_40_T1_ss3_md.jpeg'></img>","0","false",""
"","html-keyboard-response","95","369132","0.0-10.0-0.40","120","""event"",""trial"",""time""
""fullscreenenter"",""0"",""2869""
","
","
","""event"",""trial"",""time""
""fullscreenenter"",""0"",""2869""
","
","null","<div style=""font-size:60px;"">+</div>","","null","fixation","2021-06-22 21:00:07.024","","","","",""
"","mars-trial","96","373330","0.0-10.0-1.40","120","""event"",""trial"",""time""
""fullscreenenter"",""0"",""2869""
","
","
","""event"",""trial"",""time""
""fullscreenenter"",""0"",""2869""
","
","3590.9000000953674","<img style='border: 4px solid darkgrey;' src='img/tf1_41_M_ss1.jpeg'></img>","0","","exp","","2","<img src='img/tf1_41_T1_ss1_md.jpeg'></img>","0","false",""
"","html-keyboard-response","97","373832","0.0-10.0-0.41","120","""event"",""trial"",""time""
""fullscreenenter"",""0"",""2869""
","
","
","""event"",""trial"",""time""
""fullscreenenter"",""0"",""2869""
","
","null","<div style=""font-size:60px;"">+</div>","","null","fixation","2021-06-22 21:00:11.724","","","","",""
"","mars-trial","98","379689","0.0-10.0-1.41","120","""event"",""trial"",""time""
""fullscreenenter"",""0"",""2869""
","
","
","""event"",""trial"",""time""
""fullscreenenter"",""0"",""2869""
","
","5250.900000095367","<img style='border: 4px solid darkgrey;' src='img/tf1_42_M_ss2.jpeg'></img>","0","","exp","","2","<img src='img/tf1_42_T1_ss2_md.jpeg'></img>","0","false",""
"","html-keyboard-response","99","380193","0.0-10.0-0.42","120","""event"",""trial"",""time""
""fullscreenenter"",""0"",""2869""
","
","
","""event"",""trial"",""time""
""fullscreenenter"",""0"",""2869""
","
","null","<div style=""font-size:60px;"">+</div>","","null","fixation","2021-06-22 21:00:18.085","","","","",""
"","mars-trial","100","390211","0.0-10.0-1.42","120","""event"",""trial"",""time""
""fullscreenenter"",""0"",""2869""
","
","
","""event"",""trial"",""time""
""fullscreenenter"",""0"",""2869""
","
","9406.200000047684","<img style='border: 4px solid darkgrey;' src='img/tf1_43_M_ss3.jpeg'></img>","3","","exp","","0","<img src='img/tf1_43_T1_ss3_md.jpeg'></img>","0","true",""
"","html-keyboard-response","101","390715","0.0-10.0-0.43","120","""event"",""trial"",""time""
""fullscreenenter"",""0"",""2869""
","
","
","""event"",""trial"",""time""
""fullscreenenter"",""0"",""2869""
","
","null","<div style=""font-size:60px;"">+</div>","","null","fixation","2021-06-22 21:00:28.607","","","","",""
"","mars-trial","102","397605","0.0-10.0-1.43","120","""event"",""trial"",""time""
""fullscreenenter"",""0"",""2869""
","
","
","""event"",""trial"",""time""
""fullscreenenter"",""0"",""2869""
","
","6282.900000095367","<img style='border: 4px solid darkgrey;' src='img/tf1_44_M_ss1.jpeg'></img>","0","","exp","","1","<img src='img/tf1_44_T1_ss1_md.jpeg'></img>","0","false",""
"","html-keyboard-response","103","398108","0.0-10.0-0.44","120","""event"",""trial"",""time""
""fullscreenenter"",""0"",""2869""
","
","
","""event"",""trial"",""time""
""fullscreenenter"",""0"",""2869""
","
","null","<div style=""font-size:60px;"">+</div>","","null","fixation","2021-06-22 21:00:36.000","","","","",""
"","mars-trial","104","404682","0.0-10.0-1.44","120","""event"",""trial"",""time""
""fullscreenenter"",""0"",""2869""
","
","
","""event"",""trial"",""time""
""fullscreenenter"",""0"",""2869""
","
","5953.400000095367","<img style='border: 4px solid darkgrey;' src='img/tf1_45_M_ss2.jpeg'></img>","1","","exp","","0","<img src='img/tf1_45_T1_ss2_md.jpeg'></img>","0","true",""
"","html-keyboard-response","105","405186","0.0-10.0-0.45","120","""event"",""trial"",""time""
""fullscreenenter"",""0"",""2869""
","
","
","""event"",""trial"",""time""
""fullscreenenter"",""0"",""2869""
","
","null","<div style=""font-size:60px;"">+</div>","","null","fixation","2021-06-22 21:00:43.078","","","","",""
"","mars-trial","106","417948","0.0-10.0-1.45","120","""event"",""trial"",""time""
""fullscreenenter"",""0"",""2869""
","
","
","""event"",""trial"",""time""
""fullscreenenter"",""0"",""2869""
","
","12152.5","<img style='border: 4px solid darkgrey;' src='img/tf1_46_M_ss3.jpeg'></img>","3","","exp","","0","<img src='img/tf1_46_T1_ss3_md.jpeg'></img>","0","true",""
"","html-keyboard-response","107","418451","0.0-10.0-0.46","120","""event"",""trial"",""time""
""fullscreenenter"",""0"",""2869""
","
","
","""event"",""trial"",""time""
""fullscreenenter"",""0"",""2869""
","
","null","<div style=""font-size:60px;"">+</div>","","null","fixation","2021-06-22 21:00:56.343","","","","",""
"","mars-trial","108","427441","0.0-10.0-1.46","120","""event"",""trial"",""time""
""fullscreenenter"",""0"",""2869""
","
","
","""event"",""trial"",""time""
""fullscreenenter"",""0"",""2869""
","
","8383.5","<img style='border: 4px solid darkgrey;' src='img/tf1_47_M_ss1.jpeg'></img>","0","","exp","","0","<img src='img/tf1_47_T1_ss1_md.jpeg'></img>","0","true",""
"","html-keyboard-response","109","427946","0.0-10.0-0.47","120","""event"",""trial"",""time""
""fullscreenenter"",""0"",""2869""
","
","
","""event"",""trial"",""time""
""fullscreenenter"",""0"",""2869""
","
","null","<div style=""font-size:60px;"">+</div>","","null","fixation","2021-06-22 21:01:05.838","","","","",""
"","mars-trial","110","435554","0.0-10.0-1.47","120","""event"",""trial"",""time""
""fullscreenenter"",""0"",""2869""
","
","
","""event"",""trial"",""time""
""fullscreenenter"",""0"",""2869""
","
","6998.899999856949","<img style='border: 4px solid darkgrey;' src='img/tf1_48_M_ss2.jpeg'></img>","3","","exp","","1","<img src='img/tf1_48_T1_ss2_md.jpeg'></img>","0","false",""
"","html-keyboard-response","111","436057","0.0-10.0-0.48","120","""event"",""trial"",""time""
""fullscreenenter"",""0"",""2869""
","
","
","""event"",""trial"",""time""
""fullscreenenter"",""0"",""2869""
","
","null","<div style=""font-size:60px;"">+</div>","","null","fixation","2021-06-22 21:01:13.949","","","","",""
"","mars-trial","112","451030","0.0-10.0-1.48","120","""event"",""trial"",""time""
""fullscreenenter"",""0"",""2869""
","
","
","""event"",""trial"",""time""
""fullscreenenter"",""0"",""2869""
","
","14364.899999856949","<img style='border: 4px solid darkgrey;' src='img/tf1_49_M_ss3.jpeg'></img>","1","","exp","","2","<img src='img/tf1_49_T1_ss3_md.jpeg'></img>","0","false",""
"","html-keyboard-response","113","451533","0.0-10.0-0.49","120","""event"",""trial"",""time""
""fullscreenenter"",""0"",""2869""
","
","
","""event"",""trial"",""time""
""fullscreenenter"",""0"",""2869""
","
","null","<div style=""font-size:60px;"">+</div>","","null","fixation","2021-06-22 21:01:29.426","","","","",""
"","mars-trial","114","458189","0.0-10.0-1.49","120","""event"",""trial"",""time""
""fullscreenenter"",""0"",""2869""
","
","
","""event"",""trial"",""time""
""fullscreenenter"",""0"",""2869""
","
","6045.899999856949","<img style='border: 4px solid darkgrey;' src='img/tf1_50_M_ss1.jpeg'></img>","3","","exp","","3","<img src='img/tf1_50_T1_ss1_md.jpeg'></img>","0","false",""
"","html-keyboard-response","115","458692","0.0-10.0-0.50","120","""event"",""trial"",""time""
""fullscreenenter"",""0"",""2869""
","
","
","""event"",""trial"",""time""
""fullscreenenter"",""0"",""2869""
","
","null","<div style=""font-size:60px;"">+</div>","","null","fixation","2021-06-22 21:01:36.585","","","","",""
"","mars-trial","116","468609","0.0-10.0-1.50","120","""event"",""trial"",""time""
""fullscreenenter"",""0"",""2869""
","
","
","""event"",""trial"",""time""
""fullscreenenter"",""0"",""2869""
","
","9297.599999904633","<img style='border: 4px solid darkgrey;' src='img/tf1_51_M_ss2.jpeg'></img>","2","","exp","","3","<img src='img/tf1_51_T1_ss2_md.jpeg'></img>","0","false",""
"","html-keyboard-response","117","469127","0.0-10.0-0.51","120","""event"",""trial"",""time""
""fullscreenenter"",""0"",""2869""
","
","
","""event"",""trial"",""time""
""fullscreenenter"",""0"",""2869""
","
","null","<div style=""font-size:60px;"">+</div>","","null","fixation","2021-06-22 21:01:47.019","","","","",""
"","mars-trial","118","474005","0.0-10.0-1.51","120","""event"",""trial"",""time""
""fullscreenenter"",""0"",""2869""
","
","
","""event"",""trial"",""time""
""fullscreenenter"",""0"",""2869""
","
","4269.900000095367","<img style='border: 4px solid darkgrey;' src='img/tf1_52_M_ss3.jpeg'></img>","0","","exp","","2","<img src='img/tf1_52_T1_ss3_md.jpeg'></img>","0","false",""
"","html-keyboard-response","119","474509","0.0-10.0-0.52","120","""event"",""trial"",""time""
""fullscreenenter"",""0"",""2869""
","
","
","""event"",""trial"",""time""
""fullscreenenter"",""0"",""2869""
","
","null","<div style=""font-size:60px;"">+</div>","","null","fixation","2021-06-22 21:01:52.401","","","","",""
"","mars-trial","120","475751","0.0-10.0-1.52","120","""event"",""trial"",""time""
""fullscreenenter"",""0"",""2869""
","
","
","""event"",""trial"",""time""
""fullscreenenter"",""0"",""2869""
","
","632.7999999523163","<img style='border: 4px solid darkgrey;' src='img/tf1_53_M_ss1.jpeg'></img>","1","","exp","","0","<img src='img/tf1_53_T1_ss1_md.jpeg'></img>","0","true",""
"","html-keyboard-response","121","476254","0.0-10.0-0.53","120","""event"",""trial"",""time""
""fullscreenenter"",""0"",""2869""
","
","
","""event"",""trial"",""time""
""fullscreenenter"",""0"",""2869""
","
","null","<div style=""font-size:60px;"">+</div>","","null","fixation","2021-06-22 21:01:54.146","","","","",""
"","mars-trial","122","477423","0.0-10.0-1.53","120","""event"",""trial"",""time""
""fullscreenenter"",""0"",""2869""
","
","
","""event"",""trial"",""time""
""fullscreenenter"",""0"",""2869""
","
","563","<img style='border: 4px solid darkgrey;' src='img/tf1_54_M_ss2.jpeg'></img>","2","","exp","","3","<img src='img/tf1_54_T1_ss2_md.jpeg'></img>","0","false",""
"","html-keyboard-response","123","477926","0.0-10.0-0.54","120","""event"",""trial"",""time""
""fullscreenenter"",""0"",""2869""
","
","
","""event"",""trial"",""time""
""fullscreenenter"",""0"",""2869""
","
","null","<div style=""font-size:60px;"">+</div>","","null","fixation","2021-06-22 21:01:55.819","","","","",""
"","mars-trial","124","479315","0.0-10.0-1.54","120","""event"",""trial"",""time""
""fullscreenenter"",""0"",""2869""
","
","
","""event"",""trial"",""time""
""fullscreenenter"",""0"",""2869""
","
","766.2000000476837","<img style='border: 4px solid darkgrey;' src='img/tf1_55_M_ss3.jpeg'></img>","1","","exp","","1","<img src='img/tf1_55_T1_ss3_md.jpeg'></img>","0","false",""
"","html-keyboard-response","125","479824","0.0-10.0-0.55","120","""event"",""trial"",""time""
""fullscreenenter"",""0"",""2869""
","
","
","""event"",""trial"",""time""
""fullscreenenter"",""0"",""2869""
","
","null","<div style=""font-size:60px;"">+</div>","","null","fixation","2021-06-22 21:01:57.716","","","","",""
"","mars-trial","126","480674","0.0-10.0-1.55","120","""event"",""trial"",""time""
""fullscreenenter"",""0"",""2869""
","
","
","""event"",""trial"",""time""
""fullscreenenter"",""0"",""2869""
","
","230.39999985694885","<img style='border: 4px solid darkgrey;' src='img/tf1_56_M_ss1.jpeg'></img>","2","","exp","","0","<img src='img/tf1_56_T1_ss1_md.jpeg'></img>","0","true",""
"","html-keyboard-response","127","481177","0.0-10.0-0.56","120","""event"",""trial"",""time""
""fullscreenenter"",""0"",""2869""
","
","
","""event"",""trial"",""time""
""fullscreenenter"",""0"",""2869""
","
","null","<div style=""font-size:60px;"">+</div>","","null","fixation","2021-06-22 21:01:59.069","","","","",""
"","mars-trial","128","481902","0.0-10.0-1.56","120","""event"",""trial"",""time""
""fullscreenenter"",""0"",""2869""
","
","
","""event"",""trial"",""time""
""fullscreenenter"",""0"",""2869""
","
","121.5","<img style='border: 4px solid darkgrey;' src='img/tf1_57_M_ss2.jpeg'></img>","1","","exp","","1","<img src='img/tf1_57_T1_ss2_md.jpeg'></img>","0","false",""
"","html-keyboard-response","129","482405","0.0-10.0-0.57","120","""event"",""trial"",""time""
""fullscreenenter"",""0"",""2869""
","
","
","""event"",""trial"",""time""
""fullscreenenter"",""0"",""2869""
","
","null","<div style=""font-size:60px;"">+</div>","","null","fixation","2021-06-22 21:02:00.297","","","","",""
"","mars-trial","130","484130","0.0-10.0-1.57","120","""event"",""trial"",""time""
""fullscreenenter"",""0"",""2869""
","
","
","""event"",""trial"",""time""
""fullscreenenter"",""0"",""2869""
","
","1116.7999999523163","<img style='border: 4px solid darkgrey;' src='img/tf1_58_M_ss3.jpeg'></img>","2","","exp","","0","<img src='img/tf1_58_T1_ss3_md.jpeg'></img>","0","true",""
"","html-keyboard-response","131","484633","0.0-10.0-0.58","120","""event"",""trial"",""time""
""fullscreenenter"",""0"",""2869""
","
","
","""event"",""trial"",""time""
""fullscreenenter"",""0"",""2869""
","
","null","<div style=""font-size:60px;"">+</div>","","null","fixation","2021-06-22 21:02:02.525","","","","",""
"","mars-trial","132","485468","0.0-10.0-1.58","120","""event"",""trial"",""time""
""fullscreenenter"",""0"",""2869""
","
","
","""event"",""trial"",""time""
""fullscreenenter"",""0"",""2869""
","
","228.20000004768372","<img style='border: 4px solid darkgrey;' src='img/tf1_59_M_ss1.jpeg'></img>","2","","exp","","1","<img src='img/tf1_59_T1_ss1_md.jpeg'></img>","0","false",""
"","html-keyboard-response","133","485970","0.0-10.0-0.59","120","""event"",""trial"",""time""
""fullscreenenter"",""0"",""2869""
","
","
","""event"",""trial"",""time""
""fullscreenenter"",""0"",""2869""
","
","null","<div style=""font-size:60px;"">+</div>","","null","fixation","2021-06-22 21:02:03.863","","","","",""
"","mars-trial","134","486799","0.0-10.0-1.59","120","""event"",""trial"",""time""
""fullscreenenter"",""0"",""2869""
","
","
","""event"",""trial"",""time""
""fullscreenenter"",""0"",""2869""
","
","222.09999990463257","<img style='border: 4px solid darkgrey;' src='img/tf1_60_M_ss2.jpeg'></img>","1","","exp","","0","<img src='img/tf1_60_T1_ss2_md.jpeg'></img>","0","true",""
"","html-keyboard-response","135","487302","0.0-10.0-0.60","120","""event"",""trial"",""time""
""fullscreenenter"",""0"",""2869""
","
","
","""event"",""trial"",""time""
""fullscreenenter"",""0"",""2869""
","
","null","<div style=""font-size:60px;"">+</div>","","null","fixation","2021-06-22 21:02:05.194","","","","",""
"","mars-trial","136","488234","0.0-10.0-1.60","120","""event"",""trial"",""time""
""fullscreenenter"",""0"",""2869""
","
","
","""event"",""trial"",""time""
""fullscreenenter"",""0"",""2869""
","
","324.69999980926514","<img style='border: 4px solid darkgrey;' src='img/tf1_61_M_ss3.jpeg'></img>","3","","exp","","1","<img src='img/tf1_61_T1_ss3_md.jpeg'></img>","0","false",""
"","html-keyboard-response","137","488736","0.0-10.0-0.61","120","""event"",""trial"",""time""
""fullscreenenter"",""0"",""2869""
","
","
","""event"",""trial"",""time""
""fullscreenenter"",""0"",""2869""
","
","null","<div style=""font-size:60px;"">+</div>","","null","fixation","2021-06-22 21:02:06.628","","","","",""
"","mars-trial","138","490134","0.0-10.0-1.61","120","""event"",""trial"",""time""
""fullscreenenter"",""0"",""2869""
","
","
","""event"",""trial"",""time""
""fullscreenenter"",""0"",""2869""
","
","792.5","<img style='border: 4px solid darkgrey;' src='img/tf1_62_M_ss1.jpeg'></img>","1","","exp","","3","<img src='img/tf1_62_T1_ss1_md.jpeg'></img>","0","false",""
"","html-keyboard-response","139","490635","0.0-10.0-0.62","120","""event"",""trial"",""time""
""fullscreenenter"",""0"",""2869""
","
","
","""event"",""trial"",""time""
""fullscreenenter"",""0"",""2869""
","
","null","<div style=""font-size:60px;"">+</div>","","null","fixation","2021-06-22 21:02:08.527","","","","",""
"","mars-trial","140","491620","0.0-10.0-1.62","120","""event"",""trial"",""time""
""fullscreenenter"",""0"",""2869""
","
","
","""event"",""trial"",""time""
""fullscreenenter"",""0"",""2869""
","
","378.69999980926514","<img style='border: 4px solid darkgrey;' src='img/tf1_63_M_ss2.jpeg'></img>","0","","exp","","1","<img src='img/tf1_63_T1_ss2_md.jpeg'></img>","0","false",""
"","html-keyboard-response","141","492122","0.0-10.0-0.63","120","""event"",""trial"",""time""
""fullscreenenter"",""0"",""2869""
","
","
","""event"",""trial"",""time""
""fullscreenenter"",""0"",""2869""
","
","null","<div style=""font-size:60px;"">+</div>","","null","fixation","2021-06-22 21:02:10.015","","","","",""
"","mars-trial","142","493115","0.0-10.0-1.63","120","""event"",""trial"",""time""
""fullscreenenter"",""0"",""2869""
","
","
","""event"",""trial"",""time""
""fullscreenenter"",""0"",""2869""
","
","384.30000019073486","<img style='border: 4px solid darkgrey;' src='img/tf1_64_M_ss3.jpeg'></img>","3","","exp","","3","<img src='img/tf1_64_T1_ss3_md.jpeg'></img>","0","false",""
"","html-keyboard-response","143","493617","0.0-10.0-0.64","120","""event"",""trial"",""time""
""fullscreenenter"",""0"",""2869""
","
","
","""event"",""trial"",""time""
""fullscreenenter"",""0"",""2869""
","
","null","<div style=""font-size:60px;"">+</div>","","null","fixation","2021-06-22 21:02:11.510","","","","",""
"","mars-trial","144","494304","0.0-10.0-1.64","120","""event"",""trial"",""time""
""fullscreenenter"",""0"",""2869""
","
","
","""event"",""trial"",""time""
""fullscreenenter"",""0"",""2869""
","
","80.19999980926514","<img style='border: 4px solid darkgrey;' src='img/tf1_65_M_ss1.jpeg'></img>","2","","exp","","0","<img src='img/tf1_65_T1_ss1_md.jpeg'></img>","0","true",""
"","html-keyboard-response","145","494805","0.0-10.0-0.65","120","""event"",""trial"",""time""
""fullscreenenter"",""0"",""2869""
","
","
","""event"",""trial"",""time""
""fullscreenenter"",""0"",""2869""
","
","null","<div style=""font-size:60px;"">+</div>","","null","fixation","2021-06-22 21:02:12.697","","","","",""
"","mars-trial","146","495590","0.0-10.0-1.65","120","""event"",""trial"",""time""
""fullscreenenter"",""0"",""2869""
","
","
","""event"",""trial"",""time""
""fullscreenenter"",""0"",""2869""
","
","179.70000004768372","<img style='border: 4px solid darkgrey;' src='img/tf1_66_M_ss2.jpeg'></img>","1","","exp","","0","<img src='img/tf1_66_T1_ss2_md.jpeg'></img>","0","true",""
"","html-keyboard-response","147","496093","0.0-10.0-0.66","120","""event"",""trial"",""time""
""fullscreenenter"",""0"",""2869""
","
","
","""event"",""trial"",""time""
""fullscreenenter"",""0"",""2869""
","
","null","<div style=""font-size:60px;"">+</div>","","null","fixation","2021-06-22 21:02:13.986","","","","",""
"","mars-trial","148","497056","0.0-10.0-1.66","120","""event"",""trial"",""time""
""fullscreenenter"",""0"",""2869""
","
","
","""event"",""trial"",""time""
""fullscreenenter"",""0"",""2869""
","
","354.40000009536743","<img style='border: 4px solid darkgrey;' src='img/tf1_67_M_ss3.jpeg'></img>","0","","exp","","3","<img src='img/tf1_67_T1_ss3_md.jpeg'></img>","0","false",""
"","html-keyboard-response","149","497558","0.0-10.0-0.67","120","""event"",""trial"",""time""
""fullscreenenter"",""0"",""2869""
","
","
","""event"",""trial"",""time""
""fullscreenenter"",""0"",""2869""
","
","null","<div style=""font-size:60px;"">+</div>","","null","fixation","2021-06-22 21:02:15.450","","","","",""
"","mars-trial","150","498306","0.0-10.0-1.67","120","""event"",""trial"",""time""
""fullscreenenter"",""0"",""2869""
","
","
","""event"",""trial"",""time""
""fullscreenenter"",""0"",""2869""
","
","125.89999985694885","<img style='border: 4px solid darkgrey;' src='img/tf1_68_M_ss1.jpeg'></img>","2","","exp","","0","<img src='img/tf1_68_T1_ss1_md.jpeg'></img>","0","true",""
"","html-keyboard-response","151","498808","0.0-10.0-0.68","120","""event"",""trial"",""time""
""fullscreenenter"",""0"",""2869""
","
","
","""event"",""trial"",""time""
""fullscreenenter"",""0"",""2869""
","
","null","<div style=""font-size:60px;"">+</div>","","null","fixation","2021-06-22 21:02:16.700","","","","",""
"","mars-trial","152","506239","0.0-10.0-1.68","120","""event"",""trial"",""time""
""fullscreenenter"",""0"",""2869""
","
","
","""event"",""trial"",""time""
""fullscreenenter"",""0"",""2869""
","
","6824.700000047684","<img style='border: 4px solid darkgrey;' src='img/tf1_69_M_ss2.jpeg'></img>","1","","exp","","0","<img src='img/tf1_69_T1_ss2_md.jpeg'></img>","0","true",""
"","html-keyboard-response","153","506742","0.0-10.0-0.69","120","""event"",""trial"",""time""
""fullscreenenter"",""0"",""2869""
","
","
","""event"",""trial"",""time""
""fullscreenenter"",""0"",""2869""
","
","null","<div style=""font-size:60px;"">+</div>","","null","fixation","2021-06-22 21:02:24.634","","","","",""
"","mars-trial","154","507854","0.0-10.0-1.69","120","""event"",""trial"",""time""
""fullscreenenter"",""0"",""2869""
","
","
","""event"",""trial"",""time""
""fullscreenenter"",""0"",""2869""
","
","502.60000014305115","<img style='border: 4px solid darkgrey;' src='img/tf1_70_M_ss3.jpeg'></img>","2","","exp","","1","<img src='img/tf1_70_T1_ss3_md.jpeg'></img>","0","false",""
"","html-keyboard-response","155","508357","0.0-10.0-0.70","120","""event"",""trial"",""time""
""fullscreenenter"",""0"",""2869""
","
","
","""event"",""trial"",""time""
""fullscreenenter"",""0"",""2869""
","
","null","<div style=""font-size:60px;"">+</div>","","null","fixation","2021-06-22 21:02:26.249","","","","",""
"","mars-trial","156","509051","0.0-10.0-1.70","120","""event"",""trial"",""time""
""fullscreenenter"",""0"",""2869""
","
","
","""event"",""trial"",""time""
""fullscreenenter"",""0"",""2869""
","
","86.10000014305115","<img style='border: 4px solid darkgrey;' src='img/tf1_71_M_ss1.jpeg'></img>","1","","exp","","2","<img src='img/tf1_71_T1_ss1_md.jpeg'></img>","0","false",""
"","html-keyboard-response","157","509555","0.0-10.0-0.71","120","""event"",""trial"",""time""
""fullscreenenter"",""0"",""2869""
","
","
","""event"",""trial"",""time""
""fullscreenenter"",""0"",""2869""
","
","null","<div style=""font-size:60px;"">+</div>","","null","fixation","2021-06-22 21:02:27.448","","","","",""
"","mars-trial","158","510803","0.0-10.0-1.71","120","""event"",""trial"",""time""
""fullscreenenter"",""0"",""2869""
","
","
","""event"",""trial"",""time""
""fullscreenenter"",""0"",""2869""
","
","640.1999998092651","<img style='border: 4px solid darkgrey;' src='img/tf1_72_M_ss2.jpeg'></img>","0","","exp","","2","<img src='img/tf1_72_T1_ss2_md.jpeg'></img>","0","false",""
"","html-keyboard-response","159","511306","0.0-10.0-0.72","120","""event"",""trial"",""time""
""fullscreenenter"",""0"",""2869""
","
","
","""event"",""trial"",""time""
""fullscreenenter"",""0"",""2869""
","
","null","<div style=""font-size:60px;"">+</div>","","null","fixation","2021-06-22 21:02:29.198","","","","",""
"","mars-trial","160","525584","0.0-10.0-1.72","120","""event"",""trial"",""time""
""fullscreenenter"",""0"",""2869""
","
","
","""event"",""trial"",""time""
""fullscreenenter"",""0"",""2869""
","
","13669.900000095367","<img style='border: 4px solid darkgrey;' src='img/tf1_73_M_ss3.jpeg'></img>","2","","exp","","1","<img src='img/tf1_73_T1_ss3_md.jpeg'></img>","0","false",""
"","html-keyboard-response","161","526095","0.0-10.0-0.73","120","""event"",""trial"",""time""
""fullscreenenter"",""0"",""2869""
","
","
","""event"",""trial"",""time""
""fullscreenenter"",""0"",""2869""
","
","null","<div style=""font-size:60px;"">+</div>","","null","fixation","2021-06-22 21:02:43.987","","","","",""
"","mars-trial","162","528467","0.0-10.0-1.73","120","""event"",""trial"",""time""
""fullscreenenter"",""0"",""2869""
","
","
","""event"",""trial"",""time""
""fullscreenenter"",""0"",""2869""
","
","1756.6999998092651","<img style='border: 4px solid darkgrey;' src='img/tf1_74_M_ss1.jpeg'></img>","3","","exp","","1","<img src='img/tf1_74_T1_ss1_md.jpeg'></img>","0","false",""
"","html-keyboard-response","163","528971","0.0-10.0-0.74","120","""event"",""trial"",""time""
""fullscreenenter"",""0"",""2869""
","
","
","""event"",""trial"",""time""
""fullscreenenter"",""0"",""2869""
","
","null","<div style=""font-size:60px;"">+</div>","","null","fixation","2021-06-22 21:02:46.863","","","","",""
"","mars-trial","164","530103","0.0-10.0-1.74","120","""event"",""trial"",""time""
""fullscreenenter"",""0"",""2869""
","
","
","""event"",""trial"",""time""
""fullscreenenter"",""0"",""2869""
","
","524.2000000476837","<img style='border: 4px solid darkgrey;' src='img/tf1_75_M_ss2.jpeg'></img>","1","","exp","","1","<img src='img/tf1_75_T1_ss2_md.jpeg'></img>","0","false",""
"","html-keyboard-response","165","530605","0.0-10.0-0.75","120","""event"",""trial"",""time""
""fullscreenenter"",""0"",""2869""
","
","
","""event"",""trial"",""time""
""fullscreenenter"",""0"",""2869""
","
","null","<div style=""font-size:60px;"">+</div>","","null","fixation","2021-06-22 21:02:48.498","","","","",""
"","mars-trial","166","532440","0.0-10.0-1.75","120","""event"",""trial"",""time""
""fullscreenenter"",""0"",""2869""
","
","
","""event"",""trial"",""time""
""fullscreenenter"",""0"",""2869""
","
","1225.4000000953674","<img style='border: 4px solid darkgrey;' src='img/tf1_76_M_ss3.jpeg'></img>","2","","exp","","1","<img src='img/tf1_76_T1_ss3_md.jpeg'></img>","0","false",""
"","html-keyboard-response","167","532942","0.0-10.0-0.76","120","""event"",""trial"",""time""
""fullscreenenter"",""0"",""2869""
","
","
","""event"",""trial"",""time""
""fullscreenenter"",""0"",""2869""
","
","null","<div style=""font-size:60px;"">+</div>","","null","fixation","2021-06-22 21:02:50.835","","","","",""
"","mars-trial","168","534539","0.0-10.0-1.76","120","""event"",""trial"",""time""
""fullscreenenter"",""0"",""2869""
","
","
","""event"",""trial"",""time""
""fullscreenenter"",""0"",""2869""
","
","989.2999999523163","<img style='border: 4px solid darkgrey;' src='img/tf1_77_M_ss1.jpeg'></img>","0","","exp","","3","<img src='img/tf1_77_T1_ss1_md.jpeg'></img>","0","false",""
"","html-keyboard-response","169","535042","0.0-10.0-0.77","120","""event"",""trial"",""time""
""fullscreenenter"",""0"",""2869""
","
","
","""event"",""trial"",""time""
""fullscreenenter"",""0"",""2869""
","
","null","<div style=""font-size:60px;"">+</div>","","null","fixation","2021-06-22 21:02:52.935","","","","",""
"","mars-trial","170","535818","0.0-10.0-1.77","120","""event"",""trial"",""time""
""fullscreenenter"",""0"",""2869""
","
","
","""event"",""trial"",""time""
""fullscreenenter"",""0"",""2869""
","
","168.70000004768372","<img style='border: 4px solid darkgrey;' src='img/tf1_78_M_ss2.jpeg'></img>","2","","exp","","0","<img src='img/tf1_78_T1_ss2_md.jpeg'></img>","0","true",""
"","html-keyboard-response","171","536320","0.0-10.0-0.78","120","""event"",""trial"",""time""
""fullscreenenter"",""0"",""2869""
","
","
","""event"",""trial"",""time""
""fullscreenenter"",""0"",""2869""
","
","null","<div style=""font-size:60px;"">+</div>","","null","fixation","2021-06-22 21:02:54.212","","","","",""
"","mars-trial","172","537684","0.0-10.0-1.78","120","""event"",""trial"",""time""
""fullscreenenter"",""0"",""2869""
","
","
","""event"",""trial"",""time""
""fullscreenenter"",""0"",""2869""
","
","755.7999999523163","<img style='border: 4px solid darkgrey;' src='img/tf1_79_M_ss3.jpeg'></img>","1","","exp","","0","<img src='img/tf1_79_T1_ss3_md.jpeg'></img>","0","true",""
"","html-keyboard-response","173","538186","0.0-10.0-0.79","120","""event"",""trial"",""time""
""fullscreenenter"",""0"",""2869""
","
","
","""event"",""trial"",""time""
""fullscreenenter"",""0"",""2869""
","
","null","<div style=""font-size:60px;"">+</div>","","null","fixation","2021-06-22 21:02:56.078","","","","",""
"","mars-trial","174","539731","0.0-10.0-1.79","120","""event"",""trial"",""time""
""fullscreenenter"",""0"",""2869""
","
","
","""event"",""trial"",""time""
""fullscreenenter"",""0"",""2869""
","
","936.1000001430511","<img style='border: 4px solid darkgrey;' src='img/tf1_80_M_ss1.jpeg'></img>","3","","exp","","1","<img src='img/tf1_80_T1_ss1_md.jpeg'></img>","0","false",""
"","audio-button-response","175","543885","0.0-11.0","120","""event"",""trial"",""time""
""fullscreenenter"",""0"",""2869""
","
","
","""event"",""trial"",""time""
""fullscreenenter"",""0"",""2869""
","
","4152.399999856949","audio/mars_instructions_slide5.wav","0","","","","","","","",""
