"success","trial_type","trial_index","time_elapsed","internal_node_id","subject_id","interactions","blur_events","focus_events","fullscreenenter_events","fullscreenexit_events","rt","stimulus","button_pressed","key_press","part","timestamp","unshuffled_button","correct_response","correct_button","correct","value"
"true","fullscreen","0","13980","0.0-0.0","A198","""event"",""trial"",""time""
""fullscreenenter"",""0"",""12993""
","
","
","""event"",""trial"",""time""
""fullscreenenter"",""0"",""12993""
","
","","","","","","","","","","",""
"","pavlovia","1","13985","0.0-1.0","A198","""event"",""trial"",""time""
""fullscreenenter"",""0"",""12993""
","
","
","""event"",""trial"",""time""
""fullscreenenter"",""0"",""12993""
","
","","","","","","","","","","",""
"","html-button-response","2","15362","0.0-2.0","A198","""event"",""trial"",""time""
""fullscreenenter"",""0"",""12993""
""blur"",""3"",""622694""
""focus"",""3"",""10146120""
","""event"",""trial"",""time""
""blur"",""3"",""622694""
","""event"",""trial"",""time""
""focus"",""3"",""10146120""
","""event"",""trial"",""time""
""fullscreenenter"",""0"",""12993""
","
","1375.8600000292063","<p>Welcome! Press START to begin.</p><br>","0","","","","","","","",""
"","audio-button-response","3","10147930","0.0-3.0","A198","""event"",""trial"",""time""
""fullscreenenter"",""0"",""12993""
""blur"",""3"",""622694""
""focus"",""3"",""10146120""
","""event"",""trial"",""time""
""blur"",""3"",""622694""
","""event"",""trial"",""time""
""focus"",""3"",""10146120""
","""event"",""trial"",""time""
""fullscreenenter"",""0"",""12993""
","
","10132565.460000072","audio/mars_instructions_slide2.wav","0","","","","","","","",""
"","audio-button-response","4","10166908","0.0-4.0","A198","""event"",""trial"",""time""
""fullscreenenter"",""0"",""12993""
""blur"",""3"",""622694""
""focus"",""3"",""10146120""
","""event"",""trial"",""time""
""blur"",""3"",""622694""
","""event"",""trial"",""time""
""focus"",""3"",""10146120""
","""event"",""trial"",""time""
""fullscreenenter"",""0"",""12993""
","
","18976.705000037327","audio/mars_instructions_slide3.wav","0","","","","","","","",""
"","html-keyboard-response","5","10167418","0.0-5.0-0.0","A198","""event"",""trial"",""time""
""fullscreenenter"",""0"",""12993""
""blur"",""3"",""622694""
""focus"",""3"",""10146120""
","""event"",""trial"",""time""
""blur"",""3"",""622694""
","""event"",""trial"",""time""
""focus"",""3"",""10146120""
","""event"",""trial"",""time""
""fullscreenenter"",""0"",""12993""
","
","null","<div style=""font-size:60px;"">+</div>","","null","fixation","2021-04-07 00:04:19.966","","","","",""
"","mars-trial","6","10175142","0.0-5.0-1.0","A198","""event"",""trial"",""time""
""fullscreenenter"",""0"",""12993""
""blur"",""3"",""622694""
""focus"",""3"",""10146120""
","""event"",""trial"",""time""
""blur"",""3"",""622694""
","""event"",""trial"",""time""
""focus"",""3"",""10146120""
","""event"",""trial"",""time""
""fullscreenenter"",""0"",""12993""
","
","5610.815000019968","<img style='border: 4px solid darkgrey;' src='practice/pt1_M1.png'></img>","0","","practice","","0","<img src='practice/pt1_T1.png'></img>","0","true",""
"","html-keyboard-response","7","10175654","0.0-6.0-0.0","A198","""event"",""trial"",""time""
""fullscreenenter"",""0"",""12993""
""blur"",""3"",""622694""
""focus"",""3"",""10146120""
","""event"",""trial"",""time""
""blur"",""3"",""622694""
","""event"",""trial"",""time""
""focus"",""3"",""10146120""
","""event"",""trial"",""time""
""fullscreenenter"",""0"",""12993""
","
","null","<div style=""font-size:60px;"">+</div>","","null","fixation","2021-04-07 00:04:28.203","","","","",""
"","mars-trial","8","10180067","0.0-6.0-1.0","A198","""event"",""trial"",""time""
""fullscreenenter"",""0"",""12993""
""blur"",""3"",""622694""
""focus"",""3"",""10146120""
","""event"",""trial"",""time""
""blur"",""3"",""622694""
","""event"",""trial"",""time""
""focus"",""3"",""10146120""
","""event"",""trial"",""time""
""fullscreenenter"",""0"",""12993""
","
","2287.9200000315905","<img style='border: 4px solid darkgrey;' src='practice/pt2_M1.png'></img>","2","","practice","","0","<img src='practice/pt2_T1.png'></img>","0","true",""
"","html-keyboard-response","9","10180580","0.0-7.0-0.0","A198","""event"",""trial"",""time""
""fullscreenenter"",""0"",""12993""
""blur"",""3"",""622694""
""focus"",""3"",""10146120""
","""event"",""trial"",""time""
""blur"",""3"",""622694""
","""event"",""trial"",""time""
""focus"",""3"",""10146120""
","""event"",""trial"",""time""
""fullscreenenter"",""0"",""12993""
","
","null","<div style=""font-size:60px;"">+</div>","","null","fixation","2021-04-07 00:04:33.128","","","","",""
"","mars-trial","10","10185413","0.0-7.0-1.0","A198","""event"",""trial"",""time""
""fullscreenenter"",""0"",""12993""
""blur"",""3"",""622694""
""focus"",""3"",""10146120""
","""event"",""trial"",""time""
""blur"",""3"",""622694""
","""event"",""trial"",""time""
""focus"",""3"",""10146120""
","""event"",""trial"",""time""
""fullscreenenter"",""0"",""12993""
","
","2708.134999964386","<img style='border: 4px solid darkgrey;' src='practice/pt3_M1.png'></img>","0","","practice","","0","<img src='practice/pt3_T1.png'></img>","0","true",""
"","audio-button-response","11","10199732","0.0-8.0","A198","""event"",""trial"",""time""
""fullscreenenter"",""0"",""12993""
""blur"",""3"",""622694""
""focus"",""3"",""10146120""
","""event"",""trial"",""time""
""blur"",""3"",""622694""
","""event"",""trial"",""time""
""focus"",""3"",""10146120""
","""event"",""trial"",""time""
""fullscreenenter"",""0"",""12993""
","
","14317.44000001438","audio/mars_instructions_slide4.wav","0","","","","","","","",""
"","call-function","12","10199732","0.0-9.0","A198","""event"",""trial"",""time""
""fullscreenenter"",""0"",""12993""
""blur"",""3"",""622694""
""focus"",""3"",""10146120""
","""event"",""trial"",""time""
""blur"",""3"",""622694""
","""event"",""trial"",""time""
""focus"",""3"",""10146120""
","""event"",""trial"",""time""
""fullscreenenter"",""0"",""12993""
","
","","","","","","","","","","",""
"","html-keyboard-response","13","10200239","0.0-10.0-0.0","A198","""event"",""trial"",""time""
""fullscreenenter"",""0"",""12993""
""blur"",""3"",""622694""
""focus"",""3"",""10146120""
","""event"",""trial"",""time""
""blur"",""3"",""622694""
","""event"",""trial"",""time""
""focus"",""3"",""10146120""
","""event"",""trial"",""time""
""fullscreenenter"",""0"",""12993""
","
","null","<div style=""font-size:60px;"">+</div>","","null","fixation","2021-04-07 00:04:52.787","","","","",""
"","mars-trial","14","10202619","0.0-10.0-1.0","A198","""event"",""trial"",""time""
""fullscreenenter"",""0"",""12993""
""blur"",""3"",""622694""
""focus"",""3"",""10146120""
","""event"",""trial"",""time""
""blur"",""3"",""622694""
","""event"",""trial"",""time""
""focus"",""3"",""10146120""
","""event"",""trial"",""time""
""fullscreenenter"",""0"",""12993""
","
","1758.9450000096112","<img style='border: 4px solid darkgrey;' src='img/tf1_1_M_ss3.jpeg'></img>","0","","exp","","0","<img src='img/tf1_1_T1_ss3_md.jpeg'></img>","0","true",""
"","html-keyboard-response","15","10203132","0.0-10.0-0.1","A198","""event"",""trial"",""time""
""fullscreenenter"",""0"",""12993""
""blur"",""3"",""622694""
""focus"",""3"",""10146120""
","""event"",""trial"",""time""
""blur"",""3"",""622694""
","""event"",""trial"",""time""
""focus"",""3"",""10146120""
","""event"",""trial"",""time""
""fullscreenenter"",""0"",""12993""
","
","null","<div style=""font-size:60px;"">+</div>","","null","fixation","2021-04-07 00:04:55.681","","","","",""
"","mars-trial","16","10208068","0.0-10.0-1.1","A198","""event"",""trial"",""time""
""fullscreenenter"",""0"",""12993""
""blur"",""3"",""622694""
""focus"",""3"",""10146120""
","""event"",""trial"",""time""
""blur"",""3"",""622694""
","""event"",""trial"",""time""
""focus"",""3"",""10146120""
","""event"",""trial"",""time""
""fullscreenenter"",""0"",""12993""
","
","4323.0449999682605","<img style='border: 4px solid darkgrey;' src='img/tf1_2_M_ss1.jpeg'></img>","3","","exp","","0","<img src='img/tf1_2_T1_ss1_md.jpeg'></img>","0","true",""
"","html-keyboard-response","17","10208579","0.0-10.0-0.2","A198","""event"",""trial"",""time""
""fullscreenenter"",""0"",""12993""
""blur"",""3"",""622694""
""focus"",""3"",""10146120""
","""event"",""trial"",""time""
""blur"",""3"",""622694""
","""event"",""trial"",""time""
""focus"",""3"",""10146120""
","""event"",""trial"",""time""
""fullscreenenter"",""0"",""12993""
","
","null","<div style=""font-size:60px;"">+</div>","","null","fixation","2021-04-07 00:05:01.127","","","","",""
"","mars-trial","18","10212614","0.0-10.0-1.2","A198","""event"",""trial"",""time""
""fullscreenenter"",""0"",""12993""
""blur"",""3"",""622694""
""focus"",""3"",""10146120""
","""event"",""trial"",""time""
""blur"",""3"",""622694""
","""event"",""trial"",""time""
""focus"",""3"",""10146120""
","""event"",""trial"",""time""
""fullscreenenter"",""0"",""12993""
","
","3423.2550000324845","<img style='border: 4px solid darkgrey;' src='img/tf1_3_M_ss2.jpeg'></img>","1","","exp","","0","<img src='img/tf1_3_T1_ss2_md.jpeg'></img>","0","true",""
"","html-keyboard-response","19","10213127","0.0-10.0-0.3","A198","""event"",""trial"",""time""
""fullscreenenter"",""0"",""12993""
""blur"",""3"",""622694""
""focus"",""3"",""10146120""
","""event"",""trial"",""time""
""blur"",""3"",""622694""
","""event"",""trial"",""time""
""focus"",""3"",""10146120""
","""event"",""trial"",""time""
""fullscreenenter"",""0"",""12993""
","
","null","<div style=""font-size:60px;"">+</div>","","null","fixation","2021-04-07 00:05:05.675","","","","",""
"","mars-trial","20","10220477","0.0-10.0-1.3","A198","""event"",""trial"",""time""
""fullscreenenter"",""0"",""12993""
""blur"",""3"",""622694""
""focus"",""3"",""10146120""
","""event"",""trial"",""time""
""blur"",""3"",""622694""
","""event"",""trial"",""time""
""focus"",""3"",""10146120""
","""event"",""trial"",""time""
""fullscreenenter"",""0"",""12993""
","
","6746.490000048652","<img style='border: 4px solid darkgrey;' src='img/tf1_4_M_ss3.jpeg'></img>","0","","exp","","0","<img src='img/tf1_4_T1_ss3_md.jpeg'></img>","0","true",""
"","html-keyboard-response","21","10220979","0.0-10.0-0.4","A198","""event"",""trial"",""time""
""fullscreenenter"",""0"",""12993""
""blur"",""3"",""622694""
""focus"",""3"",""10146120""
","""event"",""trial"",""time""
""blur"",""3"",""622694""
","""event"",""trial"",""time""
""focus"",""3"",""10146120""
","""event"",""trial"",""time""
""fullscreenenter"",""0"",""12993""
","
","null","<div style=""font-size:60px;"">+</div>","","null","fixation","2021-04-07 00:05:13.527","","","","",""
"","mars-trial","22","10225766","0.0-10.0-1.4","A198","""event"",""trial"",""time""
""fullscreenenter"",""0"",""12993""
""blur"",""3"",""622694""
""focus"",""3"",""10146120""
","""event"",""trial"",""time""
""blur"",""3"",""622694""
","""event"",""trial"",""time""
""focus"",""3"",""10146120""
","""event"",""trial"",""time""
""fullscreenenter"",""0"",""12993""
","
","4183.259999962524","<img style='border: 4px solid darkgrey;' src='img/tf1_5_M_ss1.jpeg'></img>","2","","exp","","0","<img src='img/tf1_5_T1_ss1_md.jpeg'></img>","0","true",""
"","html-keyboard-response","23","10226267","0.0-10.0-0.5","A198","""event"",""trial"",""time""
""fullscreenenter"",""0"",""12993""
""blur"",""3"",""622694""
""focus"",""3"",""10146120""
","""event"",""trial"",""time""
""blur"",""3"",""622694""
","""event"",""trial"",""time""
""focus"",""3"",""10146120""
","""event"",""trial"",""time""
""fullscreenenter"",""0"",""12993""
","
","null","<div style=""font-size:60px;"">+</div>","","null","fixation","2021-04-07 00:05:18.815","","","","",""
"","mars-trial","24","10233534","0.0-10.0-1.5","A198","""event"",""trial"",""time""
""fullscreenenter"",""0"",""12993""
""blur"",""3"",""622694""
""focus"",""3"",""10146120""
","""event"",""trial"",""time""
""blur"",""3"",""622694""
","""event"",""trial"",""time""
""focus"",""3"",""10146120""
","""event"",""trial"",""time""
""fullscreenenter"",""0"",""12993""
","
","6662.125000031665","<img style='border: 4px solid darkgrey;' src='img/tf1_6_M_ss2.jpeg'></img>","1","","exp","","0","<img src='img/tf1_6_T1_ss2_md.jpeg'></img>","0","true",""
"","html-keyboard-response","25","10234035","0.0-10.0-0.6","A198","""event"",""trial"",""time""
""fullscreenenter"",""0"",""12993""
""blur"",""3"",""622694""
""focus"",""3"",""10146120""
","""event"",""trial"",""time""
""blur"",""3"",""622694""
","""event"",""trial"",""time""
""focus"",""3"",""10146120""
","""event"",""trial"",""time""
""fullscreenenter"",""0"",""12993""
","
","null","<div style=""font-size:60px;"">+</div>","","null","fixation","2021-04-07 00:05:26.583","","","","",""
"","mars-trial","26","10240486","0.0-10.0-1.6","A198","""event"",""trial"",""time""
""fullscreenenter"",""0"",""12993""
""blur"",""3"",""622694""
""focus"",""3"",""10146120""
","""event"",""trial"",""time""
""blur"",""3"",""622694""
","""event"",""trial"",""time""
""focus"",""3"",""10146120""
","""event"",""trial"",""time""
""fullscreenenter"",""0"",""12993""
","
","5833.645000005141","<img style='border: 4px solid darkgrey;' src='img/tf1_7_M_ss3.jpeg'></img>","1","","exp","","0","<img src='img/tf1_7_T1_ss3_md.jpeg'></img>","0","true",""
"","html-keyboard-response","27","10240988","0.0-10.0-0.7","A198","""event"",""trial"",""time""
""fullscreenenter"",""0"",""12993""
""blur"",""3"",""622694""
""focus"",""3"",""10146120""
","""event"",""trial"",""time""
""blur"",""3"",""622694""
","""event"",""trial"",""time""
""focus"",""3"",""10146120""
","""event"",""trial"",""time""
""fullscreenenter"",""0"",""12993""
","
","null","<div style=""font-size:60px;"">+</div>","","null","fixation","2021-04-07 00:05:33.536","","","","",""
"","mars-trial","28","10248732","0.0-10.0-1.7","A198","""event"",""trial"",""time""
""fullscreenenter"",""0"",""12993""
""blur"",""3"",""622694""
""focus"",""3"",""10146120""
","""event"",""trial"",""time""
""blur"",""3"",""622694""
","""event"",""trial"",""time""
""focus"",""3"",""10146120""
","""event"",""trial"",""time""
""fullscreenenter"",""0"",""12993""
","
","7137.6600000076","<img style='border: 4px solid darkgrey;' src='img/tf1_8_M_ss1.jpeg'></img>","2","","exp","","0","<img src='img/tf1_8_T1_ss1_md.jpeg'></img>","0","true",""
"","html-keyboard-response","29","10249239","0.0-10.0-0.8","A198","""event"",""trial"",""time""
""fullscreenenter"",""0"",""12993""
""blur"",""3"",""622694""
""focus"",""3"",""10146120""
","""event"",""trial"",""time""
""blur"",""3"",""622694""
","""event"",""trial"",""time""
""focus"",""3"",""10146120""
","""event"",""trial"",""time""
""fullscreenenter"",""0"",""12993""
","
","null","<div style=""font-size:60px;"">+</div>","","null","fixation","2021-04-07 00:05:41.787","","","","",""
"","mars-trial","30","10255675","0.0-10.0-1.8","A198","""event"",""trial"",""time""
""fullscreenenter"",""0"",""12993""
""blur"",""3"",""622694""
""focus"",""3"",""10146120""
","""event"",""trial"",""time""
""blur"",""3"",""622694""
","""event"",""trial"",""time""
""focus"",""3"",""10146120""
","""event"",""trial"",""time""
""fullscreenenter"",""0"",""12993""
","
","5832.270000014454","<img style='border: 4px solid darkgrey;' src='img/tf1_9_M_ss2.jpeg'></img>","3","","exp","","0","<img src='img/tf1_9_T1_ss2_md.jpeg'></img>","0","true",""
"","html-keyboard-response","31","10256177","0.0-10.0-0.9","A198","""event"",""trial"",""time""
""fullscreenenter"",""0"",""12993""
""blur"",""3"",""622694""
""focus"",""3"",""10146120""
","""event"",""trial"",""time""
""blur"",""3"",""622694""
","""event"",""trial"",""time""
""focus"",""3"",""10146120""
","""event"",""trial"",""time""
""fullscreenenter"",""0"",""12993""
","
","null","<div style=""font-size:60px;"">+</div>","","null","fixation","2021-04-07 00:05:48.725","","","","",""
"","mars-trial","32","10271242","0.0-10.0-1.9","A198","""event"",""trial"",""time""
""fullscreenenter"",""0"",""12993""
""blur"",""3"",""622694""
""focus"",""3"",""10146120""
","""event"",""trial"",""time""
""blur"",""3"",""622694""
","""event"",""trial"",""time""
""focus"",""3"",""10146120""
","""event"",""trial"",""time""
""fullscreenenter"",""0"",""12993""
","
","14460.339999988675","<img style='border: 4px solid darkgrey;' src='img/tf1_10_M_ss3.jpeg'></img>","0","","exp","","1","<img src='img/tf1_10_T1_ss3_md.jpeg'></img>","0","false",""
"","html-keyboard-response","33","10271758","0.0-10.0-0.10","A198","""event"",""trial"",""time""
""fullscreenenter"",""0"",""12993""
""blur"",""3"",""622694""
""focus"",""3"",""10146120""
","""event"",""trial"",""time""
""blur"",""3"",""622694""
","""event"",""trial"",""time""
""focus"",""3"",""10146120""
","""event"",""trial"",""time""
""fullscreenenter"",""0"",""12993""
","
","null","<div style=""font-size:60px;"">+</div>","","null","fixation","2021-04-07 00:06:04.306","","","","",""
"","mars-trial","34","10287166","0.0-10.0-1.10","A198","""event"",""trial"",""time""
""fullscreenenter"",""0"",""12993""
""blur"",""3"",""622694""
""focus"",""3"",""10146120""
","""event"",""trial"",""time""
""blur"",""3"",""622694""
","""event"",""trial"",""time""
""focus"",""3"",""10146120""
","""event"",""trial"",""time""
""fullscreenenter"",""0"",""12993""
","
","14789.740000037476","<img style='border: 4px solid darkgrey;' src='img/tf1_11_M_ss1.jpeg'></img>","2","","exp","","0","<img src='img/tf1_11_T1_ss1_md.jpeg'></img>","0","true",""
"","html-keyboard-response","35","10287669","0.0-10.0-0.11","A198","""event"",""trial"",""time""
""fullscreenenter"",""0"",""12993""
""blur"",""3"",""622694""
""focus"",""3"",""10146120""
","""event"",""trial"",""time""
""blur"",""3"",""622694""
","""event"",""trial"",""time""
""focus"",""3"",""10146120""
","""event"",""trial"",""time""
""fullscreenenter"",""0"",""12993""
","
","null","<div style=""font-size:60px;"">+</div>","","null","fixation","2021-04-07 00:06:20.217","","","","",""
"","mars-trial","36","10298780","0.0-10.0-1.11","A198","""event"",""trial"",""time""
""fullscreenenter"",""0"",""12993""
""blur"",""3"",""622694""
""focus"",""3"",""10146120""
","""event"",""trial"",""time""
""blur"",""3"",""622694""
","""event"",""trial"",""time""
""focus"",""3"",""10146120""
","""event"",""trial"",""time""
""fullscreenenter"",""0"",""12993""
","
","10505.02999999933","<img style='border: 4px solid darkgrey;' src='img/tf1_12_M_ss2.jpeg'></img>","2","","exp","","0","<img src='img/tf1_12_T1_ss2_md.jpeg'></img>","0","true",""
"","html-keyboard-response","37","10299281","0.0-10.0-0.12","A198","""event"",""trial"",""time""
""fullscreenenter"",""0"",""12993""
""blur"",""3"",""622694""
""focus"",""3"",""10146120""
","""event"",""trial"",""time""
""blur"",""3"",""622694""
","""event"",""trial"",""time""
""focus"",""3"",""10146120""
","""event"",""trial"",""time""
""fullscreenenter"",""0"",""12993""
","
","null","<div style=""font-size:60px;"">+</div>","","null","fixation","2021-04-07 00:06:31.829","","","","",""
"","mars-trial","38","10314807","0.0-10.0-1.12","A198","""event"",""trial"",""time""
""fullscreenenter"",""0"",""12993""
""blur"",""3"",""622694""
""focus"",""3"",""10146120""
","""event"",""trial"",""time""
""blur"",""3"",""622694""
","""event"",""trial"",""time""
""focus"",""3"",""10146120""
","""event"",""trial"",""time""
""fullscreenenter"",""0"",""12993""
","
","14921.334999963641","<img style='border: 4px solid darkgrey;' src='img/tf1_13_M_ss3.jpeg'></img>","2","","exp","","3","<img src='img/tf1_13_T1_ss3_md.jpeg'></img>","0","false",""
"","html-keyboard-response","39","10315316","0.0-10.0-0.13","A198","""event"",""trial"",""time""
""fullscreenenter"",""0"",""12993""
""blur"",""3"",""622694""
""focus"",""3"",""10146120""
","""event"",""trial"",""time""
""blur"",""3"",""622694""
","""event"",""trial"",""time""
""focus"",""3"",""10146120""
","""event"",""trial"",""time""
""fullscreenenter"",""0"",""12993""
","
","null","<div style=""font-size:60px;"">+</div>","","null","fixation","2021-04-07 00:06:47.864","","","","",""
"","mars-trial","40","10328633","0.0-10.0-1.13","A198","""event"",""trial"",""time""
""fullscreenenter"",""0"",""12993""
""blur"",""3"",""622694""
""focus"",""3"",""10146120""
","""event"",""trial"",""time""
""blur"",""3"",""622694""
","""event"",""trial"",""time""
""focus"",""3"",""10146120""
","""event"",""trial"",""time""
""fullscreenenter"",""0"",""12993""
","
","12711.95499994792","<img style='border: 4px solid darkgrey;' src='img/tf1_14_M_ss1.jpeg'></img>","1","","exp","","2","<img src='img/tf1_14_T1_ss1_md.jpeg'></img>","0","false",""
"","html-keyboard-response","41","10329140","0.0-10.0-0.14","A198","""event"",""trial"",""time""
""fullscreenenter"",""0"",""12993""
""blur"",""3"",""622694""
""focus"",""3"",""10146120""
","""event"",""trial"",""time""
""blur"",""3"",""622694""
","""event"",""trial"",""time""
""focus"",""3"",""10146120""
","""event"",""trial"",""time""
""fullscreenenter"",""0"",""12993""
","
","null","<div style=""font-size:60px;"">+</div>","","null","fixation","2021-04-07 00:07:01.688","","","","",""
"","mars-trial","42","10338266","0.0-10.0-1.14","A198","""event"",""trial"",""time""
""fullscreenenter"",""0"",""12993""
""blur"",""3"",""622694""
""focus"",""3"",""10146120""
","""event"",""trial"",""time""
""blur"",""3"",""622694""
","""event"",""trial"",""time""
""focus"",""3"",""10146120""
","""event"",""trial"",""time""
""fullscreenenter"",""0"",""12993""
","
","8520.94500011392","<img style='border: 4px solid darkgrey;' src='img/tf1_15_M_ss2.jpeg'></img>","3","","exp","","1","<img src='img/tf1_15_T1_ss2_md.jpeg'></img>","0","false",""
"","html-keyboard-response","43","10338768","0.0-10.0-0.15","A198","""event"",""trial"",""time""
""fullscreenenter"",""0"",""12993""
""blur"",""3"",""622694""
""focus"",""3"",""10146120""
","""event"",""trial"",""time""
""blur"",""3"",""622694""
","""event"",""trial"",""time""
""focus"",""3"",""10146120""
","""event"",""trial"",""time""
""fullscreenenter"",""0"",""12993""
","
","null","<div style=""font-size:60px;"">+</div>","","null","fixation","2021-04-07 00:07:11.316","","","","",""
"","mars-trial","44","10348550","0.0-10.0-1.15","A198","""event"",""trial"",""time""
""fullscreenenter"",""0"",""12993""
""blur"",""3"",""622694""
""focus"",""3"",""10146120""
","""event"",""trial"",""time""
""blur"",""3"",""622694""
","""event"",""trial"",""time""
""focus"",""3"",""10146120""
","""event"",""trial"",""time""
""fullscreenenter"",""0"",""12993""
","
","9177.204999957234","<img style='border: 4px solid darkgrey;' src='img/tf1_16_M_ss3.jpeg'></img>","2","","exp","","0","<img src='img/tf1_16_T1_ss3_md.jpeg'></img>","0","true",""
"","html-keyboard-response","45","10349052","0.0-10.0-0.16","A198","""event"",""trial"",""time""
""fullscreenenter"",""0"",""12993""
""blur"",""3"",""622694""
""focus"",""3"",""10146120""
","""event"",""trial"",""time""
""blur"",""3"",""622694""
","""event"",""trial"",""time""
""focus"",""3"",""10146120""
","""event"",""trial"",""time""
""fullscreenenter"",""0"",""12993""
","
","null","<div style=""font-size:60px;"">+</div>","","null","fixation","2021-04-07 00:07:21.600","","","","",""
"","mars-trial","46","10365970","0.0-10.0-1.16","A198","""event"",""trial"",""time""
""fullscreenenter"",""0"",""12993""
""blur"",""3"",""622694""
""focus"",""3"",""10146120""
","""event"",""trial"",""time""
""blur"",""3"",""622694""
","""event"",""trial"",""time""
""focus"",""3"",""10146120""
","""event"",""trial"",""time""
""fullscreenenter"",""0"",""12993""
","
","16312.754999961704","<img style='border: 4px solid darkgrey;' src='img/tf1_17_M_ss1.jpeg'></img>","3","","exp","","2","<img src='img/tf1_17_T1_ss1_md.jpeg'></img>","0","false",""
"","html-keyboard-response","47","10366472","0.0-10.0-0.17","A198","""event"",""trial"",""time""
""fullscreenenter"",""0"",""12993""
""blur"",""3"",""622694""
""focus"",""3"",""10146120""
","""event"",""trial"",""time""
""blur"",""3"",""622694""
","""event"",""trial"",""time""
""focus"",""3"",""10146120""
","""event"",""trial"",""time""
""fullscreenenter"",""0"",""12993""
","
","null","<div style=""font-size:60px;"">+</div>","","null","fixation","2021-04-07 00:07:39.020","","","","",""
"","mars-trial","48","10375364","0.0-10.0-1.17","A198","""event"",""trial"",""time""
""fullscreenenter"",""0"",""12993""
""blur"",""3"",""622694""
""focus"",""3"",""10146120""
","""event"",""trial"",""time""
""blur"",""3"",""622694""
","""event"",""trial"",""time""
""focus"",""3"",""10146120""
","""event"",""trial"",""time""
""fullscreenenter"",""0"",""12993""
","
","8287.309999926016","<img style='border: 4px solid darkgrey;' src='img/tf1_18_M_ss2.jpeg'></img>","2","","exp","","3","<img src='img/tf1_18_T1_ss2_md.jpeg'></img>","0","false",""
"","html-keyboard-response","49","10375867","0.0-10.0-0.18","A198","""event"",""trial"",""time""
""fullscreenenter"",""0"",""12993""
""blur"",""3"",""622694""
""focus"",""3"",""10146120""
","""event"",""trial"",""time""
""blur"",""3"",""622694""
","""event"",""trial"",""time""
""focus"",""3"",""10146120""
","""event"",""trial"",""time""
""fullscreenenter"",""0"",""12993""
","
","null","<div style=""font-size:60px;"">+</div>","","null","fixation","2021-04-07 00:07:48.415","","","","",""
"","mars-trial","50","10381828","0.0-10.0-1.18","A198","""event"",""trial"",""time""
""fullscreenenter"",""0"",""12993""
""blur"",""3"",""622694""
""focus"",""3"",""10146120""
","""event"",""trial"",""time""
""blur"",""3"",""622694""
","""event"",""trial"",""time""
""focus"",""3"",""10146120""
","""event"",""trial"",""time""
""fullscreenenter"",""0"",""12993""
","
","5356.059999903664","<img style='border: 4px solid darkgrey;' src='img/tf1_19_M_ss3.jpeg'></img>","1","","exp","","3","<img src='img/tf1_19_T1_ss3_md.jpeg'></img>","0","false",""
"","html-keyboard-response","51","10382331","0.0-10.0-0.19","A198","""event"",""trial"",""time""
""fullscreenenter"",""0"",""12993""
""blur"",""3"",""622694""
""focus"",""3"",""10146120""
","""event"",""trial"",""time""
""blur"",""3"",""622694""
","""event"",""trial"",""time""
""focus"",""3"",""10146120""
","""event"",""trial"",""time""
""fullscreenenter"",""0"",""12993""
","
","null","<div style=""font-size:60px;"">+</div>","","null","fixation","2021-04-07 00:07:54.879","","","","",""
"","mars-trial","52","10393814","0.0-10.0-1.19","A198","""event"",""trial"",""time""
""fullscreenenter"",""0"",""12993""
""blur"",""3"",""622694""
""focus"",""3"",""10146120""
","""event"",""trial"",""time""
""blur"",""3"",""622694""
","""event"",""trial"",""time""
""focus"",""3"",""10146120""
","""event"",""trial"",""time""
""fullscreenenter"",""0"",""12993""
","
","10877.229999985546","<img style='border: 4px solid darkgrey;' src='img/tf1_20_M_ss1.jpeg'></img>","1","","exp","","0","<img src='img/tf1_20_T1_ss1_md.jpeg'></img>","0","true",""
"","html-keyboard-response","53","10394317","0.0-10.0-0.20","A198","""event"",""trial"",""time""
""fullscreenenter"",""0"",""12993""
""blur"",""3"",""622694""
""focus"",""3"",""10146120""
","""event"",""trial"",""time""
""blur"",""3"",""622694""
","""event"",""trial"",""time""
""focus"",""3"",""10146120""
","""event"",""trial"",""time""
""fullscreenenter"",""0"",""12993""
","
","null","<div style=""font-size:60px;"">+</div>","","null","fixation","2021-04-07 00:08:06.865","","","","",""
"","mars-trial","54","10419793","0.0-10.0-1.20","A198","""event"",""trial"",""time""
""fullscreenenter"",""0"",""12993""
""blur"",""3"",""622694""
""focus"",""3"",""10146120""
","""event"",""trial"",""time""
""blur"",""3"",""622694""
","""event"",""trial"",""time""
""focus"",""3"",""10146120""
","""event"",""trial"",""time""
""fullscreenenter"",""0"",""12993""
","
","24872.940000031143","<img style='border: 4px solid darkgrey;' src='img/tf1_21_M_ss2.jpeg'></img>","3","","exp","","0","<img src='img/tf1_21_T1_ss2_md.jpeg'></img>","0","true",""
"","html-keyboard-response","55","10420297","0.0-10.0-0.21","A198","""event"",""trial"",""time""
""fullscreenenter"",""0"",""12993""
""blur"",""3"",""622694""
""focus"",""3"",""10146120""
","""event"",""trial"",""time""
""blur"",""3"",""622694""
","""event"",""trial"",""time""
""focus"",""3"",""10146120""
","""event"",""trial"",""time""
""fullscreenenter"",""0"",""12993""
","
","null","<div style=""font-size:60px;"">+</div>","","null","fixation","2021-04-07 00:08:32.845","","","","",""
"","mars-trial","56","10428837","0.0-10.0-1.21","A198","""event"",""trial"",""time""
""fullscreenenter"",""0"",""12993""
""blur"",""3"",""622694""
""focus"",""3"",""10146120""
","""event"",""trial"",""time""
""blur"",""3"",""622694""
","""event"",""trial"",""time""
""focus"",""3"",""10146120""
","""event"",""trial"",""time""
""fullscreenenter"",""0"",""12993""
","
","7933.560000034049","<img style='border: 4px solid darkgrey;' src='img/tf1_22_M_ss3.jpeg'></img>","1","","exp","","0","<img src='img/tf1_22_T1_ss3_md.jpeg'></img>","0","true",""
"","html-keyboard-response","57","10429339","0.0-10.0-0.22","A198","""event"",""trial"",""time""
""fullscreenenter"",""0"",""12993""
""blur"",""3"",""622694""
""focus"",""3"",""10146120""
","""event"",""trial"",""time""
""blur"",""3"",""622694""
","""event"",""trial"",""time""
""focus"",""3"",""10146120""
","""event"",""trial"",""time""
""fullscreenenter"",""0"",""12993""
","
","null","<div style=""font-size:60px;"">+</div>","","null","fixation","2021-04-07 00:08:41.887","","","","",""
"","mars-trial","58","10443085","0.0-10.0-1.22","A198","""event"",""trial"",""time""
""fullscreenenter"",""0"",""12993""
""blur"",""3"",""622694""
""focus"",""3"",""10146120""
","""event"",""trial"",""time""
""blur"",""3"",""622694""
","""event"",""trial"",""time""
""focus"",""3"",""10146120""
","""event"",""trial"",""time""
""fullscreenenter"",""0"",""12993""
","
","13142.109999898821","<img style='border: 4px solid darkgrey;' src='img/tf1_23_M_ss1.jpeg'></img>","0","","exp","","0","<img src='img/tf1_23_T1_ss1_md.jpeg'></img>","0","true",""
"","html-keyboard-response","59","10443588","0.0-10.0-0.23","A198","""event"",""trial"",""time""
""fullscreenenter"",""0"",""12993""
""blur"",""3"",""622694""
""focus"",""3"",""10146120""
","""event"",""trial"",""time""
""blur"",""3"",""622694""
","""event"",""trial"",""time""
""focus"",""3"",""10146120""
","""event"",""trial"",""time""
""fullscreenenter"",""0"",""12993""
","
","null","<div style=""font-size:60px;"">+</div>","","null","fixation","2021-04-07 00:08:56.136","","","","",""
"","mars-trial","60","10460933","0.0-10.0-1.23","A198","""event"",""trial"",""time""
""fullscreenenter"",""0"",""12993""
""blur"",""3"",""622694""
""focus"",""3"",""10146120""
","""event"",""trial"",""time""
""blur"",""3"",""622694""
","""event"",""trial"",""time""
""focus"",""3"",""10146120""
","""event"",""trial"",""time""
""fullscreenenter"",""0"",""12993""
","
","16742.25999996811","<img style='border: 4px solid darkgrey;' src='img/tf1_24_M_ss2.jpeg'></img>","1","","exp","","3","<img src='img/tf1_24_T1_ss2_md.jpeg'></img>","0","false",""
"","html-keyboard-response","61","10461434","0.0-10.0-0.24","A198","""event"",""trial"",""time""
""fullscreenenter"",""0"",""12993""
""blur"",""3"",""622694""
""focus"",""3"",""10146120""
","""event"",""trial"",""time""
""blur"",""3"",""622694""
","""event"",""trial"",""time""
""focus"",""3"",""10146120""
","""event"",""trial"",""time""
""fullscreenenter"",""0"",""12993""
","
","null","<div style=""font-size:60px;"">+</div>","","null","fixation","2021-04-07 00:09:13.982","","","","",""
"","mars-trial","62","10470619","0.0-10.0-1.24","A198","""event"",""trial"",""time""
""fullscreenenter"",""0"",""12993""
""blur"",""3"",""622694""
""focus"",""3"",""10146120""
","""event"",""trial"",""time""
""blur"",""3"",""622694""
","""event"",""trial"",""time""
""focus"",""3"",""10146120""
","""event"",""trial"",""time""
""fullscreenenter"",""0"",""12993""
","
","8579.305000022054","<img style='border: 4px solid darkgrey;' src='img/tf1_25_M_ss3.jpeg'></img>","3","","exp","","0","<img src='img/tf1_25_T1_ss3_md.jpeg'></img>","0","true",""
"","html-keyboard-response","63","10471120","0.0-10.0-0.25","A198","""event"",""trial"",""time""
""fullscreenenter"",""0"",""12993""
""blur"",""3"",""622694""
""focus"",""3"",""10146120""
","""event"",""trial"",""time""
""blur"",""3"",""622694""
","""event"",""trial"",""time""
""focus"",""3"",""10146120""
","""event"",""trial"",""time""
""fullscreenenter"",""0"",""12993""
","
","null","<div style=""font-size:60px;"">+</div>","","null","fixation","2021-04-07 00:09:23.668","","","","",""
"","mars-trial","64","10477180","0.0-10.0-1.25","A198","""event"",""trial"",""time""
""fullscreenenter"",""0"",""12993""
""blur"",""3"",""622694""
""focus"",""3"",""10146120""
","""event"",""trial"",""time""
""blur"",""3"",""622694""
","""event"",""trial"",""time""
""focus"",""3"",""10146120""
","""event"",""trial"",""time""
""fullscreenenter"",""0"",""12993""
","
","5455.765000078827","<img style='border: 4px solid darkgrey;' src='img/tf1_26_M_ss1.jpeg'></img>","2","","exp","","0","<img src='img/tf1_26_T1_ss1_md.jpeg'></img>","0","true",""
"","html-keyboard-response","65","10477682","0.0-10.0-0.26","A198","""event"",""trial"",""time""
""fullscreenenter"",""0"",""12993""
""blur"",""3"",""622694""
""focus"",""3"",""10146120""
","""event"",""trial"",""time""
""blur"",""3"",""622694""
","""event"",""trial"",""time""
""focus"",""3"",""10146120""
","""event"",""trial"",""time""
""fullscreenenter"",""0"",""12993""
","
","null","<div style=""font-size:60px;"">+</div>","","null","fixation","2021-04-07 00:09:30.230","","","","",""
"","mars-trial","66","10504027","0.0-10.0-1.26","A198","""event"",""trial"",""time""
""fullscreenenter"",""0"",""12993""
""blur"",""3"",""622694""
""focus"",""3"",""10146120""
","""event"",""trial"",""time""
""blur"",""3"",""622694""
","""event"",""trial"",""time""
""focus"",""3"",""10146120""
","""event"",""trial"",""time""
""fullscreenenter"",""0"",""12993""
","
","25739.14999992214","<img style='border: 4px solid darkgrey;' src='img/tf1_27_M_ss2.jpeg'></img>","2","","exp","","0","<img src='img/tf1_27_T1_ss2_md.jpeg'></img>","0","true",""
"","html-keyboard-response","67","10504528","0.0-10.0-0.27","A198","""event"",""trial"",""time""
""fullscreenenter"",""0"",""12993""
""blur"",""3"",""622694""
""focus"",""3"",""10146120""
","""event"",""trial"",""time""
""blur"",""3"",""622694""
","""event"",""trial"",""time""
""focus"",""3"",""10146120""
","""event"",""trial"",""time""
""fullscreenenter"",""0"",""12993""
","
","null","<div style=""font-size:60px;"">+</div>","","null","fixation","2021-04-07 00:09:57.076","","","","",""
"","mars-trial","68","10514860","0.0-10.0-1.27","A198","""event"",""trial"",""time""
""fullscreenenter"",""0"",""12993""
""blur"",""3"",""622694""
""focus"",""3"",""10146120""
","""event"",""trial"",""time""
""blur"",""3"",""622694""
","""event"",""trial"",""time""
""focus"",""3"",""10146120""
","""event"",""trial"",""time""
""fullscreenenter"",""0"",""12993""
","
","9726.74499999173","<img style='border: 4px solid darkgrey;' src='img/tf1_28_M_ss3.jpeg'></img>","1","","exp","","0","<img src='img/tf1_28_T1_ss3_md.jpeg'></img>","0","true",""
"","html-keyboard-response","69","10515361","0.0-10.0-0.28","A198","""event"",""trial"",""time""
""fullscreenenter"",""0"",""12993""
""blur"",""3"",""622694""
""focus"",""3"",""10146120""
","""event"",""trial"",""time""
""blur"",""3"",""622694""
","""event"",""trial"",""time""
""focus"",""3"",""10146120""
","""event"",""trial"",""time""
""fullscreenenter"",""0"",""12993""
","
","null","<div style=""font-size:60px;"">+</div>","","null","fixation","2021-04-07 00:10:07.909","","","","",""
"","mars-trial","70","10523725","0.0-10.0-1.28","A198","""event"",""trial"",""time""
""fullscreenenter"",""0"",""12993""
""blur"",""3"",""622694""
""focus"",""3"",""10146120""
","""event"",""trial"",""time""
""blur"",""3"",""622694""
","""event"",""trial"",""time""
""focus"",""3"",""10146120""
","""event"",""trial"",""time""
""fullscreenenter"",""0"",""12993""
","
","7758.145000087097","<img style='border: 4px solid darkgrey;' src='img/tf1_29_M_ss1.jpeg'></img>","2","","exp","","3","<img src='img/tf1_29_T1_ss1_md.jpeg'></img>","0","false",""
"","html-keyboard-response","71","10524227","0.0-10.0-0.29","A198","""event"",""trial"",""time""
""fullscreenenter"",""0"",""12993""
""blur"",""3"",""622694""
""focus"",""3"",""10146120""
","""event"",""trial"",""time""
""blur"",""3"",""622694""
","""event"",""trial"",""time""
""focus"",""3"",""10146120""
","""event"",""trial"",""time""
""fullscreenenter"",""0"",""12993""
","
","null","<div style=""font-size:60px;"">+</div>","","null","fixation","2021-04-07 00:10:16.775","","","","",""
"","mars-trial","72","10534027","0.0-10.0-1.29","A198","""event"",""trial"",""time""
""fullscreenenter"",""0"",""12993""
""blur"",""3"",""622694""
""focus"",""3"",""10146120""
","""event"",""trial"",""time""
""blur"",""3"",""622694""
","""event"",""trial"",""time""
""focus"",""3"",""10146120""
","""event"",""trial"",""time""
""fullscreenenter"",""0"",""12993""
","
","9194.040000090376","<img style='border: 4px solid darkgrey;' src='img/tf1_30_M_ss2.jpeg'></img>","2","","exp","","1","<img src='img/tf1_30_T1_ss2_md.jpeg'></img>","0","false",""
"","html-keyboard-response","73","10534528","0.0-10.0-0.30","A198","""event"",""trial"",""time""
""fullscreenenter"",""0"",""12993""
""blur"",""3"",""622694""
""focus"",""3"",""10146120""
","""event"",""trial"",""time""
""blur"",""3"",""622694""
","""event"",""trial"",""time""
""focus"",""3"",""10146120""
","""event"",""trial"",""time""
""fullscreenenter"",""0"",""12993""
","
","null","<div style=""font-size:60px;"">+</div>","","null","fixation","2021-04-07 00:10:27.076","","","","",""
"","mars-trial","74","10547517","0.0-10.0-1.30","A198","""event"",""trial"",""time""
""fullscreenenter"",""0"",""12993""
""blur"",""3"",""622694""
""focus"",""3"",""10146120""
","""event"",""trial"",""time""
""blur"",""3"",""622694""
","""event"",""trial"",""time""
""focus"",""3"",""10146120""
","""event"",""trial"",""time""
""fullscreenenter"",""0"",""12993""
","
","12384.919999981299","<img style='border: 4px solid darkgrey;' src='img/tf1_31_M_ss3.jpeg'></img>","0","","exp","","3","<img src='img/tf1_31_T1_ss3_md.jpeg'></img>","0","false",""
"","html-keyboard-response","75","10548019","0.0-10.0-0.31","A198","""event"",""trial"",""time""
""fullscreenenter"",""0"",""12993""
""blur"",""3"",""622694""
""focus"",""3"",""10146120""
","""event"",""trial"",""time""
""blur"",""3"",""622694""
","""event"",""trial"",""time""
""focus"",""3"",""10146120""
","""event"",""trial"",""time""
""fullscreenenter"",""0"",""12993""
","
","null","<div style=""font-size:60px;"">+</div>","","null","fixation","2021-04-07 00:10:40.567","","","","",""
"","mars-trial","76","10559503","0.0-10.0-1.31","A198","""event"",""trial"",""time""
""fullscreenenter"",""0"",""12993""
""blur"",""3"",""622694""
""focus"",""3"",""10146120""
","""event"",""trial"",""time""
""blur"",""3"",""622694""
","""event"",""trial"",""time""
""focus"",""3"",""10146120""
","""event"",""trial"",""time""
""fullscreenenter"",""0"",""12993""
","
","10878.720000037923","<img style='border: 4px solid darkgrey;' src='img/tf1_32_M_ss1.jpeg'></img>","1","","exp","","0","<img src='img/tf1_32_T1_ss1_md.jpeg'></img>","0","true",""
"","html-keyboard-response","77","10560005","0.0-10.0-0.32","A198","""event"",""trial"",""time""
""fullscreenenter"",""0"",""12993""
""blur"",""3"",""622694""
""focus"",""3"",""10146120""
","""event"",""trial"",""time""
""blur"",""3"",""622694""
","""event"",""trial"",""time""
""focus"",""3"",""10146120""
","""event"",""trial"",""time""
""fullscreenenter"",""0"",""12993""
","
","null","<div style=""font-size:60px;"">+</div>","","null","fixation","2021-04-07 00:10:52.553","","","","",""
"","mars-trial","78","10564318","0.0-10.0-1.32","A198","""event"",""trial"",""time""
""fullscreenenter"",""0"",""12993""
""blur"",""3"",""622694""
""focus"",""3"",""10146120""
","""event"",""trial"",""time""
""blur"",""3"",""622694""
","""event"",""trial"",""time""
""focus"",""3"",""10146120""
","""event"",""trial"",""time""
""fullscreenenter"",""0"",""12993""
","
","3709.1850000433624","<img style='border: 4px solid darkgrey;' src='img/tf1_33_M_ss2.jpeg'></img>","1","","exp","","0","<img src='img/tf1_33_T1_ss2_md.jpeg'></img>","0","true",""
"","html-keyboard-response","79","10564820","0.0-10.0-0.33","A198","""event"",""trial"",""time""
""fullscreenenter"",""0"",""12993""
""blur"",""3"",""622694""
""focus"",""3"",""10146120""
","""event"",""trial"",""time""
""blur"",""3"",""622694""
","""event"",""trial"",""time""
""focus"",""3"",""10146120""
","""event"",""trial"",""time""
""fullscreenenter"",""0"",""12993""
","
","null","<div style=""font-size:60px;"">+</div>","","null","fixation","2021-04-07 00:10:57.368","","","","",""
"","mars-trial","80","10585370","0.0-10.0-1.33","A198","""event"",""trial"",""time""
""fullscreenenter"",""0"",""12993""
""blur"",""3"",""622694""
""focus"",""3"",""10146120""
","""event"",""trial"",""time""
""blur"",""3"",""622694""
","""event"",""trial"",""time""
""focus"",""3"",""10146120""
","""event"",""trial"",""time""
""fullscreenenter"",""0"",""12993""
","
","19945.790000027046","<img style='border: 4px solid darkgrey;' src='img/tf1_34_M_ss3.jpeg'></img>","0","","exp","","1","<img src='img/tf1_34_T1_ss3_md.jpeg'></img>","0","false",""
"","html-keyboard-response","81","10585873","0.0-10.0-0.34","A198","""event"",""trial"",""time""
""fullscreenenter"",""0"",""12993""
""blur"",""3"",""622694""
""focus"",""3"",""10146120""
","""event"",""trial"",""time""
""blur"",""3"",""622694""
","""event"",""trial"",""time""
""focus"",""3"",""10146120""
","""event"",""trial"",""time""
""fullscreenenter"",""0"",""12993""
","
","null","<div style=""font-size:60px;"">+</div>","","null","fixation","2021-04-07 00:11:18.421","","","","",""
"","mars-trial","82","10606574","0.0-10.0-1.34","A198","""event"",""trial"",""time""
""fullscreenenter"",""0"",""12993""
""blur"",""3"",""622694""
""focus"",""3"",""10146120""
","""event"",""trial"",""time""
""blur"",""3"",""622694""
","""event"",""trial"",""time""
""focus"",""3"",""10146120""
","""event"",""trial"",""time""
""fullscreenenter"",""0"",""12993""
","
","20088.91499997303","<img style='border: 4px solid darkgrey;' src='img/tf1_35_M_ss1.jpeg'></img>","3","","exp","","1","<img src='img/tf1_35_T1_ss1_md.jpeg'></img>","0","false",""
"","html-keyboard-response","83","10607076","0.0-10.0-0.35","A198","""event"",""trial"",""time""
""fullscreenenter"",""0"",""12993""
""blur"",""3"",""622694""
""focus"",""3"",""10146120""
","""event"",""trial"",""time""
""blur"",""3"",""622694""
","""event"",""trial"",""time""
""focus"",""3"",""10146120""
","""event"",""trial"",""time""
""fullscreenenter"",""0"",""12993""
","
","null","<div style=""font-size:60px;"">+</div>","","null","fixation","2021-04-07 00:11:39.624","","","","",""
"","mars-trial","84","10631350","0.0-10.0-1.35","A198","""event"",""trial"",""time""
""fullscreenenter"",""0"",""12993""
""blur"",""3"",""622694""
""focus"",""3"",""10146120""
","""event"",""trial"",""time""
""blur"",""3"",""622694""
","""event"",""trial"",""time""
""focus"",""3"",""10146120""
","""event"",""trial"",""time""
""fullscreenenter"",""0"",""12993""
","
","23667.6150000412","<img style='border: 4px solid darkgrey;' src='img/tf1_36_M_ss2.jpeg'></img>","0","","exp","","0","<img src='img/tf1_36_T1_ss2_md.jpeg'></img>","0","true",""
"","html-keyboard-response","85","10631852","0.0-10.0-0.36","A198","""event"",""trial"",""time""
""fullscreenenter"",""0"",""12993""
""blur"",""3"",""622694""
""focus"",""3"",""10146120""
","""event"",""trial"",""time""
""blur"",""3"",""622694""
","""event"",""trial"",""time""
""focus"",""3"",""10146120""
","""event"",""trial"",""time""
""fullscreenenter"",""0"",""12993""
","
","null","<div style=""font-size:60px;"">+</div>","","null","fixation","2021-04-07 00:12:04.401","","","","",""
"","mars-trial","86","10651660","0.0-10.0-1.36","A198","""event"",""trial"",""time""
""fullscreenenter"",""0"",""12993""
""blur"",""3"",""622694""
""focus"",""3"",""10146120""
","""event"",""trial"",""time""
""blur"",""3"",""622694""
","""event"",""trial"",""time""
""focus"",""3"",""10146120""
","""event"",""trial"",""time""
""fullscreenenter"",""0"",""12993""
","
","19203.04000005126","<img style='border: 4px solid darkgrey;' src='img/tf1_37_M_ss3.jpeg'></img>","1","","exp","","1","<img src='img/tf1_37_T1_ss3_md.jpeg'></img>","0","false",""
"","html-keyboard-response","87","10652162","0.0-10.0-0.37","A198","""event"",""trial"",""time""
""fullscreenenter"",""0"",""12993""
""blur"",""3"",""622694""
""focus"",""3"",""10146120""
","""event"",""trial"",""time""
""blur"",""3"",""622694""
","""event"",""trial"",""time""
""focus"",""3"",""10146120""
","""event"",""trial"",""time""
""fullscreenenter"",""0"",""12993""
","
","null","<div style=""font-size:60px;"">+</div>","","null","fixation","2021-04-07 00:12:24.710","","","","",""
"","mars-trial","88","10658968","0.0-10.0-1.37","A198","""event"",""trial"",""time""
""fullscreenenter"",""0"",""12993""
""blur"",""3"",""622694""
""focus"",""3"",""10146120""
","""event"",""trial"",""time""
""blur"",""3"",""622694""
","""event"",""trial"",""time""
""focus"",""3"",""10146120""
","""event"",""trial"",""time""
""fullscreenenter"",""0"",""12993""
","
","6201.654999982566","<img style='border: 4px solid darkgrey;' src='img/tf1_38_M_ss1.jpeg'></img>","2","","exp","","0","<img src='img/tf1_38_T1_ss1_md.jpeg'></img>","0","true",""
"","html-keyboard-response","89","10659469","0.0-10.0-0.38","A198","""event"",""trial"",""time""
""fullscreenenter"",""0"",""12993""
""blur"",""3"",""622694""
""focus"",""3"",""10146120""
","""event"",""trial"",""time""
""blur"",""3"",""622694""
","""event"",""trial"",""time""
""focus"",""3"",""10146120""
","""event"",""trial"",""time""
""fullscreenenter"",""0"",""12993""
","
","null","<div style=""font-size:60px;"">+</div>","","null","fixation","2021-04-07 00:12:32.017","","","","",""
"","mars-trial","90","10679733","0.0-10.0-1.38","A198","""event"",""trial"",""time""
""fullscreenenter"",""0"",""12993""
""blur"",""3"",""622694""
""focus"",""3"",""10146120""
","""event"",""trial"",""time""
""blur"",""3"",""622694""
","""event"",""trial"",""time""
""focus"",""3"",""10146120""
","""event"",""trial"",""time""
""fullscreenenter"",""0"",""12993""
","
","","","","","exp","","","<img src='img/tf1_39_T1_ss2_md.jpeg'></img>","0","false",""
"","html-keyboard-response","91","10680234","0.0-10.0-0.39","A198","""event"",""trial"",""time""
""fullscreenenter"",""0"",""12993""
""blur"",""3"",""622694""
""focus"",""3"",""10146120""
","""event"",""trial"",""time""
""blur"",""3"",""622694""
","""event"",""trial"",""time""
""focus"",""3"",""10146120""
","""event"",""trial"",""time""
""fullscreenenter"",""0"",""12993""
","
","null","<div style=""font-size:60px;"">+</div>","","null","fixation","2021-04-07 00:12:52.782","","","","",""
"","audio-button-response","92","10682776","0.0-11.0","A198","""event"",""trial"",""time""
""fullscreenenter"",""0"",""12993""
""blur"",""3"",""622694""
""focus"",""3"",""10146120""
","""event"",""trial"",""time""
""blur"",""3"",""622694""
","""event"",""trial"",""time""
""focus"",""3"",""10146120""
","""event"",""trial"",""time""
""fullscreenenter"",""0"",""12993""
","
","2439.909999959171","audio/mars_instructions_slide5.wav","0","","","","","","","",""
