"success","trial_type","trial_index","time_elapsed","internal_node_id","subject_id","interactions","blur_events","focus_events","fullscreenenter_events","fullscreenexit_events","rt","stimulus","button_pressed","key_press","part","timestamp","unshuffled_button","correct_response","correct_button","correct","value"
"true","fullscreen","0","2935","0.0-0.0","A109","""event"",""trial"",""time""
""fullscreenenter"",""0"",""1941""
","
","
","""event"",""trial"",""time""
""fullscreenenter"",""0"",""1941""
","
","","","","","","","","","","",""
"","pavlovia","1","2944","0.0-1.0","A109","""event"",""trial"",""time""
""fullscreenenter"",""0"",""1941""
","
","
","""event"",""trial"",""time""
""fullscreenenter"",""0"",""1941""
","
","","","","","","","","","","",""
"","html-button-response","2","3999","0.0-2.0","A109","""event"",""trial"",""time""
""fullscreenenter"",""0"",""1941""
","
","
","""event"",""trial"",""time""
""fullscreenenter"",""0"",""1941""
","
","1053.0650000000605","<p>Welcome! Press START to begin.</p><br>","0","","","","","","","",""
"","audio-button-response","3","20963","0.0-3.0","A109","""event"",""trial"",""time""
""fullscreenenter"",""0"",""1941""
","
","
","""event"",""trial"",""time""
""fullscreenenter"",""0"",""1941""
","
","16959.70999999554","audio/mars_instructions_slide2.wav","0","","","","","","","",""
"","audio-button-response","4","24720","0.0-4.0","A109","""event"",""trial"",""time""
""fullscreenenter"",""0"",""1941""
","
","
","""event"",""trial"",""time""
""fullscreenenter"",""0"",""1941""
","
","3755.059999995865","audio/mars_instructions_slide3.wav","0","","","","","","","",""
"","html-keyboard-response","5","25224","0.0-5.0-0.0","A109","""event"",""trial"",""time""
""fullscreenenter"",""0"",""1941""
","
","
","""event"",""trial"",""time""
""fullscreenenter"",""0"",""1941""
","
","null","<div style=""font-size:60px;"">+</div>","","null","fixation","2021-03-31 03:01:11.321","","","","",""
"","mars-trial","6","31305","0.0-5.0-1.0","A109","""event"",""trial"",""time""
""fullscreenenter"",""0"",""1941""
","
","
","""event"",""trial"",""time""
""fullscreenenter"",""0"",""1941""
","
","3968.0349999980535","<img style='border: 4px solid darkgrey;' src='practice/pt1_M1.png'></img>","2","","practice","","0","<img src='practice/pt1_T1.png'></img>","0","true",""
"","html-keyboard-response","7","31809","0.0-6.0-0.0","A109","""event"",""trial"",""time""
""fullscreenenter"",""0"",""1941""
","
","
","""event"",""trial"",""time""
""fullscreenenter"",""0"",""1941""
","
","null","<div style=""font-size:60px;"">+</div>","","null","fixation","2021-03-31 03:01:17.905","","","","",""
"","mars-trial","8","36308","0.0-6.0-1.0","A109","""event"",""trial"",""time""
""fullscreenenter"",""0"",""1941""
","
","
","""event"",""trial"",""time""
""fullscreenenter"",""0"",""1941""
","
","2388.504999995348","<img style='border: 4px solid darkgrey;' src='practice/pt2_M1.png'></img>","0","","practice","","0","<img src='practice/pt2_T1.png'></img>","0","true",""
"","html-keyboard-response","9","36813","0.0-7.0-0.0","A109","""event"",""trial"",""time""
""fullscreenenter"",""0"",""1941""
","
","
","""event"",""trial"",""time""
""fullscreenenter"",""0"",""1941""
","
","null","<div style=""font-size:60px;"">+</div>","","null","fixation","2021-03-31 03:01:22.909","","","","",""
"","mars-trial","10","40059","0.0-7.0-1.0","A109","""event"",""trial"",""time""
""fullscreenenter"",""0"",""1941""
","
","
","""event"",""trial"",""time""
""fullscreenenter"",""0"",""1941""
","
","1129.9349999899277","<img style='border: 4px solid darkgrey;' src='practice/pt3_M1.png'></img>","1","","practice","","0","<img src='practice/pt3_T1.png'></img>","0","true",""
"","audio-button-response","11","41717","0.0-8.0","A109","""event"",""trial"",""time""
""fullscreenenter"",""0"",""1941""
","
","
","""event"",""trial"",""time""
""fullscreenenter"",""0"",""1941""
","
","1656.0699999972712","audio/mars_instructions_slide4.wav","0","","","","","","","",""
"","call-function","12","41718","0.0-9.0","A109","""event"",""trial"",""time""
""fullscreenenter"",""0"",""1941""
","
","
","""event"",""trial"",""time""
""fullscreenenter"",""0"",""1941""
","
","","","","","","","","","","",""
"","html-keyboard-response","13","42221","0.0-10.0-0.0","A109","""event"",""trial"",""time""
""fullscreenenter"",""0"",""1941""
","
","
","""event"",""trial"",""time""
""fullscreenenter"",""0"",""1941""
","
","null","<div style=""font-size:60px;"">+</div>","","null","fixation","2021-03-31 03:01:28.318","","","","",""
"","mars-trial","14","44117","0.0-10.0-1.0","A109","""event"",""trial"",""time""
""fullscreenenter"",""0"",""1941""
","
","
","""event"",""trial"",""time""
""fullscreenenter"",""0"",""1941""
","
","1289.2550000105985","<img style='border: 4px solid darkgrey;' src='img/tf1_1_M_ss3.jpeg'></img>","3","","exp","","0","<img src='img/tf1_1_T1_ss3_md.jpeg'></img>","0","true",""
"","html-keyboard-response","15","44621","0.0-10.0-0.1","A109","""event"",""trial"",""time""
""fullscreenenter"",""0"",""1941""
","
","
","""event"",""trial"",""time""
""fullscreenenter"",""0"",""1941""
","
","null","<div style=""font-size:60px;"">+</div>","","null","fixation","2021-03-31 03:01:30.717","","","","",""
"","mars-trial","16","47143","0.0-10.0-1.1","A109","""event"",""trial"",""time""
""fullscreenenter"",""0"",""1941""
","
","
","""event"",""trial"",""time""
""fullscreenenter"",""0"",""1941""
","
","1914.0500000066822","<img style='border: 4px solid darkgrey;' src='img/tf1_2_M_ss1.jpeg'></img>","0","","exp","","0","<img src='img/tf1_2_T1_ss1_md.jpeg'></img>","0","true",""
"","html-keyboard-response","17","47645","0.0-10.0-0.2","A109","""event"",""trial"",""time""
""fullscreenenter"",""0"",""1941""
","
","
","""event"",""trial"",""time""
""fullscreenenter"",""0"",""1941""
","
","null","<div style=""font-size:60px;"">+</div>","","null","fixation","2021-03-31 03:01:33.741","","","","",""
"","mars-trial","18","49794","0.0-10.0-1.2","A109","""event"",""trial"",""time""
""fullscreenenter"",""0"",""1941""
","
","
","""event"",""trial"",""time""
""fullscreenenter"",""0"",""1941""
","
","1541.6149999946356","<img style='border: 4px solid darkgrey;' src='img/tf1_3_M_ss2.jpeg'></img>","2","","exp","","0","<img src='img/tf1_3_T1_ss2_md.jpeg'></img>","0","true",""
"","html-keyboard-response","19","50299","0.0-10.0-0.3","A109","""event"",""trial"",""time""
""fullscreenenter"",""0"",""1941""
","
","
","""event"",""trial"",""time""
""fullscreenenter"",""0"",""1941""
","
","null","<div style=""font-size:60px;"">+</div>","","null","fixation","2021-03-31 03:01:36.395","","","","",""
"","mars-trial","20","53758","0.0-10.0-1.3","A109","""event"",""trial"",""time""
""fullscreenenter"",""0"",""1941""
","
","
","""event"",""trial"",""time""
""fullscreenenter"",""0"",""1941""
","
","2848.6700000066776","<img style='border: 4px solid darkgrey;' src='img/tf1_4_M_ss3.jpeg'></img>","2","","exp","","0","<img src='img/tf1_4_T1_ss3_md.jpeg'></img>","0","true",""
"","html-keyboard-response","21","54263","0.0-10.0-0.4","A109","""event"",""trial"",""time""
""fullscreenenter"",""0"",""1941""
","
","
","""event"",""trial"",""time""
""fullscreenenter"",""0"",""1941""
","
","null","<div style=""font-size:60px;"">+</div>","","null","fixation","2021-03-31 03:01:40.359","","","","",""
"","mars-trial","22","56197","0.0-10.0-1.4","A109","""event"",""trial"",""time""
""fullscreenenter"",""0"",""1941""
","
","
","""event"",""trial"",""time""
""fullscreenenter"",""0"",""1941""
","
","1320.3900000080466","<img style='border: 4px solid darkgrey;' src='img/tf1_5_M_ss1.jpeg'></img>","0","","exp","","0","<img src='img/tf1_5_T1_ss1_md.jpeg'></img>","0","true",""
"","html-keyboard-response","23","56702","0.0-10.0-0.5","A109","""event"",""trial"",""time""
""fullscreenenter"",""0"",""1941""
","
","
","""event"",""trial"",""time""
""fullscreenenter"",""0"",""1941""
","
","null","<div style=""font-size:60px;"">+</div>","","null","fixation","2021-03-31 03:01:42.798","","","","",""
"","mars-trial","24","62153","0.0-10.0-1.5","A109","""event"",""trial"",""time""
""fullscreenenter"",""0"",""1941""
","
","
","""event"",""trial"",""time""
""fullscreenenter"",""0"",""1941""
","
","4840.704999995069","<img style='border: 4px solid darkgrey;' src='img/tf1_6_M_ss2.jpeg'></img>","2","","exp","","3","<img src='img/tf1_6_T1_ss2_md.jpeg'></img>","0","false",""
"","html-keyboard-response","25","62658","0.0-10.0-0.6","A109","""event"",""trial"",""time""
""fullscreenenter"",""0"",""1941""
","
","
","""event"",""trial"",""time""
""fullscreenenter"",""0"",""1941""
","
","null","<div style=""font-size:60px;"">+</div>","","null","fixation","2021-03-31 03:01:48.754","","","","",""
"","mars-trial","26","67966","0.0-10.0-1.6","A109","""event"",""trial"",""time""
""fullscreenenter"",""0"",""1941""
","
","
","""event"",""trial"",""time""
""fullscreenenter"",""0"",""1941""
","
","4696.590000006836","<img style='border: 4px solid darkgrey;' src='img/tf1_7_M_ss3.jpeg'></img>","0","","exp","","0","<img src='img/tf1_7_T1_ss3_md.jpeg'></img>","0","true",""
"","html-keyboard-response","27","68467","0.0-10.0-0.7","A109","""event"",""trial"",""time""
""fullscreenenter"",""0"",""1941""
","
","
","""event"",""trial"",""time""
""fullscreenenter"",""0"",""1941""
","
","null","<div style=""font-size:60px;"">+</div>","","null","fixation","2021-03-31 03:01:54.564","","","","",""
"","mars-trial","28","74111","0.0-10.0-1.7","A109","""event"",""trial"",""time""
""fullscreenenter"",""0"",""1941""
","
","
","""event"",""trial"",""time""
""fullscreenenter"",""0"",""1941""
","
","5036.1550000088755","<img style='border: 4px solid darkgrey;' src='img/tf1_8_M_ss1.jpeg'></img>","2","","exp","","0","<img src='img/tf1_8_T1_ss1_md.jpeg'></img>","0","true",""
"","html-keyboard-response","29","74617","0.0-10.0-0.8","A109","""event"",""trial"",""time""
""fullscreenenter"",""0"",""1941""
","
","
","""event"",""trial"",""time""
""fullscreenenter"",""0"",""1941""
","
","null","<div style=""font-size:60px;"">+</div>","","null","fixation","2021-03-31 03:02:00.713","","","","",""
"","mars-trial","30","78574","0.0-10.0-1.8","A109","""event"",""trial"",""time""
""fullscreenenter"",""0"",""1941""
","
","
","""event"",""trial"",""time""
""fullscreenenter"",""0"",""1941""
","
","3350.525000001653","<img style='border: 4px solid darkgrey;' src='img/tf1_9_M_ss2.jpeg'></img>","3","","exp","","0","<img src='img/tf1_9_T1_ss2_md.jpeg'></img>","0","true",""
"","html-keyboard-response","31","79078","0.0-10.0-0.9","A109","""event"",""trial"",""time""
""fullscreenenter"",""0"",""1941""
","
","
","""event"",""trial"",""time""
""fullscreenenter"",""0"",""1941""
","
","null","<div style=""font-size:60px;"">+</div>","","null","fixation","2021-03-31 03:02:05.174","","","","",""
"","mars-trial","32","97237","0.0-10.0-1.9","A109","""event"",""trial"",""time""
""fullscreenenter"",""0"",""1941""
","
","
","""event"",""trial"",""time""
""fullscreenenter"",""0"",""1941""
","
","17545.589999994263","<img style='border: 4px solid darkgrey;' src='img/tf1_10_M_ss3.jpeg'></img>","2","","exp","","0","<img src='img/tf1_10_T1_ss3_md.jpeg'></img>","0","true",""
"","html-keyboard-response","33","97744","0.0-10.0-0.10","A109","""event"",""trial"",""time""
""fullscreenenter"",""0"",""1941""
","
","
","""event"",""trial"",""time""
""fullscreenenter"",""0"",""1941""
","
","null","<div style=""font-size:60px;"">+</div>","","null","fixation","2021-03-31 03:02:23.840","","","","",""
"","mars-trial","34","103409","0.0-10.0-1.10","A109","""event"",""trial"",""time""
""fullscreenenter"",""0"",""1941""
","
","
","""event"",""trial"",""time""
""fullscreenenter"",""0"",""1941""
","
","5054.854999994859","<img style='border: 4px solid darkgrey;' src='img/tf1_11_M_ss1.jpeg'></img>","1","","exp","","3","<img src='img/tf1_11_T1_ss1_md.jpeg'></img>","0","false",""
"","html-keyboard-response","35","103912","0.0-10.0-0.11","A109","""event"",""trial"",""time""
""fullscreenenter"",""0"",""1941""
","
","
","""event"",""trial"",""time""
""fullscreenenter"",""0"",""1941""
","
","null","<div style=""font-size:60px;"">+</div>","","null","fixation","2021-03-31 03:02:30.008","","","","",""
"","mars-trial","36","115355","0.0-10.0-1.11","A109","""event"",""trial"",""time""
""fullscreenenter"",""0"",""1941""
","
","
","""event"",""trial"",""time""
""fullscreenenter"",""0"",""1941""
","
","10835.755000007339","<img style='border: 4px solid darkgrey;' src='img/tf1_12_M_ss2.jpeg'></img>","0","","exp","","3","<img src='img/tf1_12_T1_ss2_md.jpeg'></img>","0","false",""
"","html-keyboard-response","37","115857","0.0-10.0-0.12","A109","""event"",""trial"",""time""
""fullscreenenter"",""0"",""1941""
","
","
","""event"",""trial"",""time""
""fullscreenenter"",""0"",""1941""
","
","null","<div style=""font-size:60px;"">+</div>","","null","fixation","2021-03-31 03:02:41.953","","","","",""
"","mars-trial","38","124007","0.0-10.0-1.12","A109","""event"",""trial"",""time""
""fullscreenenter"",""0"",""1941""
","
","
","""event"",""trial"",""time""
""fullscreenenter"",""0"",""1941""
","
","7539.8500000010245","<img style='border: 4px solid darkgrey;' src='img/tf1_13_M_ss3.jpeg'></img>","1","","exp","","1","<img src='img/tf1_13_T1_ss3_md.jpeg'></img>","0","false",""
"","html-keyboard-response","39","124509","0.0-10.0-0.13","A109","""event"",""trial"",""time""
""fullscreenenter"",""0"",""1941""
","
","
","""event"",""trial"",""time""
""fullscreenenter"",""0"",""1941""
","
","null","<div style=""font-size:60px;"">+</div>","","null","fixation","2021-03-31 03:02:50.605","","","","",""
"","mars-trial","40","137045","0.0-10.0-1.13","A109","""event"",""trial"",""time""
""fullscreenenter"",""0"",""1941""
","
","
","""event"",""trial"",""time""
""fullscreenenter"",""0"",""1941""
","
","11929.794999989099","<img style='border: 4px solid darkgrey;' src='img/tf1_14_M_ss1.jpeg'></img>","2","","exp","","1","<img src='img/tf1_14_T1_ss1_md.jpeg'></img>","0","false",""
"","html-keyboard-response","41","137550","0.0-10.0-0.14","A109","""event"",""trial"",""time""
""fullscreenenter"",""0"",""1941""
","
","
","""event"",""trial"",""time""
""fullscreenenter"",""0"",""1941""
","
","null","<div style=""font-size:60px;"">+</div>","","null","fixation","2021-03-31 03:03:03.647","","","","",""
"","mars-trial","42","155328","0.0-10.0-1.14","A109","""event"",""trial"",""time""
""fullscreenenter"",""0"",""1941""
","
","
","""event"",""trial"",""time""
""fullscreenenter"",""0"",""1941""
","
","17171.34500000975","<img style='border: 4px solid darkgrey;' src='img/tf1_15_M_ss2.jpeg'></img>","0","","exp","","2","<img src='img/tf1_15_T1_ss2_md.jpeg'></img>","0","false",""
"","html-keyboard-response","43","155834","0.0-10.0-0.15","A109","""event"",""trial"",""time""
""fullscreenenter"",""0"",""1941""
","
","
","""event"",""trial"",""time""
""fullscreenenter"",""0"",""1941""
","
","null","<div style=""font-size:60px;"">+</div>","","null","fixation","2021-03-31 03:03:21.930","","","","",""
"","mars-trial","44","178546","0.0-10.0-1.15","A109","""event"",""trial"",""time""
""fullscreenenter"",""0"",""1941""
","
","
","""event"",""trial"",""time""
""fullscreenenter"",""0"",""1941""
","
","22100.619999997434","<img style='border: 4px solid darkgrey;' src='img/tf1_16_M_ss3.jpeg'></img>","3","","exp","","0","<img src='img/tf1_16_T1_ss3_md.jpeg'></img>","0","true",""
"","html-keyboard-response","45","179051","0.0-10.0-0.16","A109","""event"",""trial"",""time""
""fullscreenenter"",""0"",""1941""
","
","
","""event"",""trial"",""time""
""fullscreenenter"",""0"",""1941""
","
","null","<div style=""font-size:60px;"">+</div>","","null","fixation","2021-03-31 03:03:45.147","","","","",""
"","mars-trial","46","182685","0.0-10.0-1.16","A109","""event"",""trial"",""time""
""fullscreenenter"",""0"",""1941""
","
","
","""event"",""trial"",""time""
""fullscreenenter"",""0"",""1941""
","
","3020.0649999896996","<img style='border: 4px solid darkgrey;' src='img/tf1_17_M_ss1.jpeg'></img>","1","","exp","","2","<img src='img/tf1_17_T1_ss1_md.jpeg'></img>","0","false",""
"","html-keyboard-response","47","183190","0.0-10.0-0.17","A109","""event"",""trial"",""time""
""fullscreenenter"",""0"",""1941""
","
","
","""event"",""trial"",""time""
""fullscreenenter"",""0"",""1941""
","
","null","<div style=""font-size:60px;"">+</div>","","null","fixation","2021-03-31 03:03:49.287","","","","",""
"","mars-trial","48","213303","0.0-10.0-1.17","A109","""event"",""trial"",""time""
""fullscreenenter"",""0"",""1941""
","
","
","""event"",""trial"",""time""
""fullscreenenter"",""0"",""1941""
","
","null","<img style='border: 4px solid darkgrey;' src='img/tf1_18_M_ss2.jpeg'></img>","null","","exp","","null","<img src='img/tf1_18_T1_ss2_md.jpeg'></img>","0","false",""
"","html-keyboard-response","49","213806","0.0-10.0-0.18","A109","""event"",""trial"",""time""
""fullscreenenter"",""0"",""1941""
","
","
","""event"",""trial"",""time""
""fullscreenenter"",""0"",""1941""
","
","null","<div style=""font-size:60px;"">+</div>","","null","fixation","2021-03-31 03:04:19.902","","","","",""
"","mars-trial","50","218143","0.0-10.0-1.18","A109","""event"",""trial"",""time""
""fullscreenenter"",""0"",""1941""
","
","
","""event"",""trial"",""time""
""fullscreenenter"",""0"",""1941""
","
","3723.9949999930104","<img style='border: 4px solid darkgrey;' src='img/tf1_19_M_ss3.jpeg'></img>","0","","exp","","0","<img src='img/tf1_19_T1_ss3_md.jpeg'></img>","0","true",""
"","html-keyboard-response","51","218646","0.0-10.0-0.19","A109","""event"",""trial"",""time""
""fullscreenenter"",""0"",""1941""
","
","
","""event"",""trial"",""time""
""fullscreenenter"",""0"",""1941""
","
","null","<div style=""font-size:60px;"">+</div>","","null","fixation","2021-03-31 03:04:24.742","","","","",""
"","mars-trial","52","220513","0.0-10.0-1.19","A109","""event"",""trial"",""time""
""fullscreenenter"",""0"",""1941""
","
","
","""event"",""trial"",""time""
""fullscreenenter"",""0"",""1941""
","
","1258.78499999817","<img style='border: 4px solid darkgrey;' src='img/tf1_20_M_ss1.jpeg'></img>","2","","exp","","0","<img src='img/tf1_20_T1_ss1_md.jpeg'></img>","0","true",""
"","html-keyboard-response","53","221019","0.0-10.0-0.20","A109","""event"",""trial"",""time""
""fullscreenenter"",""0"",""1941""
","
","
","""event"",""trial"",""time""
""fullscreenenter"",""0"",""1941""
","
","null","<div style=""font-size:60px;"">+</div>","","null","fixation","2021-03-31 03:04:27.115","","","","",""
"","mars-trial","54","222837","0.0-10.0-1.20","A109","""event"",""trial"",""time""
""fullscreenenter"",""0"",""1941""
","
","
","""event"",""trial"",""time""
""fullscreenenter"",""0"",""1941""
","
","1211.7549999966286","<img style='border: 4px solid darkgrey;' src='img/tf1_21_M_ss2.jpeg'></img>","1","","exp","","2","<img src='img/tf1_21_T1_ss2_md.jpeg'></img>","0","false",""
"","html-keyboard-response","55","223338","0.0-10.0-0.21","A109","""event"",""trial"",""time""
""fullscreenenter"",""0"",""1941""
","
","
","""event"",""trial"",""time""
""fullscreenenter"",""0"",""1941""
","
","null","<div style=""font-size:60px;"">+</div>","","null","fixation","2021-03-31 03:04:29.435","","","","",""
"","mars-trial","56","224550","0.0-10.0-1.21","A109","""event"",""trial"",""time""
""fullscreenenter"",""0"",""1941""
","
","
","""event"",""trial"",""time""
""fullscreenenter"",""0"",""1941""
","
","604.4400000100723","<img style='border: 4px solid darkgrey;' src='img/tf1_22_M_ss3.jpeg'></img>","3","","exp","","1","<img src='img/tf1_22_T1_ss3_md.jpeg'></img>","0","false",""
"","html-keyboard-response","57","225052","0.0-10.0-0.22","A109","""event"",""trial"",""time""
""fullscreenenter"",""0"",""1941""
","
","
","""event"",""trial"",""time""
""fullscreenenter"",""0"",""1941""
","
","null","<div style=""font-size:60px;"">+</div>","","null","fixation","2021-03-31 03:04:31.148","","","","",""
"","mars-trial","58","226171","0.0-10.0-1.22","A109","""event"",""trial"",""time""
""fullscreenenter"",""0"",""1941""
","
","
","""event"",""trial"",""time""
""fullscreenenter"",""0"",""1941""
","
","512.6900000032037","<img style='border: 4px solid darkgrey;' src='img/tf1_23_M_ss1.jpeg'></img>","2","","exp","","3","<img src='img/tf1_23_T1_ss1_md.jpeg'></img>","0","false",""
"","html-keyboard-response","59","226673","0.0-10.0-0.23","A109","""event"",""trial"",""time""
""fullscreenenter"",""0"",""1941""
","
","
","""event"",""trial"",""time""
""fullscreenenter"",""0"",""1941""
","
","null","<div style=""font-size:60px;"">+</div>","","null","fixation","2021-03-31 03:04:32.770","","","","",""
"","mars-trial","60","227789","0.0-10.0-1.23","A109","""event"",""trial"",""time""
""fullscreenenter"",""0"",""1941""
","
","
","""event"",""trial"",""time""
""fullscreenenter"",""0"",""1941""
","
","509.3899999919813","<img style='border: 4px solid darkgrey;' src='img/tf1_24_M_ss2.jpeg'></img>","1","","exp","","1","<img src='img/tf1_24_T1_ss2_md.jpeg'></img>","0","false",""
"","html-keyboard-response","61","228290","0.0-10.0-0.24","A109","""event"",""trial"",""time""
""fullscreenenter"",""0"",""1941""
","
","
","""event"",""trial"",""time""
""fullscreenenter"",""0"",""1941""
","
","null","<div style=""font-size:60px;"">+</div>","","null","fixation","2021-03-31 03:04:34.386","","","","",""
"","mars-trial","62","229556","0.0-10.0-1.24","A109","""event"",""trial"",""time""
""fullscreenenter"",""0"",""1941""
","
","
","""event"",""trial"",""time""
""fullscreenenter"",""0"",""1941""
","
","652.1650000067893","<img style='border: 4px solid darkgrey;' src='img/tf1_25_M_ss3.jpeg'></img>","0","","exp","","0","<img src='img/tf1_25_T1_ss3_md.jpeg'></img>","0","true",""
"","html-keyboard-response","63","230058","0.0-10.0-0.25","A109","""event"",""trial"",""time""
""fullscreenenter"",""0"",""1941""
","
","
","""event"",""trial"",""time""
""fullscreenenter"",""0"",""1941""
","
","null","<div style=""font-size:60px;"">+</div>","","null","fixation","2021-03-31 03:04:36.154","","","","",""
"","mars-trial","64","231284","0.0-10.0-1.25","A109","""event"",""trial"",""time""
""fullscreenenter"",""0"",""1941""
","
","
","""event"",""trial"",""time""
""fullscreenenter"",""0"",""1941""
","
","620.0499999977183","<img style='border: 4px solid darkgrey;' src='img/tf1_26_M_ss1.jpeg'></img>","1","","exp","","2","<img src='img/tf1_26_T1_ss1_md.jpeg'></img>","0","false",""
"","html-keyboard-response","65","231786","0.0-10.0-0.26","A109","""event"",""trial"",""time""
""fullscreenenter"",""0"",""1941""
","
","
","""event"",""trial"",""time""
""fullscreenenter"",""0"",""1941""
","
","null","<div style=""font-size:60px;"">+</div>","","null","fixation","2021-03-31 03:04:37.882","","","","",""
"","mars-trial","66","232830","0.0-10.0-1.26","A109","""event"",""trial"",""time""
""fullscreenenter"",""0"",""1941""
","
","
","""event"",""trial"",""time""
""fullscreenenter"",""0"",""1941""
","
","438.54500001179986","<img style='border: 4px solid darkgrey;' src='img/tf1_27_M_ss2.jpeg'></img>","2","","exp","","3","<img src='img/tf1_27_T1_ss2_md.jpeg'></img>","0","false",""
"","html-keyboard-response","67","233332","0.0-10.0-0.27","A109","""event"",""trial"",""time""
""fullscreenenter"",""0"",""1941""
","
","
","""event"",""trial"",""time""
""fullscreenenter"",""0"",""1941""
","
","null","<div style=""font-size:60px;"">+</div>","","null","fixation","2021-03-31 03:04:39.428","","","","",""
"","mars-trial","68","234380","0.0-10.0-1.27","A109","""event"",""trial"",""time""
""fullscreenenter"",""0"",""1941""
","
","
","""event"",""trial"",""time""
""fullscreenenter"",""0"",""1941""
","
","441.17499999993015","<img style='border: 4px solid darkgrey;' src='img/tf1_28_M_ss3.jpeg'></img>","3","","exp","","3","<img src='img/tf1_28_T1_ss3_md.jpeg'></img>","0","false",""
"","html-keyboard-response","69","234883","0.0-10.0-0.28","A109","""event"",""trial"",""time""
""fullscreenenter"",""0"",""1941""
","
","
","""event"",""trial"",""time""
""fullscreenenter"",""0"",""1941""
","
","null","<div style=""font-size:60px;"">+</div>","","null","fixation","2021-03-31 03:04:40.979","","","","",""
"","mars-trial","70","235812","0.0-10.0-1.28","A109","""event"",""trial"",""time""
""fullscreenenter"",""0"",""1941""
","
","
","""event"",""trial"",""time""
""fullscreenenter"",""0"",""1941""
","
","319.13499999791384","<img style='border: 4px solid darkgrey;' src='img/tf1_29_M_ss1.jpeg'></img>","1","","exp","","1","<img src='img/tf1_29_T1_ss1_md.jpeg'></img>","0","false",""
"","html-keyboard-response","71","236314","0.0-10.0-0.29","A109","""event"",""trial"",""time""
""fullscreenenter"",""0"",""1941""
","
","
","""event"",""trial"",""time""
""fullscreenenter"",""0"",""1941""
","
","null","<div style=""font-size:60px;"">+</div>","","null","fixation","2021-03-31 03:04:42.410","","","","",""
"","mars-trial","72","237282","0.0-10.0-1.29","A109","""event"",""trial"",""time""
""fullscreenenter"",""0"",""1941""
","
","
","""event"",""trial"",""time""
""fullscreenenter"",""0"",""1941""
","
","358.2800000003772","<img style='border: 4px solid darkgrey;' src='img/tf1_30_M_ss2.jpeg'></img>","0","","exp","","3","<img src='img/tf1_30_T1_ss2_md.jpeg'></img>","0","false",""
"","html-keyboard-response","73","237785","0.0-10.0-0.30","A109","""event"",""trial"",""time""
""fullscreenenter"",""0"",""1941""
","
","
","""event"",""trial"",""time""
""fullscreenenter"",""0"",""1941""
","
","null","<div style=""font-size:60px;"">+</div>","","null","fixation","2021-03-31 03:04:43.881","","","","",""
"","mars-trial","74","238844","0.0-10.0-1.30","A109","""event"",""trial"",""time""
""fullscreenenter"",""0"",""1941""
","
","
","""event"",""trial"",""time""
""fullscreenenter"",""0"",""1941""
","
","452.9599999950733","<img style='border: 4px solid darkgrey;' src='img/tf1_31_M_ss3.jpeg'></img>","2","","exp","","2","<img src='img/tf1_31_T1_ss3_md.jpeg'></img>","0","false",""
"","html-keyboard-response","75","239346","0.0-10.0-0.31","A109","""event"",""trial"",""time""
""fullscreenenter"",""0"",""1941""
","
","
","""event"",""trial"",""time""
""fullscreenenter"",""0"",""1941""
","
","null","<div style=""font-size:60px;"">+</div>","","null","fixation","2021-03-31 03:04:45.443","","","","",""
"","mars-trial","76","240156","0.0-10.0-1.31","A109","""event"",""trial"",""time""
""fullscreenenter"",""0"",""1941""
","
","
","""event"",""trial"",""time""
""fullscreenenter"",""0"",""1941""
","
","204.0500000002794","<img style='border: 4px solid darkgrey;' src='img/tf1_32_M_ss1.jpeg'></img>","2","","exp","","2","<img src='img/tf1_32_T1_ss1_md.jpeg'></img>","0","false",""
"","html-keyboard-response","77","240660","0.0-10.0-0.32","A109","""event"",""trial"",""time""
""fullscreenenter"",""0"",""1941""
","
","
","""event"",""trial"",""time""
""fullscreenenter"",""0"",""1941""
","
","null","<div style=""font-size:60px;"">+</div>","","null","fixation","2021-03-31 03:04:46.756","","","","",""
"","mars-trial","78","241706","0.0-10.0-1.32","A109","""event"",""trial"",""time""
""fullscreenenter"",""0"",""1941""
","
","
","""event"",""trial"",""time""
""fullscreenenter"",""0"",""1941""
","
","432.5200000021141","<img style='border: 4px solid darkgrey;' src='img/tf1_33_M_ss2.jpeg'></img>","2","","exp","","2","<img src='img/tf1_33_T1_ss2_md.jpeg'></img>","0","false",""
"","html-keyboard-response","79","242211","0.0-10.0-0.33","A109","""event"",""trial"",""time""
""fullscreenenter"",""0"",""1941""
","
","
","""event"",""trial"",""time""
""fullscreenenter"",""0"",""1941""
","
","null","<div style=""font-size:60px;"">+</div>","","null","fixation","2021-03-31 03:04:48.307","","","","",""
"","mars-trial","80","243204","0.0-10.0-1.33","A109","""event"",""trial"",""time""
""fullscreenenter"",""0"",""1941""
","
","
","""event"",""trial"",""time""
""fullscreenenter"",""0"",""1941""
","
","379.73000000056345","<img style='border: 4px solid darkgrey;' src='img/tf1_34_M_ss3.jpeg'></img>","2","","exp","","1","<img src='img/tf1_34_T1_ss3_md.jpeg'></img>","0","false",""
"","html-keyboard-response","81","243708","0.0-10.0-0.34","A109","""event"",""trial"",""time""
""fullscreenenter"",""0"",""1941""
","
","
","""event"",""trial"",""time""
""fullscreenenter"",""0"",""1941""
","
","null","<div style=""font-size:60px;"">+</div>","","null","fixation","2021-03-31 03:04:49.805","","","","",""
"","mars-trial","82","245113","0.0-10.0-1.34","A109","""event"",""trial"",""time""
""fullscreenenter"",""0"",""1941""
","
","
","""event"",""trial"",""time""
""fullscreenenter"",""0"",""1941""
","
","795.7449999958044","<img style='border: 4px solid darkgrey;' src='img/tf1_35_M_ss1.jpeg'></img>","2","","exp","","2","<img src='img/tf1_35_T1_ss1_md.jpeg'></img>","0","false",""
"","html-keyboard-response","83","245618","0.0-10.0-0.35","A109","""event"",""trial"",""time""
""fullscreenenter"",""0"",""1941""
","
","
","""event"",""trial"",""time""
""fullscreenenter"",""0"",""1941""
","
","null","<div style=""font-size:60px;"">+</div>","","null","fixation","2021-03-31 03:04:51.714","","","","",""
"","mars-trial","84","246617","0.0-10.0-1.35","A109","""event"",""trial"",""time""
""fullscreenenter"",""0"",""1941""
","
","
","""event"",""trial"",""time""
""fullscreenenter"",""0"",""1941""
","
","391.1099999968428","<img style='border: 4px solid darkgrey;' src='img/tf1_36_M_ss2.jpeg'></img>","1","","exp","","2","<img src='img/tf1_36_T1_ss2_md.jpeg'></img>","0","false",""
"","html-keyboard-response","85","247119","0.0-10.0-0.36","A109","""event"",""trial"",""time""
""fullscreenenter"",""0"",""1941""
","
","
","""event"",""trial"",""time""
""fullscreenenter"",""0"",""1941""
","
","null","<div style=""font-size:60px;"">+</div>","","null","fixation","2021-03-31 03:04:53.215","","","","",""
"","mars-trial","86","248164","0.0-10.0-1.36","A109","""event"",""trial"",""time""
""fullscreenenter"",""0"",""1941""
","
","
","""event"",""trial"",""time""
""fullscreenenter"",""0"",""1941""
","
","435.72999999742024","<img style='border: 4px solid darkgrey;' src='img/tf1_37_M_ss3.jpeg'></img>","0","","exp","","1","<img src='img/tf1_37_T1_ss3_md.jpeg'></img>","0","false",""
"","html-keyboard-response","87","248665","0.0-10.0-0.37","A109","""event"",""trial"",""time""
""fullscreenenter"",""0"",""1941""
","
","
","""event"",""trial"",""time""
""fullscreenenter"",""0"",""1941""
","
","null","<div style=""font-size:60px;"">+</div>","","null","fixation","2021-03-31 03:04:54.761","","","","",""
"","mars-trial","88","249562","0.0-10.0-1.37","A109","""event"",""trial"",""time""
""fullscreenenter"",""0"",""1941""
","
","
","""event"",""trial"",""time""
""fullscreenenter"",""0"",""1941""
","
","291.0200000042096","<img style='border: 4px solid darkgrey;' src='img/tf1_38_M_ss1.jpeg'></img>","3","","exp","","3","<img src='img/tf1_38_T1_ss1_md.jpeg'></img>","0","false",""
"","html-keyboard-response","89","250067","0.0-10.0-0.38","A109","""event"",""trial"",""time""
""fullscreenenter"",""0"",""1941""
","
","
","""event"",""trial"",""time""
""fullscreenenter"",""0"",""1941""
","
","null","<div style=""font-size:60px;"">+</div>","","null","fixation","2021-03-31 03:04:56.163","","","","",""
"","mars-trial","90","250947","0.0-10.0-1.38","A109","""event"",""trial"",""time""
""fullscreenenter"",""0"",""1941""
","
","
","""event"",""trial"",""time""
""fullscreenenter"",""0"",""1941""
","
","272.8300000017043","<img style='border: 4px solid darkgrey;' src='img/tf1_39_M_ss2.jpeg'></img>","2","","exp","","2","<img src='img/tf1_39_T1_ss2_md.jpeg'></img>","0","false",""
"","html-keyboard-response","91","251449","0.0-10.0-0.39","A109","""event"",""trial"",""time""
""fullscreenenter"",""0"",""1941""
","
","
","""event"",""trial"",""time""
""fullscreenenter"",""0"",""1941""
","
","null","<div style=""font-size:60px;"">+</div>","","null","fixation","2021-03-31 03:04:57.545","","","","",""
"","mars-trial","92","252989","0.0-10.0-1.39","A109","""event"",""trial"",""time""
""fullscreenenter"",""0"",""1941""
","
","
","""event"",""trial"",""time""
""fullscreenenter"",""0"",""1941""
","
","932.7899999916553","<img style='border: 4px solid darkgrey;' src='img/tf1_40_M_ss3.jpeg'></img>","3","","exp","","1","<img src='img/tf1_40_T1_ss3_md.jpeg'></img>","0","false",""
"","html-keyboard-response","93","253492","0.0-10.0-0.40","A109","""event"",""trial"",""time""
""fullscreenenter"",""0"",""1941""
","
","
","""event"",""trial"",""time""
""fullscreenenter"",""0"",""1941""
","
","null","<div style=""font-size:60px;"">+</div>","","null","fixation","2021-03-31 03:04:59.588","","","","",""
"","mars-trial","94","254483","0.0-10.0-1.40","A109","""event"",""trial"",""time""
""fullscreenenter"",""0"",""1941""
","
","
","""event"",""trial"",""time""
""fullscreenenter"",""0"",""1941""
","
","384.0949999867007","<img style='border: 4px solid darkgrey;' src='img/tf1_41_M_ss1.jpeg'></img>","1","","exp","","2","<img src='img/tf1_41_T1_ss1_md.jpeg'></img>","0","false",""
"","html-keyboard-response","95","254989","0.0-10.0-0.41","A109","""event"",""trial"",""time""
""fullscreenenter"",""0"",""1941""
","
","
","""event"",""trial"",""time""
""fullscreenenter"",""0"",""1941""
","
","null","<div style=""font-size:60px;"">+</div>","","null","fixation","2021-03-31 03:05:01.085","","","","",""
"","mars-trial","96","273117","0.0-10.0-1.41","A109","""event"",""trial"",""time""
""fullscreenenter"",""0"",""1941""
","
","
","""event"",""trial"",""time""
""fullscreenenter"",""0"",""1941""
","
","17519.424999991315","<img style='border: 4px solid darkgrey;' src='img/tf1_42_M_ss2.jpeg'></img>","3","","exp","","3","<img src='img/tf1_42_T1_ss2_md.jpeg'></img>","0","false",""
"","html-keyboard-response","97","273620","0.0-10.0-0.42","A109","""event"",""trial"",""time""
""fullscreenenter"",""0"",""1941""
","
","
","""event"",""trial"",""time""
""fullscreenenter"",""0"",""1941""
","
","null","<div style=""font-size:60px;"">+</div>","","null","fixation","2021-03-31 03:05:19.717","","","","",""
"","mars-trial","98","283515","0.0-10.0-1.42","A109","""event"",""trial"",""time""
""fullscreenenter"",""0"",""1941""
","
","
","""event"",""trial"",""time""
""fullscreenenter"",""0"",""1941""
","
","9285.069999998086","<img style='border: 4px solid darkgrey;' src='img/tf1_43_M_ss3.jpeg'></img>","1","","exp","","0","<img src='img/tf1_43_T1_ss3_md.jpeg'></img>","0","true",""
"","html-keyboard-response","99","284019","0.0-10.0-0.43","A109","""event"",""trial"",""time""
""fullscreenenter"",""0"",""1941""
","
","
","""event"",""trial"",""time""
""fullscreenenter"",""0"",""1941""
","
","null","<div style=""font-size:60px;"">+</div>","","null","fixation","2021-03-31 03:05:30.115","","","","",""
"","mars-trial","100","296465","0.0-10.0-1.43","A109","""event"",""trial"",""time""
""fullscreenenter"",""0"",""1941""
","
","
","""event"",""trial"",""time""
""fullscreenenter"",""0"",""1941""
","
","11832.934999998542","<img style='border: 4px solid darkgrey;' src='img/tf1_44_M_ss1.jpeg'></img>","1","","exp","","3","<img src='img/tf1_44_T1_ss1_md.jpeg'></img>","0","false",""
"","html-keyboard-response","101","296968","0.0-10.0-0.44","A109","""event"",""trial"",""time""
""fullscreenenter"",""0"",""1941""
","
","
","""event"",""trial"",""time""
""fullscreenenter"",""0"",""1941""
","
","null","<div style=""font-size:60px;"">+</div>","","null","fixation","2021-03-31 03:05:43.064","","","","",""
"","mars-trial","102","298012","0.0-10.0-1.44","A109","""event"",""trial"",""time""
""fullscreenenter"",""0"",""1941""
","
","
","""event"",""trial"",""time""
""fullscreenenter"",""0"",""1941""
","
","438.3499999967171","<img style='border: 4px solid darkgrey;' src='img/tf1_45_M_ss2.jpeg'></img>","2","","exp","","1","<img src='img/tf1_45_T1_ss2_md.jpeg'></img>","0","false",""
"","html-keyboard-response","103","298515","0.0-10.0-0.45","A109","""event"",""trial"",""time""
""fullscreenenter"",""0"",""1941""
","
","
","""event"",""trial"",""time""
""fullscreenenter"",""0"",""1941""
","
","null","<div style=""font-size:60px;"">+</div>","","null","fixation","2021-03-31 03:05:44.611","","","","",""
"","mars-trial","104","299589","0.0-10.0-1.45","A109","""event"",""trial"",""time""
""fullscreenenter"",""0"",""1941""
","
","
","""event"",""trial"",""time""
""fullscreenenter"",""0"",""1941""
","
","465.28000000398606","<img style='border: 4px solid darkgrey;' src='img/tf1_46_M_ss3.jpeg'></img>","2","","exp","","0","<img src='img/tf1_46_T1_ss3_md.jpeg'></img>","0","true",""
"","html-keyboard-response","105","300091","0.0-10.0-0.46","A109","""event"",""trial"",""time""
""fullscreenenter"",""0"",""1941""
","
","
","""event"",""trial"",""time""
""fullscreenenter"",""0"",""1941""
","
","null","<div style=""font-size:60px;"">+</div>","","null","fixation","2021-03-31 03:05:46.187","","","","",""
"","mars-trial","106","301255","0.0-10.0-1.46","A109","""event"",""trial"",""time""
""fullscreenenter"",""0"",""1941""
","
","
","""event"",""trial"",""time""
""fullscreenenter"",""0"",""1941""
","
","558.5049999936018","<img style='border: 4px solid darkgrey;' src='img/tf1_47_M_ss1.jpeg'></img>","2","","exp","","2","<img src='img/tf1_47_T1_ss1_md.jpeg'></img>","0","false",""
"","html-keyboard-response","107","301756","0.0-10.0-0.47","A109","""event"",""trial"",""time""
""fullscreenenter"",""0"",""1941""
","
","
","""event"",""trial"",""time""
""fullscreenenter"",""0"",""1941""
","
","null","<div style=""font-size:60px;"">+</div>","","null","fixation","2021-03-31 03:05:47.852","","","","",""
"","mars-trial","108","302788","0.0-10.0-1.47","A109","""event"",""trial"",""time""
""fullscreenenter"",""0"",""1941""
","
","
","""event"",""trial"",""time""
""fullscreenenter"",""0"",""1941""
","
","423.1299999955809","<img style='border: 4px solid darkgrey;' src='img/tf1_48_M_ss2.jpeg'></img>","1","","exp","","2","<img src='img/tf1_48_T1_ss2_md.jpeg'></img>","0","false",""
"","html-keyboard-response","109","303291","0.0-10.0-0.48","A109","""event"",""trial"",""time""
""fullscreenenter"",""0"",""1941""
","
","
","""event"",""trial"",""time""
""fullscreenenter"",""0"",""1941""
","
","null","<div style=""font-size:60px;"">+</div>","","null","fixation","2021-03-31 03:05:49.387","","","","",""
"","mars-trial","110","304203","0.0-10.0-1.48","A109","""event"",""trial"",""time""
""fullscreenenter"",""0"",""1941""
","
","
","""event"",""trial"",""time""
""fullscreenenter"",""0"",""1941""
","
","301.12500001268927","<img style='border: 4px solid darkgrey;' src='img/tf1_49_M_ss3.jpeg'></img>","3","","exp","","0","<img src='img/tf1_49_T1_ss3_md.jpeg'></img>","0","true",""
"","html-keyboard-response","111","304704","0.0-10.0-0.49","A109","""event"",""trial"",""time""
""fullscreenenter"",""0"",""1941""
","
","
","""event"",""trial"",""time""
""fullscreenenter"",""0"",""1941""
","
","null","<div style=""font-size:60px;"">+</div>","","null","fixation","2021-03-31 03:05:50.800","","","","",""
"","mars-trial","112","305707","0.0-10.0-1.49","A109","""event"",""trial"",""time""
""fullscreenenter"",""0"",""1941""
","
","
","""event"",""trial"",""time""
""fullscreenenter"",""0"",""1941""
","
","391.3349999929778","<img style='border: 4px solid darkgrey;' src='img/tf1_50_M_ss1.jpeg'></img>","2","","exp","","2","<img src='img/tf1_50_T1_ss1_md.jpeg'></img>","0","false",""
"","html-keyboard-response","113","306212","0.0-10.0-0.50","A109","""event"",""trial"",""time""
""fullscreenenter"",""0"",""1941""
","
","
","""event"",""trial"",""time""
""fullscreenenter"",""0"",""1941""
","
","null","<div style=""font-size:60px;"">+</div>","","null","fixation","2021-03-31 03:05:52.308","","","","",""
"","mars-trial","114","307244","0.0-10.0-1.50","A109","""event"",""trial"",""time""
""fullscreenenter"",""0"",""1941""
","
","
","""event"",""trial"",""time""
""fullscreenenter"",""0"",""1941""
","
","423.3749999984866","<img style='border: 4px solid darkgrey;' src='img/tf1_51_M_ss2.jpeg'></img>","0","","exp","","3","<img src='img/tf1_51_T1_ss2_md.jpeg'></img>","0","false",""
"","html-keyboard-response","115","307748","0.0-10.0-0.51","A109","""event"",""trial"",""time""
""fullscreenenter"",""0"",""1941""
","
","
","""event"",""trial"",""time""
""fullscreenenter"",""0"",""1941""
","
","null","<div style=""font-size:60px;"">+</div>","","null","fixation","2021-03-31 03:05:53.844","","","","",""
"","mars-trial","116","308694","0.0-10.0-1.51","A109","""event"",""trial"",""time""
""fullscreenenter"",""0"",""1941""
","
","
","""event"",""trial"",""time""
""fullscreenenter"",""0"",""1941""
","
","340.37000000535045","<img style='border: 4px solid darkgrey;' src='img/tf1_52_M_ss3.jpeg'></img>","0","","exp","","1","<img src='img/tf1_52_T1_ss3_md.jpeg'></img>","0","false",""
"","html-keyboard-response","117","309196","0.0-10.0-0.52","A109","""event"",""trial"",""time""
""fullscreenenter"",""0"",""1941""
","
","
","""event"",""trial"",""time""
""fullscreenenter"",""0"",""1941""
","
","null","<div style=""font-size:60px;"">+</div>","","null","fixation","2021-03-31 03:05:55.292","","","","",""
"","mars-trial","118","310171","0.0-10.0-1.52","A109","""event"",""trial"",""time""
""fullscreenenter"",""0"",""1941""
","
","
","""event"",""trial"",""time""
""fullscreenenter"",""0"",""1941""
","
","362.26500000339","<img style='border: 4px solid darkgrey;' src='img/tf1_53_M_ss1.jpeg'></img>","1","","exp","","1","<img src='img/tf1_53_T1_ss1_md.jpeg'></img>","0","false",""
"","html-keyboard-response","119","310673","0.0-10.0-0.53","A109","""event"",""trial"",""time""
""fullscreenenter"",""0"",""1941""
","
","
","""event"",""trial"",""time""
""fullscreenenter"",""0"",""1941""
","
","null","<div style=""font-size:60px;"">+</div>","","null","fixation","2021-03-31 03:05:56.769","","","","",""
"","mars-trial","120","311573","0.0-10.0-1.53","A109","""event"",""trial"",""time""
""fullscreenenter"",""0"",""1941""
","
","
","""event"",""trial"",""time""
""fullscreenenter"",""0"",""1941""
","
","293.4149999928195","<img style='border: 4px solid darkgrey;' src='img/tf1_54_M_ss2.jpeg'></img>","1","","exp","","2","<img src='img/tf1_54_T1_ss2_md.jpeg'></img>","0","false",""
"","html-keyboard-response","121","312075","0.0-10.0-0.54","A109","""event"",""trial"",""time""
""fullscreenenter"",""0"",""1941""
","
","
","""event"",""trial"",""time""
""fullscreenenter"",""0"",""1941""
","
","null","<div style=""font-size:60px;"">+</div>","","null","fixation","2021-03-31 03:05:58.171","","","","",""
"","mars-trial","122","312943","0.0-10.0-1.54","A109","""event"",""trial"",""time""
""fullscreenenter"",""0"",""1941""
","
","
","""event"",""trial"",""time""
""fullscreenenter"",""0"",""1941""
","
","256.9999999977881","<img style='border: 4px solid darkgrey;' src='img/tf1_55_M_ss3.jpeg'></img>","2","","exp","","2","<img src='img/tf1_55_T1_ss3_md.jpeg'></img>","0","false",""
"","html-keyboard-response","123","313444","0.0-10.0-0.55","A109","""event"",""trial"",""time""
""fullscreenenter"",""0"",""1941""
","
","
","""event"",""trial"",""time""
""fullscreenenter"",""0"",""1941""
","
","null","<div style=""font-size:60px;"">+</div>","","null","fixation","2021-03-31 03:05:59.540","","","","",""
"","mars-trial","124","314398","0.0-10.0-1.55","A109","""event"",""trial"",""time""
""fullscreenenter"",""0"",""1941""
","
","
","""event"",""trial"",""time""
""fullscreenenter"",""0"",""1941""
","
","349.3199999938952","<img style='border: 4px solid darkgrey;' src='img/tf1_56_M_ss1.jpeg'></img>","3","","exp","","1","<img src='img/tf1_56_T1_ss1_md.jpeg'></img>","0","false",""
"","html-keyboard-response","125","314902","0.0-10.0-0.56","A109","""event"",""trial"",""time""
""fullscreenenter"",""0"",""1941""
","
","
","""event"",""trial"",""time""
""fullscreenenter"",""0"",""1941""
","
","null","<div style=""font-size:60px;"">+</div>","","null","fixation","2021-03-31 03:06:00.998","","","","",""
"","mars-trial","126","315796","0.0-10.0-1.56","A109","""event"",""trial"",""time""
""fullscreenenter"",""0"",""1941""
","
","
","""event"",""trial"",""time""
""fullscreenenter"",""0"",""1941""
","
","284.46500000427477","<img style='border: 4px solid darkgrey;' src='img/tf1_57_M_ss2.jpeg'></img>","2","","exp","","2","<img src='img/tf1_57_T1_ss2_md.jpeg'></img>","0","false",""
"","html-keyboard-response","127","316299","0.0-10.0-0.57","A109","""event"",""trial"",""time""
""fullscreenenter"",""0"",""1941""
","
","
","""event"",""trial"",""time""
""fullscreenenter"",""0"",""1941""
","
","null","<div style=""font-size:60px;"">+</div>","","null","fixation","2021-03-31 03:06:02.395","","","","",""
"","mars-trial","128","317229","0.0-10.0-1.57","A109","""event"",""trial"",""time""
""fullscreenenter"",""0"",""1941""
","
","
","""event"",""trial"",""time""
""fullscreenenter"",""0"",""1941""
","
","325.41000000492204","<img style='border: 4px solid darkgrey;' src='img/tf1_58_M_ss3.jpeg'></img>","1","","exp","","1","<img src='img/tf1_58_T1_ss3_md.jpeg'></img>","0","false",""
"","html-keyboard-response","129","317735","0.0-10.0-0.58","A109","""event"",""trial"",""time""
""fullscreenenter"",""0"",""1941""
","
","
","""event"",""trial"",""time""
""fullscreenenter"",""0"",""1941""
","
","null","<div style=""font-size:60px;"">+</div>","","null","fixation","2021-03-31 03:06:03.831","","","","",""
"","mars-trial","130","318766","0.0-10.0-1.58","A109","""event"",""trial"",""time""
""fullscreenenter"",""0"",""1941""
","
","
","""event"",""trial"",""time""
""fullscreenenter"",""0"",""1941""
","
","422.3700000002282","<img style='border: 4px solid darkgrey;' src='img/tf1_59_M_ss1.jpeg'></img>","0","","exp","","0","<img src='img/tf1_59_T1_ss1_md.jpeg'></img>","0","true",""
"","html-keyboard-response","131","319268","0.0-10.0-0.59","A109","""event"",""trial"",""time""
""fullscreenenter"",""0"",""1941""
","
","
","""event"",""trial"",""time""
""fullscreenenter"",""0"",""1941""
","
","null","<div style=""font-size:60px;"">+</div>","","null","fixation","2021-03-31 03:06:05.364","","","","",""
"","mars-trial","132","320828","0.0-10.0-1.59","A109","""event"",""trial"",""time""
""fullscreenenter"",""0"",""1941""
","
","
","""event"",""trial"",""time""
""fullscreenenter"",""0"",""1941""
","
","951.0599999921396","<img style='border: 4px solid darkgrey;' src='img/tf1_60_M_ss2.jpeg'></img>","2","","exp","","3","<img src='img/tf1_60_T1_ss2_md.jpeg'></img>","0","false",""
"","html-keyboard-response","133","321330","0.0-10.0-0.60","A109","""event"",""trial"",""time""
""fullscreenenter"",""0"",""1941""
","
","
","""event"",""trial"",""time""
""fullscreenenter"",""0"",""1941""
","
","null","<div style=""font-size:60px;"">+</div>","","null","fixation","2021-03-31 03:06:07.426","","","","",""
"","mars-trial","134","322261","0.0-10.0-1.60","A109","""event"",""trial"",""time""
""fullscreenenter"",""0"",""1941""
","
","
","""event"",""trial"",""time""
""fullscreenenter"",""0"",""1941""
","
","321.63500000024214","<img style='border: 4px solid darkgrey;' src='img/tf1_61_M_ss3.jpeg'></img>","1","","exp","","2","<img src='img/tf1_61_T1_ss3_md.jpeg'></img>","0","false",""
"","html-keyboard-response","135","322764","0.0-10.0-0.61","A109","""event"",""trial"",""time""
""fullscreenenter"",""0"",""1941""
","
","
","""event"",""trial"",""time""
""fullscreenenter"",""0"",""1941""
","
","null","<div style=""font-size:60px;"">+</div>","","null","fixation","2021-03-31 03:06:08.860","","","","",""
"","mars-trial","136","323663","0.0-10.0-1.61","A109","""event"",""trial"",""time""
""fullscreenenter"",""0"",""1941""
","
","
","""event"",""trial"",""time""
""fullscreenenter"",""0"",""1941""
","
","291.25999999814667","<img style='border: 4px solid darkgrey;' src='img/tf1_62_M_ss1.jpeg'></img>","3","","exp","","2","<img src='img/tf1_62_T1_ss1_md.jpeg'></img>","0","false",""
"","html-keyboard-response","137","324164","0.0-10.0-0.62","A109","""event"",""trial"",""time""
""fullscreenenter"",""0"",""1941""
","
","
","""event"",""trial"",""time""
""fullscreenenter"",""0"",""1941""
","
","null","<div style=""font-size:60px;"">+</div>","","null","fixation","2021-03-31 03:06:10.261","","","","",""
"","mars-trial","138","324924","0.0-10.0-1.62","A109","""event"",""trial"",""time""
""fullscreenenter"",""0"",""1941""
","
","
","""event"",""trial"",""time""
""fullscreenenter"",""0"",""1941""
","
","152.52000000327826","<img style='border: 4px solid darkgrey;' src='img/tf1_63_M_ss2.jpeg'></img>","2","","exp","","3","<img src='img/tf1_63_T1_ss2_md.jpeg'></img>","0","false",""
"","html-keyboard-response","139","325426","0.0-10.0-0.63","A109","""event"",""trial"",""time""
""fullscreenenter"",""0"",""1941""
","
","
","""event"",""trial"",""time""
""fullscreenenter"",""0"",""1941""
","
","null","<div style=""font-size:60px;"">+</div>","","null","fixation","2021-03-31 03:06:11.522","","","","",""
"","mars-trial","140","326344","0.0-10.0-1.63","A109","""event"",""trial"",""time""
""fullscreenenter"",""0"",""1941""
","
","
","""event"",""trial"",""time""
""fullscreenenter"",""0"",""1941""
","
","308.5600000049453","<img style='border: 4px solid darkgrey;' src='img/tf1_64_M_ss3.jpeg'></img>","0","","exp","","0","<img src='img/tf1_64_T1_ss3_md.jpeg'></img>","0","true",""
"","html-keyboard-response","141","326846","0.0-10.0-0.64","A109","""event"",""trial"",""time""
""fullscreenenter"",""0"",""1941""
","
","
","""event"",""trial"",""time""
""fullscreenenter"",""0"",""1941""
","
","null","<div style=""font-size:60px;"">+</div>","","null","fixation","2021-03-31 03:06:12.942","","","","",""
"","mars-trial","142","327886","0.0-10.0-1.64","A109","""event"",""trial"",""time""
""fullscreenenter"",""0"",""1941""
","
","
","""event"",""trial"",""time""
""fullscreenenter"",""0"",""1941""
","
","434.89999999292195","<img style='border: 4px solid darkgrey;' src='img/tf1_65_M_ss1.jpeg'></img>","1","","exp","","3","<img src='img/tf1_65_T1_ss1_md.jpeg'></img>","0","false",""
"","html-keyboard-response","143","328388","0.0-10.0-0.65","A109","""event"",""trial"",""time""
""fullscreenenter"",""0"",""1941""
","
","
","""event"",""trial"",""time""
""fullscreenenter"",""0"",""1941""
","
","null","<div style=""font-size:60px;"">+</div>","","null","fixation","2021-03-31 03:06:14.484","","","","",""
"","mars-trial","144","329456","0.0-10.0-1.65","A109","""event"",""trial"",""time""
""fullscreenenter"",""0"",""1941""
","
","
","""event"",""trial"",""time""
""fullscreenenter"",""0"",""1941""
","
","463.0800000013551","<img style='border: 4px solid darkgrey;' src='img/tf1_66_M_ss2.jpeg'></img>","2","","exp","","0","<img src='img/tf1_66_T1_ss2_md.jpeg'></img>","0","true",""
"","html-keyboard-response","145","329957","0.0-10.0-0.66","A109","""event"",""trial"",""time""
""fullscreenenter"",""0"",""1941""
","
","
","""event"",""trial"",""time""
""fullscreenenter"",""0"",""1941""
","
","null","<div style=""font-size:60px;"">+</div>","","null","fixation","2021-03-31 03:06:16.053","","","","",""
"","mars-trial","146","330986","0.0-10.0-1.66","A109","""event"",""trial"",""time""
""fullscreenenter"",""0"",""1941""
","
","
","""event"",""trial"",""time""
""fullscreenenter"",""0"",""1941""
","
","422.9250000062166","<img style='border: 4px solid darkgrey;' src='img/tf1_67_M_ss3.jpeg'></img>","2","","exp","","0","<img src='img/tf1_67_T1_ss3_md.jpeg'></img>","0","true",""
"","html-keyboard-response","147","331488","0.0-10.0-0.67","A109","""event"",""trial"",""time""
""fullscreenenter"",""0"",""1941""
","
","
","""event"",""trial"",""time""
""fullscreenenter"",""0"",""1941""
","
","null","<div style=""font-size:60px;"">+</div>","","null","fixation","2021-03-31 03:06:17.584","","","","",""
"","mars-trial","148","332358","0.0-10.0-1.67","A109","""event"",""trial"",""time""
""fullscreenenter"",""0"",""1941""
","
","
","""event"",""trial"",""time""
""fullscreenenter"",""0"",""1941""
","
","264.6649999951478","<img style='border: 4px solid darkgrey;' src='img/tf1_68_M_ss1.jpeg'></img>","1","","exp","","3","<img src='img/tf1_68_T1_ss1_md.jpeg'></img>","0","false",""
"","html-keyboard-response","149","332861","0.0-10.0-0.68","A109","""event"",""trial"",""time""
""fullscreenenter"",""0"",""1941""
","
","
","""event"",""trial"",""time""
""fullscreenenter"",""0"",""1941""
","
","null","<div style=""font-size:60px;"">+</div>","","null","fixation","2021-03-31 03:06:18.957","","","","",""
"","mars-trial","150","333792","0.0-10.0-1.68","A109","""event"",""trial"",""time""
""fullscreenenter"",""0"",""1941""
","
","
","""event"",""trial"",""time""
""fullscreenenter"",""0"",""1941""
","
","325.7350000058068","<img style='border: 4px solid darkgrey;' src='img/tf1_69_M_ss2.jpeg'></img>","0","","exp","","1","<img src='img/tf1_69_T1_ss2_md.jpeg'></img>","0","false",""
"","html-keyboard-response","151","334294","0.0-10.0-0.69","A109","""event"",""trial"",""time""
""fullscreenenter"",""0"",""1941""
","
","
","""event"",""trial"",""time""
""fullscreenenter"",""0"",""1941""
","
","null","<div style=""font-size:60px;"">+</div>","","null","fixation","2021-03-31 03:06:20.390","","","","",""
"","mars-trial","152","335267","0.0-10.0-1.69","A109","""event"",""trial"",""time""
""fullscreenenter"",""0"",""1941""
","
","
","""event"",""trial"",""time""
""fullscreenenter"",""0"",""1941""
","
","365.64499999803957","<img style='border: 4px solid darkgrey;' src='img/tf1_70_M_ss3.jpeg'></img>","3","","exp","","2","<img src='img/tf1_70_T1_ss3_md.jpeg'></img>","0","false",""
"","html-keyboard-response","153","335772","0.0-10.0-0.70","A109","""event"",""trial"",""time""
""fullscreenenter"",""0"",""1941""
","
","
","""event"",""trial"",""time""
""fullscreenenter"",""0"",""1941""
","
","null","<div style=""font-size:60px;"">+</div>","","null","fixation","2021-03-31 03:06:21.868","","","","",""
"","mars-trial","154","336550","0.0-10.0-1.70","A109","""event"",""trial"",""time""
""fullscreenenter"",""0"",""1941""
","
","
","""event"",""trial"",""time""
""fullscreenenter"",""0"",""1941""
","
","165.34500000125263","<img style='border: 4px solid darkgrey;' src='img/tf1_71_M_ss1.jpeg'></img>","3","","exp","","0","<img src='img/tf1_71_T1_ss1_md.jpeg'></img>","0","true",""
"","html-keyboard-response","155","337054","0.0-10.0-0.71","A109","""event"",""trial"",""time""
""fullscreenenter"",""0"",""1941""
","
","
","""event"",""trial"",""time""
""fullscreenenter"",""0"",""1941""
","
","null","<div style=""font-size:60px;"">+</div>","","null","fixation","2021-03-31 03:06:23.150","","","","",""
"","mars-trial","156","337978","0.0-10.0-1.71","A109","""event"",""trial"",""time""
""fullscreenenter"",""0"",""1941""
","
","
","""event"",""trial"",""time""
""fullscreenenter"",""0"",""1941""
","
","318.35500001034234","<img style='border: 4px solid darkgrey;' src='img/tf1_72_M_ss2.jpeg'></img>","2","","exp","","3","<img src='img/tf1_72_T1_ss2_md.jpeg'></img>","0","false",""
"","html-keyboard-response","157","338480","0.0-10.0-0.72","A109","""event"",""trial"",""time""
""fullscreenenter"",""0"",""1941""
","
","
","""event"",""trial"",""time""
""fullscreenenter"",""0"",""1941""
","
","null","<div style=""font-size:60px;"">+</div>","","null","fixation","2021-03-31 03:06:24.577","","","","",""
"","mars-trial","158","339375","0.0-10.0-1.72","A109","""event"",""trial"",""time""
""fullscreenenter"",""0"",""1941""
","
","
","""event"",""trial"",""time""
""fullscreenenter"",""0"",""1941""
","
","286.31499999028165","<img style='border: 4px solid darkgrey;' src='img/tf1_73_M_ss3.jpeg'></img>","3","","exp","","2","<img src='img/tf1_73_T1_ss3_md.jpeg'></img>","0","false",""
"","html-keyboard-response","159","339876","0.0-10.0-0.73","A109","""event"",""trial"",""time""
""fullscreenenter"",""0"",""1941""
","
","
","""event"",""trial"",""time""
""fullscreenenter"",""0"",""1941""
","
","null","<div style=""font-size:60px;"">+</div>","","null","fixation","2021-03-31 03:06:25.972","","","","",""
"","mars-trial","160","340654","0.0-10.0-1.73","A109","""event"",""trial"",""time""
""fullscreenenter"",""0"",""1941""
","
","
","""event"",""trial"",""time""
""fullscreenenter"",""0"",""1941""
","
","166.4500000042608","<img style='border: 4px solid darkgrey;' src='img/tf1_74_M_ss1.jpeg'></img>","1","","exp","","3","<img src='img/tf1_74_T1_ss1_md.jpeg'></img>","0","false",""
"","html-keyboard-response","161","341159","0.0-10.0-0.74","A109","""event"",""trial"",""time""
""fullscreenenter"",""0"",""1941""
","
","
","""event"",""trial"",""time""
""fullscreenenter"",""0"",""1941""
","
","null","<div style=""font-size:60px;"">+</div>","","null","fixation","2021-03-31 03:06:27.255","","","","",""
"","mars-trial","162","342093","0.0-10.0-1.74","A109","""event"",""trial"",""time""
""fullscreenenter"",""0"",""1941""
","
","
","""event"",""trial"",""time""
""fullscreenenter"",""0"",""1941""
","
","326.50500000454485","<img style='border: 4px solid darkgrey;' src='img/tf1_75_M_ss2.jpeg'></img>","0","","exp","","3","<img src='img/tf1_75_T1_ss2_md.jpeg'></img>","0","false",""
"","html-keyboard-response","163","342598","0.0-10.0-0.75","A109","""event"",""trial"",""time""
""fullscreenenter"",""0"",""1941""
","
","
","""event"",""trial"",""time""
""fullscreenenter"",""0"",""1941""
","
","null","<div style=""font-size:60px;"">+</div>","","null","fixation","2021-03-31 03:06:28.694","","","","",""
"","mars-trial","164","343847","0.0-10.0-1.75","A109","""event"",""trial"",""time""
""fullscreenenter"",""0"",""1941""
","
","
","""event"",""trial"",""time""
""fullscreenenter"",""0"",""1941""
","
","636.4549999998417","<img style='border: 4px solid darkgrey;' src='img/tf1_76_M_ss3.jpeg'></img>","2","","exp","","1","<img src='img/tf1_76_T1_ss3_md.jpeg'></img>","0","false",""
"","html-keyboard-response","165","344348","0.0-10.0-0.76","A109","""event"",""trial"",""time""
""fullscreenenter"",""0"",""1941""
","
","
","""event"",""trial"",""time""
""fullscreenenter"",""0"",""1941""
","
","null","<div style=""font-size:60px;"">+</div>","","null","fixation","2021-03-31 03:06:30.444","","","","",""
"","mars-trial","166","345414","0.0-10.0-1.76","A109","""event"",""trial"",""time""
""fullscreenenter"",""0"",""1941""
","
","
","""event"",""trial"",""time""
""fullscreenenter"",""0"",""1941""
","
","457.57499999308493","<img style='border: 4px solid darkgrey;' src='img/tf1_77_M_ss1.jpeg'></img>","2","","exp","","2","<img src='img/tf1_77_T1_ss1_md.jpeg'></img>","0","false",""
"","html-keyboard-response","167","345918","0.0-10.0-0.77","A109","""event"",""trial"",""time""
""fullscreenenter"",""0"",""1941""
","
","
","""event"",""trial"",""time""
""fullscreenenter"",""0"",""1941""
","
","null","<div style=""font-size:60px;"">+</div>","","null","fixation","2021-03-31 03:06:32.015","","","","",""
"","mars-trial","168","346836","0.0-10.0-1.77","A109","""event"",""trial"",""time""
""fullscreenenter"",""0"",""1941""
","
","
","""event"",""trial"",""time""
""fullscreenenter"",""0"",""1941""
","
","305.8500000042841","<img style='border: 4px solid darkgrey;' src='img/tf1_78_M_ss2.jpeg'></img>","2","","exp","","2","<img src='img/tf1_78_T1_ss2_md.jpeg'></img>","0","false",""
"","html-keyboard-response","169","347339","0.0-10.0-0.78","A109","""event"",""trial"",""time""
""fullscreenenter"",""0"",""1941""
","
","
","""event"",""trial"",""time""
""fullscreenenter"",""0"",""1941""
","
","null","<div style=""font-size:60px;"">+</div>","","null","fixation","2021-03-31 03:06:33.435","","","","",""
"","mars-trial","170","348220","0.0-10.0-1.78","A109","""event"",""trial"",""time""
""fullscreenenter"",""0"",""1941""
","
","
","""event"",""trial"",""time""
""fullscreenenter"",""0"",""1941""
","
","272.6649999967776","<img style='border: 4px solid darkgrey;' src='img/tf1_79_M_ss3.jpeg'></img>","1","","exp","","2","<img src='img/tf1_79_T1_ss3_md.jpeg'></img>","0","false",""
"","html-keyboard-response","171","348722","0.0-10.0-0.79","A109","""event"",""trial"",""time""
""fullscreenenter"",""0"",""1941""
","
","
","""event"",""trial"",""time""
""fullscreenenter"",""0"",""1941""
","
","null","<div style=""font-size:60px;"">+</div>","","null","fixation","2021-03-31 03:06:34.818","","","","",""
"","mars-trial","172","349826","0.0-10.0-1.79","A109","""event"",""trial"",""time""
""fullscreenenter"",""0"",""1941""
","
","
","""event"",""trial"",""time""
""fullscreenenter"",""0"",""1941""
","
","493.6650000017835","<img style='border: 4px solid darkgrey;' src='img/tf1_80_M_ss1.jpeg'></img>","2","","exp","","1","<img src='img/tf1_80_T1_ss1_md.jpeg'></img>","0","false",""
"","audio-button-response","173","352301","0.0-11.0","A109","""event"",""trial"",""time""
""fullscreenenter"",""0"",""1941""
","
","
","""event"",""trial"",""time""
""fullscreenenter"",""0"",""1941""
","
","2473.5450000007404","audio/mars_instructions_slide5.wav","0","","","","","","","",""
