"success","trial_type","trial_index","time_elapsed","internal_node_id","subject_id","interactions","blur_events","focus_events","fullscreenenter_events","fullscreenexit_events","rt","stimulus","button_pressed","key_press","part","timestamp","unshuffled_button","correct_response","correct_button","correct","value"
"true","fullscreen","0","3632","0.0-0.0","180","""event"",""trial"",""time""
""focus"",""0"",""0""
""fullscreenenter"",""0"",""2642""
","
","""event"",""trial"",""time""
""focus"",""0"",""0""
","""event"",""trial"",""time""
""fullscreenenter"",""0"",""2642""
","
","","","","","","","","","","",""
"","pavlovia","1","3639","0.0-1.0","180","""event"",""trial"",""time""
""focus"",""0"",""0""
""fullscreenenter"",""0"",""2642""
","
","""event"",""trial"",""time""
""focus"",""0"",""0""
","""event"",""trial"",""time""
""fullscreenenter"",""0"",""2642""
","
","","","","","","","","","","",""
"","html-button-response","2","5838","0.0-2.0","180","""event"",""trial"",""time""
""focus"",""0"",""0""
""fullscreenenter"",""0"",""2642""
","
","""event"",""trial"",""time""
""focus"",""0"",""0""
","""event"",""trial"",""time""
""fullscreenenter"",""0"",""2642""
","
","2196.6950000005454","<p>Welcome! Press START to begin.</p><br>","0","","","","","","","",""
"","audio-button-response","3","17494","0.0-3.0","180","""event"",""trial"",""time""
""focus"",""0"",""0""
""fullscreenenter"",""0"",""2642""
","
","""event"",""trial"",""time""
""focus"",""0"",""0""
","""event"",""trial"",""time""
""fullscreenenter"",""0"",""2642""
","
","11651.789999999892","audio/mars_instructions_slide2.wav","0","","","","","","","",""
"","audio-button-response","4","19511","0.0-4.0","180","""event"",""trial"",""time""
""focus"",""0"",""0""
""fullscreenenter"",""0"",""2642""
","
","""event"",""trial"",""time""
""focus"",""0"",""0""
","""event"",""trial"",""time""
""fullscreenenter"",""0"",""2642""
","
","2014.1899999998714","audio/mars_instructions_slide3.wav","0","","","","","","","",""
"","html-keyboard-response","5","20015","0.0-5.0-0.0","180","""event"",""trial"",""time""
""focus"",""0"",""0""
""fullscreenenter"",""0"",""2642""
","
","""event"",""trial"",""time""
""focus"",""0"",""0""
","""event"",""trial"",""time""
""fullscreenenter"",""0"",""2642""
","
","null","<div style=""font-size:60px;"">+</div>","","null","fixation","2021-03-30 02:31:27.459","","","","",""
"","mars-trial","6","28758","0.0-5.0-1.0","180","""event"",""trial"",""time""
""focus"",""0"",""0""
""fullscreenenter"",""0"",""2642""
","
","""event"",""trial"",""time""
""focus"",""0"",""0""
","""event"",""trial"",""time""
""fullscreenenter"",""0"",""2642""
","
","6630.390000000261","<img style='border: 4px solid darkgrey;' src='practice/pt1_M1.png'></img>","0","","practice","","1","<img src='practice/pt1_T1.png'></img>","0","false",""
"","html-keyboard-response","7","29263","0.0-5.1-0.1","180","""event"",""trial"",""time""
""focus"",""0"",""0""
""fullscreenenter"",""0"",""2642""
","
","""event"",""trial"",""time""
""focus"",""0"",""0""
","""event"",""trial"",""time""
""fullscreenenter"",""0"",""2642""
","
","null","<div style=""font-size:60px;"">+</div>","","null","fixation","2021-03-30 02:31:36.707","","","","",""
"","mars-trial","8","38082","0.0-5.1-1.1","180","""event"",""trial"",""time""
""focus"",""0"",""0""
""fullscreenenter"",""0"",""2642""
","
","""event"",""trial"",""time""
""focus"",""0"",""0""
","""event"",""trial"",""time""
""fullscreenenter"",""0"",""2642""
","
","6705.69500000056","<img style='border: 4px solid darkgrey;' src='practice/pt1_M1.png'></img>","3","","practice","","1","<img src='practice/pt1_T1.png'></img>","0","false",""
"","html-keyboard-response","9","38587","0.0-5.2-0.2","180","""event"",""trial"",""time""
""focus"",""0"",""0""
""fullscreenenter"",""0"",""2642""
""blur"",""10"",""43803""
","""event"",""trial"",""time""
""blur"",""10"",""43803""
","""event"",""trial"",""time""
""focus"",""0"",""0""
","""event"",""trial"",""time""
""fullscreenenter"",""0"",""2642""
","
","null","<div style=""font-size:60px;"">+</div>","","null","fixation","2021-03-30 02:31:46.031","","","","",""
"","mars-trial","10","70058","0.0-5.2-1.2","180","""event"",""trial"",""time""
""focus"",""0"",""0""
""fullscreenenter"",""0"",""2642""
""blur"",""10"",""43803""
","""event"",""trial"",""time""
""blur"",""10"",""43803""
","""event"",""trial"",""time""
""focus"",""0"",""0""
","""event"",""trial"",""time""
""fullscreenenter"",""0"",""2642""
","
","null","<img style='border: 4px solid darkgrey;' src='practice/pt1_M1.png'></img>","null","","practice","","null","<img src='practice/pt1_T1.png'></img>","0","false",""
"","html-keyboard-response","11","70894","0.0-5.3-0.3","180","""event"",""trial"",""time""
""focus"",""0"",""0""
""fullscreenenter"",""0"",""2642""
""blur"",""10"",""43803""
""focus"",""12"",""93936""
""blur"",""12"",""94884""
""focus"",""12"",""100175""
","""event"",""trial"",""time""
""blur"",""10"",""43803""
""blur"",""12"",""94884""
","""event"",""trial"",""time""
""focus"",""0"",""0""
""focus"",""12"",""93936""
""focus"",""12"",""100175""
","""event"",""trial"",""time""
""fullscreenenter"",""0"",""2642""
","
","null","<div style=""font-size:60px;"">+</div>","","null","fixation","2021-03-30 02:32:18.338","","","","",""
"","mars-trial","12","101868","0.0-5.3-1.3","180","""event"",""trial"",""time""
""focus"",""0"",""0""
""fullscreenenter"",""0"",""2642""
""blur"",""10"",""43803""
""focus"",""12"",""93936""
""blur"",""12"",""94884""
""focus"",""12"",""100175""
","""event"",""trial"",""time""
""blur"",""10"",""43803""
""blur"",""12"",""94884""
","""event"",""trial"",""time""
""focus"",""0"",""0""
""focus"",""12"",""93936""
""focus"",""12"",""100175""
","""event"",""trial"",""time""
""fullscreenenter"",""0"",""2642""
","
","null","<img style='border: 4px solid darkgrey;' src='practice/pt1_M1.png'></img>","null","","practice","","null","<img src='practice/pt1_T1.png'></img>","0","false",""
"","html-keyboard-response","13","102371","0.0-5.4-0.4","180","""event"",""trial"",""time""
""focus"",""0"",""0""
""fullscreenenter"",""0"",""2642""
""blur"",""10"",""43803""
""focus"",""12"",""93936""
""blur"",""12"",""94884""
""focus"",""12"",""100175""
","""event"",""trial"",""time""
""blur"",""10"",""43803""
""blur"",""12"",""94884""
","""event"",""trial"",""time""
""focus"",""0"",""0""
""focus"",""12"",""93936""
""focus"",""12"",""100175""
","""event"",""trial"",""time""
""fullscreenenter"",""0"",""2642""
","
","null","<div style=""font-size:60px;"">+</div>","","null","fixation","2021-03-30 02:32:49.815","","","","",""
"","mars-trial","14","107908","0.0-5.4-1.4","180","""event"",""trial"",""time""
""focus"",""0"",""0""
""fullscreenenter"",""0"",""2642""
""blur"",""10"",""43803""
""focus"",""12"",""93936""
""blur"",""12"",""94884""
""focus"",""12"",""100175""
","""event"",""trial"",""time""
""blur"",""10"",""43803""
""blur"",""12"",""94884""
","""event"",""trial"",""time""
""focus"",""0"",""0""
""focus"",""12"",""93936""
""focus"",""12"",""100175""
","""event"",""trial"",""time""
""fullscreenenter"",""0"",""2642""
","
","3430.3749999999127","<img style='border: 4px solid darkgrey;' src='practice/pt1_M1.png'></img>","3","","practice","","0","<img src='practice/pt1_T1.png'></img>","0","true",""
"","html-keyboard-response","15","108411","0.0-6.0-0.0","180","""event"",""trial"",""time""
""focus"",""0"",""0""
""fullscreenenter"",""0"",""2642""
""blur"",""10"",""43803""
""focus"",""12"",""93936""
""blur"",""12"",""94884""
""focus"",""12"",""100175""
","""event"",""trial"",""time""
""blur"",""10"",""43803""
""blur"",""12"",""94884""
","""event"",""trial"",""time""
""focus"",""0"",""0""
""focus"",""12"",""93936""
""focus"",""12"",""100175""
","""event"",""trial"",""time""
""fullscreenenter"",""0"",""2642""
","
","null","<div style=""font-size:60px;"">+</div>","","null","fixation","2021-03-30 02:32:55.855","","","","",""
"","mars-trial","16","113015","0.0-6.0-1.0","180","""event"",""trial"",""time""
""focus"",""0"",""0""
""fullscreenenter"",""0"",""2642""
""blur"",""10"",""43803""
""focus"",""12"",""93936""
""blur"",""12"",""94884""
""focus"",""12"",""100175""
","""event"",""trial"",""time""
""blur"",""10"",""43803""
""blur"",""12"",""94884""
","""event"",""trial"",""time""
""focus"",""0"",""0""
""focus"",""12"",""93936""
""focus"",""12"",""100175""
","""event"",""trial"",""time""
""fullscreenenter"",""0"",""2642""
","
","2491.954999999507","<img style='border: 4px solid darkgrey;' src='practice/pt2_M1.png'></img>","2","","practice","","0","<img src='practice/pt2_T1.png'></img>","0","true",""
"","html-keyboard-response","17","113517","0.0-7.0-0.0","180","""event"",""trial"",""time""
""focus"",""0"",""0""
""fullscreenenter"",""0"",""2642""
""blur"",""10"",""43803""
""focus"",""12"",""93936""
""blur"",""12"",""94884""
""focus"",""12"",""100175""
","""event"",""trial"",""time""
""blur"",""10"",""43803""
""blur"",""12"",""94884""
","""event"",""trial"",""time""
""focus"",""0"",""0""
""focus"",""12"",""93936""
""focus"",""12"",""100175""
","""event"",""trial"",""time""
""fullscreenenter"",""0"",""2642""
","
","null","<div style=""font-size:60px;"">+</div>","","null","fixation","2021-03-30 02:33:00.961","","","","",""
"","mars-trial","18","117630","0.0-7.0-1.0","180","""event"",""trial"",""time""
""focus"",""0"",""0""
""fullscreenenter"",""0"",""2642""
""blur"",""10"",""43803""
""focus"",""12"",""93936""
""blur"",""12"",""94884""
""focus"",""12"",""100175""
","""event"",""trial"",""time""
""blur"",""10"",""43803""
""blur"",""12"",""94884""
","""event"",""trial"",""time""
""focus"",""0"",""0""
""focus"",""12"",""93936""
""focus"",""12"",""100175""
","""event"",""trial"",""time""
""fullscreenenter"",""0"",""2642""
","
","2002.3200000014185","<img style='border: 4px solid darkgrey;' src='practice/pt3_M1.png'></img>","2","","practice","","0","<img src='practice/pt3_T1.png'></img>","0","true",""
"","audio-button-response","19","119092","0.0-8.0","180","""event"",""trial"",""time""
""focus"",""0"",""0""
""fullscreenenter"",""0"",""2642""
""blur"",""10"",""43803""
""focus"",""12"",""93936""
""blur"",""12"",""94884""
""focus"",""12"",""100175""
","""event"",""trial"",""time""
""blur"",""10"",""43803""
""blur"",""12"",""94884""
","""event"",""trial"",""time""
""focus"",""0"",""0""
""focus"",""12"",""93936""
""focus"",""12"",""100175""
","""event"",""trial"",""time""
""fullscreenenter"",""0"",""2642""
","
","1459.034999999858","audio/mars_instructions_slide4.wav","0","","","","","","","",""
"","call-function","20","119093","0.0-9.0","180","""event"",""trial"",""time""
""focus"",""0"",""0""
""fullscreenenter"",""0"",""2642""
""blur"",""10"",""43803""
""focus"",""12"",""93936""
""blur"",""12"",""94884""
""focus"",""12"",""100175""
","""event"",""trial"",""time""
""blur"",""10"",""43803""
""blur"",""12"",""94884""
","""event"",""trial"",""time""
""focus"",""0"",""0""
""focus"",""12"",""93936""
""focus"",""12"",""100175""
","""event"",""trial"",""time""
""fullscreenenter"",""0"",""2642""
","
","","","","","","","","","","",""
"","html-keyboard-response","21","119594","0.0-10.0-0.0","180","""event"",""trial"",""time""
""focus"",""0"",""0""
""fullscreenenter"",""0"",""2642""
""blur"",""10"",""43803""
""focus"",""12"",""93936""
""blur"",""12"",""94884""
""focus"",""12"",""100175""
","""event"",""trial"",""time""
""blur"",""10"",""43803""
""blur"",""12"",""94884""
","""event"",""trial"",""time""
""focus"",""0"",""0""
""focus"",""12"",""93936""
""focus"",""12"",""100175""
","""event"",""trial"",""time""
""fullscreenenter"",""0"",""2642""
","
","null","<div style=""font-size:60px;"">+</div>","","null","fixation","2021-03-30 02:33:07.039","","","","",""
"","mars-trial","22","122437","0.0-10.0-1.0","180","""event"",""trial"",""time""
""focus"",""0"",""0""
""fullscreenenter"",""0"",""2642""
""blur"",""10"",""43803""
""focus"",""12"",""93936""
""blur"",""12"",""94884""
""focus"",""12"",""100175""
","""event"",""trial"",""time""
""blur"",""10"",""43803""
""blur"",""12"",""94884""
","""event"",""trial"",""time""
""focus"",""0"",""0""
""focus"",""12"",""93936""
""focus"",""12"",""100175""
","""event"",""trial"",""time""
""fullscreenenter"",""0"",""2642""
","
","2229.8399999999674","<img style='border: 4px solid darkgrey;' src='img/tf1_1_M_ss3.jpeg'></img>","3","","exp","","0","<img src='img/tf1_1_T1_ss3_md.jpeg'></img>","0","true",""
"","html-keyboard-response","23","122942","0.0-10.0-0.1","180","""event"",""trial"",""time""
""focus"",""0"",""0""
""fullscreenenter"",""0"",""2642""
""blur"",""10"",""43803""
""focus"",""12"",""93936""
""blur"",""12"",""94884""
""focus"",""12"",""100175""
","""event"",""trial"",""time""
""blur"",""10"",""43803""
""blur"",""12"",""94884""
","""event"",""trial"",""time""
""focus"",""0"",""0""
""focus"",""12"",""93936""
""focus"",""12"",""100175""
","""event"",""trial"",""time""
""fullscreenenter"",""0"",""2642""
","
","null","<div style=""font-size:60px;"">+</div>","","null","fixation","2021-03-30 02:33:10.386","","","","",""
"","mars-trial","24","125853","0.0-10.0-1.1","180","""event"",""trial"",""time""
""focus"",""0"",""0""
""fullscreenenter"",""0"",""2642""
""blur"",""10"",""43803""
""focus"",""12"",""93936""
""blur"",""12"",""94884""
""focus"",""12"",""100175""
","""event"",""trial"",""time""
""blur"",""10"",""43803""
""blur"",""12"",""94884""
","""event"",""trial"",""time""
""focus"",""0"",""0""
""focus"",""12"",""93936""
""focus"",""12"",""100175""
","""event"",""trial"",""time""
""fullscreenenter"",""0"",""2642""
","
","2303.439999999682","<img style='border: 4px solid darkgrey;' src='img/tf1_2_M_ss1.jpeg'></img>","1","","exp","","0","<img src='img/tf1_2_T1_ss1_md.jpeg'></img>","0","true",""
"","html-keyboard-response","25","126355","0.0-10.0-0.2","180","""event"",""trial"",""time""
""focus"",""0"",""0""
""fullscreenenter"",""0"",""2642""
""blur"",""10"",""43803""
""focus"",""12"",""93936""
""blur"",""12"",""94884""
""focus"",""12"",""100175""
","""event"",""trial"",""time""
""blur"",""10"",""43803""
""blur"",""12"",""94884""
","""event"",""trial"",""time""
""focus"",""0"",""0""
""focus"",""12"",""93936""
""focus"",""12"",""100175""
","""event"",""trial"",""time""
""fullscreenenter"",""0"",""2642""
","
","null","<div style=""font-size:60px;"">+</div>","","null","fixation","2021-03-30 02:33:13.799","","","","",""
"","mars-trial","26","129261","0.0-10.0-1.2","180","""event"",""trial"",""time""
""focus"",""0"",""0""
""fullscreenenter"",""0"",""2642""
""blur"",""10"",""43803""
""focus"",""12"",""93936""
""blur"",""12"",""94884""
""focus"",""12"",""100175""
","""event"",""trial"",""time""
""blur"",""10"",""43803""
""blur"",""12"",""94884""
","""event"",""trial"",""time""
""focus"",""0"",""0""
""focus"",""12"",""93936""
""focus"",""12"",""100175""
","""event"",""trial"",""time""
""fullscreenenter"",""0"",""2642""
","
","2297.495000000694","<img style='border: 4px solid darkgrey;' src='img/tf1_3_M_ss2.jpeg'></img>","2","","exp","","0","<img src='img/tf1_3_T1_ss2_md.jpeg'></img>","0","true",""
"","html-keyboard-response","27","129763","0.0-10.0-0.3","180","""event"",""trial"",""time""
""focus"",""0"",""0""
""fullscreenenter"",""0"",""2642""
""blur"",""10"",""43803""
""focus"",""12"",""93936""
""blur"",""12"",""94884""
""focus"",""12"",""100175""
","""event"",""trial"",""time""
""blur"",""10"",""43803""
""blur"",""12"",""94884""
","""event"",""trial"",""time""
""focus"",""0"",""0""
""focus"",""12"",""93936""
""focus"",""12"",""100175""
","""event"",""trial"",""time""
""fullscreenenter"",""0"",""2642""
","
","null","<div style=""font-size:60px;"">+</div>","","null","fixation","2021-03-30 02:33:17.207","","","","",""
"","mars-trial","28","134303","0.0-10.0-1.3","180","""event"",""trial"",""time""
""focus"",""0"",""0""
""fullscreenenter"",""0"",""2642""
""blur"",""10"",""43803""
""focus"",""12"",""93936""
""blur"",""12"",""94884""
""focus"",""12"",""100175""
","""event"",""trial"",""time""
""blur"",""10"",""43803""
""blur"",""12"",""94884""
","""event"",""trial"",""time""
""focus"",""0"",""0""
""focus"",""12"",""93936""
""focus"",""12"",""100175""
","""event"",""trial"",""time""
""fullscreenenter"",""0"",""2642""
","
","3928.0949999992736","<img style='border: 4px solid darkgrey;' src='img/tf1_4_M_ss3.jpeg'></img>","0","","exp","","0","<img src='img/tf1_4_T1_ss3_md.jpeg'></img>","0","true",""
"","html-keyboard-response","29","134805","0.0-10.0-0.4","180","""event"",""trial"",""time""
""focus"",""0"",""0""
""fullscreenenter"",""0"",""2642""
""blur"",""10"",""43803""
""focus"",""12"",""93936""
""blur"",""12"",""94884""
""focus"",""12"",""100175""
","""event"",""trial"",""time""
""blur"",""10"",""43803""
""blur"",""12"",""94884""
","""event"",""trial"",""time""
""focus"",""0"",""0""
""focus"",""12"",""93936""
""focus"",""12"",""100175""
","""event"",""trial"",""time""
""fullscreenenter"",""0"",""2642""
","
","null","<div style=""font-size:60px;"">+</div>","","null","fixation","2021-03-30 02:33:22.249","","","","",""
"","mars-trial","30","137609","0.0-10.0-1.4","180","""event"",""trial"",""time""
""focus"",""0"",""0""
""fullscreenenter"",""0"",""2642""
""blur"",""10"",""43803""
""focus"",""12"",""93936""
""blur"",""12"",""94884""
""focus"",""12"",""100175""
","""event"",""trial"",""time""
""blur"",""10"",""43803""
""blur"",""12"",""94884""
","""event"",""trial"",""time""
""focus"",""0"",""0""
""focus"",""12"",""93936""
""focus"",""12"",""100175""
","""event"",""trial"",""time""
""fullscreenenter"",""0"",""2642""
","
","2189.6499999984517","<img style='border: 4px solid darkgrey;' src='img/tf1_5_M_ss1.jpeg'></img>","0","","exp","","0","<img src='img/tf1_5_T1_ss1_md.jpeg'></img>","0","true",""
"","html-keyboard-response","31","138114","0.0-10.0-0.5","180","""event"",""trial"",""time""
""focus"",""0"",""0""
""fullscreenenter"",""0"",""2642""
""blur"",""10"",""43803""
""focus"",""12"",""93936""
""blur"",""12"",""94884""
""focus"",""12"",""100175""
","""event"",""trial"",""time""
""blur"",""10"",""43803""
""blur"",""12"",""94884""
","""event"",""trial"",""time""
""focus"",""0"",""0""
""focus"",""12"",""93936""
""focus"",""12"",""100175""
","""event"",""trial"",""time""
""fullscreenenter"",""0"",""2642""
","
","null","<div style=""font-size:60px;"">+</div>","","null","fixation","2021-03-30 02:33:25.558","","","","",""
"","mars-trial","32","144124","0.0-10.0-1.5","180","""event"",""trial"",""time""
""focus"",""0"",""0""
""fullscreenenter"",""0"",""2642""
""blur"",""10"",""43803""
""focus"",""12"",""93936""
""blur"",""12"",""94884""
""focus"",""12"",""100175""
","""event"",""trial"",""time""
""blur"",""10"",""43803""
""blur"",""12"",""94884""
","""event"",""trial"",""time""
""focus"",""0"",""0""
""focus"",""12"",""93936""
""focus"",""12"",""100175""
","""event"",""trial"",""time""
""fullscreenenter"",""0"",""2642""
","
","5400.87499999936","<img style='border: 4px solid darkgrey;' src='img/tf1_6_M_ss2.jpeg'></img>","1","","exp","","2","<img src='img/tf1_6_T1_ss2_md.jpeg'></img>","0","false",""
"","html-keyboard-response","33","144627","0.0-10.0-0.6","180","""event"",""trial"",""time""
""focus"",""0"",""0""
""fullscreenenter"",""0"",""2642""
""blur"",""10"",""43803""
""focus"",""12"",""93936""
""blur"",""12"",""94884""
""focus"",""12"",""100175""
","""event"",""trial"",""time""
""blur"",""10"",""43803""
""blur"",""12"",""94884""
","""event"",""trial"",""time""
""focus"",""0"",""0""
""focus"",""12"",""93936""
""focus"",""12"",""100175""
","""event"",""trial"",""time""
""fullscreenenter"",""0"",""2642""
","
","null","<div style=""font-size:60px;"">+</div>","","null","fixation","2021-03-30 02:33:32.071","","","","",""
"","mars-trial","34","152004","0.0-10.0-1.6","180","""event"",""trial"",""time""
""focus"",""0"",""0""
""fullscreenenter"",""0"",""2642""
""blur"",""10"",""43803""
""focus"",""12"",""93936""
""blur"",""12"",""94884""
""focus"",""12"",""100175""
","""event"",""trial"",""time""
""blur"",""10"",""43803""
""blur"",""12"",""94884""
","""event"",""trial"",""time""
""focus"",""0"",""0""
""focus"",""12"",""93936""
""focus"",""12"",""100175""
","""event"",""trial"",""time""
""fullscreenenter"",""0"",""2642""
","
","6763.324999999895","<img style='border: 4px solid darkgrey;' src='img/tf1_7_M_ss3.jpeg'></img>","2","","exp","","0","<img src='img/tf1_7_T1_ss3_md.jpeg'></img>","0","true",""
"","html-keyboard-response","35","152508","0.0-10.0-0.7","180","""event"",""trial"",""time""
""focus"",""0"",""0""
""fullscreenenter"",""0"",""2642""
""blur"",""10"",""43803""
""focus"",""12"",""93936""
""blur"",""12"",""94884""
""focus"",""12"",""100175""
","""event"",""trial"",""time""
""blur"",""10"",""43803""
""blur"",""12"",""94884""
","""event"",""trial"",""time""
""focus"",""0"",""0""
""focus"",""12"",""93936""
""focus"",""12"",""100175""
","""event"",""trial"",""time""
""fullscreenenter"",""0"",""2642""
","
","null","<div style=""font-size:60px;"">+</div>","","null","fixation","2021-03-30 02:33:39.952","","","","",""
"","mars-trial","36","164195","0.0-10.0-1.7","180","""event"",""trial"",""time""
""focus"",""0"",""0""
""fullscreenenter"",""0"",""2642""
""blur"",""10"",""43803""
""focus"",""12"",""93936""
""blur"",""12"",""94884""
""focus"",""12"",""100175""
","""event"",""trial"",""time""
""blur"",""10"",""43803""
""blur"",""12"",""94884""
","""event"",""trial"",""time""
""focus"",""0"",""0""
""focus"",""12"",""93936""
""focus"",""12"",""100175""
","""event"",""trial"",""time""
""fullscreenenter"",""0"",""2642""
","
","11078.024999998888","<img style='border: 4px solid darkgrey;' src='img/tf1_8_M_ss1.jpeg'></img>","2","","exp","","1","<img src='img/tf1_8_T1_ss1_md.jpeg'></img>","0","false",""
"","html-keyboard-response","37","164697","0.0-10.0-0.8","180","""event"",""trial"",""time""
""focus"",""0"",""0""
""fullscreenenter"",""0"",""2642""
""blur"",""10"",""43803""
""focus"",""12"",""93936""
""blur"",""12"",""94884""
""focus"",""12"",""100175""
","""event"",""trial"",""time""
""blur"",""10"",""43803""
""blur"",""12"",""94884""
","""event"",""trial"",""time""
""focus"",""0"",""0""
""focus"",""12"",""93936""
""focus"",""12"",""100175""
","""event"",""trial"",""time""
""fullscreenenter"",""0"",""2642""
","
","null","<div style=""font-size:60px;"">+</div>","","null","fixation","2021-03-30 02:33:52.141","","","","",""
"","mars-trial","38","170174","0.0-10.0-1.8","180","""event"",""trial"",""time""
""focus"",""0"",""0""
""fullscreenenter"",""0"",""2642""
""blur"",""10"",""43803""
""focus"",""12"",""93936""
""blur"",""12"",""94884""
""focus"",""12"",""100175""
","""event"",""trial"",""time""
""blur"",""10"",""43803""
""blur"",""12"",""94884""
","""event"",""trial"",""time""
""focus"",""0"",""0""
""focus"",""12"",""93936""
""focus"",""12"",""100175""
","""event"",""trial"",""time""
""fullscreenenter"",""0"",""2642""
","
","4865.815000001021","<img style='border: 4px solid darkgrey;' src='img/tf1_9_M_ss2.jpeg'></img>","2","","exp","","0","<img src='img/tf1_9_T1_ss2_md.jpeg'></img>","0","true",""
"","html-keyboard-response","39","170681","0.0-10.0-0.9","180","""event"",""trial"",""time""
""focus"",""0"",""0""
""fullscreenenter"",""0"",""2642""
""blur"",""10"",""43803""
""focus"",""12"",""93936""
""blur"",""12"",""94884""
""focus"",""12"",""100175""
","""event"",""trial"",""time""
""blur"",""10"",""43803""
""blur"",""12"",""94884""
","""event"",""trial"",""time""
""focus"",""0"",""0""
""focus"",""12"",""93936""
""focus"",""12"",""100175""
","""event"",""trial"",""time""
""fullscreenenter"",""0"",""2642""
","
","null","<div style=""font-size:60px;"">+</div>","","null","fixation","2021-03-30 02:33:58.125","","","","",""
"","mars-trial","40","180595","0.0-10.0-1.9","180","""event"",""trial"",""time""
""focus"",""0"",""0""
""fullscreenenter"",""0"",""2642""
""blur"",""10"",""43803""
""focus"",""12"",""93936""
""blur"",""12"",""94884""
""focus"",""12"",""100175""
","""event"",""trial"",""time""
""blur"",""10"",""43803""
""blur"",""12"",""94884""
","""event"",""trial"",""time""
""focus"",""0"",""0""
""focus"",""12"",""93936""
""focus"",""12"",""100175""
","""event"",""trial"",""time""
""fullscreenenter"",""0"",""2642""
","
","9303.809999999416","<img style='border: 4px solid darkgrey;' src='img/tf1_10_M_ss3.jpeg'></img>","3","","exp","","1","<img src='img/tf1_10_T1_ss3_md.jpeg'></img>","0","false",""
"","html-keyboard-response","41","181098","0.0-10.0-0.10","180","""event"",""trial"",""time""
""focus"",""0"",""0""
""fullscreenenter"",""0"",""2642""
""blur"",""10"",""43803""
""focus"",""12"",""93936""
""blur"",""12"",""94884""
""focus"",""12"",""100175""
","""event"",""trial"",""time""
""blur"",""10"",""43803""
""blur"",""12"",""94884""
","""event"",""trial"",""time""
""focus"",""0"",""0""
""focus"",""12"",""93936""
""focus"",""12"",""100175""
","""event"",""trial"",""time""
""fullscreenenter"",""0"",""2642""
","
","null","<div style=""font-size:60px;"">+</div>","","null","fixation","2021-03-30 02:34:08.542","","","","",""
"","mars-trial","42","183236","0.0-10.0-1.10","180","""event"",""trial"",""time""
""focus"",""0"",""0""
""fullscreenenter"",""0"",""2642""
""blur"",""10"",""43803""
""focus"",""12"",""93936""
""blur"",""12"",""94884""
""focus"",""12"",""100175""
","""event"",""trial"",""time""
""blur"",""10"",""43803""
""blur"",""12"",""94884""
","""event"",""trial"",""time""
""focus"",""0"",""0""
""focus"",""12"",""93936""
""focus"",""12"",""100175""
","""event"",""trial"",""time""
""fullscreenenter"",""0"",""2642""
","
","1527.6749999993772","<img style='border: 4px solid darkgrey;' src='img/tf1_11_M_ss1.jpeg'></img>","1","","exp","","1","<img src='img/tf1_11_T1_ss1_md.jpeg'></img>","0","false",""
"","html-keyboard-response","43","183741","0.0-10.0-0.11","180","""event"",""trial"",""time""
""focus"",""0"",""0""
""fullscreenenter"",""0"",""2642""
""blur"",""10"",""43803""
""focus"",""12"",""93936""
""blur"",""12"",""94884""
""focus"",""12"",""100175""
","""event"",""trial"",""time""
""blur"",""10"",""43803""
""blur"",""12"",""94884""
","""event"",""trial"",""time""
""focus"",""0"",""0""
""focus"",""12"",""93936""
""focus"",""12"",""100175""
","""event"",""trial"",""time""
""fullscreenenter"",""0"",""2642""
","
","null","<div style=""font-size:60px;"">+</div>","","null","fixation","2021-03-30 02:34:11.185","","","","",""
"","mars-trial","44","188188","0.0-10.0-1.11","180","""event"",""trial"",""time""
""focus"",""0"",""0""
""fullscreenenter"",""0"",""2642""
""blur"",""10"",""43803""
""focus"",""12"",""93936""
""blur"",""12"",""94884""
""focus"",""12"",""100175""
","""event"",""trial"",""time""
""blur"",""10"",""43803""
""blur"",""12"",""94884""
","""event"",""trial"",""time""
""focus"",""0"",""0""
""focus"",""12"",""93936""
""focus"",""12"",""100175""
","""event"",""trial"",""time""
""fullscreenenter"",""0"",""2642""
","
","3835.784999999305","<img style='border: 4px solid darkgrey;' src='img/tf1_12_M_ss2.jpeg'></img>","2","","exp","","3","<img src='img/tf1_12_T1_ss2_md.jpeg'></img>","0","false",""
"","html-keyboard-response","45","188693","0.0-10.0-0.12","180","""event"",""trial"",""time""
""focus"",""0"",""0""
""fullscreenenter"",""0"",""2642""
""blur"",""10"",""43803""
""focus"",""12"",""93936""
""blur"",""12"",""94884""
""focus"",""12"",""100175""
","""event"",""trial"",""time""
""blur"",""10"",""43803""
""blur"",""12"",""94884""
","""event"",""trial"",""time""
""focus"",""0"",""0""
""focus"",""12"",""93936""
""focus"",""12"",""100175""
","""event"",""trial"",""time""
""fullscreenenter"",""0"",""2642""
","
","null","<div style=""font-size:60px;"">+</div>","","null","fixation","2021-03-30 02:34:16.137","","","","",""
"","mars-trial","46","191445","0.0-10.0-1.12","180","""event"",""trial"",""time""
""focus"",""0"",""0""
""fullscreenenter"",""0"",""2642""
""blur"",""10"",""43803""
""focus"",""12"",""93936""
""blur"",""12"",""94884""
""focus"",""12"",""100175""
","""event"",""trial"",""time""
""blur"",""10"",""43803""
""blur"",""12"",""94884""
","""event"",""trial"",""time""
""focus"",""0"",""0""
""focus"",""12"",""93936""
""focus"",""12"",""100175""
","""event"",""trial"",""time""
""fullscreenenter"",""0"",""2642""
","
","2144.094999999623","<img style='border: 4px solid darkgrey;' src='img/tf1_13_M_ss3.jpeg'></img>","1","","exp","","0","<img src='img/tf1_13_T1_ss3_md.jpeg'></img>","0","true",""
"","html-keyboard-response","47","191950","0.0-10.0-0.13","180","""event"",""trial"",""time""
""focus"",""0"",""0""
""fullscreenenter"",""0"",""2642""
""blur"",""10"",""43803""
""focus"",""12"",""93936""
""blur"",""12"",""94884""
""focus"",""12"",""100175""
","""event"",""trial"",""time""
""blur"",""10"",""43803""
""blur"",""12"",""94884""
","""event"",""trial"",""time""
""focus"",""0"",""0""
""focus"",""12"",""93936""
""focus"",""12"",""100175""
","""event"",""trial"",""time""
""fullscreenenter"",""0"",""2642""
","
","null","<div style=""font-size:60px;"">+</div>","","null","fixation","2021-03-30 02:34:19.394","","","","",""
"","mars-trial","48","196823","0.0-10.0-1.13","180","""event"",""trial"",""time""
""focus"",""0"",""0""
""fullscreenenter"",""0"",""2642""
""blur"",""10"",""43803""
""focus"",""12"",""93936""
""blur"",""12"",""94884""
""focus"",""12"",""100175""
","""event"",""trial"",""time""
""blur"",""10"",""43803""
""blur"",""12"",""94884""
","""event"",""trial"",""time""
""focus"",""0"",""0""
""focus"",""12"",""93936""
""focus"",""12"",""100175""
","""event"",""trial"",""time""
""fullscreenenter"",""0"",""2642""
","
","4262.844999999303","<img style='border: 4px solid darkgrey;' src='img/tf1_14_M_ss1.jpeg'></img>","3","","exp","","2","<img src='img/tf1_14_T1_ss1_md.jpeg'></img>","0","false",""
"","html-keyboard-response","49","197326","0.0-10.0-0.14","180","""event"",""trial"",""time""
""focus"",""0"",""0""
""fullscreenenter"",""0"",""2642""
""blur"",""10"",""43803""
""focus"",""12"",""93936""
""blur"",""12"",""94884""
""focus"",""12"",""100175""
","""event"",""trial"",""time""
""blur"",""10"",""43803""
""blur"",""12"",""94884""
","""event"",""trial"",""time""
""focus"",""0"",""0""
""focus"",""12"",""93936""
""focus"",""12"",""100175""
","""event"",""trial"",""time""
""fullscreenenter"",""0"",""2642""
","
","null","<div style=""font-size:60px;"">+</div>","","null","fixation","2021-03-30 02:34:24.770","","","","",""
"","mars-trial","50","201295","0.0-10.0-1.14","180","""event"",""trial"",""time""
""focus"",""0"",""0""
""fullscreenenter"",""0"",""2642""
""blur"",""10"",""43803""
""focus"",""12"",""93936""
""blur"",""12"",""94884""
""focus"",""12"",""100175""
","""event"",""trial"",""time""
""blur"",""10"",""43803""
""blur"",""12"",""94884""
","""event"",""trial"",""time""
""focus"",""0"",""0""
""focus"",""12"",""93936""
""focus"",""12"",""100175""
","""event"",""trial"",""time""
""fullscreenenter"",""0"",""2642""
","
","3360.935000000609","<img style='border: 4px solid darkgrey;' src='img/tf1_15_M_ss2.jpeg'></img>","3","","exp","","3","<img src='img/tf1_15_T1_ss2_md.jpeg'></img>","0","false",""
"","html-keyboard-response","51","201799","0.0-10.0-0.15","180","""event"",""trial"",""time""
""focus"",""0"",""0""
""fullscreenenter"",""0"",""2642""
""blur"",""10"",""43803""
""focus"",""12"",""93936""
""blur"",""12"",""94884""
""focus"",""12"",""100175""
""blur"",""52"",""203440""
""focus"",""52"",""204042""
""blur"",""52"",""204759""
""focus"",""52"",""225970""
","""event"",""trial"",""time""
""blur"",""10"",""43803""
""blur"",""12"",""94884""
""blur"",""52"",""203440""
""blur"",""52"",""204759""
","""event"",""trial"",""time""
""focus"",""0"",""0""
""focus"",""12"",""93936""
""focus"",""12"",""100175""
""focus"",""52"",""204042""
""focus"",""52"",""225970""
","""event"",""trial"",""time""
""fullscreenenter"",""0"",""2642""
","
","null","<div style=""font-size:60px;"">+</div>","","null","fixation","2021-03-30 02:34:29.243","","","","",""
"","mars-trial","52","230643","0.0-10.0-1.15","180","""event"",""trial"",""time""
""focus"",""0"",""0""
""fullscreenenter"",""0"",""2642""
""blur"",""10"",""43803""
""focus"",""12"",""93936""
""blur"",""12"",""94884""
""focus"",""12"",""100175""
""blur"",""52"",""203440""
""focus"",""52"",""204042""
""blur"",""52"",""204759""
""focus"",""52"",""225970""
","""event"",""trial"",""time""
""blur"",""10"",""43803""
""blur"",""12"",""94884""
""blur"",""52"",""203440""
""blur"",""52"",""204759""
","""event"",""trial"",""time""
""focus"",""0"",""0""
""focus"",""12"",""93936""
""focus"",""12"",""100175""
""focus"",""52"",""204042""
""focus"",""52"",""225970""
","""event"",""trial"",""time""
""fullscreenenter"",""0"",""2642""
","
","28233.824999999342","<img style='border: 4px solid darkgrey;' src='img/tf1_16_M_ss3.jpeg'></img>","2","","exp","","0","<img src='img/tf1_16_T1_ss3_md.jpeg'></img>","0","true",""
"","html-keyboard-response","53","231148","0.0-10.0-0.16","180","""event"",""trial"",""time""
""focus"",""0"",""0""
""fullscreenenter"",""0"",""2642""
""blur"",""10"",""43803""
""focus"",""12"",""93936""
""blur"",""12"",""94884""
""focus"",""12"",""100175""
""blur"",""52"",""203440""
""focus"",""52"",""204042""
""blur"",""52"",""204759""
""focus"",""52"",""225970""
","""event"",""trial"",""time""
""blur"",""10"",""43803""
""blur"",""12"",""94884""
""blur"",""52"",""203440""
""blur"",""52"",""204759""
","""event"",""trial"",""time""
""focus"",""0"",""0""
""focus"",""12"",""93936""
""focus"",""12"",""100175""
""focus"",""52"",""204042""
""focus"",""52"",""225970""
","""event"",""trial"",""time""
""fullscreenenter"",""0"",""2642""
","
","null","<div style=""font-size:60px;"">+</div>","","null","fixation","2021-03-30 02:34:58.592","","","","",""
"","mars-trial","54","234246","0.0-10.0-1.16","180","""event"",""trial"",""time""
""focus"",""0"",""0""
""fullscreenenter"",""0"",""2642""
""blur"",""10"",""43803""
""focus"",""12"",""93936""
""blur"",""12"",""94884""
""focus"",""12"",""100175""
""blur"",""52"",""203440""
""focus"",""52"",""204042""
""blur"",""52"",""204759""
""focus"",""52"",""225970""
","""event"",""trial"",""time""
""blur"",""10"",""43803""
""blur"",""12"",""94884""
""blur"",""52"",""203440""
""blur"",""52"",""204759""
","""event"",""trial"",""time""
""focus"",""0"",""0""
""focus"",""12"",""93936""
""focus"",""12"",""100175""
""focus"",""52"",""204042""
""focus"",""52"",""225970""
","""event"",""trial"",""time""
""fullscreenenter"",""0"",""2642""
","
","2488.825000000361","<img style='border: 4px solid darkgrey;' src='img/tf1_17_M_ss1.jpeg'></img>","2","","exp","","1","<img src='img/tf1_17_T1_ss1_md.jpeg'></img>","0","false",""
"","html-keyboard-response","55","234751","0.0-10.0-0.17","180","""event"",""trial"",""time""
""focus"",""0"",""0""
""fullscreenenter"",""0"",""2642""
""blur"",""10"",""43803""
""focus"",""12"",""93936""
""blur"",""12"",""94884""
""focus"",""12"",""100175""
""blur"",""52"",""203440""
""focus"",""52"",""204042""
""blur"",""52"",""204759""
""focus"",""52"",""225970""
""blur"",""56"",""237440""
""focus"",""56"",""243354""
","""event"",""trial"",""time""
""blur"",""10"",""43803""
""blur"",""12"",""94884""
""blur"",""52"",""203440""
""blur"",""52"",""204759""
""blur"",""56"",""237440""
","""event"",""trial"",""time""
""focus"",""0"",""0""
""focus"",""12"",""93936""
""focus"",""12"",""100175""
""focus"",""52"",""204042""
""focus"",""52"",""225970""
""focus"",""56"",""243354""
","""event"",""trial"",""time""
""fullscreenenter"",""0"",""2642""
","
","null","<div style=""font-size:60px;"">+</div>","","null","fixation","2021-03-30 02:35:02.195","","","","",""
"","mars-trial","56","246257","0.0-10.0-1.17","180","""event"",""trial"",""time""
""focus"",""0"",""0""
""fullscreenenter"",""0"",""2642""
""blur"",""10"",""43803""
""focus"",""12"",""93936""
""blur"",""12"",""94884""
""focus"",""12"",""100175""
""blur"",""52"",""203440""
""focus"",""52"",""204042""
""blur"",""52"",""204759""
""focus"",""52"",""225970""
""blur"",""56"",""237440""
""focus"",""56"",""243354""
","""event"",""trial"",""time""
""blur"",""10"",""43803""
""blur"",""12"",""94884""
""blur"",""52"",""203440""
""blur"",""52"",""204759""
""blur"",""56"",""237440""
","""event"",""trial"",""time""
""focus"",""0"",""0""
""focus"",""12"",""93936""
""focus"",""12"",""100175""
""focus"",""52"",""204042""
""focus"",""52"",""225970""
""focus"",""56"",""243354""
","""event"",""trial"",""time""
""fullscreenenter"",""0"",""2642""
","
","10892.524999999296","<img style='border: 4px solid darkgrey;' src='img/tf1_18_M_ss2.jpeg'></img>","1","","exp","","3","<img src='img/tf1_18_T1_ss2_md.jpeg'></img>","0","false",""
"","html-keyboard-response","57","246762","0.0-10.0-0.18","180","""event"",""trial"",""time""
""focus"",""0"",""0""
""fullscreenenter"",""0"",""2642""
""blur"",""10"",""43803""
""focus"",""12"",""93936""
""blur"",""12"",""94884""
""focus"",""12"",""100175""
""blur"",""52"",""203440""
""focus"",""52"",""204042""
""blur"",""52"",""204759""
""focus"",""52"",""225970""
""blur"",""56"",""237440""
""focus"",""56"",""243354""
","""event"",""trial"",""time""
""blur"",""10"",""43803""
""blur"",""12"",""94884""
""blur"",""52"",""203440""
""blur"",""52"",""204759""
""blur"",""56"",""237440""
","""event"",""trial"",""time""
""focus"",""0"",""0""
""focus"",""12"",""93936""
""focus"",""12"",""100175""
""focus"",""52"",""204042""
""focus"",""52"",""225970""
""focus"",""56"",""243354""
","""event"",""trial"",""time""
""fullscreenenter"",""0"",""2642""
","
","null","<div style=""font-size:60px;"">+</div>","","null","fixation","2021-03-30 02:35:14.206","","","","",""
"","mars-trial","58","251398","0.0-10.0-1.18","180","""event"",""trial"",""time""
""focus"",""0"",""0""
""fullscreenenter"",""0"",""2642""
""blur"",""10"",""43803""
""focus"",""12"",""93936""
""blur"",""12"",""94884""
""focus"",""12"",""100175""
""blur"",""52"",""203440""
""focus"",""52"",""204042""
""blur"",""52"",""204759""
""focus"",""52"",""225970""
""blur"",""56"",""237440""
""focus"",""56"",""243354""
","""event"",""trial"",""time""
""blur"",""10"",""43803""
""blur"",""12"",""94884""
""blur"",""52"",""203440""
""blur"",""52"",""204759""
""blur"",""56"",""237440""
","""event"",""trial"",""time""
""focus"",""0"",""0""
""focus"",""12"",""93936""
""focus"",""12"",""100175""
""focus"",""52"",""204042""
""focus"",""52"",""225970""
""focus"",""56"",""243354""
","""event"",""trial"",""time""
""fullscreenenter"",""0"",""2642""
","
","4027.0049999999173","<img style='border: 4px solid darkgrey;' src='img/tf1_19_M_ss3.jpeg'></img>","2","","exp","","1","<img src='img/tf1_19_T1_ss3_md.jpeg'></img>","0","false",""
"","html-keyboard-response","59","251902","0.0-10.0-0.19","180","""event"",""trial"",""time""
""focus"",""0"",""0""
""fullscreenenter"",""0"",""2642""
""blur"",""10"",""43803""
""focus"",""12"",""93936""
""blur"",""12"",""94884""
""focus"",""12"",""100175""
""blur"",""52"",""203440""
""focus"",""52"",""204042""
""blur"",""52"",""204759""
""focus"",""52"",""225970""
""blur"",""56"",""237440""
""focus"",""56"",""243354""
","""event"",""trial"",""time""
""blur"",""10"",""43803""
""blur"",""12"",""94884""
""blur"",""52"",""203440""
""blur"",""52"",""204759""
""blur"",""56"",""237440""
","""event"",""trial"",""time""
""focus"",""0"",""0""
""focus"",""12"",""93936""
""focus"",""12"",""100175""
""focus"",""52"",""204042""
""focus"",""52"",""225970""
""focus"",""56"",""243354""
","""event"",""trial"",""time""
""fullscreenenter"",""0"",""2642""
","
","null","<div style=""font-size:60px;"">+</div>","","null","fixation","2021-03-30 02:35:19.346","","","","",""
"","mars-trial","60","254639","0.0-10.0-1.19","180","""event"",""trial"",""time""
""focus"",""0"",""0""
""fullscreenenter"",""0"",""2642""
""blur"",""10"",""43803""
""focus"",""12"",""93936""
""blur"",""12"",""94884""
""focus"",""12"",""100175""
""blur"",""52"",""203440""
""focus"",""52"",""204042""
""blur"",""52"",""204759""
""focus"",""52"",""225970""
""blur"",""56"",""237440""
""focus"",""56"",""243354""
","""event"",""trial"",""time""
""blur"",""10"",""43803""
""blur"",""12"",""94884""
""blur"",""52"",""203440""
""blur"",""52"",""204759""
""blur"",""56"",""237440""
","""event"",""trial"",""time""
""focus"",""0"",""0""
""focus"",""12"",""93936""
""focus"",""12"",""100175""
""focus"",""52"",""204042""
""focus"",""52"",""225970""
""focus"",""56"",""243354""
","""event"",""trial"",""time""
""fullscreenenter"",""0"",""2642""
","
","2122.830000000249","<img style='border: 4px solid darkgrey;' src='img/tf1_20_M_ss1.jpeg'></img>","1","","exp","","0","<img src='img/tf1_20_T1_ss1_md.jpeg'></img>","0","true",""
"","html-keyboard-response","61","255145","0.0-10.0-0.20","180","""event"",""trial"",""time""
""focus"",""0"",""0""
""fullscreenenter"",""0"",""2642""
""blur"",""10"",""43803""
""focus"",""12"",""93936""
""blur"",""12"",""94884""
""focus"",""12"",""100175""
""blur"",""52"",""203440""
""focus"",""52"",""204042""
""blur"",""52"",""204759""
""focus"",""52"",""225970""
""blur"",""56"",""237440""
""focus"",""56"",""243354""
","""event"",""trial"",""time""
""blur"",""10"",""43803""
""blur"",""12"",""94884""
""blur"",""52"",""203440""
""blur"",""52"",""204759""
""blur"",""56"",""237440""
","""event"",""trial"",""time""
""focus"",""0"",""0""
""focus"",""12"",""93936""
""focus"",""12"",""100175""
""focus"",""52"",""204042""
""focus"",""52"",""225970""
""focus"",""56"",""243354""
","""event"",""trial"",""time""
""fullscreenenter"",""0"",""2642""
","
","null","<div style=""font-size:60px;"">+</div>","","null","fixation","2021-03-30 02:35:22.589","","","","",""
"","mars-trial","62","257394","0.0-10.0-1.20","180","""event"",""trial"",""time""
""focus"",""0"",""0""
""fullscreenenter"",""0"",""2642""
""blur"",""10"",""43803""
""focus"",""12"",""93936""
""blur"",""12"",""94884""
""focus"",""12"",""100175""
""blur"",""52"",""203440""
""focus"",""52"",""204042""
""blur"",""52"",""204759""
""focus"",""52"",""225970""
""blur"",""56"",""237440""
""focus"",""56"",""243354""
","""event"",""trial"",""time""
""blur"",""10"",""43803""
""blur"",""12"",""94884""
""blur"",""52"",""203440""
""blur"",""52"",""204759""
""blur"",""56"",""237440""
","""event"",""trial"",""time""
""focus"",""0"",""0""
""focus"",""12"",""93936""
""focus"",""12"",""100175""
""focus"",""52"",""204042""
""focus"",""52"",""225970""
""focus"",""56"",""243354""
","""event"",""trial"",""time""
""fullscreenenter"",""0"",""2642""
","
","1638.4049999996787","<img style='border: 4px solid darkgrey;' src='img/tf1_21_M_ss2.jpeg'></img>","2","","exp","","1","<img src='img/tf1_21_T1_ss2_md.jpeg'></img>","0","false",""
"","html-keyboard-response","63","257896","0.0-10.0-0.21","180","""event"",""trial"",""time""
""focus"",""0"",""0""
""fullscreenenter"",""0"",""2642""
""blur"",""10"",""43803""
""focus"",""12"",""93936""
""blur"",""12"",""94884""
""focus"",""12"",""100175""
""blur"",""52"",""203440""
""focus"",""52"",""204042""
""blur"",""52"",""204759""
""focus"",""52"",""225970""
""blur"",""56"",""237440""
""focus"",""56"",""243354""
","""event"",""trial"",""time""
""blur"",""10"",""43803""
""blur"",""12"",""94884""
""blur"",""52"",""203440""
""blur"",""52"",""204759""
""blur"",""56"",""237440""
","""event"",""trial"",""time""
""focus"",""0"",""0""
""focus"",""12"",""93936""
""focus"",""12"",""100175""
""focus"",""52"",""204042""
""focus"",""52"",""225970""
""focus"",""56"",""243354""
","""event"",""trial"",""time""
""fullscreenenter"",""0"",""2642""
","
","null","<div style=""font-size:60px;"">+</div>","","null","fixation","2021-03-30 02:35:25.340","","","","",""
"","mars-trial","64","261502","0.0-10.0-1.21","180","""event"",""trial"",""time""
""focus"",""0"",""0""
""fullscreenenter"",""0"",""2642""
""blur"",""10"",""43803""
""focus"",""12"",""93936""
""blur"",""12"",""94884""
""focus"",""12"",""100175""
""blur"",""52"",""203440""
""focus"",""52"",""204042""
""blur"",""52"",""204759""
""focus"",""52"",""225970""
""blur"",""56"",""237440""
""focus"",""56"",""243354""
","""event"",""trial"",""time""
""blur"",""10"",""43803""
""blur"",""12"",""94884""
""blur"",""52"",""203440""
""blur"",""52"",""204759""
""blur"",""56"",""237440""
","""event"",""trial"",""time""
""focus"",""0"",""0""
""focus"",""12"",""93936""
""focus"",""12"",""100175""
""focus"",""52"",""204042""
""focus"",""52"",""225970""
""focus"",""56"",""243354""
","""event"",""trial"",""time""
""fullscreenenter"",""0"",""2642""
","
","2998.630000000063","<img style='border: 4px solid darkgrey;' src='img/tf1_22_M_ss3.jpeg'></img>","2","","exp","","3","<img src='img/tf1_22_T1_ss3_md.jpeg'></img>","0","false",""
"","html-keyboard-response","65","262007","0.0-10.0-0.22","180","""event"",""trial"",""time""
""focus"",""0"",""0""
""fullscreenenter"",""0"",""2642""
""blur"",""10"",""43803""
""focus"",""12"",""93936""
""blur"",""12"",""94884""
""focus"",""12"",""100175""
""blur"",""52"",""203440""
""focus"",""52"",""204042""
""blur"",""52"",""204759""
""focus"",""52"",""225970""
""blur"",""56"",""237440""
""focus"",""56"",""243354""
","""event"",""trial"",""time""
""blur"",""10"",""43803""
""blur"",""12"",""94884""
""blur"",""52"",""203440""
""blur"",""52"",""204759""
""blur"",""56"",""237440""
","""event"",""trial"",""time""
""focus"",""0"",""0""
""focus"",""12"",""93936""
""focus"",""12"",""100175""
""focus"",""52"",""204042""
""focus"",""52"",""225970""
""focus"",""56"",""243354""
","""event"",""trial"",""time""
""fullscreenenter"",""0"",""2642""
","
","null","<div style=""font-size:60px;"">+</div>","","null","fixation","2021-03-30 02:35:29.451","","","","",""
"","mars-trial","66","264395","0.0-10.0-1.22","180","""event"",""trial"",""time""
""focus"",""0"",""0""
""fullscreenenter"",""0"",""2642""
""blur"",""10"",""43803""
""focus"",""12"",""93936""
""blur"",""12"",""94884""
""focus"",""12"",""100175""
""blur"",""52"",""203440""
""focus"",""52"",""204042""
""blur"",""52"",""204759""
""focus"",""52"",""225970""
""blur"",""56"",""237440""
""focus"",""56"",""243354""
","""event"",""trial"",""time""
""blur"",""10"",""43803""
""blur"",""12"",""94884""
""blur"",""52"",""203440""
""blur"",""52"",""204759""
""blur"",""56"",""237440""
","""event"",""trial"",""time""
""focus"",""0"",""0""
""focus"",""12"",""93936""
""focus"",""12"",""100175""
""focus"",""52"",""204042""
""focus"",""52"",""225970""
""focus"",""56"",""243354""
","""event"",""trial"",""time""
""fullscreenenter"",""0"",""2642""
","
","1777.5450000007986","<img style='border: 4px solid darkgrey;' src='img/tf1_23_M_ss1.jpeg'></img>","1","","exp","","2","<img src='img/tf1_23_T1_ss1_md.jpeg'></img>","0","false",""
"","html-keyboard-response","67","264898","0.0-10.0-0.23","180","""event"",""trial"",""time""
""focus"",""0"",""0""
""fullscreenenter"",""0"",""2642""
""blur"",""10"",""43803""
""focus"",""12"",""93936""
""blur"",""12"",""94884""
""focus"",""12"",""100175""
""blur"",""52"",""203440""
""focus"",""52"",""204042""
""blur"",""52"",""204759""
""focus"",""52"",""225970""
""blur"",""56"",""237440""
""focus"",""56"",""243354""
","""event"",""trial"",""time""
""blur"",""10"",""43803""
""blur"",""12"",""94884""
""blur"",""52"",""203440""
""blur"",""52"",""204759""
""blur"",""56"",""237440""
","""event"",""trial"",""time""
""focus"",""0"",""0""
""focus"",""12"",""93936""
""focus"",""12"",""100175""
""focus"",""52"",""204042""
""focus"",""52"",""225970""
""focus"",""56"",""243354""
","""event"",""trial"",""time""
""fullscreenenter"",""0"",""2642""
","
","null","<div style=""font-size:60px;"">+</div>","","null","fixation","2021-03-30 02:35:32.342","","","","",""
"","mars-trial","68","266482","0.0-10.0-1.23","180","""event"",""trial"",""time""
""focus"",""0"",""0""
""fullscreenenter"",""0"",""2642""
""blur"",""10"",""43803""
""focus"",""12"",""93936""
""blur"",""12"",""94884""
""focus"",""12"",""100175""
""blur"",""52"",""203440""
""focus"",""52"",""204042""
""blur"",""52"",""204759""
""focus"",""52"",""225970""
""blur"",""56"",""237440""
""focus"",""56"",""243354""
","""event"",""trial"",""time""
""blur"",""10"",""43803""
""blur"",""12"",""94884""
""blur"",""52"",""203440""
""blur"",""52"",""204759""
""blur"",""56"",""237440""
","""event"",""trial"",""time""
""focus"",""0"",""0""
""focus"",""12"",""93936""
""focus"",""12"",""100175""
""focus"",""52"",""204042""
""focus"",""52"",""225970""
""focus"",""56"",""243354""
","""event"",""trial"",""time""
""fullscreenenter"",""0"",""2642""
","
","974.659999999858","<img style='border: 4px solid darkgrey;' src='img/tf1_24_M_ss2.jpeg'></img>","3","","exp","","3","<img src='img/tf1_24_T1_ss2_md.jpeg'></img>","0","false",""
"","html-keyboard-response","69","266984","0.0-10.0-0.24","180","""event"",""trial"",""time""
""focus"",""0"",""0""
""fullscreenenter"",""0"",""2642""
""blur"",""10"",""43803""
""focus"",""12"",""93936""
""blur"",""12"",""94884""
""focus"",""12"",""100175""
""blur"",""52"",""203440""
""focus"",""52"",""204042""
""blur"",""52"",""204759""
""focus"",""52"",""225970""
""blur"",""56"",""237440""
""focus"",""56"",""243354""
","""event"",""trial"",""time""
""blur"",""10"",""43803""
""blur"",""12"",""94884""
""blur"",""52"",""203440""
""blur"",""52"",""204759""
""blur"",""56"",""237440""
","""event"",""trial"",""time""
""focus"",""0"",""0""
""focus"",""12"",""93936""
""focus"",""12"",""100175""
""focus"",""52"",""204042""
""focus"",""52"",""225970""
""focus"",""56"",""243354""
","""event"",""trial"",""time""
""fullscreenenter"",""0"",""2642""
","
","null","<div style=""font-size:60px;"">+</div>","","null","fixation","2021-03-30 02:35:34.428","","","","",""
"","mars-trial","70","272459","0.0-10.0-1.24","180","""event"",""trial"",""time""
""focus"",""0"",""0""
""fullscreenenter"",""0"",""2642""
""blur"",""10"",""43803""
""focus"",""12"",""93936""
""blur"",""12"",""94884""
""focus"",""12"",""100175""
""blur"",""52"",""203440""
""focus"",""52"",""204042""
""blur"",""52"",""204759""
""focus"",""52"",""225970""
""blur"",""56"",""237440""
""focus"",""56"",""243354""
","""event"",""trial"",""time""
""blur"",""10"",""43803""
""blur"",""12"",""94884""
""blur"",""52"",""203440""
""blur"",""52"",""204759""
""blur"",""56"",""237440""
","""event"",""trial"",""time""
""focus"",""0"",""0""
""focus"",""12"",""93936""
""focus"",""12"",""100175""
""focus"",""52"",""204042""
""focus"",""52"",""225970""
""focus"",""56"",""243354""
","""event"",""trial"",""time""
""fullscreenenter"",""0"",""2642""
","
","4867.150000000023","<img style='border: 4px solid darkgrey;' src='img/tf1_25_M_ss3.jpeg'></img>","1","","exp","","3","<img src='img/tf1_25_T1_ss3_md.jpeg'></img>","0","false",""
"","html-keyboard-response","71","272961","0.0-10.0-0.25","180","""event"",""trial"",""time""
""focus"",""0"",""0""
""fullscreenenter"",""0"",""2642""
""blur"",""10"",""43803""
""focus"",""12"",""93936""
""blur"",""12"",""94884""
""focus"",""12"",""100175""
""blur"",""52"",""203440""
""focus"",""52"",""204042""
""blur"",""52"",""204759""
""focus"",""52"",""225970""
""blur"",""56"",""237440""
""focus"",""56"",""243354""
""blur"",""72"",""273982""
","""event"",""trial"",""time""
""blur"",""10"",""43803""
""blur"",""12"",""94884""
""blur"",""52"",""203440""
""blur"",""52"",""204759""
""blur"",""56"",""237440""
""blur"",""72"",""273982""
","""event"",""trial"",""time""
""focus"",""0"",""0""
""focus"",""12"",""93936""
""focus"",""12"",""100175""
""focus"",""52"",""204042""
""focus"",""52"",""225970""
""focus"",""56"",""243354""
","""event"",""trial"",""time""
""fullscreenenter"",""0"",""2642""
","
","null","<div style=""font-size:60px;"">+</div>","","null","fixation","2021-03-30 02:35:40.405","","","","",""
"","mars-trial","72","303784","0.0-10.0-1.25","180","""event"",""trial"",""time""
""focus"",""0"",""0""
""fullscreenenter"",""0"",""2642""
""blur"",""10"",""43803""
""focus"",""12"",""93936""
""blur"",""12"",""94884""
""focus"",""12"",""100175""
""blur"",""52"",""203440""
""focus"",""52"",""204042""
""blur"",""52"",""204759""
""focus"",""52"",""225970""
""blur"",""56"",""237440""
""focus"",""56"",""243354""
""blur"",""72"",""273982""
","""event"",""trial"",""time""
""blur"",""10"",""43803""
""blur"",""12"",""94884""
""blur"",""52"",""203440""
""blur"",""52"",""204759""
""blur"",""56"",""237440""
""blur"",""72"",""273982""
","""event"",""trial"",""time""
""focus"",""0"",""0""
""focus"",""12"",""93936""
""focus"",""12"",""100175""
""focus"",""52"",""204042""
""focus"",""52"",""225970""
""focus"",""56"",""243354""
","""event"",""trial"",""time""
""fullscreenenter"",""0"",""2642""
","
","null","<img style='border: 4px solid darkgrey;' src='img/tf1_26_M_ss1.jpeg'></img>","null","","exp","","null","<img src='img/tf1_26_T1_ss1_md.jpeg'></img>","0","false",""
"","html-keyboard-response","73","304521","0.0-10.0-0.26","180","""event"",""trial"",""time""
""focus"",""0"",""0""
""fullscreenenter"",""0"",""2642""
""blur"",""10"",""43803""
""focus"",""12"",""93936""
""blur"",""12"",""94884""
""focus"",""12"",""100175""
""blur"",""52"",""203440""
""focus"",""52"",""204042""
""blur"",""52"",""204759""
""focus"",""52"",""225970""
""blur"",""56"",""237440""
""focus"",""56"",""243354""
""blur"",""72"",""273982""
""focus"",""73"",""304526""
""fullscreenexit"",""73"",""304528""
","""event"",""trial"",""time""
""blur"",""10"",""43803""
""blur"",""12"",""94884""
""blur"",""52"",""203440""
""blur"",""52"",""204759""
""blur"",""56"",""237440""
""blur"",""72"",""273982""
","""event"",""trial"",""time""
""focus"",""0"",""0""
""focus"",""12"",""93936""
""focus"",""12"",""100175""
""focus"",""52"",""204042""
""focus"",""52"",""225970""
""focus"",""56"",""243354""
""focus"",""73"",""304526""
","""event"",""trial"",""time""
""fullscreenenter"",""0"",""2642""
","""event"",""trial"",""time""
""fullscreenexit"",""73"",""304528""
","null","<div style=""font-size:60px;"">+</div>","","null","fixation","2021-03-30 02:36:11.965","","","","",""
"","mars-trial","74","306279","0.0-10.0-1.26","180","""event"",""trial"",""time""
""focus"",""0"",""0""
""fullscreenenter"",""0"",""2642""
""blur"",""10"",""43803""
""focus"",""12"",""93936""
""blur"",""12"",""94884""
""focus"",""12"",""100175""
""blur"",""52"",""203440""
""focus"",""52"",""204042""
""blur"",""52"",""204759""
""focus"",""52"",""225970""
""blur"",""56"",""237440""
""focus"",""56"",""243354""
""blur"",""72"",""273982""
""focus"",""73"",""304526""
""fullscreenexit"",""73"",""304528""
","""event"",""trial"",""time""
""blur"",""10"",""43803""
""blur"",""12"",""94884""
""blur"",""52"",""203440""
""blur"",""52"",""204759""
""blur"",""56"",""237440""
""blur"",""72"",""273982""
","""event"",""trial"",""time""
""focus"",""0"",""0""
""focus"",""12"",""93936""
""focus"",""12"",""100175""
""focus"",""52"",""204042""
""focus"",""52"",""225970""
""focus"",""56"",""243354""
""focus"",""73"",""304526""
","""event"",""trial"",""time""
""fullscreenenter"",""0"",""2642""
","""event"",""trial"",""time""
""fullscreenexit"",""73"",""304528""
","1147.34499999939","<img style='border: 4px solid darkgrey;' src='img/tf1_27_M_ss2.jpeg'></img>","2","","exp","","2","<img src='img/tf1_27_T1_ss2_md.jpeg'></img>","0","false",""
"","html-keyboard-response","75","306781","0.0-10.0-0.27","180","""event"",""trial"",""time""
""focus"",""0"",""0""
""fullscreenenter"",""0"",""2642""
""blur"",""10"",""43803""
""focus"",""12"",""93936""
""blur"",""12"",""94884""
""focus"",""12"",""100175""
""blur"",""52"",""203440""
""focus"",""52"",""204042""
""blur"",""52"",""204759""
""focus"",""52"",""225970""
""blur"",""56"",""237440""
""focus"",""56"",""243354""
""blur"",""72"",""273982""
""focus"",""73"",""304526""
""fullscreenexit"",""73"",""304528""
","""event"",""trial"",""time""
""blur"",""10"",""43803""
""blur"",""12"",""94884""
""blur"",""52"",""203440""
""blur"",""52"",""204759""
""blur"",""56"",""237440""
""blur"",""72"",""273982""
","""event"",""trial"",""time""
""focus"",""0"",""0""
""focus"",""12"",""93936""
""focus"",""12"",""100175""
""focus"",""52"",""204042""
""focus"",""52"",""225970""
""focus"",""56"",""243354""
""focus"",""73"",""304526""
","""event"",""trial"",""time""
""fullscreenenter"",""0"",""2642""
","""event"",""trial"",""time""
""fullscreenexit"",""73"",""304528""
","null","<div style=""font-size:60px;"">+</div>","","null","fixation","2021-03-30 02:36:14.225","","","","",""
"","mars-trial","76","313222","0.0-10.0-1.27","180","""event"",""trial"",""time""
""focus"",""0"",""0""
""fullscreenenter"",""0"",""2642""
""blur"",""10"",""43803""
""focus"",""12"",""93936""
""blur"",""12"",""94884""
""focus"",""12"",""100175""
""blur"",""52"",""203440""
""focus"",""52"",""204042""
""blur"",""52"",""204759""
""focus"",""52"",""225970""
""blur"",""56"",""237440""
""focus"",""56"",""243354""
""blur"",""72"",""273982""
""focus"",""73"",""304526""
""fullscreenexit"",""73"",""304528""
","""event"",""trial"",""time""
""blur"",""10"",""43803""
""blur"",""12"",""94884""
""blur"",""52"",""203440""
""blur"",""52"",""204759""
""blur"",""56"",""237440""
""blur"",""72"",""273982""
","""event"",""trial"",""time""
""focus"",""0"",""0""
""focus"",""12"",""93936""
""focus"",""12"",""100175""
""focus"",""52"",""204042""
""focus"",""52"",""225970""
""focus"",""56"",""243354""
""focus"",""73"",""304526""
","""event"",""trial"",""time""
""fullscreenenter"",""0"",""2642""
","""event"",""trial"",""time""
""fullscreenexit"",""73"",""304528""
","5830.254999998957","<img style='border: 4px solid darkgrey;' src='img/tf1_28_M_ss3.jpeg'></img>","3","","exp","","0","<img src='img/tf1_28_T1_ss3_md.jpeg'></img>","0","true",""
"","html-keyboard-response","77","313727","0.0-10.0-0.28","180","""event"",""trial"",""time""
""focus"",""0"",""0""
""fullscreenenter"",""0"",""2642""
""blur"",""10"",""43803""
""focus"",""12"",""93936""
""blur"",""12"",""94884""
""focus"",""12"",""100175""
""blur"",""52"",""203440""
""focus"",""52"",""204042""
""blur"",""52"",""204759""
""focus"",""52"",""225970""
""blur"",""56"",""237440""
""focus"",""56"",""243354""
""blur"",""72"",""273982""
""focus"",""73"",""304526""
""fullscreenexit"",""73"",""304528""
","""event"",""trial"",""time""
""blur"",""10"",""43803""
""blur"",""12"",""94884""
""blur"",""52"",""203440""
""blur"",""52"",""204759""
""blur"",""56"",""237440""
""blur"",""72"",""273982""
","""event"",""trial"",""time""
""focus"",""0"",""0""
""focus"",""12"",""93936""
""focus"",""12"",""100175""
""focus"",""52"",""204042""
""focus"",""52"",""225970""
""focus"",""56"",""243354""
""focus"",""73"",""304526""
","""event"",""trial"",""time""
""fullscreenenter"",""0"",""2642""
","""event"",""trial"",""time""
""fullscreenexit"",""73"",""304528""
","null","<div style=""font-size:60px;"">+</div>","","null","fixation","2021-03-30 02:36:21.171","","","","",""
"","mars-trial","78","316893","0.0-10.0-1.28","180","""event"",""trial"",""time""
""focus"",""0"",""0""
""fullscreenenter"",""0"",""2642""
""blur"",""10"",""43803""
""focus"",""12"",""93936""
""blur"",""12"",""94884""
""focus"",""12"",""100175""
""blur"",""52"",""203440""
""focus"",""52"",""204042""
""blur"",""52"",""204759""
""focus"",""52"",""225970""
""blur"",""56"",""237440""
""focus"",""56"",""243354""
""blur"",""72"",""273982""
""focus"",""73"",""304526""
""fullscreenexit"",""73"",""304528""
","""event"",""trial"",""time""
""blur"",""10"",""43803""
""blur"",""12"",""94884""
""blur"",""52"",""203440""
""blur"",""52"",""204759""
""blur"",""56"",""237440""
""blur"",""72"",""273982""
","""event"",""trial"",""time""
""focus"",""0"",""0""
""focus"",""12"",""93936""
""focus"",""12"",""100175""
""focus"",""52"",""204042""
""focus"",""52"",""225970""
""focus"",""56"",""243354""
""focus"",""73"",""304526""
","""event"",""trial"",""time""
""fullscreenenter"",""0"",""2642""
","""event"",""trial"",""time""
""fullscreenexit"",""73"",""304528""
","2555.220000000205","<img style='border: 4px solid darkgrey;' src='img/tf1_29_M_ss1.jpeg'></img>","2","","exp","","3","<img src='img/tf1_29_T1_ss1_md.jpeg'></img>","0","false",""
"","html-keyboard-response","79","317398","0.0-10.0-0.29","180","""event"",""trial"",""time""
""focus"",""0"",""0""
""fullscreenenter"",""0"",""2642""
""blur"",""10"",""43803""
""focus"",""12"",""93936""
""blur"",""12"",""94884""
""focus"",""12"",""100175""
""blur"",""52"",""203440""
""focus"",""52"",""204042""
""blur"",""52"",""204759""
""focus"",""52"",""225970""
""blur"",""56"",""237440""
""focus"",""56"",""243354""
""blur"",""72"",""273982""
""focus"",""73"",""304526""
""fullscreenexit"",""73"",""304528""
","""event"",""trial"",""time""
""blur"",""10"",""43803""
""blur"",""12"",""94884""
""blur"",""52"",""203440""
""blur"",""52"",""204759""
""blur"",""56"",""237440""
""blur"",""72"",""273982""
","""event"",""trial"",""time""
""focus"",""0"",""0""
""focus"",""12"",""93936""
""focus"",""12"",""100175""
""focus"",""52"",""204042""
""focus"",""52"",""225970""
""focus"",""56"",""243354""
""focus"",""73"",""304526""
","""event"",""trial"",""time""
""fullscreenenter"",""0"",""2642""
","""event"",""trial"",""time""
""fullscreenexit"",""73"",""304528""
","null","<div style=""font-size:60px;"">+</div>","","null","fixation","2021-03-30 02:36:24.842","","","","",""
"","mars-trial","80","319965","0.0-10.0-1.29","180","""event"",""trial"",""time""
""focus"",""0"",""0""
""fullscreenenter"",""0"",""2642""
""blur"",""10"",""43803""
""focus"",""12"",""93936""
""blur"",""12"",""94884""
""focus"",""12"",""100175""
""blur"",""52"",""203440""
""focus"",""52"",""204042""
""blur"",""52"",""204759""
""focus"",""52"",""225970""
""blur"",""56"",""237440""
""focus"",""56"",""243354""
""blur"",""72"",""273982""
""focus"",""73"",""304526""
""fullscreenexit"",""73"",""304528""
","""event"",""trial"",""time""
""blur"",""10"",""43803""
""blur"",""12"",""94884""
""blur"",""52"",""203440""
""blur"",""52"",""204759""
""blur"",""56"",""237440""
""blur"",""72"",""273982""
","""event"",""trial"",""time""
""focus"",""0"",""0""
""focus"",""12"",""93936""
""focus"",""12"",""100175""
""focus"",""52"",""204042""
""focus"",""52"",""225970""
""focus"",""56"",""243354""
""focus"",""73"",""304526""
","""event"",""trial"",""time""
""fullscreenenter"",""0"",""2642""
","""event"",""trial"",""time""
""fullscreenexit"",""73"",""304528""
","1960.3200000001234","<img style='border: 4px solid darkgrey;' src='img/tf1_30_M_ss2.jpeg'></img>","1","","exp","","2","<img src='img/tf1_30_T1_ss2_md.jpeg'></img>","0","false",""
"","html-keyboard-response","81","320467","0.0-10.0-0.30","180","""event"",""trial"",""time""
""focus"",""0"",""0""
""fullscreenenter"",""0"",""2642""
""blur"",""10"",""43803""
""focus"",""12"",""93936""
""blur"",""12"",""94884""
""focus"",""12"",""100175""
""blur"",""52"",""203440""
""focus"",""52"",""204042""
""blur"",""52"",""204759""
""focus"",""52"",""225970""
""blur"",""56"",""237440""
""focus"",""56"",""243354""
""blur"",""72"",""273982""
""focus"",""73"",""304526""
""fullscreenexit"",""73"",""304528""
","""event"",""trial"",""time""
""blur"",""10"",""43803""
""blur"",""12"",""94884""
""blur"",""52"",""203440""
""blur"",""52"",""204759""
""blur"",""56"",""237440""
""blur"",""72"",""273982""
","""event"",""trial"",""time""
""focus"",""0"",""0""
""focus"",""12"",""93936""
""focus"",""12"",""100175""
""focus"",""52"",""204042""
""focus"",""52"",""225970""
""focus"",""56"",""243354""
""focus"",""73"",""304526""
","""event"",""trial"",""time""
""fullscreenenter"",""0"",""2642""
","""event"",""trial"",""time""
""fullscreenexit"",""73"",""304528""
","null","<div style=""font-size:60px;"">+</div>","","null","fixation","2021-03-30 02:36:27.911","","","","",""
"","mars-trial","82","324641","0.0-10.0-1.30","180","""event"",""trial"",""time""
""focus"",""0"",""0""
""fullscreenenter"",""0"",""2642""
""blur"",""10"",""43803""
""focus"",""12"",""93936""
""blur"",""12"",""94884""
""focus"",""12"",""100175""
""blur"",""52"",""203440""
""focus"",""52"",""204042""
""blur"",""52"",""204759""
""focus"",""52"",""225970""
""blur"",""56"",""237440""
""focus"",""56"",""243354""
""blur"",""72"",""273982""
""focus"",""73"",""304526""
""fullscreenexit"",""73"",""304528""
","""event"",""trial"",""time""
""blur"",""10"",""43803""
""blur"",""12"",""94884""
""blur"",""52"",""203440""
""blur"",""52"",""204759""
""blur"",""56"",""237440""
""blur"",""72"",""273982""
","""event"",""trial"",""time""
""focus"",""0"",""0""
""focus"",""12"",""93936""
""focus"",""12"",""100175""
""focus"",""52"",""204042""
""focus"",""52"",""225970""
""focus"",""56"",""243354""
""focus"",""73"",""304526""
","""event"",""trial"",""time""
""fullscreenenter"",""0"",""2642""
","""event"",""trial"",""time""
""fullscreenexit"",""73"",""304528""
","3569.205000001588","<img style='border: 4px solid darkgrey;' src='img/tf1_31_M_ss3.jpeg'></img>","2","","exp","","3","<img src='img/tf1_31_T1_ss3_md.jpeg'></img>","0","false",""
"","html-keyboard-response","83","325146","0.0-10.0-0.31","180","""event"",""trial"",""time""
""focus"",""0"",""0""
""fullscreenenter"",""0"",""2642""
""blur"",""10"",""43803""
""focus"",""12"",""93936""
""blur"",""12"",""94884""
""focus"",""12"",""100175""
""blur"",""52"",""203440""
""focus"",""52"",""204042""
""blur"",""52"",""204759""
""focus"",""52"",""225970""
""blur"",""56"",""237440""
""focus"",""56"",""243354""
""blur"",""72"",""273982""
""focus"",""73"",""304526""
""fullscreenexit"",""73"",""304528""
","""event"",""trial"",""time""
""blur"",""10"",""43803""
""blur"",""12"",""94884""
""blur"",""52"",""203440""
""blur"",""52"",""204759""
""blur"",""56"",""237440""
""blur"",""72"",""273982""
","""event"",""trial"",""time""
""focus"",""0"",""0""
""focus"",""12"",""93936""
""focus"",""12"",""100175""
""focus"",""52"",""204042""
""focus"",""52"",""225970""
""focus"",""56"",""243354""
""focus"",""73"",""304526""
","""event"",""trial"",""time""
""fullscreenenter"",""0"",""2642""
","""event"",""trial"",""time""
""fullscreenexit"",""73"",""304528""
","null","<div style=""font-size:60px;"">+</div>","","null","fixation","2021-03-30 02:36:32.590","","","","",""
"","mars-trial","84","329618","0.0-10.0-1.31","180","""event"",""trial"",""time""
""focus"",""0"",""0""
""fullscreenenter"",""0"",""2642""
""blur"",""10"",""43803""
""focus"",""12"",""93936""
""blur"",""12"",""94884""
""focus"",""12"",""100175""
""blur"",""52"",""203440""
""focus"",""52"",""204042""
""blur"",""52"",""204759""
""focus"",""52"",""225970""
""blur"",""56"",""237440""
""focus"",""56"",""243354""
""blur"",""72"",""273982""
""focus"",""73"",""304526""
""fullscreenexit"",""73"",""304528""
","""event"",""trial"",""time""
""blur"",""10"",""43803""
""blur"",""12"",""94884""
""blur"",""52"",""203440""
""blur"",""52"",""204759""
""blur"",""56"",""237440""
""blur"",""72"",""273982""
","""event"",""trial"",""time""
""focus"",""0"",""0""
""focus"",""12"",""93936""
""focus"",""12"",""100175""
""focus"",""52"",""204042""
""focus"",""52"",""225970""
""focus"",""56"",""243354""
""focus"",""73"",""304526""
","""event"",""trial"",""time""
""fullscreenenter"",""0"",""2642""
","""event"",""trial"",""time""
""fullscreenexit"",""73"",""304528""
","3862.7450000003446","<img style='border: 4px solid darkgrey;' src='img/tf1_32_M_ss1.jpeg'></img>","1","","exp","","2","<img src='img/tf1_32_T1_ss1_md.jpeg'></img>","0","false",""
"","html-keyboard-response","85","330121","0.0-10.0-0.32","180","""event"",""trial"",""time""
""focus"",""0"",""0""
""fullscreenenter"",""0"",""2642""
""blur"",""10"",""43803""
""focus"",""12"",""93936""
""blur"",""12"",""94884""
""focus"",""12"",""100175""
""blur"",""52"",""203440""
""focus"",""52"",""204042""
""blur"",""52"",""204759""
""focus"",""52"",""225970""
""blur"",""56"",""237440""
""focus"",""56"",""243354""
""blur"",""72"",""273982""
""focus"",""73"",""304526""
""fullscreenexit"",""73"",""304528""
","""event"",""trial"",""time""
""blur"",""10"",""43803""
""blur"",""12"",""94884""
""blur"",""52"",""203440""
""blur"",""52"",""204759""
""blur"",""56"",""237440""
""blur"",""72"",""273982""
","""event"",""trial"",""time""
""focus"",""0"",""0""
""focus"",""12"",""93936""
""focus"",""12"",""100175""
""focus"",""52"",""204042""
""focus"",""52"",""225970""
""focus"",""56"",""243354""
""focus"",""73"",""304526""
","""event"",""trial"",""time""
""fullscreenenter"",""0"",""2642""
","""event"",""trial"",""time""
""fullscreenexit"",""73"",""304528""
","null","<div style=""font-size:60px;"">+</div>","","null","fixation","2021-03-30 02:36:37.565","","","","",""
"","mars-trial","86","331098","0.0-10.0-1.32","180","""event"",""trial"",""time""
""focus"",""0"",""0""
""fullscreenenter"",""0"",""2642""
""blur"",""10"",""43803""
""focus"",""12"",""93936""
""blur"",""12"",""94884""
""focus"",""12"",""100175""
""blur"",""52"",""203440""
""focus"",""52"",""204042""
""blur"",""52"",""204759""
""focus"",""52"",""225970""
""blur"",""56"",""237440""
""focus"",""56"",""243354""
""blur"",""72"",""273982""
""focus"",""73"",""304526""
""fullscreenexit"",""73"",""304528""
","""event"",""trial"",""time""
""blur"",""10"",""43803""
""blur"",""12"",""94884""
""blur"",""52"",""203440""
""blur"",""52"",""204759""
""blur"",""56"",""237440""
""blur"",""72"",""273982""
","""event"",""trial"",""time""
""focus"",""0"",""0""
""focus"",""12"",""93936""
""focus"",""12"",""100175""
""focus"",""52"",""204042""
""focus"",""52"",""225970""
""focus"",""56"",""243354""
""focus"",""73"",""304526""
","""event"",""trial"",""time""
""fullscreenenter"",""0"",""2642""
","""event"",""trial"",""time""
""fullscreenexit"",""73"",""304528""
","369.7400000000489","<img style='border: 4px solid darkgrey;' src='img/tf1_33_M_ss2.jpeg'></img>","2","","exp","","0","<img src='img/tf1_33_T1_ss2_md.jpeg'></img>","0","true",""
"","html-keyboard-response","87","331604","0.0-10.0-0.33","180","""event"",""trial"",""time""
""focus"",""0"",""0""
""fullscreenenter"",""0"",""2642""
""blur"",""10"",""43803""
""focus"",""12"",""93936""
""blur"",""12"",""94884""
""focus"",""12"",""100175""
""blur"",""52"",""203440""
""focus"",""52"",""204042""
""blur"",""52"",""204759""
""focus"",""52"",""225970""
""blur"",""56"",""237440""
""focus"",""56"",""243354""
""blur"",""72"",""273982""
""focus"",""73"",""304526""
""fullscreenexit"",""73"",""304528""
","""event"",""trial"",""time""
""blur"",""10"",""43803""
""blur"",""12"",""94884""
""blur"",""52"",""203440""
""blur"",""52"",""204759""
""blur"",""56"",""237440""
""blur"",""72"",""273982""
","""event"",""trial"",""time""
""focus"",""0"",""0""
""focus"",""12"",""93936""
""focus"",""12"",""100175""
""focus"",""52"",""204042""
""focus"",""52"",""225970""
""focus"",""56"",""243354""
""focus"",""73"",""304526""
","""event"",""trial"",""time""
""fullscreenenter"",""0"",""2642""
","""event"",""trial"",""time""
""fullscreenexit"",""73"",""304528""
","null","<div style=""font-size:60px;"">+</div>","","null","fixation","2021-03-30 02:36:39.048","","","","",""
"","mars-trial","88","332836","0.0-10.0-1.33","180","""event"",""trial"",""time""
""focus"",""0"",""0""
""fullscreenenter"",""0"",""2642""
""blur"",""10"",""43803""
""focus"",""12"",""93936""
""blur"",""12"",""94884""
""focus"",""12"",""100175""
""blur"",""52"",""203440""
""focus"",""52"",""204042""
""blur"",""52"",""204759""
""focus"",""52"",""225970""
""blur"",""56"",""237440""
""focus"",""56"",""243354""
""blur"",""72"",""273982""
""focus"",""73"",""304526""
""fullscreenexit"",""73"",""304528""
","""event"",""trial"",""time""
""blur"",""10"",""43803""
""blur"",""12"",""94884""
""blur"",""52"",""203440""
""blur"",""52"",""204759""
""blur"",""56"",""237440""
""blur"",""72"",""273982""
","""event"",""trial"",""time""
""focus"",""0"",""0""
""focus"",""12"",""93936""
""focus"",""12"",""100175""
""focus"",""52"",""204042""
""focus"",""52"",""225970""
""focus"",""56"",""243354""
""focus"",""73"",""304526""
","""event"",""trial"",""time""
""fullscreenenter"",""0"",""2642""
","""event"",""trial"",""time""
""fullscreenexit"",""73"",""304528""
","623.3200000006473","<img style='border: 4px solid darkgrey;' src='img/tf1_34_M_ss3.jpeg'></img>","1","","exp","","1","<img src='img/tf1_34_T1_ss3_md.jpeg'></img>","0","false",""
"","html-keyboard-response","89","333338","0.0-10.0-0.34","180","""event"",""trial"",""time""
""focus"",""0"",""0""
""fullscreenenter"",""0"",""2642""
""blur"",""10"",""43803""
""focus"",""12"",""93936""
""blur"",""12"",""94884""
""focus"",""12"",""100175""
""blur"",""52"",""203440""
""focus"",""52"",""204042""
""blur"",""52"",""204759""
""focus"",""52"",""225970""
""blur"",""56"",""237440""
""focus"",""56"",""243354""
""blur"",""72"",""273982""
""focus"",""73"",""304526""
""fullscreenexit"",""73"",""304528""
","""event"",""trial"",""time""
""blur"",""10"",""43803""
""blur"",""12"",""94884""
""blur"",""52"",""203440""
""blur"",""52"",""204759""
""blur"",""56"",""237440""
""blur"",""72"",""273982""
","""event"",""trial"",""time""
""focus"",""0"",""0""
""focus"",""12"",""93936""
""focus"",""12"",""100175""
""focus"",""52"",""204042""
""focus"",""52"",""225970""
""focus"",""56"",""243354""
""focus"",""73"",""304526""
","""event"",""trial"",""time""
""fullscreenenter"",""0"",""2642""
","""event"",""trial"",""time""
""fullscreenexit"",""73"",""304528""
","null","<div style=""font-size:60px;"">+</div>","","null","fixation","2021-03-30 02:36:40.782","","","","",""
"","mars-trial","90","334620","0.0-10.0-1.34","180","""event"",""trial"",""time""
""focus"",""0"",""0""
""fullscreenenter"",""0"",""2642""
""blur"",""10"",""43803""
""focus"",""12"",""93936""
""blur"",""12"",""94884""
""focus"",""12"",""100175""
""blur"",""52"",""203440""
""focus"",""52"",""204042""
""blur"",""52"",""204759""
""focus"",""52"",""225970""
""blur"",""56"",""237440""
""focus"",""56"",""243354""
""blur"",""72"",""273982""
""focus"",""73"",""304526""
""fullscreenexit"",""73"",""304528""
","""event"",""trial"",""time""
""blur"",""10"",""43803""
""blur"",""12"",""94884""
""blur"",""52"",""203440""
""blur"",""52"",""204759""
""blur"",""56"",""237440""
""blur"",""72"",""273982""
","""event"",""trial"",""time""
""focus"",""0"",""0""
""focus"",""12"",""93936""
""focus"",""12"",""100175""
""focus"",""52"",""204042""
""focus"",""52"",""225970""
""focus"",""56"",""243354""
""focus"",""73"",""304526""
","""event"",""trial"",""time""
""fullscreenenter"",""0"",""2642""
","""event"",""trial"",""time""
""fullscreenexit"",""73"",""304528""
","676.4050000002026","<img style='border: 4px solid darkgrey;' src='img/tf1_35_M_ss1.jpeg'></img>","1","","exp","","0","<img src='img/tf1_35_T1_ss1_md.jpeg'></img>","0","true",""
"","html-keyboard-response","91","335122","0.0-10.0-0.35","180","""event"",""trial"",""time""
""focus"",""0"",""0""
""fullscreenenter"",""0"",""2642""
""blur"",""10"",""43803""
""focus"",""12"",""93936""
""blur"",""12"",""94884""
""focus"",""12"",""100175""
""blur"",""52"",""203440""
""focus"",""52"",""204042""
""blur"",""52"",""204759""
""focus"",""52"",""225970""
""blur"",""56"",""237440""
""focus"",""56"",""243354""
""blur"",""72"",""273982""
""focus"",""73"",""304526""
""fullscreenexit"",""73"",""304528""
","""event"",""trial"",""time""
""blur"",""10"",""43803""
""blur"",""12"",""94884""
""blur"",""52"",""203440""
""blur"",""52"",""204759""
""blur"",""56"",""237440""
""blur"",""72"",""273982""
","""event"",""trial"",""time""
""focus"",""0"",""0""
""focus"",""12"",""93936""
""focus"",""12"",""100175""
""focus"",""52"",""204042""
""focus"",""52"",""225970""
""focus"",""56"",""243354""
""focus"",""73"",""304526""
","""event"",""trial"",""time""
""fullscreenenter"",""0"",""2642""
","""event"",""trial"",""time""
""fullscreenexit"",""73"",""304528""
","null","<div style=""font-size:60px;"">+</div>","","null","fixation","2021-03-30 02:36:42.566","","","","",""
"","mars-trial","92","336697","0.0-10.0-1.35","180","""event"",""trial"",""time""
""focus"",""0"",""0""
""fullscreenenter"",""0"",""2642""
""blur"",""10"",""43803""
""focus"",""12"",""93936""
""blur"",""12"",""94884""
""focus"",""12"",""100175""
""blur"",""52"",""203440""
""focus"",""52"",""204042""
""blur"",""52"",""204759""
""focus"",""52"",""225970""
""blur"",""56"",""237440""
""focus"",""56"",""243354""
""blur"",""72"",""273982""
""focus"",""73"",""304526""
""fullscreenexit"",""73"",""304528""
","""event"",""trial"",""time""
""blur"",""10"",""43803""
""blur"",""12"",""94884""
""blur"",""52"",""203440""
""blur"",""52"",""204759""
""blur"",""56"",""237440""
""blur"",""72"",""273982""
","""event"",""trial"",""time""
""focus"",""0"",""0""
""focus"",""12"",""93936""
""focus"",""12"",""100175""
""focus"",""52"",""204042""
""focus"",""52"",""225970""
""focus"",""56"",""243354""
""focus"",""73"",""304526""
","""event"",""trial"",""time""
""fullscreenenter"",""0"",""2642""
","""event"",""trial"",""time""
""fullscreenexit"",""73"",""304528""
","968.2800000009593","<img style='border: 4px solid darkgrey;' src='img/tf1_36_M_ss2.jpeg'></img>","2","","exp","","1","<img src='img/tf1_36_T1_ss2_md.jpeg'></img>","0","false",""
"","html-keyboard-response","93","337199","0.0-10.0-0.36","180","""event"",""trial"",""time""
""focus"",""0"",""0""
""fullscreenenter"",""0"",""2642""
""blur"",""10"",""43803""
""focus"",""12"",""93936""
""blur"",""12"",""94884""
""focus"",""12"",""100175""
""blur"",""52"",""203440""
""focus"",""52"",""204042""
""blur"",""52"",""204759""
""focus"",""52"",""225970""
""blur"",""56"",""237440""
""focus"",""56"",""243354""
""blur"",""72"",""273982""
""focus"",""73"",""304526""
""fullscreenexit"",""73"",""304528""
","""event"",""trial"",""time""
""blur"",""10"",""43803""
""blur"",""12"",""94884""
""blur"",""52"",""203440""
""blur"",""52"",""204759""
""blur"",""56"",""237440""
""blur"",""72"",""273982""
","""event"",""trial"",""time""
""focus"",""0"",""0""
""focus"",""12"",""93936""
""focus"",""12"",""100175""
""focus"",""52"",""204042""
""focus"",""52"",""225970""
""focus"",""56"",""243354""
""focus"",""73"",""304526""
","""event"",""trial"",""time""
""fullscreenenter"",""0"",""2642""
","""event"",""trial"",""time""
""fullscreenexit"",""73"",""304528""
","null","<div style=""font-size:60px;"">+</div>","","null","fixation","2021-03-30 02:36:44.643","","","","",""
"","mars-trial","94","338007","0.0-10.0-1.36","180","""event"",""trial"",""time""
""focus"",""0"",""0""
""fullscreenenter"",""0"",""2642""
""blur"",""10"",""43803""
""focus"",""12"",""93936""
""blur"",""12"",""94884""
""focus"",""12"",""100175""
""blur"",""52"",""203440""
""focus"",""52"",""204042""
""blur"",""52"",""204759""
""focus"",""52"",""225970""
""blur"",""56"",""237440""
""focus"",""56"",""243354""
""blur"",""72"",""273982""
""focus"",""73"",""304526""
""fullscreenexit"",""73"",""304528""
","""event"",""trial"",""time""
""blur"",""10"",""43803""
""blur"",""12"",""94884""
""blur"",""52"",""203440""
""blur"",""52"",""204759""
""blur"",""56"",""237440""
""blur"",""72"",""273982""
","""event"",""trial"",""time""
""focus"",""0"",""0""
""focus"",""12"",""93936""
""focus"",""12"",""100175""
""focus"",""52"",""204042""
""focus"",""52"",""225970""
""focus"",""56"",""243354""
""focus"",""73"",""304526""
","""event"",""trial"",""time""
""fullscreenenter"",""0"",""2642""
","""event"",""trial"",""time""
""fullscreenexit"",""73"",""304528""
","194.0600000016275","<img style='border: 4px solid darkgrey;' src='img/tf1_37_M_ss3.jpeg'></img>","3","","exp","","0","<img src='img/tf1_37_T1_ss3_md.jpeg'></img>","0","true",""
"","html-keyboard-response","95","338510","0.0-10.0-0.37","180","""event"",""trial"",""time""
""focus"",""0"",""0""
""fullscreenenter"",""0"",""2642""
""blur"",""10"",""43803""
""focus"",""12"",""93936""
""blur"",""12"",""94884""
""focus"",""12"",""100175""
""blur"",""52"",""203440""
""focus"",""52"",""204042""
""blur"",""52"",""204759""
""focus"",""52"",""225970""
""blur"",""56"",""237440""
""focus"",""56"",""243354""
""blur"",""72"",""273982""
""focus"",""73"",""304526""
""fullscreenexit"",""73"",""304528""
","""event"",""trial"",""time""
""blur"",""10"",""43803""
""blur"",""12"",""94884""
""blur"",""52"",""203440""
""blur"",""52"",""204759""
""blur"",""56"",""237440""
""blur"",""72"",""273982""
","""event"",""trial"",""time""
""focus"",""0"",""0""
""focus"",""12"",""93936""
""focus"",""12"",""100175""
""focus"",""52"",""204042""
""focus"",""52"",""225970""
""focus"",""56"",""243354""
""focus"",""73"",""304526""
","""event"",""trial"",""time""
""fullscreenenter"",""0"",""2642""
","""event"",""trial"",""time""
""fullscreenexit"",""73"",""304528""
","null","<div style=""font-size:60px;"">+</div>","","null","fixation","2021-03-30 02:36:45.954","","","","",""
"","mars-trial","96","340080","0.0-10.0-1.37","180","""event"",""trial"",""time""
""focus"",""0"",""0""
""fullscreenenter"",""0"",""2642""
""blur"",""10"",""43803""
""focus"",""12"",""93936""
""blur"",""12"",""94884""
""focus"",""12"",""100175""
""blur"",""52"",""203440""
""focus"",""52"",""204042""
""blur"",""52"",""204759""
""focus"",""52"",""225970""
""blur"",""56"",""237440""
""focus"",""56"",""243354""
""blur"",""72"",""273982""
""focus"",""73"",""304526""
""fullscreenexit"",""73"",""304528""
","""event"",""trial"",""time""
""blur"",""10"",""43803""
""blur"",""12"",""94884""
""blur"",""52"",""203440""
""blur"",""52"",""204759""
""blur"",""56"",""237440""
""blur"",""72"",""273982""
","""event"",""trial"",""time""
""focus"",""0"",""0""
""focus"",""12"",""93936""
""focus"",""12"",""100175""
""focus"",""52"",""204042""
""focus"",""52"",""225970""
""focus"",""56"",""243354""
""focus"",""73"",""304526""
","""event"",""trial"",""time""
""fullscreenenter"",""0"",""2642""
","""event"",""trial"",""time""
""fullscreenexit"",""73"",""304528""
","960.039999999979","<img style='border: 4px solid darkgrey;' src='img/tf1_38_M_ss1.jpeg'></img>","0","","exp","","1","<img src='img/tf1_38_T1_ss1_md.jpeg'></img>","0","false",""
"","html-keyboard-response","97","340582","0.0-10.0-0.38","180","""event"",""trial"",""time""
""focus"",""0"",""0""
""fullscreenenter"",""0"",""2642""
""blur"",""10"",""43803""
""focus"",""12"",""93936""
""blur"",""12"",""94884""
""focus"",""12"",""100175""
""blur"",""52"",""203440""
""focus"",""52"",""204042""
""blur"",""52"",""204759""
""focus"",""52"",""225970""
""blur"",""56"",""237440""
""focus"",""56"",""243354""
""blur"",""72"",""273982""
""focus"",""73"",""304526""
""fullscreenexit"",""73"",""304528""
","""event"",""trial"",""time""
""blur"",""10"",""43803""
""blur"",""12"",""94884""
""blur"",""52"",""203440""
""blur"",""52"",""204759""
""blur"",""56"",""237440""
""blur"",""72"",""273982""
","""event"",""trial"",""time""
""focus"",""0"",""0""
""focus"",""12"",""93936""
""focus"",""12"",""100175""
""focus"",""52"",""204042""
""focus"",""52"",""225970""
""focus"",""56"",""243354""
""focus"",""73"",""304526""
","""event"",""trial"",""time""
""fullscreenenter"",""0"",""2642""
","""event"",""trial"",""time""
""fullscreenexit"",""73"",""304528""
","null","<div style=""font-size:60px;"">+</div>","","null","fixation","2021-03-30 02:36:48.026","","","","",""
"","mars-trial","98","341568","0.0-10.0-1.38","180","""event"",""trial"",""time""
""focus"",""0"",""0""
""fullscreenenter"",""0"",""2642""
""blur"",""10"",""43803""
""focus"",""12"",""93936""
""blur"",""12"",""94884""
""focus"",""12"",""100175""
""blur"",""52"",""203440""
""focus"",""52"",""204042""
""blur"",""52"",""204759""
""focus"",""52"",""225970""
""blur"",""56"",""237440""
""focus"",""56"",""243354""
""blur"",""72"",""273982""
""focus"",""73"",""304526""
""fullscreenexit"",""73"",""304528""
","""event"",""trial"",""time""
""blur"",""10"",""43803""
""blur"",""12"",""94884""
""blur"",""52"",""203440""
""blur"",""52"",""204759""
""blur"",""56"",""237440""
""blur"",""72"",""273982""
","""event"",""trial"",""time""
""focus"",""0"",""0""
""focus"",""12"",""93936""
""focus"",""12"",""100175""
""focus"",""52"",""204042""
""focus"",""52"",""225970""
""focus"",""56"",""243354""
""focus"",""73"",""304526""
","""event"",""trial"",""time""
""fullscreenenter"",""0"",""2642""
","""event"",""trial"",""time""
""fullscreenexit"",""73"",""304528""
","379.6299999994808","<img style='border: 4px solid darkgrey;' src='img/tf1_39_M_ss2.jpeg'></img>","2","","exp","","1","<img src='img/tf1_39_T1_ss2_md.jpeg'></img>","0","false",""
"","html-keyboard-response","99","342072","0.0-10.0-0.39","180","""event"",""trial"",""time""
""focus"",""0"",""0""
""fullscreenenter"",""0"",""2642""
""blur"",""10"",""43803""
""focus"",""12"",""93936""
""blur"",""12"",""94884""
""focus"",""12"",""100175""
""blur"",""52"",""203440""
""focus"",""52"",""204042""
""blur"",""52"",""204759""
""focus"",""52"",""225970""
""blur"",""56"",""237440""
""focus"",""56"",""243354""
""blur"",""72"",""273982""
""focus"",""73"",""304526""
""fullscreenexit"",""73"",""304528""
","""event"",""trial"",""time""
""blur"",""10"",""43803""
""blur"",""12"",""94884""
""blur"",""52"",""203440""
""blur"",""52"",""204759""
""blur"",""56"",""237440""
""blur"",""72"",""273982""
","""event"",""trial"",""time""
""focus"",""0"",""0""
""focus"",""12"",""93936""
""focus"",""12"",""100175""
""focus"",""52"",""204042""
""focus"",""52"",""225970""
""focus"",""56"",""243354""
""focus"",""73"",""304526""
","""event"",""trial"",""time""
""fullscreenenter"",""0"",""2642""
","""event"",""trial"",""time""
""fullscreenexit"",""73"",""304528""
","null","<div style=""font-size:60px;"">+</div>","","null","fixation","2021-03-30 02:36:49.516","","","","",""
"","mars-trial","100","343468","0.0-10.0-1.39","180","""event"",""trial"",""time""
""focus"",""0"",""0""
""fullscreenenter"",""0"",""2642""
""blur"",""10"",""43803""
""focus"",""12"",""93936""
""blur"",""12"",""94884""
""focus"",""12"",""100175""
""blur"",""52"",""203440""
""focus"",""52"",""204042""
""blur"",""52"",""204759""
""focus"",""52"",""225970""
""blur"",""56"",""237440""
""focus"",""56"",""243354""
""blur"",""72"",""273982""
""focus"",""73"",""304526""
""fullscreenexit"",""73"",""304528""
","""event"",""trial"",""time""
""blur"",""10"",""43803""
""blur"",""12"",""94884""
""blur"",""52"",""203440""
""blur"",""52"",""204759""
""blur"",""56"",""237440""
""blur"",""72"",""273982""
","""event"",""trial"",""time""
""focus"",""0"",""0""
""focus"",""12"",""93936""
""focus"",""12"",""100175""
""focus"",""52"",""204042""
""focus"",""52"",""225970""
""focus"",""56"",""243354""
""focus"",""73"",""304526""
","""event"",""trial"",""time""
""fullscreenenter"",""0"",""2642""
","""event"",""trial"",""time""
""fullscreenexit"",""73"",""304528""
","785.1300000001793","<img style='border: 4px solid darkgrey;' src='img/tf1_40_M_ss3.jpeg'></img>","1","","exp","","2","<img src='img/tf1_40_T1_ss3_md.jpeg'></img>","0","false",""
"","html-keyboard-response","101","343973","0.0-10.0-0.40","180","""event"",""trial"",""time""
""focus"",""0"",""0""
""fullscreenenter"",""0"",""2642""
""blur"",""10"",""43803""
""focus"",""12"",""93936""
""blur"",""12"",""94884""
""focus"",""12"",""100175""
""blur"",""52"",""203440""
""focus"",""52"",""204042""
""blur"",""52"",""204759""
""focus"",""52"",""225970""
""blur"",""56"",""237440""
""focus"",""56"",""243354""
""blur"",""72"",""273982""
""focus"",""73"",""304526""
""fullscreenexit"",""73"",""304528""
","""event"",""trial"",""time""
""blur"",""10"",""43803""
""blur"",""12"",""94884""
""blur"",""52"",""203440""
""blur"",""52"",""204759""
""blur"",""56"",""237440""
""blur"",""72"",""273982""
","""event"",""trial"",""time""
""focus"",""0"",""0""
""focus"",""12"",""93936""
""focus"",""12"",""100175""
""focus"",""52"",""204042""
""focus"",""52"",""225970""
""focus"",""56"",""243354""
""focus"",""73"",""304526""
","""event"",""trial"",""time""
""fullscreenenter"",""0"",""2642""
","""event"",""trial"",""time""
""fullscreenexit"",""73"",""304528""
","null","<div style=""font-size:60px;"">+</div>","","null","fixation","2021-03-30 02:36:51.417","","","","",""
"","mars-trial","102","344964","0.0-10.0-1.40","180","""event"",""trial"",""time""
""focus"",""0"",""0""
""fullscreenenter"",""0"",""2642""
""blur"",""10"",""43803""
""focus"",""12"",""93936""
""blur"",""12"",""94884""
""focus"",""12"",""100175""
""blur"",""52"",""203440""
""focus"",""52"",""204042""
""blur"",""52"",""204759""
""focus"",""52"",""225970""
""blur"",""56"",""237440""
""focus"",""56"",""243354""
""blur"",""72"",""273982""
""focus"",""73"",""304526""
""fullscreenexit"",""73"",""304528""
","""event"",""trial"",""time""
""blur"",""10"",""43803""
""blur"",""12"",""94884""
""blur"",""52"",""203440""
""blur"",""52"",""204759""
""blur"",""56"",""237440""
""blur"",""72"",""273982""
","""event"",""trial"",""time""
""focus"",""0"",""0""
""focus"",""12"",""93936""
""focus"",""12"",""100175""
""focus"",""52"",""204042""
""focus"",""52"",""225970""
""focus"",""56"",""243354""
""focus"",""73"",""304526""
","""event"",""trial"",""time""
""fullscreenenter"",""0"",""2642""
","""event"",""trial"",""time""
""fullscreenexit"",""73"",""304528""
","384.8199999993085","<img style='border: 4px solid darkgrey;' src='img/tf1_41_M_ss1.jpeg'></img>","3","","exp","","0","<img src='img/tf1_41_T1_ss1_md.jpeg'></img>","0","true",""
"","html-keyboard-response","103","345466","0.0-10.0-0.41","180","""event"",""trial"",""time""
""focus"",""0"",""0""
""fullscreenenter"",""0"",""2642""
""blur"",""10"",""43803""
""focus"",""12"",""93936""
""blur"",""12"",""94884""
""focus"",""12"",""100175""
""blur"",""52"",""203440""
""focus"",""52"",""204042""
""blur"",""52"",""204759""
""focus"",""52"",""225970""
""blur"",""56"",""237440""
""focus"",""56"",""243354""
""blur"",""72"",""273982""
""focus"",""73"",""304526""
""fullscreenexit"",""73"",""304528""
","""event"",""trial"",""time""
""blur"",""10"",""43803""
""blur"",""12"",""94884""
""blur"",""52"",""203440""
""blur"",""52"",""204759""
""blur"",""56"",""237440""
""blur"",""72"",""273982""
","""event"",""trial"",""time""
""focus"",""0"",""0""
""focus"",""12"",""93936""
""focus"",""12"",""100175""
""focus"",""52"",""204042""
""focus"",""52"",""225970""
""focus"",""56"",""243354""
""focus"",""73"",""304526""
","""event"",""trial"",""time""
""fullscreenenter"",""0"",""2642""
","""event"",""trial"",""time""
""fullscreenexit"",""73"",""304528""
","null","<div style=""font-size:60px;"">+</div>","","null","fixation","2021-03-30 02:36:52.910","","","","",""
"","mars-trial","104","347287","0.0-10.0-1.41","180","""event"",""trial"",""time""
""focus"",""0"",""0""
""fullscreenenter"",""0"",""2642""
""blur"",""10"",""43803""
""focus"",""12"",""93936""
""blur"",""12"",""94884""
""focus"",""12"",""100175""
""blur"",""52"",""203440""
""focus"",""52"",""204042""
""blur"",""52"",""204759""
""focus"",""52"",""225970""
""blur"",""56"",""237440""
""focus"",""56"",""243354""
""blur"",""72"",""273982""
""focus"",""73"",""304526""
""fullscreenexit"",""73"",""304528""
","""event"",""trial"",""time""
""blur"",""10"",""43803""
""blur"",""12"",""94884""
""blur"",""52"",""203440""
""blur"",""52"",""204759""
""blur"",""56"",""237440""
""blur"",""72"",""273982""
","""event"",""trial"",""time""
""focus"",""0"",""0""
""focus"",""12"",""93936""
""focus"",""12"",""100175""
""focus"",""52"",""204042""
""focus"",""52"",""225970""
""focus"",""56"",""243354""
""focus"",""73"",""304526""
","""event"",""trial"",""time""
""fullscreenenter"",""0"",""2642""
","""event"",""trial"",""time""
""fullscreenexit"",""73"",""304528""
","1211.6200000000536","<img style='border: 4px solid darkgrey;' src='img/tf1_42_M_ss2.jpeg'></img>","1","","exp","","0","<img src='img/tf1_42_T1_ss2_md.jpeg'></img>","0","true",""
"","html-keyboard-response","105","347792","0.0-10.0-0.42","180","""event"",""trial"",""time""
""focus"",""0"",""0""
""fullscreenenter"",""0"",""2642""
""blur"",""10"",""43803""
""focus"",""12"",""93936""
""blur"",""12"",""94884""
""focus"",""12"",""100175""
""blur"",""52"",""203440""
""focus"",""52"",""204042""
""blur"",""52"",""204759""
""focus"",""52"",""225970""
""blur"",""56"",""237440""
""focus"",""56"",""243354""
""blur"",""72"",""273982""
""focus"",""73"",""304526""
""fullscreenexit"",""73"",""304528""
""blur"",""106"",""349365""
""focus"",""106"",""373237""
","""event"",""trial"",""time""
""blur"",""10"",""43803""
""blur"",""12"",""94884""
""blur"",""52"",""203440""
""blur"",""52"",""204759""
""blur"",""56"",""237440""
""blur"",""72"",""273982""
""blur"",""106"",""349365""
","""event"",""trial"",""time""
""focus"",""0"",""0""
""focus"",""12"",""93936""
""focus"",""12"",""100175""
""focus"",""52"",""204042""
""focus"",""52"",""225970""
""focus"",""56"",""243354""
""focus"",""73"",""304526""
""focus"",""106"",""373237""
","""event"",""trial"",""time""
""fullscreenenter"",""0"",""2642""
","""event"",""trial"",""time""
""fullscreenexit"",""73"",""304528""
","null","<div style=""font-size:60px;"">+</div>","","null","fixation","2021-03-30 02:36:55.237","","","","",""
"","mars-trial","106","374930","0.0-10.0-1.42","180","""event"",""trial"",""time""
""focus"",""0"",""0""
""fullscreenenter"",""0"",""2642""
""blur"",""10"",""43803""
""focus"",""12"",""93936""
""blur"",""12"",""94884""
""focus"",""12"",""100175""
""blur"",""52"",""203440""
""focus"",""52"",""204042""
""blur"",""52"",""204759""
""focus"",""52"",""225970""
""blur"",""56"",""237440""
""focus"",""56"",""243354""
""blur"",""72"",""273982""
""focus"",""73"",""304526""
""fullscreenexit"",""73"",""304528""
""blur"",""106"",""349365""
""focus"",""106"",""373237""
","""event"",""trial"",""time""
""blur"",""10"",""43803""
""blur"",""12"",""94884""
""blur"",""52"",""203440""
""blur"",""52"",""204759""
""blur"",""56"",""237440""
""blur"",""72"",""273982""
""blur"",""106"",""349365""
","""event"",""trial"",""time""
""focus"",""0"",""0""
""focus"",""12"",""93936""
""focus"",""12"",""100175""
""focus"",""52"",""204042""
""focus"",""52"",""225970""
""focus"",""56"",""243354""
""focus"",""73"",""304526""
""focus"",""106"",""373237""
","""event"",""trial"",""time""
""fullscreenenter"",""0"",""2642""
","""event"",""trial"",""time""
""fullscreenexit"",""73"",""304528""
","26529.619999999355","<img style='border: 4px solid darkgrey;' src='img/tf1_43_M_ss3.jpeg'></img>","2","","exp","","3","<img src='img/tf1_43_T1_ss3_md.jpeg'></img>","0","false",""
"","html-keyboard-response","107","375434","0.0-10.0-0.43","180","""event"",""trial"",""time""
""focus"",""0"",""0""
""fullscreenenter"",""0"",""2642""
""blur"",""10"",""43803""
""focus"",""12"",""93936""
""blur"",""12"",""94884""
""focus"",""12"",""100175""
""blur"",""52"",""203440""
""focus"",""52"",""204042""
""blur"",""52"",""204759""
""focus"",""52"",""225970""
""blur"",""56"",""237440""
""focus"",""56"",""243354""
""blur"",""72"",""273982""
""focus"",""73"",""304526""
""fullscreenexit"",""73"",""304528""
""blur"",""106"",""349365""
""focus"",""106"",""373237""
","""event"",""trial"",""time""
""blur"",""10"",""43803""
""blur"",""12"",""94884""
""blur"",""52"",""203440""
""blur"",""52"",""204759""
""blur"",""56"",""237440""
""blur"",""72"",""273982""
""blur"",""106"",""349365""
","""event"",""trial"",""time""
""focus"",""0"",""0""
""focus"",""12"",""93936""
""focus"",""12"",""100175""
""focus"",""52"",""204042""
""focus"",""52"",""225970""
""focus"",""56"",""243354""
""focus"",""73"",""304526""
""focus"",""106"",""373237""
","""event"",""trial"",""time""
""fullscreenenter"",""0"",""2642""
","""event"",""trial"",""time""
""fullscreenexit"",""73"",""304528""
","null","<div style=""font-size:60px;"">+</div>","","null","fixation","2021-03-30 02:37:22.878","","","","",""
"","mars-trial","108","377179","0.0-10.0-1.43","180","""event"",""trial"",""time""
""focus"",""0"",""0""
""fullscreenenter"",""0"",""2642""
""blur"",""10"",""43803""
""focus"",""12"",""93936""
""blur"",""12"",""94884""
""focus"",""12"",""100175""
""blur"",""52"",""203440""
""focus"",""52"",""204042""
""blur"",""52"",""204759""
""focus"",""52"",""225970""
""blur"",""56"",""237440""
""focus"",""56"",""243354""
""blur"",""72"",""273982""
""focus"",""73"",""304526""
""fullscreenexit"",""73"",""304528""
""blur"",""106"",""349365""
""focus"",""106"",""373237""
","""event"",""trial"",""time""
""blur"",""10"",""43803""
""blur"",""12"",""94884""
""blur"",""52"",""203440""
""blur"",""52"",""204759""
""blur"",""56"",""237440""
""blur"",""72"",""273982""
""blur"",""106"",""349365""
","""event"",""trial"",""time""
""focus"",""0"",""0""
""focus"",""12"",""93936""
""focus"",""12"",""100175""
""focus"",""52"",""204042""
""focus"",""52"",""225970""
""focus"",""56"",""243354""
""focus"",""73"",""304526""
""focus"",""106"",""373237""
","""event"",""trial"",""time""
""fullscreenenter"",""0"",""2642""
","""event"",""trial"",""time""
""fullscreenexit"",""73"",""304528""
","1134.409999998752","<img style='border: 4px solid darkgrey;' src='img/tf1_44_M_ss1.jpeg'></img>","3","","exp","","2","<img src='img/tf1_44_T1_ss1_md.jpeg'></img>","0","false",""
"","html-keyboard-response","109","377684","0.0-10.0-0.44","180","""event"",""trial"",""time""
""focus"",""0"",""0""
""fullscreenenter"",""0"",""2642""
""blur"",""10"",""43803""
""focus"",""12"",""93936""
""blur"",""12"",""94884""
""focus"",""12"",""100175""
""blur"",""52"",""203440""
""focus"",""52"",""204042""
""blur"",""52"",""204759""
""focus"",""52"",""225970""
""blur"",""56"",""237440""
""focus"",""56"",""243354""
""blur"",""72"",""273982""
""focus"",""73"",""304526""
""fullscreenexit"",""73"",""304528""
""blur"",""106"",""349365""
""focus"",""106"",""373237""
","""event"",""trial"",""time""
""blur"",""10"",""43803""
""blur"",""12"",""94884""
""blur"",""52"",""203440""
""blur"",""52"",""204759""
""blur"",""56"",""237440""
""blur"",""72"",""273982""
""blur"",""106"",""349365""
","""event"",""trial"",""time""
""focus"",""0"",""0""
""focus"",""12"",""93936""
""focus"",""12"",""100175""
""focus"",""52"",""204042""
""focus"",""52"",""225970""
