"success","trial_type","trial_index","time_elapsed","internal_node_id","subject_id","interactions","blur_events","focus_events","fullscreenenter_events","fullscreenexit_events","rt","stimulus","button_pressed","key_press","part","timestamp","unshuffled_button","correct_response","correct_button","correct","value"
"true","fullscreen","0","5936","0.0-0.0","1054","""event"",""trial"",""time""
""fullscreenenter"",""0"",""4961""
","
","
","""event"",""trial"",""time""
""fullscreenenter"",""0"",""4961""
","
","","","","","","","","","","",""
"","pavlovia","1","5946","0.0-1.0","1054","""event"",""trial"",""time""
""fullscreenenter"",""0"",""4961""
","
","
","""event"",""trial"",""time""
""fullscreenenter"",""0"",""4961""
","
","","","","","","","","","","",""
"","html-button-response","2","8236","0.0-2.0","1054","""event"",""trial"",""time""
""fullscreenenter"",""0"",""4961""
","
","
","""event"",""trial"",""time""
""fullscreenenter"",""0"",""4961""
","
","2287","<p>Welcome! Press START to begin.</p><br>","0","","","","","","","",""
"","audio-button-response","3","33229","0.0-3.0","1054","""event"",""trial"",""time""
""fullscreenenter"",""0"",""4961""
","
","
","""event"",""trial"",""time""
""fullscreenenter"",""0"",""4961""
","
","24987.399999999907","audio/mars_instructions_slide2.wav","0","","","","","","","",""
"","audio-button-response","4","49381","0.0-4.0","1054","""event"",""trial"",""time""
""fullscreenenter"",""0"",""4961""
","
","
","""event"",""trial"",""time""
""fullscreenenter"",""0"",""4961""
","
","16148.600000000093","audio/mars_instructions_slide3.wav","0","","","","","","","",""
"","html-keyboard-response","5","49884","0.0-5.0-0.0","1054","""event"",""trial"",""time""
""fullscreenenter"",""0"",""4961""
","
","
","""event"",""trial"",""time""
""fullscreenenter"",""0"",""4961""
","
","null","<div style=""font-size:60px;"">+</div>","","null","fixation","2021-08-04 19:33:01.609","","","","",""
"","mars-trial","6","60236","0.0-5.0-1.0","1054","""event"",""trial"",""time""
""fullscreenenter"",""0"",""4961""
","
","
","""event"",""trial"",""time""
""fullscreenenter"",""0"",""4961""
","
","8241.299999999814","<img style='border: 4px solid darkgrey;' src='practice/pt1_M1.png'></img>","3","","practice","","3","<img src='practice/pt1_T1.png'></img>","0","false",""
"","html-keyboard-response","7","60742","0.0-5.1-0.1","1054","""event"",""trial"",""time""
""fullscreenenter"",""0"",""4961""
","
","
","""event"",""trial"",""time""
""fullscreenenter"",""0"",""4961""
","
","null","<div style=""font-size:60px;"">+</div>","","null","fixation","2021-08-04 19:33:12.467","","","","",""
"","mars-trial","8","66718","0.0-5.1-1.1","1054","""event"",""trial"",""time""
""fullscreenenter"",""0"",""4961""
","
","
","""event"",""trial"",""time""
""fullscreenenter"",""0"",""4961""
","
","3865.7000000001863","<img style='border: 4px solid darkgrey;' src='practice/pt1_M1.png'></img>","1","","practice","","0","<img src='practice/pt1_T1.png'></img>","0","true",""
"","html-keyboard-response","9","67221","0.0-6.0-0.0","1054","""event"",""trial"",""time""
""fullscreenenter"",""0"",""4961""
","
","
","""event"",""trial"",""time""
""fullscreenenter"",""0"",""4961""
","
","null","<div style=""font-size:60px;"">+</div>","","null","fixation","2021-08-04 19:33:18.945","","","","",""
"","mars-trial","10","73222","0.0-6.0-1.0","1054","""event"",""trial"",""time""
""fullscreenenter"",""0"",""4961""
","
","
","""event"",""trial"",""time""
""fullscreenenter"",""0"",""4961""
","
","3891.7999999998137","<img style='border: 4px solid darkgrey;' src='practice/pt2_M1.png'></img>","1","","practice","","0","<img src='practice/pt2_T1.png'></img>","0","true",""
"","html-keyboard-response","11","73725","0.0-7.0-0.0","1054","""event"",""trial"",""time""
""fullscreenenter"",""0"",""4961""
","
","
","""event"",""trial"",""time""
""fullscreenenter"",""0"",""4961""
","
","null","<div style=""font-size:60px;"">+</div>","","null","fixation","2021-08-04 19:33:25.449","","","","",""
"","mars-trial","12","77524","0.0-7.0-1.0","1054","""event"",""trial"",""time""
""fullscreenenter"",""0"",""4961""
","
","
","""event"",""trial"",""time""
""fullscreenenter"",""0"",""4961""
","
","1689.7000000001863","<img style='border: 4px solid darkgrey;' src='practice/pt3_M1.png'></img>","0","","practice","","0","<img src='practice/pt3_T1.png'></img>","0","true",""
"","audio-button-response","13","82118","0.0-8.0","1054","""event"",""trial"",""time""
""fullscreenenter"",""0"",""4961""
","
","
","""event"",""trial"",""time""
""fullscreenenter"",""0"",""4961""
","
","4590","audio/mars_instructions_slide4.wav","0","","","","","","","",""
"","call-function","14","82120","0.0-9.0","1054","""event"",""trial"",""time""
""fullscreenenter"",""0"",""4961""
","
","
","""event"",""trial"",""time""
""fullscreenenter"",""0"",""4961""
","
","","","","","","","","","","",""
"","html-keyboard-response","15","82622","0.0-10.0-0.0","1054","""event"",""trial"",""time""
""fullscreenenter"",""0"",""4961""
","
","
","""event"",""trial"",""time""
""fullscreenenter"",""0"",""4961""
","
","null","<div style=""font-size:60px;"">+</div>","","null","fixation","2021-08-04 19:33:34.346","","","","",""
"","mars-trial","16","86033","0.0-10.0-1.0","1054","""event"",""trial"",""time""
""fullscreenenter"",""0"",""4961""
","
","
","""event"",""trial"",""time""
""fullscreenenter"",""0"",""4961""
","
","2802.100000000093","<img style='border: 4px solid darkgrey;' src='img/tf1_1_M_ss3.jpeg'></img>","1","","exp","","0","<img src='img/tf1_1_T1_ss3_md.jpeg'></img>","0","true",""
"","html-keyboard-response","17","86536","0.0-10.0-0.1","1054","""event"",""trial"",""time""
""fullscreenenter"",""0"",""4961""
","
","
","""event"",""trial"",""time""
""fullscreenenter"",""0"",""4961""
","
","null","<div style=""font-size:60px;"">+</div>","","null","fixation","2021-08-04 19:33:38.260","","","","",""
"","mars-trial","18","89402","0.0-10.0-1.1","1054","""event"",""trial"",""time""
""fullscreenenter"",""0"",""4961""
","
","
","""event"",""trial"",""time""
""fullscreenenter"",""0"",""4961""
","
","2258.5999999996275","<img style='border: 4px solid darkgrey;' src='img/tf1_2_M_ss1.jpeg'></img>","2","","exp","","0","<img src='img/tf1_2_T1_ss1_md.jpeg'></img>","0","true",""
"","html-keyboard-response","19","89905","0.0-10.0-0.2","1054","""event"",""trial"",""time""
""fullscreenenter"",""0"",""4961""
","
","
","""event"",""trial"",""time""
""fullscreenenter"",""0"",""4961""
","
","null","<div style=""font-size:60px;"">+</div>","","null","fixation","2021-08-04 19:33:41.630","","","","",""
"","mars-trial","20","92803","0.0-10.0-1.2","1054","""event"",""trial"",""time""
""fullscreenenter"",""0"",""4961""
","
","
","""event"",""trial"",""time""
""fullscreenenter"",""0"",""4961""
","
","2288.399999999907","<img style='border: 4px solid darkgrey;' src='img/tf1_3_M_ss2.jpeg'></img>","1","","exp","","0","<img src='img/tf1_3_T1_ss2_md.jpeg'></img>","0","true",""
"","html-keyboard-response","21","93305","0.0-10.0-0.3","1054","""event"",""trial"",""time""
""fullscreenenter"",""0"",""4961""
","
","
","""event"",""trial"",""time""
""fullscreenenter"",""0"",""4961""
","
","null","<div style=""font-size:60px;"">+</div>","","null","fixation","2021-08-04 19:33:45.029","","","","",""
"","mars-trial","22","96419","0.0-10.0-1.3","1054","""event"",""trial"",""time""
""fullscreenenter"",""0"",""4961""
","
","
","""event"",""trial"",""time""
""fullscreenenter"",""0"",""4961""
","
","2506.2000000001863","<img style='border: 4px solid darkgrey;' src='img/tf1_4_M_ss3.jpeg'></img>","0","","exp","","0","<img src='img/tf1_4_T1_ss3_md.jpeg'></img>","0","true",""
"","html-keyboard-response","23","96922","0.0-10.0-0.4","1054","""event"",""trial"",""time""
""fullscreenenter"",""0"",""4961""
","
","
","""event"",""trial"",""time""
""fullscreenenter"",""0"",""4961""
","
","null","<div style=""font-size:60px;"">+</div>","","null","fixation","2021-08-04 19:33:48.646","","","","",""
"","mars-trial","24","99027","0.0-10.0-1.4","1054","""event"",""trial"",""time""
""fullscreenenter"",""0"",""4961""
","
","
","""event"",""trial"",""time""
""fullscreenenter"",""0"",""4961""
","
","1497.1000000000931","<img style='border: 4px solid darkgrey;' src='img/tf1_5_M_ss1.jpeg'></img>","3","","exp","","0","<img src='img/tf1_5_T1_ss1_md.jpeg'></img>","0","true",""
"","html-keyboard-response","25","99529","0.0-10.0-0.5","1054","""event"",""trial"",""time""
""fullscreenenter"",""0"",""4961""
","
","
","""event"",""trial"",""time""
""fullscreenenter"",""0"",""4961""
","
","null","<div style=""font-size:60px;"">+</div>","","null","fixation","2021-08-04 19:33:51.253","","","","",""
"","mars-trial","26","103715","0.0-10.0-1.5","1054","""event"",""trial"",""time""
""fullscreenenter"",""0"",""4961""
","
","
","""event"",""trial"",""time""
""fullscreenenter"",""0"",""4961""
","
","3577.600000000093","<img style='border: 4px solid darkgrey;' src='img/tf1_6_M_ss2.jpeg'></img>","2","","exp","","3","<img src='img/tf1_6_T1_ss2_md.jpeg'></img>","0","false",""
"","html-keyboard-response","27","104219","0.0-10.0-0.6","1054","""event"",""trial"",""time""
""fullscreenenter"",""0"",""4961""
","
","
","""event"",""trial"",""time""
""fullscreenenter"",""0"",""4961""
","
","null","<div style=""font-size:60px;"">+</div>","","null","fixation","2021-08-04 19:33:55.943","","","","",""
"","mars-trial","28","107681","0.0-10.0-1.6","1054","""event"",""trial"",""time""
""fullscreenenter"",""0"",""4961""
","
","
","""event"",""trial"",""time""
""fullscreenenter"",""0"",""4961""
","
","2853.600000000093","<img style='border: 4px solid darkgrey;' src='img/tf1_7_M_ss3.jpeg'></img>","2","","exp","","0","<img src='img/tf1_7_T1_ss3_md.jpeg'></img>","0","true",""
"","html-keyboard-response","29","108184","0.0-10.0-0.7","1054","""event"",""trial"",""time""
""fullscreenenter"",""0"",""4961""
","
","
","""event"",""trial"",""time""
""fullscreenenter"",""0"",""4961""
","
","null","<div style=""font-size:60px;"">+</div>","","null","fixation","2021-08-04 19:33:59.909","","","","",""
"","mars-trial","30","118673","0.0-10.0-1.7","1054","""event"",""trial"",""time""
""fullscreenenter"",""0"",""4961""
","
","
","""event"",""trial"",""time""
""fullscreenenter"",""0"",""4961""
","
","9878.600000000093","<img style='border: 4px solid darkgrey;' src='img/tf1_8_M_ss1.jpeg'></img>","3","","exp","","1","<img src='img/tf1_8_T1_ss1_md.jpeg'></img>","0","false",""
"","html-keyboard-response","31","119175","0.0-10.0-0.8","1054","""event"",""trial"",""time""
""fullscreenenter"",""0"",""4961""
","
","
","""event"",""trial"",""time""
""fullscreenenter"",""0"",""4961""
","
","null","<div style=""font-size:60px;"">+</div>","","null","fixation","2021-08-04 19:34:10.899","","","","",""
"","mars-trial","32","122885","0.0-10.0-1.8","1054","""event"",""trial"",""time""
""fullscreenenter"",""0"",""4961""
","
","
","""event"",""trial"",""time""
""fullscreenenter"",""0"",""4961""
","
","3101.100000000093","<img style='border: 4px solid darkgrey;' src='img/tf1_9_M_ss2.jpeg'></img>","1","","exp","","2","<img src='img/tf1_9_T1_ss2_md.jpeg'></img>","0","false",""
"","html-keyboard-response","33","123387","0.0-10.0-0.9","1054","""event"",""trial"",""time""
""fullscreenenter"",""0"",""4961""
","
","
","""event"",""trial"",""time""
""fullscreenenter"",""0"",""4961""
","
","null","<div style=""font-size:60px;"">+</div>","","null","fixation","2021-08-04 19:34:15.112","","","","",""
"","mars-trial","34","143900","0.0-10.0-1.9","1054","""event"",""trial"",""time""
""fullscreenenter"",""0"",""4961""
","
","
","""event"",""trial"",""time""
""fullscreenenter"",""0"",""4961""
","
","19903.30000000028","<img style='border: 4px solid darkgrey;' src='img/tf1_10_M_ss3.jpeg'></img>","2","","exp","","0","<img src='img/tf1_10_T1_ss3_md.jpeg'></img>","0","true",""
"","html-keyboard-response","35","144404","0.0-10.0-0.10","1054","""event"",""trial"",""time""
""fullscreenenter"",""0"",""4961""
","
","
","""event"",""trial"",""time""
""fullscreenenter"",""0"",""4961""
","
","null","<div style=""font-size:60px;"">+</div>","","null","fixation","2021-08-04 19:34:36.128","","","","",""
"","mars-trial","36","162493","0.0-10.0-1.10","1054","""event"",""trial"",""time""
""fullscreenenter"",""0"",""4961""
","
","
","""event"",""trial"",""time""
""fullscreenenter"",""0"",""4961""
","
","17480.899999999907","<img style='border: 4px solid darkgrey;' src='img/tf1_11_M_ss1.jpeg'></img>","1","","exp","","2","<img src='img/tf1_11_T1_ss1_md.jpeg'></img>","0","false",""
"","html-keyboard-response","37","162996","0.0-10.0-0.11","1054","""event"",""trial"",""time""
""fullscreenenter"",""0"",""4961""
","
","
","""event"",""trial"",""time""
""fullscreenenter"",""0"",""4961""
","
","null","<div style=""font-size:60px;"">+</div>","","null","fixation","2021-08-04 19:34:54.720","","","","",""
"","mars-trial","38","173063","0.0-10.0-1.11","1054","""event"",""trial"",""time""
""fullscreenenter"",""0"",""4961""
","
","
","""event"",""trial"",""time""
""fullscreenenter"",""0"",""4961""
","
","9458.5","<img style='border: 4px solid darkgrey;' src='img/tf1_12_M_ss2.jpeg'></img>","3","","exp","","1","<img src='img/tf1_12_T1_ss2_md.jpeg'></img>","0","false",""
"","html-keyboard-response","39","173565","0.0-10.0-0.12","1054","""event"",""trial"",""time""
""fullscreenenter"",""0"",""4961""
","
","
","""event"",""trial"",""time""
""fullscreenenter"",""0"",""4961""
","
","null","<div style=""font-size:60px;"">+</div>","","null","fixation","2021-08-04 19:35:05.290","","","","",""
"","mars-trial","40","187057","0.0-10.0-1.12","1054","""event"",""trial"",""time""
""fullscreenenter"",""0"",""4961""
","
","
","""event"",""trial"",""time""
""fullscreenenter"",""0"",""4961""
","
","12877.19999999972","<img style='border: 4px solid darkgrey;' src='img/tf1_13_M_ss3.jpeg'></img>","2","","exp","","2","<img src='img/tf1_13_T1_ss3_md.jpeg'></img>","0","false",""
"","html-keyboard-response","41","187560","0.0-10.0-0.13","1054","""event"",""trial"",""time""
""fullscreenenter"",""0"",""4961""
","
","
","""event"",""trial"",""time""
""fullscreenenter"",""0"",""4961""
","
","null","<div style=""font-size:60px;"">+</div>","","null","fixation","2021-08-04 19:35:19.284","","","","",""
"","mars-trial","42","199881","0.0-10.0-1.13","1054","""event"",""trial"",""time""
""fullscreenenter"",""0"",""4961""
","
","
","""event"",""trial"",""time""
""fullscreenenter"",""0"",""4961""
","
","11712.799999999814","<img style='border: 4px solid darkgrey;' src='img/tf1_14_M_ss1.jpeg'></img>","0","","exp","","1","<img src='img/tf1_14_T1_ss1_md.jpeg'></img>","0","false",""
"","html-keyboard-response","43","200384","0.0-10.0-0.14","1054","""event"",""trial"",""time""
""fullscreenenter"",""0"",""4961""
","
","
","""event"",""trial"",""time""
""fullscreenenter"",""0"",""4961""
","
","null","<div style=""font-size:60px;"">+</div>","","null","fixation","2021-08-04 19:35:32.108","","","","",""
"","mars-trial","44","206998","0.0-10.0-1.14","1054","""event"",""trial"",""time""
""fullscreenenter"",""0"",""4961""
","
","
","""event"",""trial"",""time""
""fullscreenenter"",""0"",""4961""
","
","6005.300000000279","<img style='border: 4px solid darkgrey;' src='img/tf1_15_M_ss2.jpeg'></img>","1","","exp","","0","<img src='img/tf1_15_T1_ss2_md.jpeg'></img>","0","true",""
"","html-keyboard-response","45","207500","0.0-10.0-0.15","1054","""event"",""trial"",""time""
""fullscreenenter"",""0"",""4961""
","
","
","""event"",""trial"",""time""
""fullscreenenter"",""0"",""4961""
","
","null","<div style=""font-size:60px;"">+</div>","","null","fixation","2021-08-04 19:35:39.224","","","","",""
"","mars-trial","46","215864","0.0-10.0-1.15","1054","""event"",""trial"",""time""
""fullscreenenter"",""0"",""4961""
","
","
","""event"",""trial"",""time""
""fullscreenenter"",""0"",""4961""
","
","7756.5999999996275","<img style='border: 4px solid darkgrey;' src='img/tf1_16_M_ss3.jpeg'></img>","3","","exp","","1","<img src='img/tf1_16_T1_ss3_md.jpeg'></img>","0","false",""
"","html-keyboard-response","47","216366","0.0-10.0-0.16","1054","""event"",""trial"",""time""
""fullscreenenter"",""0"",""4961""
","
","
","""event"",""trial"",""time""
""fullscreenenter"",""0"",""4961""
","
","null","<div style=""font-size:60px;"">+</div>","","null","fixation","2021-08-04 19:35:48.091","","","","",""
"","mars-trial","48","225669","0.0-10.0-1.16","1054","""event"",""trial"",""time""
""fullscreenenter"",""0"",""4961""
","
","
","""event"",""trial"",""time""
""fullscreenenter"",""0"",""4961""
","
","8692.5","<img style='border: 4px solid darkgrey;' src='img/tf1_17_M_ss1.jpeg'></img>","2","","exp","","3","<img src='img/tf1_17_T1_ss1_md.jpeg'></img>","0","false",""
"","html-keyboard-response","49","226171","0.0-10.0-0.17","1054","""event"",""trial"",""time""
""fullscreenenter"",""0"",""4961""
","
","
","""event"",""trial"",""time""
""fullscreenenter"",""0"",""4961""
","
","null","<div style=""font-size:60px;"">+</div>","","null","fixation","2021-08-04 19:35:57.895","","","","",""
"","mars-trial","50","230932","0.0-10.0-1.17","1054","""event"",""trial"",""time""
""fullscreenenter"",""0"",""4961""
","
","
","""event"",""trial"",""time""
""fullscreenenter"",""0"",""4961""
","
","4153.9000000003725","<img style='border: 4px solid darkgrey;' src='img/tf1_18_M_ss2.jpeg'></img>","3","","exp","","3","<img src='img/tf1_18_T1_ss2_md.jpeg'></img>","0","false",""
"","html-keyboard-response","51","231435","0.0-10.0-0.18","1054","""event"",""trial"",""time""
""fullscreenenter"",""0"",""4961""
","
","
","""event"",""trial"",""time""
""fullscreenenter"",""0"",""4961""
","
","null","<div style=""font-size:60px;"">+</div>","","null","fixation","2021-08-04 19:36:03.159","","","","",""
"","mars-trial","52","241182","0.0-10.0-1.18","1054","""event"",""trial"",""time""
""fullscreenenter"",""0"",""4961""
","
","
","""event"",""trial"",""time""
""fullscreenenter"",""0"",""4961""
","
","9137.899999999907","<img style='border: 4px solid darkgrey;' src='img/tf1_19_M_ss3.jpeg'></img>","1","","exp","","0","<img src='img/tf1_19_T1_ss3_md.jpeg'></img>","0","true",""
"","html-keyboard-response","53","241685","0.0-10.0-0.19","1054","""event"",""trial"",""time""
""fullscreenenter"",""0"",""4961""
","
","
","""event"",""trial"",""time""
""fullscreenenter"",""0"",""4961""
","
","null","<div style=""font-size:60px;"">+</div>","","null","fixation","2021-08-04 19:36:13.409","","","","",""
"","mars-trial","54","252072","0.0-10.0-1.19","1054","""event"",""trial"",""time""
""fullscreenenter"",""0"",""4961""
","
","
","""event"",""trial"",""time""
""fullscreenenter"",""0"",""4961""
","
","9778.5","<img style='border: 4px solid darkgrey;' src='img/tf1_20_M_ss1.jpeg'></img>","2","","exp","","1","<img src='img/tf1_20_T1_ss1_md.jpeg'></img>","0","false",""
"","html-keyboard-response","55","252575","0.0-10.0-0.20","1054","""event"",""trial"",""time""
""fullscreenenter"",""0"",""4961""
","
","
","""event"",""trial"",""time""
""fullscreenenter"",""0"",""4961""
","
","null","<div style=""font-size:60px;"">+</div>","","null","fixation","2021-08-04 19:36:24.299","","","","",""
"","mars-trial","56","264295","0.0-10.0-1.20","1054","""event"",""trial"",""time""
""fullscreenenter"",""0"",""4961""
","
","
","""event"",""trial"",""time""
""fullscreenenter"",""0"",""4961""
","
","11110.799999999814","<img style='border: 4px solid darkgrey;' src='img/tf1_21_M_ss2.jpeg'></img>","2","","exp","","1","<img src='img/tf1_21_T1_ss2_md.jpeg'></img>","0","false",""
"","html-keyboard-response","57","264798","0.0-10.0-0.21","1054","""event"",""trial"",""time""
""fullscreenenter"",""0"",""4961""
","
","
","""event"",""trial"",""time""
""fullscreenenter"",""0"",""4961""
","
","null","<div style=""font-size:60px;"">+</div>","","null","fixation","2021-08-04 19:36:36.522","","","","",""
"","mars-trial","58","269575","0.0-10.0-1.21","1054","""event"",""trial"",""time""
""fullscreenenter"",""0"",""4961""
","
","
","""event"",""trial"",""time""
""fullscreenenter"",""0"",""4961""
","
","4168.100000000093","<img style='border: 4px solid darkgrey;' src='img/tf1_22_M_ss3.jpeg'></img>","3","","exp","","3","<img src='img/tf1_22_T1_ss3_md.jpeg'></img>","0","false",""
"","html-keyboard-response","59","270077","0.0-10.0-0.22","1054","""event"",""trial"",""time""
""fullscreenenter"",""0"",""4961""
","
","
","""event"",""trial"",""time""
""fullscreenenter"",""0"",""4961""
","
","null","<div style=""font-size:60px;"">+</div>","","null","fixation","2021-08-04 19:36:41.801","","","","",""
"","mars-trial","60","287284","0.0-10.0-1.22","1054","""event"",""trial"",""time""
""fullscreenenter"",""0"",""4961""
","
","
","""event"",""trial"",""time""
""fullscreenenter"",""0"",""4961""
","
","16599.5","<img style='border: 4px solid darkgrey;' src='img/tf1_23_M_ss1.jpeg'></img>","0","","exp","","1","<img src='img/tf1_23_T1_ss1_md.jpeg'></img>","0","false",""
"","html-keyboard-response","61","287787","0.0-10.0-0.23","1054","""event"",""trial"",""time""
""fullscreenenter"",""0"",""4961""
","
","
","""event"",""trial"",""time""
""fullscreenenter"",""0"",""4961""
","
","null","<div style=""font-size:60px;"">+</div>","","null","fixation","2021-08-04 19:36:59.511","","","","",""
"","mars-trial","62","290278","0.0-10.0-1.23","1054","""event"",""trial"",""time""
""fullscreenenter"",""0"",""4961""
","
","
","""event"",""trial"",""time""
""fullscreenenter"",""0"",""4961""
","
","1882.5","<img style='border: 4px solid darkgrey;' src='img/tf1_24_M_ss2.jpeg'></img>","2","","exp","","2","<img src='img/tf1_24_T1_ss2_md.jpeg'></img>","0","false",""
"","html-keyboard-response","63","290784","0.0-10.0-0.24","1054","""event"",""trial"",""time""
""fullscreenenter"",""0"",""4961""
","
","
","""event"",""trial"",""time""
""fullscreenenter"",""0"",""4961""
","
","null","<div style=""font-size:60px;"">+</div>","","null","fixation","2021-08-04 19:37:02.508","","","","",""
"","mars-trial","64","292061","0.0-10.0-1.24","1054","""event"",""trial"",""time""
""fullscreenenter"",""0"",""4961""
","
","
","""event"",""trial"",""time""
""fullscreenenter"",""0"",""4961""
","
","670.3999999999069","<img style='border: 4px solid darkgrey;' src='img/tf1_25_M_ss3.jpeg'></img>","1","","exp","","2","<img src='img/tf1_25_T1_ss3_md.jpeg'></img>","0","false",""
"","html-keyboard-response","65","292564","0.0-10.0-0.25","1054","""event"",""trial"",""time""
""fullscreenenter"",""0"",""4961""
","
","
","""event"",""trial"",""time""
""fullscreenenter"",""0"",""4961""
","
","null","<div style=""font-size:60px;"">+</div>","","null","fixation","2021-08-04 19:37:04.288","","","","",""
"","mars-trial","66","299499","0.0-10.0-1.25","1054","""event"",""trial"",""time""
""fullscreenenter"",""0"",""4961""
","
","
","""event"",""trial"",""time""
""fullscreenenter"",""0"",""4961""
","
","6326.399999999907","<img style='border: 4px solid darkgrey;' src='img/tf1_26_M_ss1.jpeg'></img>","2","","exp","","0","<img src='img/tf1_26_T1_ss1_md.jpeg'></img>","0","true",""
"","html-keyboard-response","67","300001","0.0-10.0-0.26","1054","""event"",""trial"",""time""
""fullscreenenter"",""0"",""4961""
","
","
","""event"",""trial"",""time""
""fullscreenenter"",""0"",""4961""
","
","null","<div style=""font-size:60px;"">+</div>","","null","fixation","2021-08-04 19:37:11.725","","","","",""
"","mars-trial","68","317124","0.0-10.0-1.26","1054","""event"",""trial"",""time""
""fullscreenenter"",""0"",""4961""
","
","
","""event"",""trial"",""time""
""fullscreenenter"",""0"",""4961""
","
","16514.700000000186","<img style='border: 4px solid darkgrey;' src='img/tf1_27_M_ss2.jpeg'></img>","2","","exp","","0","<img src='img/tf1_27_T1_ss2_md.jpeg'></img>","0","true",""
"","html-keyboard-response","69","317626","0.0-10.0-0.27","1054","""event"",""trial"",""time""
""fullscreenenter"",""0"",""4961""
","
","
","""event"",""trial"",""time""
""fullscreenenter"",""0"",""4961""
","
","null","<div style=""font-size:60px;"">+</div>","","null","fixation","2021-08-04 19:37:29.351","","","","",""
"","mars-trial","70","336196","0.0-10.0-1.27","1054","""event"",""trial"",""time""
""fullscreenenter"",""0"",""4961""
","
","
","""event"",""trial"",""time""
""fullscreenenter"",""0"",""4961""
","
","17959.69999999972","<img style='border: 4px solid darkgrey;' src='img/tf1_28_M_ss3.jpeg'></img>","2","","exp","","0","<img src='img/tf1_28_T1_ss3_md.jpeg'></img>","0","true",""
"","html-keyboard-response","71","336700","0.0-10.0-0.28","1054","""event"",""trial"",""time""
""fullscreenenter"",""0"",""4961""
","
","
","""event"",""trial"",""time""
""fullscreenenter"",""0"",""4961""
","
","null","<div style=""font-size:60px;"">+</div>","","null","fixation","2021-08-04 19:37:48.424","","","","",""
"","mars-trial","72","352782","0.0-10.0-1.28","1054","""event"",""trial"",""time""
""fullscreenenter"",""0"",""4961""
","
","
","""event"",""trial"",""time""
""fullscreenenter"",""0"",""4961""
","
","15473.5","<img style='border: 4px solid darkgrey;' src='img/tf1_29_M_ss1.jpeg'></img>","3","","exp","","3","<img src='img/tf1_29_T1_ss1_md.jpeg'></img>","0","false",""
"","html-keyboard-response","73","353284","0.0-10.0-0.29","1054","""event"",""trial"",""time""
""fullscreenenter"",""0"",""4961""
","
","
","""event"",""trial"",""time""
""fullscreenenter"",""0"",""4961""
","
","null","<div style=""font-size:60px;"">+</div>","","null","fixation","2021-08-04 19:38:05.009","","","","",""
"","mars-trial","74","360754","0.0-10.0-1.29","1054","""event"",""trial"",""time""
""fullscreenenter"",""0"",""4961""
","
","
","""event"",""trial"",""time""
""fullscreenenter"",""0"",""4961""
","
","6860.700000000186","<img style='border: 4px solid darkgrey;' src='img/tf1_30_M_ss2.jpeg'></img>","0","","exp","","2","<img src='img/tf1_30_T1_ss2_md.jpeg'></img>","0","false",""
"","html-keyboard-response","75","361257","0.0-10.0-0.30","1054","""event"",""trial"",""time""
""fullscreenenter"",""0"",""4961""
","
","
","""event"",""trial"",""time""
""fullscreenenter"",""0"",""4961""
","
","null","<div style=""font-size:60px;"">+</div>","","null","fixation","2021-08-04 19:38:12.981","","","","",""
"","mars-trial","76","373914","0.0-10.0-1.30","1054","""event"",""trial"",""time""
""fullscreenenter"",""0"",""4961""
","
","
","""event"",""trial"",""time""
""fullscreenenter"",""0"",""4961""
","
","12048.5","<img style='border: 4px solid darkgrey;' src='img/tf1_31_M_ss3.jpeg'></img>","2","","exp","","0","<img src='img/tf1_31_T1_ss3_md.jpeg'></img>","0","true",""
"","html-keyboard-response","77","374417","0.0-10.0-0.31","1054","""event"",""trial"",""time""
""fullscreenenter"",""0"",""4961""
","
","
","""event"",""trial"",""time""
""fullscreenenter"",""0"",""4961""
","
","null","<div style=""font-size:60px;"">+</div>","","null","fixation","2021-08-04 19:38:26.141","","","","",""
"","mars-trial","78","380674","0.0-10.0-1.31","1054","""event"",""trial"",""time""
""fullscreenenter"",""0"",""4961""
","
","
","""event"",""trial"",""time""
""fullscreenenter"",""0"",""4961""
","
","5647.899999999907","<img style='border: 4px solid darkgrey;' src='img/tf1_32_M_ss1.jpeg'></img>","3","","exp","","0","<img src='img/tf1_32_T1_ss1_md.jpeg'></img>","0","true",""
"","html-keyboard-response","79","381177","0.0-10.0-0.32","1054","""event"",""trial"",""time""
""fullscreenenter"",""0"",""4961""
","
","
","""event"",""trial"",""time""
""fullscreenenter"",""0"",""4961""
","
","null","<div style=""font-size:60px;"">+</div>","","null","fixation","2021-08-04 19:38:32.901","","","","",""
"","mars-trial","80","404105","0.0-10.0-1.32","1054","""event"",""trial"",""time""
""fullscreenenter"",""0"",""4961""
","
","
","""event"",""trial"",""time""
""fullscreenenter"",""0"",""4961""
","
","22318.799999999814","<img style='border: 4px solid darkgrey;' src='img/tf1_33_M_ss2.jpeg'></img>","2","","exp","","2","<img src='img/tf1_33_T1_ss2_md.jpeg'></img>","0","false",""
"","html-keyboard-response","81","404607","0.0-10.0-0.33","1054","""event"",""trial"",""time""
""fullscreenenter"",""0"",""4961""
","
","
","""event"",""trial"",""time""
""fullscreenenter"",""0"",""4961""
","
","null","<div style=""font-size:60px;"">+</div>","","null","fixation","2021-08-04 19:38:56.331","","","","",""
"","mars-trial","82","421631","0.0-10.0-1.33","1054","""event"",""trial"",""time""
""fullscreenenter"",""0"",""4961""
","
","
","""event"",""trial"",""time""
""fullscreenenter"",""0"",""4961""
","
","16415.100000000093","<img style='border: 4px solid darkgrey;' src='img/tf1_34_M_ss3.jpeg'></img>","2","","exp","","1","<img src='img/tf1_34_T1_ss3_md.jpeg'></img>","0","false",""
"","html-keyboard-response","83","422134","0.0-10.0-0.34","1054","""event"",""trial"",""time""
""fullscreenenter"",""0"",""4961""
","
","
","""event"",""trial"",""time""
""fullscreenenter"",""0"",""4961""
","
","null","<div style=""font-size:60px;"">+</div>","","null","fixation","2021-08-04 19:39:13.858","","","","",""
"","mars-trial","84","434340","0.0-10.0-1.34","1054","""event"",""trial"",""time""
""fullscreenenter"",""0"",""4961""
","
","
","""event"",""trial"",""time""
""fullscreenenter"",""0"",""4961""
","
","11598.200000000186","<img style='border: 4px solid darkgrey;' src='img/tf1_35_M_ss1.jpeg'></img>","1","","exp","","0","<img src='img/tf1_35_T1_ss1_md.jpeg'></img>","0","true",""
"","html-keyboard-response","85","434844","0.0-10.0-0.35","1054","""event"",""trial"",""time""
""fullscreenenter"",""0"",""4961""
","
","
","""event"",""trial"",""time""
""fullscreenenter"",""0"",""4961""
","
","null","<div style=""font-size:60px;"">+</div>","","null","fixation","2021-08-04 19:39:26.568","","","","",""
"","mars-trial","86","447082","0.0-10.0-1.35","1054","""event"",""trial"",""time""
""fullscreenenter"",""0"",""4961""
","
","
","""event"",""trial"",""time""
""fullscreenenter"",""0"",""4961""
","
","11629.299999999814","<img style='border: 4px solid darkgrey;' src='img/tf1_36_M_ss2.jpeg'></img>","0","","exp","","3","<img src='img/tf1_36_T1_ss2_md.jpeg'></img>","0","false",""
"","html-keyboard-response","87","447585","0.0-10.0-0.36","1054","""event"",""trial"",""time""
""fullscreenenter"",""0"",""4961""
","
","
","""event"",""trial"",""time""
""fullscreenenter"",""0"",""4961""
","
","null","<div style=""font-size:60px;"">+</div>","","null","fixation","2021-08-04 19:39:39.309","","","","",""
"","mars-trial","88","468206","0.0-10.0-1.36","1054","""event"",""trial"",""time""
""fullscreenenter"",""0"",""4961""
","
","
","""event"",""trial"",""time""
""fullscreenenter"",""0"",""4961""
","
","20013.399999999907","<img style='border: 4px solid darkgrey;' src='img/tf1_37_M_ss3.jpeg'></img>","0","","exp","","1","<img src='img/tf1_37_T1_ss3_md.jpeg'></img>","0","false",""
"","html-keyboard-response","89","468708","0.0-10.0-0.37","1054","""event"",""trial"",""time""
""fullscreenenter"",""0"",""4961""
","
","
","""event"",""trial"",""time""
""fullscreenenter"",""0"",""4961""
","
","null","<div style=""font-size:60px;"">+</div>","","null","fixation","2021-08-04 19:40:00.432","","","","",""
"","mars-trial","90","476460","0.0-10.0-1.37","1054","""event"",""trial"",""time""
""fullscreenenter"",""0"",""4961""
","
","
","""event"",""trial"",""time""
""fullscreenenter"",""0"",""4961""
","
","7145.100000000093","<img style='border: 4px solid darkgrey;' src='img/tf1_38_M_ss1.jpeg'></img>","0","","exp","","0","<img src='img/tf1_38_T1_ss1_md.jpeg'></img>","0","true",""
"","html-keyboard-response","91","476963","0.0-10.0-0.38","1054","""event"",""trial"",""time""
""fullscreenenter"",""0"",""4961""
","
","
","""event"",""trial"",""time""
""fullscreenenter"",""0"",""4961""
","
","null","<div style=""font-size:60px;"">+</div>","","null","fixation","2021-08-04 19:40:08.687","","","","",""
"","mars-trial","92","497147","0.0-10.0-1.38","1054","""event"",""trial"",""time""
""fullscreenenter"",""0"",""4961""
","
","
","""event"",""trial"",""time""
""fullscreenenter"",""0"",""4961""
","
","19575.600000000093","<img style='border: 4px solid darkgrey;' src='img/tf1_39_M_ss2.jpeg'></img>","2","","exp","","3","<img src='img/tf1_39_T1_ss2_md.jpeg'></img>","0","false",""
"","html-keyboard-response","93","497651","0.0-10.0-0.39","1054","""event"",""trial"",""time""
""fullscreenenter"",""0"",""4961""
","
","
","""event"",""trial"",""time""
""fullscreenenter"",""0"",""4961""
","
","null","<div style=""font-size:60px;"">+</div>","","null","fixation","2021-08-04 19:40:29.375","","","","",""
"","mars-trial","94","508857","0.0-10.0-1.39","1054","""event"",""trial"",""time""
""fullscreenenter"",""0"",""4961""
","
","
","""event"",""trial"",""time""
""fullscreenenter"",""0"",""4961""
","
","10599.400000000373","<img style='border: 4px solid darkgrey;' src='img/tf1_40_M_ss3.jpeg'></img>","0","","exp","","2","<img src='img/tf1_40_T1_ss3_md.jpeg'></img>","0","false",""
"","html-keyboard-response","95","509359","0.0-10.0-0.40","1054","""event"",""trial"",""time""
""fullscreenenter"",""0"",""4961""
","
","
","""event"",""trial"",""time""
""fullscreenenter"",""0"",""4961""
","
","null","<div style=""font-size:60px;"">+</div>","","null","fixation","2021-08-04 19:40:41.083","","","","",""
"","mars-trial","96","530797","0.0-10.0-1.40","1054","""event"",""trial"",""time""
""fullscreenenter"",""0"",""4961""
","
","
","""event"",""trial"",""time""
""fullscreenenter"",""0"",""4961""
","
","20827.5","<img style='border: 4px solid darkgrey;' src='img/tf1_41_M_ss1.jpeg'></img>","1","","exp","","1","<img src='img/tf1_41_T1_ss1_md.jpeg'></img>","0","false",""
"","html-keyboard-response","97","531299","0.0-10.0-0.41","1054","""event"",""trial"",""time""
""fullscreenenter"",""0"",""4961""
","
","
","""event"",""trial"",""time""
""fullscreenenter"",""0"",""4961""
","
","null","<div style=""font-size:60px;"">+</div>","","null","fixation","2021-08-04 19:41:03.023","","","","",""
"","mars-trial","98","533492","0.0-10.0-1.41","1054","""event"",""trial"",""time""
""fullscreenenter"",""0"",""4961""
","
","
","""event"",""trial"",""time""
""fullscreenenter"",""0"",""4961""
","
","1585.2999999998137","<img style='border: 4px solid darkgrey;' src='img/tf1_42_M_ss2.jpeg'></img>","2","","exp","","3","<img src='img/tf1_42_T1_ss2_md.jpeg'></img>","0","false",""
"","html-keyboard-response","99","533995","0.0-10.0-0.42","1054","""event"",""trial"",""time""
""fullscreenenter"",""0"",""4961""
","
","
","""event"",""trial"",""time""
""fullscreenenter"",""0"",""4961""
","
","null","<div style=""font-size:60px;"">+</div>","","null","fixation","2021-08-04 19:41:05.720","","","","",""
"","mars-trial","100","535335","0.0-10.0-1.42","1054","""event"",""trial"",""time""
""fullscreenenter"",""0"",""4961""
","
","
","""event"",""trial"",""time""
""fullscreenenter"",""0"",""4961""
","
","732.6000000000931","<img style='border: 4px solid darkgrey;' src='img/tf1_43_M_ss3.jpeg'></img>","3","","exp","","3","<img src='img/tf1_43_T1_ss3_md.jpeg'></img>","0","false",""
"","html-keyboard-response","101","535838","0.0-10.0-0.43","1054","""event"",""trial"",""time""
""fullscreenenter"",""0"",""4961""
","
","
","""event"",""trial"",""time""
""fullscreenenter"",""0"",""4961""
","
","null","<div style=""font-size:60px;"">+</div>","","null","fixation","2021-08-04 19:41:07.562","","","","",""
"","mars-trial","102","536984","0.0-10.0-1.43","1054","""event"",""trial"",""time""
""fullscreenenter"",""0"",""4961""
","
","
","""event"",""trial"",""time""
""fullscreenenter"",""0"",""4961""
","
","539.7999999998137","<img style='border: 4px solid darkgrey;' src='img/tf1_44_M_ss1.jpeg'></img>","1","","exp","","2","<img src='img/tf1_44_T1_ss1_md.jpeg'></img>","0","false",""
"","html-keyboard-response","103","537487","0.0-10.0-0.44","1054","""event"",""trial"",""time""
""fullscreenenter"",""0"",""4961""
","
","
","""event"",""trial"",""time""
""fullscreenenter"",""0"",""4961""
","
","null","<div style=""font-size:60px;"">+</div>","","null","fixation","2021-08-04 19:41:09.211","","","","",""
"","mars-trial","104","539016","0.0-10.0-1.44","1054","""event"",""trial"",""time""
""fullscreenenter"",""0"",""4961""
","
","
","""event"",""trial"",""time""
""fullscreenenter"",""0"",""4961""
","
","920.8999999999069","<img style='border: 4px solid darkgrey;' src='img/tf1_45_M_ss2.jpeg'></img>","1","","exp","","2","<img src='img/tf1_45_T1_ss2_md.jpeg'></img>","0","false",""
"","html-keyboard-response","105","539519","0.0-10.0-0.45","1054","""event"",""trial"",""time""
""fullscreenenter"",""0"",""4961""
","
","
","""event"",""trial"",""time""
""fullscreenenter"",""0"",""4961""
","
","null","<div style=""font-size:60px;"">+</div>","","null","fixation","2021-08-04 19:41:11.244","","","","",""
"","mars-trial","106","540959","0.0-10.0-1.45","1054","""event"",""trial"",""time""
""fullscreenenter"",""0"",""4961""
","
","
","""event"",""trial"",""time""
""fullscreenenter"",""0"",""4961""
","
","831.7000000001863","<img style='border: 4px solid darkgrey;' src='img/tf1_46_M_ss3.jpeg'></img>","1","","exp","","1","<img src='img/tf1_46_T1_ss3_md.jpeg'></img>","0","false",""
"","html-keyboard-response","107","541461","0.0-10.0-0.46","1054","""event"",""trial"",""time""
""fullscreenenter"",""0"",""4961""
","
","
","""event"",""trial"",""time""
""fullscreenenter"",""0"",""4961""
","
","null","<div style=""font-size:60px;"">+</div>","","null","fixation","2021-08-04 19:41:13.186","","","","",""
"","mars-trial","108","543032","0.0-10.0-1.46","1054","""event"",""trial"",""time""
""fullscreenenter"",""0"",""4961""
","
","
","""event"",""trial"",""time""
""fullscreenenter"",""0"",""4961""
","
","961.7000000001863","<img style='border: 4px solid darkgrey;' src='img/tf1_47_M_ss1.jpeg'></img>","1","","exp","","1","<img src='img/tf1_47_T1_ss1_md.jpeg'></img>","0","false",""
"","html-keyboard-response","109","543535","0.0-10.0-0.47","1054","""event"",""trial"",""time""
""fullscreenenter"",""0"",""4961""
","
","
","""event"",""trial"",""time""
""fullscreenenter"",""0"",""4961""
","
","null","<div style=""font-size:60px;"">+</div>","","null","fixation","2021-08-04 19:41:15.259","","","","",""
"","mars-trial","110","544807","0.0-10.0-1.47","1054","""event"",""trial"",""time""
""fullscreenenter"",""0"",""4961""
","
","
","""event"",""trial"",""time""
""fullscreenenter"",""0"",""4961""
","
","663.5","<img style='border: 4px solid darkgrey;' src='img/tf1_48_M_ss2.jpeg'></img>","2","","exp","","0","<img src='img/tf1_48_T1_ss2_md.jpeg'></img>","0","true",""
"","html-keyboard-response","111","545309","0.0-10.0-0.48","1054","""event"",""trial"",""time""
""fullscreenenter"",""0"",""4961""
","
","
","""event"",""trial"",""time""
""fullscreenenter"",""0"",""4961""
","
","null","<div style=""font-size:60px;"">+</div>","","null","fixation","2021-08-04 19:41:17.034","","","","",""
"","mars-trial","112","547095","0.0-10.0-1.48","1054","""event"",""trial"",""time""
""fullscreenenter"",""0"",""4961""
","
","
","""event"",""trial"",""time""
""fullscreenenter"",""0"",""4961""
","
","1178.1000000000931","<img style='border: 4px solid darkgrey;' src='img/tf1_49_M_ss3.jpeg'></img>","0","","exp","","0","<img src='img/tf1_49_T1_ss3_md.jpeg'></img>","0","true",""
"","html-keyboard-response","113","547598","0.0-10.0-0.49","1054","""event"",""trial"",""time""
""fullscreenenter"",""0"",""4961""
","
","
","""event"",""trial"",""time""
""fullscreenenter"",""0"",""4961""
","
","null","<div style=""font-size:60px;"">+</div>","","null","fixation","2021-08-04 19:41:19.322","","","","",""
"","mars-trial","114","549045","0.0-10.0-1.49","1054","""event"",""trial"",""time""
""fullscreenenter"",""0"",""4961""
","
","
","""event"",""trial"",""time""
""fullscreenenter"",""0"",""4961""
","
","834.7000000001863","<img style='border: 4px solid darkgrey;' src='img/tf1_50_M_ss1.jpeg'></img>","3","","exp","","2","<img src='img/tf1_50_T1_ss1_md.jpeg'></img>","0","false",""
"","html-keyboard-response","115","549547","0.0-10.0-0.50","1054","""event"",""trial"",""time""
""fullscreenenter"",""0"",""4961""
","
","
","""event"",""trial"",""time""
""fullscreenenter"",""0"",""4961""
","
","null","<div style=""font-size:60px;"">+</div>","","null","fixation","2021-08-04 19:41:21.271","","","","",""
"","mars-trial","116","552350","0.0-10.0-1.50","1054","""event"",""trial"",""time""
""fullscreenenter"",""0"",""4961""
","
","
","""event"",""trial"",""time""
""fullscreenenter"",""0"",""4961""
","
","2194.8000000002794","<img style='border: 4px solid darkgrey;' src='img/tf1_51_M_ss2.jpeg'></img>","3","","exp","","0","<img src='img/tf1_51_T1_ss2_md.jpeg'></img>","0","true",""
"","html-keyboard-response","117","552853","0.0-10.0-0.51","1054","""event"",""trial"",""time""
""fullscreenenter"",""0"",""4961""
","
","
","""event"",""trial"",""time""
""fullscreenenter"",""0"",""4961""
","
","null","<div style=""font-size:60px;"">+</div>","","null","fixation","2021-08-04 19:41:24.577","","","","",""
"","mars-trial","118","554957","0.0-10.0-1.51","1054","""event"",""trial"",""time""
""fullscreenenter"",""0"",""4961""
","
","
","""event"",""trial"",""time""
""fullscreenenter"",""0"",""4961""
","
","1496.3999999999069","<img style='border: 4px solid darkgrey;' src='img/tf1_52_M_ss3.jpeg'></img>","2","","exp","","1","<img src='img/tf1_52_T1_ss3_md.jpeg'></img>","0","false",""
"","html-keyboard-response","119","555459","0.0-10.0-0.52","1054","""event"",""trial"",""time""
""fullscreenenter"",""0"",""4961""
","
","
","""event"",""trial"",""time""
""fullscreenenter"",""0"",""4961""
","
","null","<div style=""font-size:60px;"">+</div>","","null","fixation","2021-08-04 19:41:27.183","","","","",""
"","mars-trial","120","557467","0.0-10.0-1.52","1054","""event"",""trial"",""time""
""fullscreenenter"",""0"",""4961""
","
","
","""event"",""trial"",""time""
""fullscreenenter"",""0"",""4961""
","
","1400.5999999996275","<img style='border: 4px solid darkgrey;' src='img/tf1_53_M_ss1.jpeg'></img>","2","","exp","","3","<img src='img/tf1_53_T1_ss1_md.jpeg'></img>","0","false",""
"","html-keyboard-response","121","557970","0.0-10.0-0.53","1054","""event"",""trial"",""time""
""fullscreenenter"",""0"",""4961""
","
","
","""event"",""trial"",""time""
""fullscreenenter"",""0"",""4961""
","
","null","<div style=""font-size:60px;"">+</div>","","null","fixation","2021-08-04 19:41:29.694","","","","",""
"","mars-trial","122","559210","0.0-10.0-1.53","1054","""event"",""trial"",""time""
""fullscreenenter"",""0"",""4961""
","
","
","""event"",""trial"",""time""
""fullscreenenter"",""0"",""4961""
","
","632.1000000000931","<img style='border: 4px solid darkgrey;' src='img/tf1_54_M_ss2.jpeg'></img>","1","","exp","","1","<img src='img/tf1_54_T1_ss2_md.jpeg'></img>","0","false",""
"","html-keyboard-response","123","559712","0.0-10.0-0.54","1054","""event"",""trial"",""time""
""fullscreenenter"",""0"",""4961""
","
","
","""event"",""trial"",""time""
""fullscreenenter"",""0"",""4961""
","
","null","<div style=""font-size:60px;"">+</div>","","null","fixation","2021-08-04 19:41:31.436","","","","",""
"","mars-trial","124","560877","0.0-10.0-1.54","1054","""event"",""trial"",""time""
""fullscreenenter"",""0"",""4961""
","
","
","""event"",""trial"",""time""
""fullscreenenter"",""0"",""4961""
","
","557.7000000001863","<img style='border: 4px solid darkgrey;' src='img/tf1_55_M_ss3.jpeg'></img>","0","","exp","","3","<img src='img/tf1_55_T1_ss3_md.jpeg'></img>","0","false",""
"","html-keyboard-response","125","561379","0.0-10.0-0.55","1054","""event"",""trial"",""time""
""fullscreenenter"",""0"",""4961""
","
","
","""event"",""trial"",""time""
""fullscreenenter"",""0"",""4961""
","
","null","<div style=""font-size:60px;"">+</div>","","null","fixation","2021-08-04 19:41:33.103","","","","",""
"","mars-trial","126","562120","0.0-10.0-1.55","1054","""event"",""trial"",""time""
""fullscreenenter"",""0"",""4961""
","
","
","""event"",""trial"",""time""
""fullscreenenter"",""0"",""4961""
","
","","","","","exp","","","<img src='img/tf1_56_T1_ss1_md.jpeg'></img>","0","false",""
"","html-keyboard-response","127","562209","0.0-10.0-0.56","1054","""event"",""trial"",""time""
""fullscreenenter"",""0"",""4961""
","
","
","""event"",""trial"",""time""
""fullscreenenter"",""0"",""4961""
","
","222.90000000037253","<img style='border: 4px solid darkgrey;' src='img/tf1_56_M_ss1.jpeg'></img>","0","","fixation","2021-08-04 19:41:33.933","3","","","",""
"","audio-button-response","128","567175","0.0-11.0","1054","""event"",""trial"",""time""
""fullscreenenter"",""0"",""4961""
","
","
","""event"",""trial"",""time""
""fullscreenenter"",""0"",""4961""
","
","4862.300000000279","audio/mars_instructions_slide5.wav","0","","","","","","","",""
