"success","trial_type","trial_index","time_elapsed","internal_node_id","subject_id","interactions","blur_events","focus_events","fullscreenenter_events","fullscreenexit_events","rt","stimulus","button_pressed","key_press","part","timestamp","unshuffled_button","correct_response","correct_button","correct","value"
"true","fullscreen","0","10271","0.0-0.0","863","
","
","
","
","
","","","","","","","","","","",""
"","pavlovia","1","10278","0.0-1.0","863","
","
","
","
","
","","","","","","","","","","",""
"","html-button-response","2","11864","0.0-2.0","863","
","
","
","
","
","1583","<p>Welcome! Press START to begin.</p><br>","0","","","","","","","",""
"","audio-button-response","3","25978","0.0-3.0","863","
","
","
","
","
","14072","audio/mars_instructions_slide2.wav","0","","","","","","","",""
"","audio-button-response","4","40153","0.0-4.0","863","
","
","
","
","
","14172.000000000007","audio/mars_instructions_slide3.wav","0","","","","","","","",""
"","html-keyboard-response","5","40656","0.0-5.0-0.0","863","
","
","
","
","
","null","<div style=""font-size:60px;"">+</div>","","null","fixation","2021-05-16 23:49:37.651","","","","",""
"","mars-trial","6","54768","0.0-5.0-1.0","863","
","
","
","
","
","12002","<img style='border: 4px solid darkgrey;' src='practice/pt1_M1.png'></img>","2","","practice","","0","<img src='practice/pt1_T1.png'></img>","0","true",""
"","html-keyboard-response","7","55297","0.0-6.0-0.0","863","
","
","
","
","
","null","<div style=""font-size:60px;"">+</div>","","null","fixation","2021-05-16 23:49:52.292","","","","",""
"","mars-trial","8","60833","0.0-6.0-1.0","863","
","
","
","
","
","3430.9999999999927","<img style='border: 4px solid darkgrey;' src='practice/pt2_M1.png'></img>","0","","practice","","0","<img src='practice/pt2_T1.png'></img>","0","true",""
"","html-keyboard-response","9","61336","0.0-7.0-0.0","863","
","
","
","
","
","null","<div style=""font-size:60px;"">+</div>","","null","fixation","2021-05-16 23:49:58.331","","","","",""
"","mars-trial","10","68127","0.0-7.0-1.0","863","
","
","
","
","
","4674.000000000015","<img style='border: 4px solid darkgrey;' src='practice/pt3_M1.png'></img>","1","","practice","","0","<img src='practice/pt3_T1.png'></img>","0","true",""
"","audio-button-response","11","81712","0.0-8.0","863","
","
","
","
","
","13582","audio/mars_instructions_slide4.wav","0","","","","","","","",""
"","call-function","12","81714","0.0-9.0","863","
","
","
","
","
","","","","","","","","","","",""
"","html-keyboard-response","13","82215","0.0-10.0-0.0","863","
","
","
","
","
","null","<div style=""font-size:60px;"">+</div>","","null","fixation","2021-05-16 23:50:19.211","","","","",""
"","mars-trial","14","88918","0.0-10.0-1.0","863","
","
","
","
","
","6097","<img style='border: 4px solid darkgrey;' src='img/tf1_1_M_ss3.jpeg'></img>","2","","exp","","0","<img src='img/tf1_1_T1_ss3_md.jpeg'></img>","0","true",""
"","html-keyboard-response","15","89422","0.0-10.0-0.1","863","
","
","
","
","
","null","<div style=""font-size:60px;"">+</div>","","null","fixation","2021-05-16 23:50:26.418","","","","",""
"","mars-trial","16","96005","0.0-10.0-1.1","863","
","
","
","
","
","5976","<img style='border: 4px solid darkgrey;' src='img/tf1_2_M_ss1.jpeg'></img>","3","","exp","","3","<img src='img/tf1_2_T1_ss1_md.jpeg'></img>","0","false",""
"","html-keyboard-response","17","96508","0.0-10.0-0.2","863","
","
","
","
","
","null","<div style=""font-size:60px;"">+</div>","","null","fixation","2021-05-16 23:50:33.503","","","","",""
"","mars-trial","18","108502","0.0-10.0-1.2","863","
","
","
","
","
","11388.000000000015","<img style='border: 4px solid darkgrey;' src='img/tf1_3_M_ss2.jpeg'></img>","0","","exp","","0","<img src='img/tf1_3_T1_ss2_md.jpeg'></img>","0","true",""
"","html-keyboard-response","19","109005","0.0-10.0-0.3","863","
","
","
","
","
","null","<div style=""font-size:60px;"">+</div>","","null","fixation","2021-05-16 23:50:46.000","","","","",""
"","mars-trial","20","115409","0.0-10.0-1.3","863","
","
","
","
","
","5798.000000000015","<img style='border: 4px solid darkgrey;' src='img/tf1_4_M_ss3.jpeg'></img>","0","","exp","","0","<img src='img/tf1_4_T1_ss3_md.jpeg'></img>","0","true",""
"","html-keyboard-response","21","115912","0.0-10.0-0.4","863","
","
","
","
","
","null","<div style=""font-size:60px;"">+</div>","","null","fixation","2021-05-16 23:50:52.907","","","","",""
"","mars-trial","22","121666","0.0-10.0-1.4","863","
","
","
","
","
","5149","<img style='border: 4px solid darkgrey;' src='img/tf1_5_M_ss1.jpeg'></img>","1","","exp","","0","<img src='img/tf1_5_T1_ss1_md.jpeg'></img>","0","true",""
"","html-keyboard-response","23","122171","0.0-10.0-0.5","863","
","
","
","
","
","null","<div style=""font-size:60px;"">+</div>","","null","fixation","2021-05-16 23:50:59.168","","","","",""
"","mars-trial","24","139514","0.0-10.0-1.5","863","
","
","
","
","
","16395","<img style='border: 4px solid darkgrey;' src='img/tf1_6_M_ss2.jpeg'></img>","1","","exp","","0","<img src='img/tf1_6_T1_ss2_md.jpeg'></img>","0","true",""
"","html-keyboard-response","25","140014","0.0-10.0-0.6","863","
","
","
","
","
","null","<div style=""font-size:60px;"">+</div>","","null","fixation","2021-05-16 23:51:17.009","","","","",""
"","mars-trial","26","145569","0.0-10.0-1.6","863","
","
","
","
","
","4950","<img style='border: 4px solid darkgrey;' src='img/tf1_7_M_ss3.jpeg'></img>","3","","exp","","0","<img src='img/tf1_7_T1_ss3_md.jpeg'></img>","0","true",""
"","html-keyboard-response","27","146077","0.0-10.0-0.7","863","
","
","
","
","
","null","<div style=""font-size:60px;"">+</div>","","null","fixation","2021-05-16 23:51:23.073","","","","",""
"","mars-trial","28","160553","0.0-10.0-1.7","863","
","
","
","
","
","13868","<img style='border: 4px solid darkgrey;' src='img/tf1_8_M_ss1.jpeg'></img>","3","","exp","","0","<img src='img/tf1_8_T1_ss1_md.jpeg'></img>","0","true",""
"","html-keyboard-response","29","161056","0.0-10.0-0.8","863","
","
","
","
","
","null","<div style=""font-size:60px;"">+</div>","","null","fixation","2021-05-16 23:51:38.051","","","","",""
"","mars-trial","30","168616","0.0-10.0-1.8","863","
","
","
","
","
","6955","<img style='border: 4px solid darkgrey;' src='img/tf1_9_M_ss2.jpeg'></img>","3","","exp","","0","<img src='img/tf1_9_T1_ss2_md.jpeg'></img>","0","true",""
"","html-keyboard-response","31","169118","0.0-10.0-0.9","863","
","
","
","
","
","null","<div style=""font-size:60px;"">+</div>","","null","fixation","2021-05-16 23:51:46.114","","","","",""
"","mars-trial","32","183227","0.0-10.0-1.9","863","
","
","
","
","
","13503","<img style='border: 4px solid darkgrey;' src='img/tf1_10_M_ss3.jpeg'></img>","0","","exp","","0","<img src='img/tf1_10_T1_ss3_md.jpeg'></img>","0","true",""
"","html-keyboard-response","33","183730","0.0-10.0-0.10","863","
","
","
","
","
","null","<div style=""font-size:60px;"">+</div>","","null","fixation","2021-05-16 23:52:00.726","","","","",""
"","mars-trial","34","196507","0.0-10.0-1.10","863","
","
","
","
","
","12172","<img style='border: 4px solid darkgrey;' src='img/tf1_11_M_ss1.jpeg'></img>","3","","exp","","2","<img src='img/tf1_11_T1_ss1_md.jpeg'></img>","0","false",""
"","html-keyboard-response","35","197009","0.0-10.0-0.11","863","
","
","
","
","
","null","<div style=""font-size:60px;"">+</div>","","null","fixation","2021-05-16 23:52:14.004","","","","",""
"","mars-trial","36","221395","0.0-10.0-1.11","863","
","
","
","
","
","23781","<img style='border: 4px solid darkgrey;' src='img/tf1_12_M_ss2.jpeg'></img>","3","","exp","","3","<img src='img/tf1_12_T1_ss2_md.jpeg'></img>","0","false",""
"","html-keyboard-response","37","221897","0.0-10.0-0.12","863","
","
","
","
","
","null","<div style=""font-size:60px;"">+</div>","","null","fixation","2021-05-16 23:52:38.893","","","","",""
"","mars-trial","38","246638","0.0-10.0-1.12","863","
","
","
","
","
","24134.99999999997","<img style='border: 4px solid darkgrey;' src='img/tf1_13_M_ss3.jpeg'></img>","3","","exp","","3","<img src='img/tf1_13_T1_ss3_md.jpeg'></img>","0","false",""
"","html-keyboard-response","39","247141","0.0-10.0-0.13","863","
","
","
","
","
","null","<div style=""font-size:60px;"">+</div>","","null","fixation","2021-05-16 23:53:04.136","","","","",""
"","mars-trial","40","269813","0.0-10.0-1.13","863","
","
","
","
","
","22067","<img style='border: 4px solid darkgrey;' src='img/tf1_14_M_ss1.jpeg'></img>","1","","exp","","1","<img src='img/tf1_14_T1_ss1_md.jpeg'></img>","0","false",""
"","html-keyboard-response","41","270316","0.0-10.0-0.14","863","
","
","
","
","
","null","<div style=""font-size:60px;"">+</div>","","null","fixation","2021-05-16 23:53:27.311","","","","",""
"","mars-trial","42","294243","0.0-10.0-1.14","863","
","
","
","
","
","23322","<img style='border: 4px solid darkgrey;' src='img/tf1_15_M_ss2.jpeg'></img>","1","","exp","","3","<img src='img/tf1_15_T1_ss2_md.jpeg'></img>","0","false",""
"","html-keyboard-response","43","294747","0.0-10.0-0.15","863","
","
","
","
","
","null","<div style=""font-size:60px;"">+</div>","","null","fixation","2021-05-16 23:53:51.742","","","","",""
"","mars-trial","44","310675","0.0-10.0-1.15","863","
","
","
","
","
","15322.999999999942","<img style='border: 4px solid darkgrey;' src='img/tf1_16_M_ss3.jpeg'></img>","2","","exp","","3","<img src='img/tf1_16_T1_ss3_md.jpeg'></img>","0","false",""
"","html-keyboard-response","45","311178","0.0-10.0-0.16","863","
","
","
","
","
","null","<div style=""font-size:60px;"">+</div>","","null","fixation","2021-05-16 23:54:08.173","","","","",""
"","mars-trial","46","327946","0.0-10.0-1.16","863","
","
","
","
","
","16164","<img style='border: 4px solid darkgrey;' src='img/tf1_17_M_ss1.jpeg'></img>","2","","exp","","2","<img src='img/tf1_17_T1_ss1_md.jpeg'></img>","0","false",""
"","html-keyboard-response","47","328449","0.0-10.0-0.17","863","
","
","
","
","
","null","<div style=""font-size:60px;"">+</div>","","null","fixation","2021-05-16 23:54:25.445","","","","",""
"","mars-trial","48","349809","0.0-10.0-1.17","863","
","
","
","
","
","20755.00000000006","<img style='border: 4px solid darkgrey;' src='img/tf1_18_M_ss2.jpeg'></img>","1","","exp","","0","<img src='img/tf1_18_T1_ss2_md.jpeg'></img>","0","true",""
"","html-keyboard-response","49","350312","0.0-10.0-0.18","863","
","
","
","
","
","null","<div style=""font-size:60px;"">+</div>","","null","fixation","2021-05-16 23:54:47.307","","","","",""
"","mars-trial","50","363955","0.0-10.0-1.18","863","
","
","
","
","
","13033.000000000058","<img style='border: 4px solid darkgrey;' src='img/tf1_19_M_ss3.jpeg'></img>","0","","exp","","0","<img src='img/tf1_19_T1_ss3_md.jpeg'></img>","0","true",""
"","html-keyboard-response","51","364458","0.0-10.0-0.19","863","
","
","
","
","
","null","<div style=""font-size:60px;"">+</div>","","null","fixation","2021-05-16 23:55:01.453","","","","",""
"","mars-trial","52","376074","0.0-10.0-1.19","863","
","
","
","
","
","11010.999999999942","<img style='border: 4px solid darkgrey;' src='img/tf1_20_M_ss1.jpeg'></img>","3","","exp","","3","<img src='img/tf1_20_T1_ss1_md.jpeg'></img>","0","false",""
"","html-keyboard-response","53","376577","0.0-10.0-0.20","863","
","
","
","
","
","null","<div style=""font-size:60px;"">+</div>","","null","fixation","2021-05-16 23:55:13.572","","","","",""
"","mars-trial","54","394340","0.0-10.0-1.20","863","
","
","
","
","
","17160","<img style='border: 4px solid darkgrey;' src='img/tf1_21_M_ss2.jpeg'></img>","3","","exp","","3","<img src='img/tf1_21_T1_ss2_md.jpeg'></img>","0","false",""
"","html-keyboard-response","55","394843","0.0-10.0-0.21","863","
","
","
","
","
","null","<div style=""font-size:60px;"">+</div>","","null","fixation","2021-05-16 23:55:31.839","","","","",""
"","mars-trial","56","415151","0.0-10.0-1.21","863","
","
","
","
","
","19701.99999999994","<img style='border: 4px solid darkgrey;' src='img/tf1_22_M_ss3.jpeg'></img>","0","","exp","","0","<img src='img/tf1_22_T1_ss3_md.jpeg'></img>","0","true",""
"","html-keyboard-response","57","415654","0.0-10.0-0.22","863","
","
","
","
","
","null","<div style=""font-size:60px;"">+</div>","","null","fixation","2021-05-16 23:55:52.650","","","","",""
"","mars-trial","58","440479","0.0-10.0-1.22","863","
","
","
","
","
","24215","<img style='border: 4px solid darkgrey;' src='img/tf1_23_M_ss1.jpeg'></img>","1","","exp","","1","<img src='img/tf1_23_T1_ss1_md.jpeg'></img>","0","false",""
"","html-keyboard-response","59","440982","0.0-10.0-0.23","863","
","
","
","
","
","null","<div style=""font-size:60px;"">+</div>","","null","fixation","2021-05-16 23:56:17.978","","","","",""
"","mars-trial","60","468584","0.0-10.0-1.23","863","
","
","
","
","
","26997","<img style='border: 4px solid darkgrey;' src='img/tf1_24_M_ss2.jpeg'></img>","0","","exp","","1","<img src='img/tf1_24_T1_ss2_md.jpeg'></img>","0","false",""
"","html-keyboard-response","61","469085","0.0-10.0-0.24","863","
","
","
","
","
","null","<div style=""font-size:60px;"">+</div>","","null","fixation","2021-05-16 23:56:46.080","","","","",""
"","mars-trial","62","482814","0.0-10.0-1.24","863","
","
","
","
","
","13119.999999999942","<img style='border: 4px solid darkgrey;' src='img/tf1_25_M_ss3.jpeg'></img>","2","","exp","","1","<img src='img/tf1_25_T1_ss3_md.jpeg'></img>","0","false",""
"","html-keyboard-response","63","483317","0.0-10.0-0.25","863","
","
","
","
","
","null","<div style=""font-size:60px;"">+</div>","","null","fixation","2021-05-16 23:57:00.313","","","","",""
"","mars-trial","64","494661","0.0-10.0-1.25","863","
","
","
","
","
","10737.000000000058","<img style='border: 4px solid darkgrey;' src='img/tf1_26_M_ss1.jpeg'></img>","3","","exp","","0","<img src='img/tf1_26_T1_ss1_md.jpeg'></img>","0","true",""
"","html-keyboard-response","65","495163","0.0-10.0-0.26","863","
","
","
","
","
","null","<div style=""font-size:60px;"">+</div>","","null","fixation","2021-05-16 23:57:12.158","","","","",""
"","mars-trial","66","515722","0.0-10.0-1.26","863","
","
","
","
","
","19954.00000000006","<img style='border: 4px solid darkgrey;' src='img/tf1_27_M_ss2.jpeg'></img>","0","","exp","","3","<img src='img/tf1_27_T1_ss2_md.jpeg'></img>","0","false",""
"","html-keyboard-response","67","516225","0.0-10.0-0.27","863","
","
","
","
","
","null","<div style=""font-size:60px;"">+</div>","","null","fixation","2021-05-16 23:57:33.221","","","","",""
"","mars-trial","68","533524","0.0-10.0-1.27","863","
","
","
","
","
","16692.99999999994","<img style='border: 4px solid darkgrey;' src='img/tf1_28_M_ss3.jpeg'></img>","3","","exp","","0","<img src='img/tf1_28_T1_ss3_md.jpeg'></img>","0","true",""
"","html-keyboard-response","69","534027","0.0-10.0-0.28","863","
","
","
","
","
","null","<div style=""font-size:60px;"">+</div>","","null","fixation","2021-05-16 23:57:51.023","","","","",""
"","mars-trial","70","561691","0.0-10.0-1.28","863","
","
","
","
","
","","","","","exp","","","<img src='img/tf1_29_T1_ss1_md.jpeg'></img>","0","false",""
"","html-keyboard-response","71","562193","0.0-10.0-0.29","863","
","
","
","
","
","null","<div style=""font-size:60px;"">+</div>","","null","fixation","2021-05-16 23:58:19.188","","","","",""
"","audio-button-response","72","565202","0.0-11.0","863","
","
","
","
","
","2904","audio/mars_instructions_slide5.wav","0","","","","","","","",""
