"success","trial_type","trial_index","time_elapsed","internal_node_id","subject_id","interactions","blur_events","focus_events","fullscreenenter_events","fullscreenexit_events","rt","stimulus","button_pressed","key_press","part","timestamp","unshuffled_button","correct_response","correct_button","correct","value"
"true","fullscreen","0","5339","0.0-0.0","249","""event"",""trial"",""time""
""fullscreenenter"",""0"",""4359""
","
","
","""event"",""trial"",""time""
""fullscreenenter"",""0"",""4359""
","
","","","","","","","","","","",""
"","pavlovia","1","5356","0.0-1.0","249","""event"",""trial"",""time""
""fullscreenenter"",""0"",""4359""
","
","
","""event"",""trial"",""time""
""fullscreenenter"",""0"",""4359""
","
","","","","","","","","","","",""
"","html-button-response","2","7340","0.0-2.0","249","""event"",""trial"",""time""
""fullscreenenter"",""0"",""4359""
","
","
","""event"",""trial"",""time""
""fullscreenenter"",""0"",""4359""
","
","1977.2799999918789","<p>Welcome! Press START to begin.</p><br>","0","","","","","","","",""
"","audio-button-response","3","33364","0.0-3.0","249","""event"",""trial"",""time""
""fullscreenenter"",""0"",""4359""
","
","
","""event"",""trial"",""time""
""fullscreenenter"",""0"",""4359""
","
","26016.96500001708","audio/mars_instructions_slide2.wav","0","","","","","","","",""
"","audio-button-response","4","40410","0.0-4.0","249","""event"",""trial"",""time""
""fullscreenenter"",""0"",""4359""
","
","
","""event"",""trial"",""time""
""fullscreenenter"",""0"",""4359""
","
","7041.030000022147","audio/mars_instructions_slide3.wav","0","","","","","","","",""
"","html-keyboard-response","5","40916","0.0-5.0-0.0","249","""event"",""trial"",""time""
""fullscreenenter"",""0"",""4359""
","
","
","""event"",""trial"",""time""
""fullscreenenter"",""0"",""4359""
","
","null","<div style=""font-size:60px;"">+</div>","","null","fixation","2021-07-04 15:26:11.533","","","","",""
"","mars-trial","6","47372","0.0-5.0-1.0","249","""event"",""trial"",""time""
""fullscreenenter"",""0"",""4359""
","
","
","""event"",""trial"",""time""
""fullscreenenter"",""0"",""4359""
","
","4332.499999989523","<img style='border: 4px solid darkgrey;' src='practice/pt1_M1.png'></img>","3","","practice","","0","<img src='practice/pt1_T1.png'></img>","0","true",""
"","html-keyboard-response","7","47879","0.0-6.0-0.0","249","""event"",""trial"",""time""
""fullscreenenter"",""0"",""4359""
","
","
","""event"",""trial"",""time""
""fullscreenenter"",""0"",""4359""
","
","null","<div style=""font-size:60px;"">+</div>","","null","fixation","2021-07-04 15:26:18.496","","","","",""
"","mars-trial","8","52967","0.0-6.0-1.0","249","""event"",""trial"",""time""
""fullscreenenter"",""0"",""4359""
","
","
","""event"",""trial"",""time""
""fullscreenenter"",""0"",""4359""
","
","2965.485000022454","<img style='border: 4px solid darkgrey;' src='practice/pt2_M1.png'></img>","0","","practice","","0","<img src='practice/pt2_T1.png'></img>","0","true",""
"","html-keyboard-response","9","53475","0.0-7.0-0.0","249","""event"",""trial"",""time""
""fullscreenenter"",""0"",""4359""
","
","
","""event"",""trial"",""time""
""fullscreenenter"",""0"",""4359""
","
","null","<div style=""font-size:60px;"">+</div>","","null","fixation","2021-07-04 15:26:24.090","","","","",""
"","mars-trial","10","57356","0.0-7.0-1.0","249","""event"",""trial"",""time""
""fullscreenenter"",""0"",""4359""
","
","
","""event"",""trial"",""time""
""fullscreenenter"",""0"",""4359""
","
","1765.0400000275113","<img style='border: 4px solid darkgrey;' src='practice/pt3_M1.png'></img>","0","","practice","","0","<img src='practice/pt3_T1.png'></img>","0","true",""
"","audio-button-response","11","59862","0.0-8.0","249","""event"",""trial"",""time""
""fullscreenenter"",""0"",""4359""
","
","
","""event"",""trial"",""time""
""fullscreenenter"",""0"",""4359""
","
","2497.380000015255","audio/mars_instructions_slide4.wav","0","","","","","","","",""
"","call-function","12","59867","0.0-9.0","249","""event"",""trial"",""time""
""fullscreenenter"",""0"",""4359""
","
","
","""event"",""trial"",""time""
""fullscreenenter"",""0"",""4359""
","
","","","","","","","","","","",""
"","html-keyboard-response","13","60370","0.0-10.0-0.0","249","""event"",""trial"",""time""
""fullscreenenter"",""0"",""4359""
","
","
","""event"",""trial"",""time""
""fullscreenenter"",""0"",""4359""
","
","null","<div style=""font-size:60px;"">+</div>","","null","fixation","2021-07-04 15:26:30.986","","","","",""
"","mars-trial","14","64444","0.0-10.0-1.0","249","""event"",""trial"",""time""
""fullscreenenter"",""0"",""4359""
","
","
","""event"",""trial"",""time""
""fullscreenenter"",""0"",""4359""
","
","3460.029999987455","<img style='border: 4px solid darkgrey;' src='img/tf1_1_M_ss3.jpeg'></img>","3","","exp","","2","<img src='img/tf1_1_T1_ss3_md.jpeg'></img>","0","false",""
"","html-keyboard-response","15","64954","0.0-10.0-0.1","249","""event"",""trial"",""time""
""fullscreenenter"",""0"",""4359""
","
","
","""event"",""trial"",""time""
""fullscreenenter"",""0"",""4359""
","
","null","<div style=""font-size:60px;"">+</div>","","null","fixation","2021-07-04 15:26:35.569","","","","",""
"","mars-trial","16","69882","0.0-10.0-1.1","249","""event"",""trial"",""time""
""fullscreenenter"",""0"",""4359""
","
","
","""event"",""trial"",""time""
""fullscreenenter"",""0"",""4359""
","
","4310.215000004973","<img style='border: 4px solid darkgrey;' src='img/tf1_2_M_ss1.jpeg'></img>","1","","exp","","0","<img src='img/tf1_2_T1_ss1_md.jpeg'></img>","0","true",""
"","html-keyboard-response","17","70389","0.0-10.0-0.2","249","""event"",""trial"",""time""
""fullscreenenter"",""0"",""4359""
","
","
","""event"",""trial"",""time""
""fullscreenenter"",""0"",""4359""
","
","null","<div style=""font-size:60px;"">+</div>","","null","fixation","2021-07-04 15:26:41.005","","","","",""
"","mars-trial","18","73464","0.0-10.0-1.2","249","""event"",""trial"",""time""
""fullscreenenter"",""0"",""4359""
","
","
","""event"",""trial"",""time""
""fullscreenenter"",""0"",""4359""
","
","2453.385000000708","<img style='border: 4px solid darkgrey;' src='img/tf1_3_M_ss2.jpeg'></img>","3","","exp","","0","<img src='img/tf1_3_T1_ss2_md.jpeg'></img>","0","true",""
"","html-keyboard-response","19","73968","0.0-10.0-0.3","249","""event"",""trial"",""time""
""fullscreenenter"",""0"",""4359""
","
","
","""event"",""trial"",""time""
""fullscreenenter"",""0"",""4359""
","
","null","<div style=""font-size:60px;"">+</div>","","null","fixation","2021-07-04 15:26:44.584","","","","",""
"","mars-trial","20","78900","0.0-10.0-1.3","249","""event"",""trial"",""time""
""fullscreenenter"",""0"",""4359""
","
","
","""event"",""trial"",""time""
""fullscreenenter"",""0"",""4359""
","
","4312.640000018291","<img style='border: 4px solid darkgrey;' src='img/tf1_4_M_ss3.jpeg'></img>","2","","exp","","0","<img src='img/tf1_4_T1_ss3_md.jpeg'></img>","0","true",""
"","html-keyboard-response","21","79407","0.0-10.0-0.4","249","""event"",""trial"",""time""
""fullscreenenter"",""0"",""4359""
","
","
","""event"",""trial"",""time""
""fullscreenenter"",""0"",""4359""
","
","null","<div style=""font-size:60px;"">+</div>","","null","fixation","2021-07-04 15:26:50.022","","","","",""
"","mars-trial","22","82739","0.0-10.0-1.4","249","""event"",""trial"",""time""
""fullscreenenter"",""0"",""4359""
","
","
","""event"",""trial"",""time""
""fullscreenenter"",""0"",""4359""
","
","2712.6200000056997","<img style='border: 4px solid darkgrey;' src='img/tf1_5_M_ss1.jpeg'></img>","1","","exp","","0","<img src='img/tf1_5_T1_ss1_md.jpeg'></img>","0","true",""
"","html-keyboard-response","23","83248","0.0-10.0-0.5","249","""event"",""trial"",""time""
""fullscreenenter"",""0"",""4359""
","
","
","""event"",""trial"",""time""
""fullscreenenter"",""0"",""4359""
","
","null","<div style=""font-size:60px;"">+</div>","","null","fixation","2021-07-04 15:26:53.863","","","","",""
"","mars-trial","24","90489","0.0-10.0-1.5","249","""event"",""trial"",""time""
""fullscreenenter"",""0"",""4359""
","
","
","""event"",""trial"",""time""
""fullscreenenter"",""0"",""4359""
","
","6624.615000007907","<img style='border: 4px solid darkgrey;' src='img/tf1_6_M_ss2.jpeg'></img>","3","","exp","","3","<img src='img/tf1_6_T1_ss2_md.jpeg'></img>","0","false",""
"","html-keyboard-response","25","90998","0.0-10.0-0.6","249","""event"",""trial"",""time""
""fullscreenenter"",""0"",""4359""
","
","
","""event"",""trial"",""time""
""fullscreenenter"",""0"",""4359""
","
","null","<div style=""font-size:60px;"">+</div>","","null","fixation","2021-07-04 15:27:01.614","","","","",""
"","mars-trial","26","96745","0.0-10.0-1.6","249","""event"",""trial"",""time""
""fullscreenenter"",""0"",""4359""
","
","
","""event"",""trial"",""time""
""fullscreenenter"",""0"",""4359""
","
","5130.375000007916","<img style='border: 4px solid darkgrey;' src='img/tf1_7_M_ss3.jpeg'></img>","2","","exp","","0","<img src='img/tf1_7_T1_ss3_md.jpeg'></img>","0","true",""
"","html-keyboard-response","27","97253","0.0-10.0-0.7","249","""event"",""trial"",""time""
""fullscreenenter"",""0"",""4359""
","
","
","""event"",""trial"",""time""
""fullscreenenter"",""0"",""4359""
","
","null","<div style=""font-size:60px;"">+</div>","","null","fixation","2021-07-04 15:27:07.869","","","","",""
"","mars-trial","28","105199","0.0-10.0-1.7","249","""event"",""trial"",""time""
""fullscreenenter"",""0"",""4359""
","
","
","""event"",""trial"",""time""
""fullscreenenter"",""0"",""4359""
","
","7324.554999999236","<img style='border: 4px solid darkgrey;' src='img/tf1_8_M_ss1.jpeg'></img>","3","","exp","","0","<img src='img/tf1_8_T1_ss1_md.jpeg'></img>","0","true",""
"","html-keyboard-response","29","105706","0.0-10.0-0.8","249","""event"",""trial"",""time""
""fullscreenenter"",""0"",""4359""
","
","
","""event"",""trial"",""time""
""fullscreenenter"",""0"",""4359""
","
","null","<div style=""font-size:60px;"">+</div>","","null","fixation","2021-07-04 15:27:16.322","","","","",""
"","mars-trial","30","113535","0.0-10.0-1.8","249","""event"",""trial"",""time""
""fullscreenenter"",""0"",""4359""
","
","
","""event"",""trial"",""time""
""fullscreenenter"",""0"",""4359""
","
","7213.74000000651","<img style='border: 4px solid darkgrey;' src='img/tf1_9_M_ss2.jpeg'></img>","3","","exp","","3","<img src='img/tf1_9_T1_ss2_md.jpeg'></img>","0","false",""
"","html-keyboard-response","31","114041","0.0-10.0-0.9","249","""event"",""trial"",""time""
""fullscreenenter"",""0"",""4359""
","
","
","""event"",""trial"",""time""
""fullscreenenter"",""0"",""4359""
","
","null","<div style=""font-size:60px;"">+</div>","","null","fixation","2021-07-04 15:27:24.657","","","","",""
"","mars-trial","32","119442","0.0-10.0-1.9","249","""event"",""trial"",""time""
""fullscreenenter"",""0"",""4359""
","
","
","""event"",""trial"",""time""
""fullscreenenter"",""0"",""4359""
","
","4775.244999997085","<img style='border: 4px solid darkgrey;' src='img/tf1_10_M_ss3.jpeg'></img>","1","","exp","","1","<img src='img/tf1_10_T1_ss3_md.jpeg'></img>","0","false",""
"","html-keyboard-response","33","119947","0.0-10.0-0.10","249","""event"",""trial"",""time""
""fullscreenenter"",""0"",""4359""
","
","
","""event"",""trial"",""time""
""fullscreenenter"",""0"",""4359""
","
","null","<div style=""font-size:60px;"">+</div>","","null","fixation","2021-07-04 15:27:30.563","","","","",""
"","mars-trial","34","123242","0.0-10.0-1.10","249","""event"",""trial"",""time""
""fullscreenenter"",""0"",""4359""
","
","
","""event"",""trial"",""time""
""fullscreenenter"",""0"",""4359""
","
","2673.060000000987","<img style='border: 4px solid darkgrey;' src='img/tf1_11_M_ss1.jpeg'></img>","3","","exp","","0","<img src='img/tf1_11_T1_ss1_md.jpeg'></img>","0","true",""
"","html-keyboard-response","35","123749","0.0-10.0-0.11","249","""event"",""trial"",""time""
""fullscreenenter"",""0"",""4359""
","
","
","""event"",""trial"",""time""
""fullscreenenter"",""0"",""4359""
","
","null","<div style=""font-size:60px;"">+</div>","","null","fixation","2021-07-04 15:27:34.364","","","","",""
"","mars-trial","36","130284","0.0-10.0-1.11","249","""event"",""trial"",""time""
""fullscreenenter"",""0"",""4359""
","
","
","""event"",""trial"",""time""
""fullscreenenter"",""0"",""4359""
","
","5912.639999995008","<img style='border: 4px solid darkgrey;' src='img/tf1_12_M_ss2.jpeg'></img>","1","","exp","","3","<img src='img/tf1_12_T1_ss2_md.jpeg'></img>","0","false",""
"","html-keyboard-response","37","130790","0.0-10.0-0.12","249","""event"",""trial"",""time""
""fullscreenenter"",""0"",""4359""
","
","
","""event"",""trial"",""time""
""fullscreenenter"",""0"",""4359""
","
","null","<div style=""font-size:60px;"">+</div>","","null","fixation","2021-07-04 15:27:41.406","","","","",""
"","mars-trial","38","136231","0.0-10.0-1.12","249","""event"",""trial"",""time""
""fullscreenenter"",""0"",""4359""
","
","
","""event"",""trial"",""time""
""fullscreenenter"",""0"",""4359""
","
","4816.269999981159","<img style='border: 4px solid darkgrey;' src='img/tf1_13_M_ss3.jpeg'></img>","3","","exp","","3","<img src='img/tf1_13_T1_ss3_md.jpeg'></img>","0","false",""
"","html-keyboard-response","39","136742","0.0-10.0-0.13","249","""event"",""trial"",""time""
""fullscreenenter"",""0"",""4359""
","
","
","""event"",""trial"",""time""
""fullscreenenter"",""0"",""4359""
","
","null","<div style=""font-size:60px;"">+</div>","","null","fixation","2021-07-04 15:27:47.358","","","","",""
"","mars-trial","40","144050","0.0-10.0-1.13","249","""event"",""trial"",""time""
""fullscreenenter"",""0"",""4359""
","
","
","""event"",""trial"",""time""
""fullscreenenter"",""0"",""4359""
","
","6693.119999981718","<img style='border: 4px solid darkgrey;' src='img/tf1_14_M_ss1.jpeg'></img>","3","","exp","","1","<img src='img/tf1_14_T1_ss1_md.jpeg'></img>","0","false",""
"","html-keyboard-response","41","144556","0.0-10.0-0.14","249","""event"",""trial"",""time""
""fullscreenenter"",""0"",""4359""
","
","
","""event"",""trial"",""time""
""fullscreenenter"",""0"",""4359""
","
","null","<div style=""font-size:60px;"">+</div>","","null","fixation","2021-07-04 15:27:55.172","","","","",""
"","mars-trial","42","146097","0.0-10.0-1.14","249","""event"",""trial"",""time""
""fullscreenenter"",""0"",""4359""
","
","
","""event"",""trial"",""time""
""fullscreenenter"",""0"",""4359""
","
","918.5750000178814","<img style='border: 4px solid darkgrey;' src='img/tf1_15_M_ss2.jpeg'></img>","2","","exp","","1","<img src='img/tf1_15_T1_ss2_md.jpeg'></img>","0","false",""
"","html-keyboard-response","43","146603","0.0-10.0-0.15","249","""event"",""trial"",""time""
""fullscreenenter"",""0"",""4359""
","
","
","""event"",""trial"",""time""
""fullscreenenter"",""0"",""4359""
","
","null","<div style=""font-size:60px;"">+</div>","","null","fixation","2021-07-04 15:27:57.219","","","","",""
"","mars-trial","44","148017","0.0-10.0-1.15","249","""event"",""trial"",""time""
""fullscreenenter"",""0"",""4359""
","
","
","""event"",""trial"",""time""
""fullscreenenter"",""0"",""4359""
","
","795.0249999994412","<img style='border: 4px solid darkgrey;' src='img/tf1_16_M_ss3.jpeg'></img>","1","","exp","","2","<img src='img/tf1_16_T1_ss3_md.jpeg'></img>","0","false",""
"","html-keyboard-response","45","148523","0.0-10.0-0.16","249","""event"",""trial"",""time""
""fullscreenenter"",""0"",""4359""
","
","
","""event"",""trial"",""time""
""fullscreenenter"",""0"",""4359""
","
","null","<div style=""font-size:60px;"">+</div>","","null","fixation","2021-07-04 15:27:59.139","","","","",""
"","mars-trial","46","154556","0.0-10.0-1.16","249","""event"",""trial"",""time""
""fullscreenenter"",""0"",""4359""
","
","
","""event"",""trial"",""time""
""fullscreenenter"",""0"",""4359""
","
","5411.229999997886","<img style='border: 4px solid darkgrey;' src='img/tf1_17_M_ss1.jpeg'></img>","0","","exp","","1","<img src='img/tf1_17_T1_ss1_md.jpeg'></img>","0","false",""
"","html-keyboard-response","47","155063","0.0-10.0-0.17","249","""event"",""trial"",""time""
""fullscreenenter"",""0"",""4359""
","
","
","""event"",""trial"",""time""
""fullscreenenter"",""0"",""4359""
","
","null","<div style=""font-size:60px;"">+</div>","","null","fixation","2021-07-04 15:28:05.678","","","","",""
"","mars-trial","48","156349","0.0-10.0-1.17","249","""event"",""trial"",""time""
""fullscreenenter"",""0"",""4359""
","
","
","""event"",""trial"",""time""
""fullscreenenter"",""0"",""4359""
","
","669.5900000049733","<img style='border: 4px solid darkgrey;' src='img/tf1_18_M_ss2.jpeg'></img>","0","","exp","","1","<img src='img/tf1_18_T1_ss2_md.jpeg'></img>","0","false",""
"","html-keyboard-response","49","156853","0.0-10.0-0.18","249","""event"",""trial"",""time""
""fullscreenenter"",""0"",""4359""
","
","
","""event"",""trial"",""time""
""fullscreenenter"",""0"",""4359""
","
","null","<div style=""font-size:60px;"">+</div>","","null","fixation","2021-07-04 15:28:07.469","","","","",""
"","mars-trial","50","158204","0.0-10.0-1.18","249","""event"",""trial"",""time""
""fullscreenenter"",""0"",""4359""
","
","
","""event"",""trial"",""time""
""fullscreenenter"",""0"",""4359""
","
","733.589999988908","<img style='border: 4px solid darkgrey;' src='img/tf1_19_M_ss3.jpeg'></img>","1","","exp","","1","<img src='img/tf1_19_T1_ss3_md.jpeg'></img>","0","false",""
"","html-keyboard-response","51","158716","0.0-10.0-0.19","249","""event"",""trial"",""time""
""fullscreenenter"",""0"",""4359""
","
","
","""event"",""trial"",""time""
""fullscreenenter"",""0"",""4359""
","
","null","<div style=""font-size:60px;"">+</div>","","null","fixation","2021-07-04 15:28:09.332","","","","",""
"","mars-trial","52","166041","0.0-10.0-1.19","249","""event"",""trial"",""time""
""fullscreenenter"",""0"",""4359""
","
","
","""event"",""trial"",""time""
""fullscreenenter"",""0"",""4359""
","
","6708.13499999349","<img style='border: 4px solid darkgrey;' src='img/tf1_20_M_ss1.jpeg'></img>","3","","exp","","0","<img src='img/tf1_20_T1_ss1_md.jpeg'></img>","0","true",""
"","html-keyboard-response","53","166545","0.0-10.0-0.20","249","""event"",""trial"",""time""
""fullscreenenter"",""0"",""4359""
","
","
","""event"",""trial"",""time""
""fullscreenenter"",""0"",""4359""
","
","null","<div style=""font-size:60px;"">+</div>","","null","fixation","2021-07-04 15:28:17.160","","","","",""
"","mars-trial","54","173833","0.0-10.0-1.20","249","""event"",""trial"",""time""
""fullscreenenter"",""0"",""4359""
","
","
","""event"",""trial"",""time""
""fullscreenenter"",""0"",""4359""
","
","6668.7849999871105","<img style='border: 4px solid darkgrey;' src='img/tf1_21_M_ss2.jpeg'></img>","1","","exp","","3","<img src='img/tf1_21_T1_ss2_md.jpeg'></img>","0","false",""
"","html-keyboard-response","55","174338","0.0-10.0-0.21","249","""event"",""trial"",""time""
""fullscreenenter"",""0"",""4359""
","
","
","""event"",""trial"",""time""
""fullscreenenter"",""0"",""4359""
","
","null","<div style=""font-size:60px;"">+</div>","","null","fixation","2021-07-04 15:28:24.953","","","","",""
"","mars-trial","56","179443","0.0-10.0-1.21","249","""event"",""trial"",""time""
""fullscreenenter"",""0"",""4359""
","
","
","""event"",""trial"",""time""
""fullscreenenter"",""0"",""4359""
","
","4487.5300000130665","<img style='border: 4px solid darkgrey;' src='img/tf1_22_M_ss3.jpeg'></img>","0","","exp","","3","<img src='img/tf1_22_T1_ss3_md.jpeg'></img>","0","false",""
"","html-keyboard-response","57","179953","0.0-10.0-0.22","249","""event"",""trial"",""time""
""fullscreenenter"",""0"",""4359""
","
","
","""event"",""trial"",""time""
""fullscreenenter"",""0"",""4359""
","
","null","<div style=""font-size:60px;"">+</div>","","null","fixation","2021-07-04 15:28:30.568","","","","",""
"","mars-trial","58","184553","0.0-10.0-1.22","249","""event"",""trial"",""time""
""fullscreenenter"",""0"",""4359""
","
","
","""event"",""trial"",""time""
""fullscreenenter"",""0"",""4359""
","
","3980.8950000151526","<img style='border: 4px solid darkgrey;' src='img/tf1_23_M_ss1.jpeg'></img>","2","","exp","","0","<img src='img/tf1_23_T1_ss1_md.jpeg'></img>","0","true",""
"","html-keyboard-response","59","185059","0.0-10.0-0.23","249","""event"",""trial"",""time""
""fullscreenenter"",""0"",""4359""
","
","
","""event"",""trial"",""time""
""fullscreenenter"",""0"",""4359""
","
","null","<div style=""font-size:60px;"">+</div>","","null","fixation","2021-07-04 15:28:35.675","","","","",""
"","mars-trial","60","188787","0.0-10.0-1.23","249","""event"",""trial"",""time""
""fullscreenenter"",""0"",""4359""
","
","
","""event"",""trial"",""time""
""fullscreenenter"",""0"",""4359""
","
","3108.0849999852944","<img style='border: 4px solid darkgrey;' src='img/tf1_24_M_ss2.jpeg'></img>","3","","exp","","0","<img src='img/tf1_24_T1_ss2_md.jpeg'></img>","0","true",""
"","html-keyboard-response","61","189294","0.0-10.0-0.24","249","""event"",""trial"",""time""
""fullscreenenter"",""0"",""4359""
","
","
","""event"",""trial"",""time""
""fullscreenenter"",""0"",""4359""
","
","null","<div style=""font-size:60px;"">+</div>","","null","fixation","2021-07-04 15:28:39.911","","","","",""
"","mars-trial","62","194407","0.0-10.0-1.24","249","""event"",""trial"",""time""
""fullscreenenter"",""0"",""4359""
","
","
","""event"",""trial"",""time""
""fullscreenenter"",""0"",""4359""
","
","4490.564999985509","<img style='border: 4px solid darkgrey;' src='img/tf1_25_M_ss3.jpeg'></img>","3","","exp","","0","<img src='img/tf1_25_T1_ss3_md.jpeg'></img>","0","true",""
"","html-keyboard-response","63","194916","0.0-10.0-0.25","249","""event"",""trial"",""time""
""fullscreenenter"",""0"",""4359""
","
","
","""event"",""trial"",""time""
""fullscreenenter"",""0"",""4359""
","
","null","<div style=""font-size:60px;"">+</div>","","null","fixation","2021-07-04 15:28:45.531","","","","",""
"","mars-trial","64","201777","0.0-10.0-1.25","249","""event"",""trial"",""time""
""fullscreenenter"",""0"",""4359""
","
","
","""event"",""trial"",""time""
""fullscreenenter"",""0"",""4359""
","
","6240.185000002384","<img style='border: 4px solid darkgrey;' src='img/tf1_26_M_ss1.jpeg'></img>","2","","exp","","0","<img src='img/tf1_26_T1_ss1_md.jpeg'></img>","0","true",""
"","html-keyboard-response","65","202283","0.0-10.0-0.26","249","""event"",""trial"",""time""
""fullscreenenter"",""0"",""4359""
","
","
","""event"",""trial"",""time""
""fullscreenenter"",""0"",""4359""
","
","null","<div style=""font-size:60px;"">+</div>","","null","fixation","2021-07-04 15:28:52.899","","","","",""
"","mars-trial","66","208814","0.0-10.0-1.26","249","""event"",""trial"",""time""
""fullscreenenter"",""0"",""4359""
","
","
","""event"",""trial"",""time""
""fullscreenenter"",""0"",""4359""
","
","5908.24999997858","<img style='border: 4px solid darkgrey;' src='img/tf1_27_M_ss2.jpeg'></img>","1","","exp","","3","<img src='img/tf1_27_T1_ss2_md.jpeg'></img>","0","false",""
"","html-keyboard-response","67","209319","0.0-10.0-0.27","249","""event"",""trial"",""time""
""fullscreenenter"",""0"",""4359""
","
","
","""event"",""trial"",""time""
""fullscreenenter"",""0"",""4359""
","
","null","<div style=""font-size:60px;"">+</div>","","null","fixation","2021-07-04 15:28:59.935","","","","",""
"","mars-trial","68","213747","0.0-10.0-1.27","249","""event"",""trial"",""time""
""fullscreenenter"",""0"",""4359""
","
","
","""event"",""trial"",""time""
""fullscreenenter"",""0"",""4359""
","
","3805.2200000092853","<img style='border: 4px solid darkgrey;' src='img/tf1_28_M_ss3.jpeg'></img>","2","","exp","","0","<img src='img/tf1_28_T1_ss3_md.jpeg'></img>","0","true",""
"","html-keyboard-response","69","214250","0.0-10.0-0.28","249","""event"",""trial"",""time""
""fullscreenenter"",""0"",""4359""
","
","
","""event"",""trial"",""time""
""fullscreenenter"",""0"",""4359""
","
","null","<div style=""font-size:60px;"">+</div>","","null","fixation","2021-07-04 15:29:04.866","","","","",""
"","mars-trial","70","220093","0.0-10.0-1.28","249","""event"",""trial"",""time""
""fullscreenenter"",""0"",""4359""
","
","
","""event"",""trial"",""time""
""fullscreenenter"",""0"",""4359""
","
","5223.014999995939","<img style='border: 4px solid darkgrey;' src='img/tf1_29_M_ss1.jpeg'></img>","3","","exp","","0","<img src='img/tf1_29_T1_ss1_md.jpeg'></img>","0","true",""
"","html-keyboard-response","71","220601","0.0-10.0-0.29","249","""event"",""trial"",""time""
""fullscreenenter"",""0"",""4359""
","
","
","""event"",""trial"",""time""
""fullscreenenter"",""0"",""4359""
","
","null","<div style=""font-size:60px;"">+</div>","","null","fixation","2021-07-04 15:29:11.217","","","","",""
"","mars-trial","72","225600","0.0-10.0-1.29","249","""event"",""trial"",""time""
""fullscreenenter"",""0"",""4359""
","
","
","""event"",""trial"",""time""
""fullscreenenter"",""0"",""4359""
","
","4379.899999999907","<img style='border: 4px solid darkgrey;' src='img/tf1_30_M_ss2.jpeg'></img>","1","","exp","","2","<img src='img/tf1_30_T1_ss2_md.jpeg'></img>","0","false",""
"","html-keyboard-response","73","226105","0.0-10.0-0.30","249","""event"",""trial"",""time""
""fullscreenenter"",""0"",""4359""
","
","
","""event"",""trial"",""time""
""fullscreenenter"",""0"",""4359""
","
","null","<div style=""font-size:60px;"">+</div>","","null","fixation","2021-07-04 15:29:16.721","","","","",""
"","mars-trial","74","229653","0.0-10.0-1.30","249","""event"",""trial"",""time""
""fullscreenenter"",""0"",""4359""
","
","
","""event"",""trial"",""time""
""fullscreenenter"",""0"",""4359""
","
","2925.5300000077114","<img style='border: 4px solid darkgrey;' src='img/tf1_31_M_ss3.jpeg'></img>","0","","exp","","3","<img src='img/tf1_31_T1_ss3_md.jpeg'></img>","0","false",""
"","html-keyboard-response","75","230162","0.0-10.0-0.31","249","""event"",""trial"",""time""
""fullscreenenter"",""0"",""4359""
","
","
","""event"",""trial"",""time""
""fullscreenenter"",""0"",""4359""
","
","null","<div style=""font-size:60px;"">+</div>","","null","fixation","2021-07-04 15:29:20.777","","","","",""
"","mars-trial","76","234372","0.0-10.0-1.31","249","""event"",""trial"",""time""
""fullscreenenter"",""0"",""4359""
","
","
","""event"",""trial"",""time""
""fullscreenenter"",""0"",""4359""
","
","3587.404999998398","<img style='border: 4px solid darkgrey;' src='img/tf1_32_M_ss1.jpeg'></img>","3","","exp","","0","<img src='img/tf1_32_T1_ss1_md.jpeg'></img>","0","true",""
"","html-keyboard-response","77","234877","0.0-10.0-0.32","249","""event"",""trial"",""time""
""fullscreenenter"",""0"",""4359""
","
","
","""event"",""trial"",""time""
""fullscreenenter"",""0"",""4359""
","
","null","<div style=""font-size:60px;"">+</div>","","null","fixation","2021-07-04 15:29:25.492","","","","",""
"","mars-trial","78","239920","0.0-10.0-1.32","249","""event"",""trial"",""time""
""fullscreenenter"",""0"",""4359""
","
","
","""event"",""trial"",""time""
""fullscreenenter"",""0"",""4359""
","
","4428.619999991497","<img style='border: 4px solid darkgrey;' src='img/tf1_33_M_ss2.jpeg'></img>","0","","exp","","0","<img src='img/tf1_33_T1_ss2_md.jpeg'></img>","0","true",""
"","html-keyboard-response","79","240426","0.0-10.0-0.33","249","""event"",""trial"",""time""
""fullscreenenter"",""0"",""4359""
","
","
","""event"",""trial"",""time""
""fullscreenenter"",""0"",""4359""
","
","null","<div style=""font-size:60px;"">+</div>","","null","fixation","2021-07-04 15:29:31.042","","","","",""
"","mars-trial","80","243949","0.0-10.0-1.33","249","""event"",""trial"",""time""
""fullscreenenter"",""0"",""4359""
","
","
","""event"",""trial"",""time""
""fullscreenenter"",""0"",""4359""
","
","2895.409999997355","<img style='border: 4px solid darkgrey;' src='img/tf1_34_M_ss3.jpeg'></img>","0","","exp","","1","<img src='img/tf1_34_T1_ss3_md.jpeg'></img>","0","false",""
"","html-keyboard-response","81","244453","0.0-10.0-0.34","249","""event"",""trial"",""time""
""fullscreenenter"",""0"",""4359""
","
","
","""event"",""trial"",""time""
""fullscreenenter"",""0"",""4359""
","
","null","<div style=""font-size:60px;"">+</div>","","null","fixation","2021-07-04 15:29:35.069","","","","",""
"","mars-trial","82","246686","0.0-10.0-1.34","249","""event"",""trial"",""time""
""fullscreenenter"",""0"",""4359""
","
","
","""event"",""trial"",""time""
""fullscreenenter"",""0"",""4359""
","
","1615.9800000023097","<img style='border: 4px solid darkgrey;' src='img/tf1_35_M_ss1.jpeg'></img>","2","","exp","","3","<img src='img/tf1_35_T1_ss1_md.jpeg'></img>","0","false",""
"","html-keyboard-response","83","247190","0.0-10.0-0.35","249","""event"",""trial"",""time""
""fullscreenenter"",""0"",""4359""
","
","
","""event"",""trial"",""time""
""fullscreenenter"",""0"",""4359""
","
","null","<div style=""font-size:60px;"">+</div>","","null","fixation","2021-07-04 15:29:37.806","","","","",""
"","mars-trial","84","248899","0.0-10.0-1.35","249","""event"",""trial"",""time""
""fullscreenenter"",""0"",""4359""
","
","
","""event"",""trial"",""time""
""fullscreenenter"",""0"",""4359""
","
","1093.5999999928754","<img style='border: 4px solid darkgrey;' src='img/tf1_36_M_ss2.jpeg'></img>","1","","exp","","0","<img src='img/tf1_36_T1_ss2_md.jpeg'></img>","0","true",""
"","html-keyboard-response","85","249415","0.0-10.0-0.36","249","""event"",""trial"",""time""
""fullscreenenter"",""0"",""4359""
","
","
","""event"",""trial"",""time""
""fullscreenenter"",""0"",""4359""
","
","null","<div style=""font-size:60px;"">+</div>","","null","fixation","2021-07-04 15:29:40.030","","","","",""
"","mars-trial","86","252610","0.0-10.0-1.36","249","""event"",""trial"",""time""
""fullscreenenter"",""0"",""4359""
","
","
","""event"",""trial"",""time""
""fullscreenenter"",""0"",""4359""
","
","2576.2849999882746","<img style='border: 4px solid darkgrey;' src='img/tf1_37_M_ss3.jpeg'></img>","1","","exp","","0","<img src='img/tf1_37_T1_ss3_md.jpeg'></img>","0","true",""
"","html-keyboard-response","87","253115","0.0-10.0-0.37","249","""event"",""trial"",""time""
""fullscreenenter"",""0"",""4359""
","
","
","""event"",""trial"",""time""
""fullscreenenter"",""0"",""4359""
","
","null","<div style=""font-size:60px;"">+</div>","","null","fixation","2021-07-04 15:29:43.731","","","","",""
"","mars-trial","88","257032","0.0-10.0-1.37","249","""event"",""trial"",""time""
""fullscreenenter"",""0"",""4359""
","
","
","""event"",""trial"",""time""
""fullscreenenter"",""0"",""4359""
","
","3299.5349999982864","<img style='border: 4px solid darkgrey;' src='img/tf1_38_M_ss1.jpeg'></img>","3","","exp","","0","<img src='img/tf1_38_T1_ss1_md.jpeg'></img>","0","true",""
"","html-keyboard-response","89","257536","0.0-10.0-0.38","249","""event"",""trial"",""time""
""fullscreenenter"",""0"",""4359""
","
","
","""event"",""trial"",""time""
""fullscreenenter"",""0"",""4359""
","
","null","<div style=""font-size:60px;"">+</div>","","null","fixation","2021-07-04 15:29:48.151","","","","",""
"","mars-trial","90","261942","0.0-10.0-1.38","249","""event"",""trial"",""time""
""fullscreenenter"",""0"",""4359""
","
","
","""event"",""trial"",""time""
""fullscreenenter"",""0"",""4359""
","
","3786.4150000095833","<img style='border: 4px solid darkgrey;' src='img/tf1_39_M_ss2.jpeg'></img>","2","","exp","","0","<img src='img/tf1_39_T1_ss2_md.jpeg'></img>","0","true",""
"","html-keyboard-response","91","262449","0.0-10.0-0.39","249","""event"",""trial"",""time""
""fullscreenenter"",""0"",""4359""
","
","
","""event"",""trial"",""time""
""fullscreenenter"",""0"",""4359""
","
","null","<div style=""font-size:60px;"">+</div>","","null","fixation","2021-07-04 15:29:53.064","","","","",""
"","mars-trial","92","270929","0.0-10.0-1.39","249","""event"",""trial"",""time""
""fullscreenenter"",""0"",""4359""
","
","
","""event"",""trial"",""time""
""fullscreenenter"",""0"",""4359""
","
","7860.994999995455","<img style='border: 4px solid darkgrey;' src='img/tf1_40_M_ss3.jpeg'></img>","3","","exp","","3","<img src='img/tf1_40_T1_ss3_md.jpeg'></img>","0","false",""
"","html-keyboard-response","93","271436","0.0-10.0-0.40","249","""event"",""trial"",""time""
""fullscreenenter"",""0"",""4359""
","
","
","""event"",""trial"",""time""
""fullscreenenter"",""0"",""4359""
","
","null","<div style=""font-size:60px;"">+</div>","","null","fixation","2021-07-04 15:30:02.052","","","","",""
"","mars-trial","94","276647","0.0-10.0-1.40","249","""event"",""trial"",""time""
""fullscreenenter"",""0"",""4359""
","
","
","""event"",""trial"",""time""
""fullscreenenter"",""0"",""4359""
","
","4590.055000007851","<img style='border: 4px solid darkgrey;' src='img/tf1_41_M_ss1.jpeg'></img>","0","","exp","","0","<img src='img/tf1_41_T1_ss1_md.jpeg'></img>","0","true",""
"","html-keyboard-response","95","277156","0.0-10.0-0.41","249","""event"",""trial"",""time""
""fullscreenenter"",""0"",""4359""
","
","
","""event"",""trial"",""time""
""fullscreenenter"",""0"",""4359""
","
","null","<div style=""font-size:60px;"">+</div>","","null","fixation","2021-07-04 15:30:07.771","","","","",""
"","mars-trial","96","279719","0.0-10.0-1.41","249","""event"",""trial"",""time""
""fullscreenenter"",""0"",""4359""
","
","
","""event"",""trial"",""time""
""fullscreenenter"",""0"",""4359""
","
","1944.0400000021327","<img style='border: 4px solid darkgrey;' src='img/tf1_42_M_ss2.jpeg'></img>","0","","exp","","1","<img src='img/tf1_42_T1_ss2_md.jpeg'></img>","0","false",""
"","html-keyboard-response","97","280226","0.0-10.0-0.42","249","""event"",""trial"",""time""
""fullscreenenter"",""0"",""4359""
","
","
","""event"",""trial"",""time""
""fullscreenenter"",""0"",""4359""
","
","null","<div style=""font-size:60px;"">+</div>","","null","fixation","2021-07-04 15:30:10.842","","","","",""
"","mars-trial","98","284202","0.0-10.0-1.42","249","""event"",""trial"",""time""
""fullscreenenter"",""0"",""4359""
","
","
","""event"",""trial"",""time""
""fullscreenenter"",""0"",""4359""
","
","3358.9999999967404","<img style='border: 4px solid darkgrey;' src='img/tf1_43_M_ss3.jpeg'></img>","3","","exp","","0","<img src='img/tf1_43_T1_ss3_md.jpeg'></img>","0","true",""
"","html-keyboard-response","99","284711","0.0-10.0-0.43","249","""event"",""trial"",""time""
""fullscreenenter"",""0"",""4359""
","
","
","""event"",""trial"",""time""
""fullscreenenter"",""0"",""4359""
","
","null","<div style=""font-size:60px;"">+</div>","","null","fixation","2021-07-04 15:30:15.326","","","","",""
"","mars-trial","100","289258","0.0-10.0-1.43","249","""event"",""trial"",""time""
""fullscreenenter"",""0"",""4359""
","
","
","""event"",""trial"",""time""
""fullscreenenter"",""0"",""4359""
","
","3929.535000002943","<img style='border: 4px solid darkgrey;' src='img/tf1_44_M_ss1.jpeg'></img>","3","","exp","","1","<img src='img/tf1_44_T1_ss1_md.jpeg'></img>","0","false",""
"","html-keyboard-response","101","289766","0.0-10.0-0.44","249","""event"",""trial"",""time""
""fullscreenenter"",""0"",""4359""
","
","
","""event"",""trial"",""time""
""fullscreenenter"",""0"",""4359""
","
","null","<div style=""font-size:60px;"">+</div>","","null","fixation","2021-07-04 15:30:20.382","","","","",""
"","mars-trial","102","296016","0.0-10.0-1.44","249","""event"",""trial"",""time""
""fullscreenenter"",""0"",""4359""
","
","
","""event"",""trial"",""time""
""fullscreenenter"",""0"",""4359""
","
","5628.850000008242","<img style='border: 4px solid darkgrey;' src='img/tf1_45_M_ss2.jpeg'></img>","1","","exp","","2","<img src='img/tf1_45_T1_ss2_md.jpeg'></img>","0","false",""
"","html-keyboard-response","103","296523","0.0-10.0-0.45","249","""event"",""trial"",""time""
""fullscreenenter"",""0"",""4359""
","
","
","""event"",""trial"",""time""
""fullscreenenter"",""0"",""4359""
","
","null","<div style=""font-size:60px;"">+</div>","","null","fixation","2021-07-04 15:30:27.138","","","","",""
"","mars-trial","104","299200","0.0-10.0-1.45","249","""event"",""trial"",""time""
""fullscreenenter"",""0"",""4359""
","
","
","""event"",""trial"",""time""
""fullscreenenter"",""0"",""4359""
","
","2052.83000000054","<img style='border: 4px solid darkgrey;' src='img/tf1_46_M_ss3.jpeg'></img>","3","","exp","","2","<img src='img/tf1_46_T1_ss3_md.jpeg'></img>","0","false",""
"","html-keyboard-response","105","299705","0.0-10.0-0.46","249","""event"",""trial"",""time""
""fullscreenenter"",""0"",""4359""
","
","
","""event"",""trial"",""time""
""fullscreenenter"",""0"",""4359""
","
","null","<div style=""font-size:60px;"">+</div>","","null","fixation","2021-07-04 15:30:30.321","","","","",""
"","mars-trial","106","301855","0.0-10.0-1.46","249","""event"",""trial"",""time""
""fullscreenenter"",""0"",""4359""
","
","
","""event"",""trial"",""time""
""fullscreenenter"",""0"",""4359""
","
","1532.999999995809","<img style='border: 4px solid darkgrey;' src='img/tf1_47_M_ss1.jpeg'></img>","2","","exp","","3","<img src='img/tf1_47_T1_ss1_md.jpeg'></img>","0","false",""
"","html-keyboard-response","107","302362","0.0-10.0-0.47","249","""event"",""trial"",""time""
""fullscreenenter"",""0"",""4359""
","
","
","""event"",""trial"",""time""
""fullscreenenter"",""0"",""4359""
","
","null","<div style=""font-size:60px;"">+</div>","","null","fixation","2021-07-04 15:30:32.977","","","","",""
"","mars-trial","108","303404","0.0-10.0-1.47","249","""event"",""trial"",""time""
""fullscreenenter"",""0"",""4359""
","
","
","""event"",""trial"",""time""
""fullscreenenter"",""0"",""4359""
","
","431.95500000729226","<img style='border: 4px solid darkgrey;' src='img/tf1_48_M_ss2.jpeg'></img>","1","","exp","","0","<img src='img/tf1_48_T1_ss2_md.jpeg'></img>","0","true",""
"","html-keyboard-response","109","303907","0.0-10.0-0.48","249","""event"",""trial"",""time""
""fullscreenenter"",""0"",""4359""
","
","
","""event"",""trial"",""time""
""fullscreenenter"",""0"",""4359""
","
","null","<div style=""font-size:60px;"">+</div>","","null","fixation","2021-07-04 15:30:34.522","","","","",""
"","mars-trial","110","309956","0.0-10.0-1.48","249","""event"",""trial"",""time""
""fullscreenenter"",""0"",""4359""
","
","
","""event"",""trial"",""time""
""fullscreenenter"",""0"",""4359""
","
","5432.004999980563","<img style='border: 4px solid darkgrey;' src='img/tf1_49_M_ss3.jpeg'></img>","1","","exp","","0","<img src='img/tf1_49_T1_ss3_md.jpeg'></img>","0","true",""
"","html-keyboard-response","111","310461","0.0-10.0-0.49","249","""event"",""trial"",""time""
""fullscreenenter"",""0"",""4359""
","
","
","""event"",""trial"",""time""
""fullscreenenter"",""0"",""4359""
","
","null","<div style=""font-size:60px;"">+</div>","","null","fixation","2021-07-04 15:30:41.077","","","","",""
"","mars-trial","112","315113","0.0-10.0-1.49","249","""event"",""trial"",""time""
""fullscreenenter"",""0"",""4359""
","
","
","""event"",""trial"",""time""
""fullscreenenter"",""0"",""4359""
","
","4029.7849999915343","<img style='border: 4px solid darkgrey;' src='img/tf1_50_M_ss1.jpeg'></img>","3","","exp","","3","<img src='img/tf1_50_T1_ss1_md.jpeg'></img>","0","false",""
"","html-keyboard-response","113","315620","0.0-10.0-0.50","249","""event"",""trial"",""time""
""fullscreenenter"",""0"",""4359""
","
","
","""event"",""trial"",""time""
""fullscreenenter"",""0"",""4359""
","
","null","<div style=""font-size:60px;"">+</div>","","null","fixation","2021-07-04 15:30:46.235","","","","",""
"","mars-trial","114","317654","0.0-10.0-1.50","249","""event"",""trial"",""time""
""fullscreenenter"",""0"",""4359""
","
","
","""event"",""trial"",""time""
""fullscreenenter"",""0"",""4359""
","
","1417.7100000088103","<img style='border: 4px solid darkgrey;' src='img/tf1_51_M_ss2.jpeg'></img>","2","","exp","","3","<img src='img/tf1_51_T1_ss2_md.jpeg'></img>","0","false",""
"","html-keyboard-response","115","318157","0.0-10.0-0.51","249","""event"",""trial"",""time""
""fullscreenenter"",""0"",""4359""
","
","
","""event"",""trial"",""time""
""fullscreenenter"",""0"",""4359""
","
","null","<div style=""font-size:60px;"">+</div>","","null","fixation","2021-07-04 15:30:48.772","","","","",""
"","mars-trial","116","319654","0.0-10.0-1.51","249","""event"",""trial"",""time""
""fullscreenenter"",""0"",""4359""
","
","
","""event"",""trial"",""time""
""fullscreenenter"",""0"",""4359""
","
","884.3749999941792","<img style='border: 4px solid darkgrey;' src='img/tf1_52_M_ss3.jpeg'></img>","1","","exp","","0","<img src='img/tf1_52_T1_ss3_md.jpeg'></img>","0","true",""
"","html-keyboard-response","117","320159","0.0-10.0-0.52","249","""event"",""trial"",""time""
""fullscreenenter"",""0"",""4359""
","
","
","""event"",""trial"",""time""
""fullscreenenter"",""0"",""4359""
","
","null","<div style=""font-size:60px;"">+</div>","","null","fixation","2021-07-04 15:30:50.774","","","","",""
"","mars-trial","118","322372","0.0-10.0-1.52","249","""event"",""trial"",""time""
""fullscreenenter"",""0"",""4359""
","
","
","""event"",""trial"",""time""
""fullscreenenter"",""0"",""4359""
","
","1593.6599999840837","<img style='border: 4px solid darkgrey;' src='img/tf1_53_M_ss1.jpeg'></img>","0","","exp","","0","<img src='img/tf1_53_T1_ss1_md.jpeg'></img>","0","true",""
"","html-keyboard-response","119","322876","0.0-10.0-0.53","249","""event"",""trial"",""time""
""fullscreenenter"",""0"",""4359""
","
","
","""event"",""trial"",""time""
""fullscreenenter"",""0"",""4359""
","
","null","<div style=""font-size:60px;"">+</div>","","null","fixation","2021-07-04 15:30:53.492","","","","",""
"","mars-trial","120","325280","0.0-10.0-1.53","249","""event"",""trial"",""time""
""fullscreenenter"",""0"",""4359""
","
","
","""event"",""trial"",""time""
""fullscreenenter"",""0"",""4359""
","
","1785.7200000144076","<img style='border: 4px solid darkgrey;' src='img/tf1_54_M_ss2.jpeg'></img>","2","","exp","","2","<img src='img/tf1_54_T1_ss2_md.jpeg'></img>","0","false",""
"","html-keyboard-response","121","325786","0.0-10.0-0.54","249","""event"",""trial"",""time""
""fullscreenenter"",""0"",""4359""
","
","
","""event"",""trial"",""time""
""fullscreenenter"",""0"",""4359""
","
","null","<div style=""font-size:60px;"">+</div>","","null","fixation","2021-07-04 15:30:56.402","","","","",""
"","mars-trial","122","329899","0.0-10.0-1.54","249","""event"",""trial"",""time""
""fullscreenenter"",""0"",""4359""
","
","
","""event"",""trial"",""time""
""fullscreenenter"",""0"",""4359""
","
","3496.275000012247","<img style='border: 4px solid darkgrey;' src='img/tf1_55_M_ss3.jpeg'></img>","1","","exp","","3","<img src='img/tf1_55_T1_ss3_md.jpeg'></img>","0","false",""
"","html-keyboard-response","123","330407","0.0-10.0-0.55","249","""event"",""trial"",""time""
""fullscreenenter"",""0"",""4359""
","
","
","""event"",""trial"",""time""
""fullscreenenter"",""0"",""4359""
","
","null","<div style=""font-size:60px;"">+</div>","","null","fixation","2021-07-04 15:31:01.023","","","","",""
"","mars-trial","124","333132","0.0-10.0-1.55","249","""event"",""trial"",""time""
""fullscreenenter"",""0"",""4359""
","
","
","""event"",""trial"",""time""
""fullscreenenter"",""0"",""4359""
","
","2108.8549999985844","<img style='border: 4px solid darkgrey;' src='img/tf1_56_M_ss1.jpeg'></img>","1","","exp","","0","<img src='img/tf1_56_T1_ss1_md.jpeg'></img>","0","true",""
"","html-keyboard-response","125","333641","0.0-10.0-0.56","249","""event"",""trial"",""time""
""fullscreenenter"",""0"",""4359""
","
","
","""event"",""trial"",""time""
""fullscreenenter"",""0"",""4359""
","
","null","<div style=""font-size:60px;"">+</div>","","null","fixation","2021-07-04 15:31:04.256","","","","",""
"","mars-trial","126","337775","0.0-10.0-1.56","249","""event"",""trial"",""time""
""fullscreenenter"",""0"",""4359""
","
","
","""event"",""trial"",""time""
""fullscreenenter"",""0"",""4359""
","
","3521.924999979092","<img style='border: 4px solid darkgrey;' src='img/tf1_57_M_ss2.jpeg'></img>","2","","exp","","1","<img src='img/tf1_57_T1_ss2_md.jpeg'></img>","0","false",""
"","html-keyboard-response","127","338281","0.0-10.0-0.57","249","""event"",""trial"",""time""
""fullscreenenter"",""0"",""4359""
","
","
","""event"",""trial"",""time""
""fullscreenenter"",""0"",""4359""
","
","null","<div style=""font-size:60px;"">+</div>","","null","fixation","2021-07-04 15:31:08.897","","","","",""
"","mars-trial","128","344167","0.0-10.0-1.57","249","""event"",""trial"",""time""
""fullscreenenter"",""0"",""4359""
","
","
","""event"",""trial"",""time""
""fullscreenenter"",""0"",""4359""
","
","5263.565000001108","<img style='border: 4px solid darkgrey;' src='img/tf1_58_M_ss3.jpeg'></img>","1","","exp","","0","<img src='img/tf1_58_T1_ss3_md.jpeg'></img>","0","true",""
"","html-keyboard-response","129","344673","0.0-10.0-0.58","249","""event"",""trial"",""time""
""fullscreenenter"",""0"",""4359""
","
","
","""event"",""trial"",""time""
""fullscreenenter"",""0"",""4359""
","
","null","<div style=""font-size:60px;"">+</div>","","null","fixation","2021-07-04 15:31:15.288","","","","",""
"","mars-trial","130","347850","0.0-10.0-1.58","249","""event"",""trial"",""time""
""fullscreenenter"",""0"",""4359""
","
","
","""event"",""trial"",""time""
""fullscreenenter"",""0"",""4359""
","
","2556.3050000055227","<img style='border: 4px solid darkgrey;' src='img/tf1_59_M_ss1.jpeg'></img>","2","","exp","","2","<img src='img/tf1_59_T1_ss1_md.jpeg'></img>","0","false",""
"","html-keyboard-response","131","348357","0.0-10.0-0.59","249","""event"",""trial"",""time""
""fullscreenenter"",""0"",""4359""
","
","
","""event"",""trial"",""time""
""fullscreenenter"",""0"",""4359""
","
","null","<div style=""font-size:60px;"">+</div>","","null","fixation","2021-07-04 15:31:18.973","","","","",""
"","mars-trial","132","351846","0.0-10.0-1.59","249","""event"",""trial"",""time""
""fullscreenenter"",""0"",""4359""
","
","
","""event"",""trial"",""time""
""fullscreenenter"",""0"",""4359""
","
","2871.2700000032783","<img style='border: 4px solid darkgrey;' src='img/tf1_60_M_ss2.jpeg'></img>","1","","exp","","1","<img src='img/tf1_60_T1_ss2_md.jpeg'></img>","0","false",""
"","html-keyboard-response","133","352356","0.0-10.0-0.60","249","""event"",""trial"",""time""
""fullscreenenter"",""0"",""4359""
","
","
","""event"",""trial"",""time""
""fullscreenenter"",""0"",""4359""
","
","null","<div style=""font-size:60px;"">+</div>","","null","fixation","2021-07-04 15:31:22.973","","","","",""
"","mars-trial","134","354235","0.0-10.0-1.60","249","""event"",""trial"",""time""
""fullscreenenter"",""0"",""4359""
","
","
","""event"",""trial"",""time""
""fullscreenenter"",""0"",""4359""
","
","1262.9450000240467","<img style='border: 4px solid darkgrey;' src='img/tf1_61_M_ss3.jpeg'></img>","1","","exp","","2","<img src='img/tf1_61_T1_ss3_md.jpeg'></img>","0","false",""
"","html-keyboard-response","135","354738","0.0-10.0-0.61","249","""event"",""trial"",""time""
""fullscreenenter"",""0"",""4359""
","
","
","""event"",""trial"",""time""
""fullscreenenter"",""0"",""4359""
","
","null","<div style=""font-size:60px;"">+</div>","","null","fixation","2021-07-04 15:31:25.354","","","","",""
"","mars-trial","136","356433","0.0-10.0-1.61","249","""event"",""trial"",""time""
""fullscreenenter"",""0"",""4359""
","
","
","""event"",""trial"",""time""
""fullscreenenter"",""0"",""4359""
","
","1074.6649999928195","<img style='border: 4px solid darkgrey;' src='img/tf1_62_M_ss1.jpeg'></img>","2","","exp","","3","<img src='img/tf1_62_T1_ss1_md.jpeg'></img>","0","false",""
"","html-keyboard-response","137","356941","0.0-10.0-0.62","249","""event"",""trial"",""time""
""fullscreenenter"",""0"",""4359""
","
","
","""event"",""trial"",""time""
""fullscreenenter"",""0"",""4359""
","
","null","<div style=""font-size:60px;"">+</div>","","null","fixation","2021-07-04 15:31:27.557","","","","",""
"","mars-trial","138","358846","0.0-10.0-1.62","249","""event"",""trial"",""time""
""fullscreenenter"",""0"",""4359""
","
","
","""event"",""trial"",""time""
""fullscreenenter"",""0"",""4359""
","
","1291.2350000115111","<img style='border: 4px solid darkgrey;' src='img/tf1_63_M_ss2.jpeg'></img>","0","","exp","","0","<img src='img/tf1_63_T1_ss2_md.jpeg'></img>","0","true",""
"","html-keyboard-response","139","359351","0.0-10.0-0.63","249","""event"",""trial"",""time""
""fullscreenenter"",""0"",""4359""
","
","
","""event"",""trial"",""time""
""fullscreenenter"",""0"",""4359""
","
","null","<div style=""font-size:60px;"">+</div>","","null","fixation","2021-07-04 15:31:29.966","","","","",""
"","mars-trial","140","361315","0.0-10.0-1.63","249","""event"",""trial"",""time""
""fullscreenenter"",""0"",""4359""
","
","
","""event"",""trial"",""time""
""fullscreenenter"",""0"",""4359""
","
","1344.6049999911338","<img style='border: 4px solid darkgrey;' src='img/tf1_64_M_ss3.jpeg'></img>","3","","exp","","3","<img src='img/tf1_64_T1_ss3_md.jpeg'></img>","0","false",""
"","html-keyboard-response","141","361823","0.0-10.0-0.64","249","""event"",""trial"",""time""
""fullscreenenter"",""0"",""4359""
","
","
","""event"",""trial"",""time""
""fullscreenenter"",""0"",""4359""
","
","null","<div style=""font-size:60px;"">+</div>","","null","fixation","2021-07-04 15:31:32.438","","","","",""
"","mars-trial","142","363721","0.0-10.0-1.64","249","""event"",""trial"",""time""
""fullscreenenter"",""0"",""4359""
","
","
","""event"",""trial"",""time""
""fullscreenenter"",""0"",""4359""
","
","1280.7150000007823","<img style='border: 4px solid darkgrey;' src='img/tf1_65_M_ss1.jpeg'></img>","2","","exp","","2","<img src='img/tf1_65_T1_ss1_md.jpeg'></img>","0","false",""
"","html-keyboard-response","143","364230","0.0-10.0-0.65","249","""event"",""trial"",""time""
""fullscreenenter"",""0"",""4359""
","
","
","""event"",""trial"",""time""
""fullscreenenter"",""0"",""4359""
","
","null","<div style=""font-size:60px;"">+</div>","","null","fixation","2021-07-04 15:31:34.845","","","","",""
"","mars-trial","144","365605","0.0-10.0-1.65","249","""event"",""trial"",""time""
""fullscreenenter"",""0"",""4359""
","
","
","""event"",""trial"",""time""
""fullscreenenter"",""0"",""4359""
","
","760.3999999992084","<img style='border: 4px solid darkgrey;' src='img/tf1_66_M_ss2.jpeg'></img>","2","","exp","","3","<img src='img/tf1_66_T1_ss2_md.jpeg'></img>","0","false",""
"","html-keyboard-response","145","366108","0.0-10.0-0.66","249","""event"",""trial"",""time""
""fullscreenenter"",""0"",""4359""
","
","
","""event"",""trial"",""time""
""fullscreenenter"",""0"",""4359""
","
","null","<div style=""font-size:60px;"">+</div>","","null","fixation","2021-07-04 15:31:36.724","","","","",""
"","mars-trial","146","367275","0.0-10.0-1.66","249","""event"",""trial"",""time""
""fullscreenenter"",""0"",""4359""
","
","
","""event"",""trial"",""time""
""fullscreenenter"",""0"",""4359""
","
","550.6599999789614","<img style='border: 4px solid darkgrey;' src='img/tf1_67_M_ss3.jpeg'></img>","1","","exp","","0","<img src='img/tf1_67_T1_ss3_md.jpeg'></img>","0","true",""
"","html-keyboard-response","147","367780","0.0-10.0-0.67","249","""event"",""trial"",""time""
""fullscreenenter"",""0"",""4359""
","
","
","""event"",""trial"",""time""
""fullscreenenter"",""0"",""4359""
","
","null","<div style=""font-size:60px;"">+</div>","","null","fixation","2021-07-04 15:31:38.395","","","","",""
"","mars-trial","148","370026","0.0-10.0-1.67","249","""event"",""trial"",""time""
""fullscreenenter"",""0"",""4359""
","
","
","""event"",""trial"",""time""
""fullscreenenter"",""0"",""4359""
","
","1625.9250000002794","<img style='border: 4px solid darkgrey;' src='img/tf1_68_M_ss1.jpeg'></img>","3","","exp","","0","<img src='img/tf1_68_T1_ss1_md.jpeg'></img>","0","true",""
"","html-keyboard-response","149","370534","0.0-10.0-0.68","249","""event"",""trial"",""time""
""fullscreenenter"",""0"",""4359""
","
","
","""event"",""trial"",""time""
""fullscreenenter"",""0"",""4359""
","
","null","<div style=""font-size:60px;"">+</div>","","null","fixation","2021-07-04 15:31:41.150","","","","",""
"","mars-trial","150","375279","0.0-10.0-1.68","249","""event"",""trial"",""time""
""fullscreenenter"",""0"",""4359""
","
","
","""event"",""trial"",""time""
""fullscreenenter"",""0"",""4359""
","
","4122.820000018692","<img style='border: 4px solid darkgrey;' src='img/tf1_69_M_ss2.jpeg'></img>","3","","exp","","1","<img src='img/tf1_69_T1_ss2_md.jpeg'></img>","0","false",""
"","html-keyboard-response","151","375786","0.0-10.0-0.69","249","""event"",""trial"",""time""
""fullscreenenter"",""0"",""4359""
","
","
","""event"",""trial"",""time""
""fullscreenenter"",""0"",""4359""
","
","null","<div style=""font-size:60px;"">+</div>","","null","fixation","2021-07-04 15:31:46.401","","","","",""
"","mars-trial","152","379586","0.0-10.0-1.69","249","""event"",""trial"",""time""
""fullscreenenter"",""0"",""4359""
","
","
","""event"",""trial"",""time""
""fullscreenenter"",""0"",""4359""
","
","3181.2449999852106","<img style='border: 4px solid darkgrey;' src='img/tf1_70_M_ss3.jpeg'></img>","3","","exp","","3","<img src='img/tf1_70_T1_ss3_md.jpeg'></img>","0","false",""
"","html-keyboard-response","153","380091","0.0-10.0-0.70","249","""event"",""trial"",""time""
""fullscreenenter"",""0"",""4359""
","
","
","""event"",""trial"",""time""
""fullscreenenter"",""0"",""4359""
","
","null","<div style=""font-size:60px;"">+</div>","","null","fixation","2021-07-04 15:31:50.706","","","","",""
"","mars-trial","154","383530","0.0-10.0-1.70","249","""event"",""trial"",""time""
""fullscreenenter"",""0"",""4359""
","
","
","""event"",""trial"",""time""
""fullscreenenter"",""0"",""4359""
","
","2809.659999998985","<img style='border: 4px solid darkgrey;' src='img/tf1_71_M_ss1.jpeg'></img>","3","","exp","","3","<img src='img/tf1_71_T1_ss1_md.jpeg'></img>","0","false",""
"","html-keyboard-response","155","384037","0.0-10.0-0.71","249","""event"",""trial"",""time""
""fullscreenenter"",""0"",""4359""
","
","
","""event"",""trial"",""time""
""fullscreenenter"",""0"",""4359""
","
","null","<div style=""font-size:60px;"">+</div>","","null","fixation","2021-07-04 15:31:54.652","","","","",""
"","mars-trial","156","386308","0.0-10.0-1.71","249","""event"",""trial"",""time""
""fullscreenenter"",""0"",""4359""
","
","
","""event"",""trial"",""time""
""fullscreenenter"",""0"",""4359""
","
","1649.394999985816","<img style='border: 4px solid darkgrey;' src='img/tf1_72_M_ss2.jpeg'></img>","2","","exp","","0","<img src='img/tf1_72_T1_ss2_md.jpeg'></img>","0","true",""
"","html-keyboard-response","157","386814","0.0-10.0-0.72","249","""event"",""trial"",""time""
""fullscreenenter"",""0"",""4359""
","
","
","""event"",""trial"",""time""
""fullscreenenter"",""0"",""4359""
","
","null","<div style=""font-size:60px;"">+</div>","","null","fixation","2021-07-04 15:31:57.430","","","","",""
"","mars-trial","158","389239","0.0-10.0-1.72","249","""event"",""trial"",""time""
""fullscreenenter"",""0"",""4359""
","
","
","""event"",""trial"",""time""
""fullscreenenter"",""0"",""4359""
","
","1805.7499999995343","<img style='border: 4px solid darkgrey;' src='img/tf1_73_M_ss3.jpeg'></img>","1","","exp","","2","<img src='img/tf1_73_T1_ss3_md.jpeg'></img>","0","false",""
"","html-keyboard-response","159","389744","0.0-10.0-0.73","249","""event"",""trial"",""time""
""fullscreenenter"",""0"",""4359""
","
","
","""event"",""trial"",""time""
""fullscreenenter"",""0"",""4359""
","
","null","<div style=""font-size:60px;"">+</div>","","null","fixation","2021-07-04 15:32:00.360","","","","",""
"","mars-trial","160","392581","0.0-10.0-1.73","249","""event"",""trial"",""time""
""fullscreenenter"",""0"",""4359""
","
","
","""event"",""trial"",""time""
""fullscreenenter"",""0"",""4359""
","
","2214.1450000053737","<img style='border: 4px solid darkgrey;' src='img/tf1_74_M_ss1.jpeg'></img>","0","","exp","","2","<img src='img/tf1_74_T1_ss1_md.jpeg'></img>","0","false",""
"","html-keyboard-response","161","393088","0.0-10.0-0.74","249","""event"",""trial"",""time""
""fullscreenenter"",""0"",""4359""
","
","
","""event"",""trial"",""time""
""fullscreenenter"",""0"",""4359""
","
","null","<div style=""font-size:60px;"">+</div>","","null","fixation","2021-07-04 15:32:03.703","","","","",""
"","mars-trial","162","394648","0.0-10.0-1.74","249","""event"",""trial"",""time""
""fullscreenenter"",""0"",""4359""
","
","
","""event"",""trial"",""time""
""fullscreenenter"",""0"",""4359""
","
","941.9900000211783","<img style='border: 4px solid darkgrey;' src='img/tf1_75_M_ss2.jpeg'></img>","1","","exp","","2","<img src='img/tf1_75_T1_ss2_md.jpeg'></img>","0","false",""
"","html-keyboard-response","163","395153","0.0-10.0-0.75","249","""event"",""trial"",""time""
""fullscreenenter"",""0"",""4359""
","
","
","""event"",""trial"",""time""
""fullscreenenter"",""0"",""4359""
","
","null","<div style=""font-size:60px;"">+</div>","","null","fixation","2021-07-04 15:32:05.770","","","","",""
"","mars-trial","164","396234","0.0-10.0-1.75","249","""event"",""trial"",""time""
""fullscreenenter"",""0"",""4359""
","
","
","""event"",""trial"",""time""
""fullscreenenter"",""0"",""4359""
","
","461.8450000125449","<img style='border: 4px solid darkgrey;' src='img/tf1_76_M_ss3.jpeg'></img>","2","","exp","","3","<img src='img/tf1_76_T1_ss3_md.jpeg'></img>","0","false",""
"","html-keyboard-response","165","396740","0.0-10.0-0.76","249","""event"",""trial"",""time""
""fullscreenenter"",""0"",""4359""
","
","
","""event"",""trial"",""time""
""fullscreenenter"",""0"",""4359""
","
","null","<div style=""font-size:60px;"">+</div>","","null","fixation","2021-07-04 15:32:07.355","","","","",""
"","mars-trial","166","398378","0.0-10.0-1.76","249","""event"",""trial"",""time""
""fullscreenenter"",""0"",""4359""
","
","
","""event"",""trial"",""time""
""fullscreenenter"",""0"",""4359""
","
","1024.1899999964517","<img style='border: 4px solid darkgrey;' src='img/tf1_77_M_ss1.jpeg'></img>","3","","exp","","1","<img src='img/tf1_77_T1_ss1_md.jpeg'></img>","0","false",""
"","html-keyboard-response","167","398886","0.0-10.0-0.77","249","""event"",""trial"",""time""
""fullscreenenter"",""0"",""4359""
","
","
","""event"",""trial"",""time""
""fullscreenenter"",""0"",""4359""
","
","null","<div style=""font-size:60px;"">+</div>","","null","fixation","2021-07-04 15:32:09.501","","","","",""
"","mars-trial","168","400834","0.0-10.0-1.77","249","""event"",""trial"",""time""
""fullscreenenter"",""0"",""4359""
","
","
","""event"",""trial"",""time""
""fullscreenenter"",""0"",""4359""
","
","1326.4450000133365","<img style='border: 4px solid darkgrey;' src='img/tf1_78_M_ss2.jpeg'></img>","1","","exp","","2","<img src='img/tf1_78_T1_ss2_md.jpeg'></img>","0","false",""
"","html-keyboard-response","169","401339","0.0-10.0-0.78","249","""event"",""trial"",""time""
""fullscreenenter"",""0"",""4359""
","
","
","""event"",""trial"",""time""
""fullscreenenter"",""0"",""4359""
","
","null","<div style=""font-size:60px;"">+</div>","","null","fixation","2021-07-04 15:32:11.954","","","","",""
"","mars-trial","170","403030","0.0-10.0-1.78","249","""event"",""trial"",""time""
""fullscreenenter"",""0"",""4359""
","
","
","""event"",""trial"",""time""
""fullscreenenter"",""0"",""4359""
","
","1070.8849999937229","<img style='border: 4px solid darkgrey;' src='img/tf1_79_M_ss3.jpeg'></img>","0","","exp","","1","<img src='img/tf1_79_T1_ss3_md.jpeg'></img>","0","false",""
"","html-keyboard-response","171","403535","0.0-10.0-0.79","249","""event"",""trial"",""time""
""fullscreenenter"",""0"",""4359""
","
","
","""event"",""trial"",""time""
""fullscreenenter"",""0"",""4359""
","
","null","<div style=""font-size:60px;"">+</div>","","null","fixation","2021-07-04 15:32:14.150","","","","",""
"","mars-trial","172","404744","0.0-10.0-1.79","249","""event"",""trial"",""time""
""fullscreenenter"",""0"",""4359""
","
","
","""event"",""trial"",""time""
""fullscreenenter"",""0"",""4359""
","
","592.1199999866076","<img style='border: 4px solid darkgrey;' src='img/tf1_80_M_ss1.jpeg'></img>","2","","exp","","1","<img src='img/tf1_80_T1_ss1_md.jpeg'></img>","0","false",""
"","audio-button-response","173","408382","0.0-11.0","249","""event"",""trial"",""time""
""fullscreenenter"",""0"",""4359""
","
","
","""event"",""trial"",""time""
""fullscreenenter"",""0"",""4359""
","
","3629.2650000250433","audio/mars_instructions_slide5.wav","0","","","","","","","",""
