"success","trial_type","trial_index","time_elapsed","internal_node_id","subject_id","interactions","blur_events","focus_events","fullscreenenter_events","fullscreenexit_events","rt","stimulus","button_pressed","key_press","part","timestamp","unshuffled_button","correct_response","correct_button","correct","value"
"true","fullscreen","0","7281","0.0-0.0","1119","""event"",""trial"",""time""
""fullscreenenter"",""0"",""6307""
","
","
","""event"",""trial"",""time""
""fullscreenenter"",""0"",""6307""
","
","","","","","","","","","","",""
"","pavlovia","1","7285","0.0-1.0","1119","""event"",""trial"",""time""
""fullscreenenter"",""0"",""6307""
","
","
","""event"",""trial"",""time""
""fullscreenenter"",""0"",""6307""
","
","","","","","","","","","","",""
"","html-button-response","2","26907","0.0-2.0","1119","""event"",""trial"",""time""
""fullscreenenter"",""0"",""6307""
","
","
","""event"",""trial"",""time""
""fullscreenenter"",""0"",""6307""
","
","19619.699999999255","<p>Welcome! Press START to begin.</p><br>","0","","","","","","","",""
"","audio-button-response","3","40946","0.0-3.0","1119","""event"",""trial"",""time""
""fullscreenenter"",""0"",""6307""
","
","
","""event"",""trial"",""time""
""fullscreenenter"",""0"",""6307""
","
","14036.5","audio/mars_instructions_slide2.wav","0","","","","","","","",""
"","audio-button-response","4","42773","0.0-4.0","1119","""event"",""trial"",""time""
""fullscreenenter"",""0"",""6307""
","
","
","""event"",""trial"",""time""
""fullscreenenter"",""0"",""6307""
","
","1825.1000000014901","audio/mars_instructions_slide3.wav","0","","","","","","","",""
"","html-keyboard-response","5","43275","0.0-5.0-0.0","1119","""event"",""trial"",""time""
""fullscreenenter"",""0"",""6307""
","
","
","""event"",""trial"",""time""
""fullscreenenter"",""0"",""6307""
","
","null","<div style=""font-size:60px;"">+</div>","","null","fixation","2021-08-31 02:50:56.401","","","","",""
"","mars-trial","6","53360","0.0-5.0-1.0","1119","""event"",""trial"",""time""
""fullscreenenter"",""0"",""6307""
","
","
","""event"",""trial"",""time""
""fullscreenenter"",""0"",""6307""
","
","7976.39999999851","<img style='border: 4px solid darkgrey;' src='practice/pt1_M1.png'></img>","3","","practice","","3","<img src='practice/pt1_T1.png'></img>","0","false",""
"","html-keyboard-response","7","53862","0.0-5.1-0.1","1119","""event"",""trial"",""time""
""fullscreenenter"",""0"",""6307""
","
","
","""event"",""trial"",""time""
""fullscreenenter"",""0"",""6307""
","
","null","<div style=""font-size:60px;"">+</div>","","null","fixation","2021-08-31 02:51:06.988","","","","",""
"","mars-trial","8","60405","0.0-5.1-1.1","1119","""event"",""trial"",""time""
""fullscreenenter"",""0"",""6307""
","
","
","""event"",""trial"",""time""
""fullscreenenter"",""0"",""6307""
","
","4435.199999999255","<img style='border: 4px solid darkgrey;' src='practice/pt1_M1.png'></img>","3","","practice","","0","<img src='practice/pt1_T1.png'></img>","0","true",""
"","html-keyboard-response","9","60907","0.0-6.0-0.0","1119","""event"",""trial"",""time""
""fullscreenenter"",""0"",""6307""
","
","
","""event"",""trial"",""time""
""fullscreenenter"",""0"",""6307""
","
","null","<div style=""font-size:60px;"">+</div>","","null","fixation","2021-08-31 02:51:14.033","","","","",""
"","mars-trial","10","65626","0.0-6.0-1.0","1119","""event"",""trial"",""time""
""fullscreenenter"",""0"",""6307""
","
","
","""event"",""trial"",""time""
""fullscreenenter"",""0"",""6307""
","
","2614.199999999255","<img style='border: 4px solid darkgrey;' src='practice/pt2_M1.png'></img>","0","","practice","","0","<img src='practice/pt2_T1.png'></img>","0","true",""
"","html-keyboard-response","11","66128","0.0-7.0-0.0","1119","""event"",""trial"",""time""
""fullscreenenter"",""0"",""6307""
","
","
","""event"",""trial"",""time""
""fullscreenenter"",""0"",""6307""
","
","null","<div style=""font-size:60px;"">+</div>","","null","fixation","2021-08-31 02:51:19.254","","","","",""
"","mars-trial","12","69878","0.0-7.0-1.0","1119","""event"",""trial"",""time""
""fullscreenenter"",""0"",""6307""
","
","
","""event"",""trial"",""time""
""fullscreenenter"",""0"",""6307""
","
","1643.300000000745","<img style='border: 4px solid darkgrey;' src='practice/pt3_M1.png'></img>","1","","practice","","0","<img src='practice/pt3_T1.png'></img>","0","true",""
"","audio-button-response","13","72257","0.0-8.0","1119","""event"",""trial"",""time""
""fullscreenenter"",""0"",""6307""
","
","
","""event"",""trial"",""time""
""fullscreenenter"",""0"",""6307""
","
","2377.39999999851","audio/mars_instructions_slide4.wav","0","","","","","","","",""
"","call-function","14","72258","0.0-9.0","1119","""event"",""trial"",""time""
""fullscreenenter"",""0"",""6307""
","
","
","""event"",""trial"",""time""
""fullscreenenter"",""0"",""6307""
","
","","","","","","","","","","",""
"","html-keyboard-response","15","72763","0.0-10.0-0.0","1119","""event"",""trial"",""time""
""fullscreenenter"",""0"",""6307""
","
","
","""event"",""trial"",""time""
""fullscreenenter"",""0"",""6307""
","
","null","<div style=""font-size:60px;"">+</div>","","null","fixation","2021-08-31 02:51:25.890","","","","",""
"","mars-trial","16","75851","0.0-10.0-1.0","1119","""event"",""trial"",""time""
""fullscreenenter"",""0"",""6307""
","
","
","""event"",""trial"",""time""
""fullscreenenter"",""0"",""6307""
","
","2480.599999997765","<img style='border: 4px solid darkgrey;' src='img/tf1_1_M_ss3.jpeg'></img>","0","","exp","","0","<img src='img/tf1_1_T1_ss3_md.jpeg'></img>","0","true",""
"","html-keyboard-response","17","76357","0.0-10.0-0.1","1119","""event"",""trial"",""time""
""fullscreenenter"",""0"",""6307""
","
","
","""event"",""trial"",""time""
""fullscreenenter"",""0"",""6307""
","
","null","<div style=""font-size:60px;"">+</div>","","null","fixation","2021-08-31 02:51:29.483","","","","",""
"","mars-trial","18","78982","0.0-10.0-1.1","1119","""event"",""trial"",""time""
""fullscreenenter"",""0"",""6307""
","
","
","""event"",""trial"",""time""
""fullscreenenter"",""0"",""6307""
","
","2020.4000000022352","<img style='border: 4px solid darkgrey;' src='img/tf1_2_M_ss1.jpeg'></img>","3","","exp","","0","<img src='img/tf1_2_T1_ss1_md.jpeg'></img>","0","true",""
"","html-keyboard-response","19","79488","0.0-10.0-0.2","1119","""event"",""trial"",""time""
""fullscreenenter"",""0"",""6307""
","
","
","""event"",""trial"",""time""
""fullscreenenter"",""0"",""6307""
","
","null","<div style=""font-size:60px;"">+</div>","","null","fixation","2021-08-31 02:51:32.614","","","","",""
"","mars-trial","20","82266","0.0-10.0-1.2","1119","""event"",""trial"",""time""
""fullscreenenter"",""0"",""6307""
","
","
","""event"",""trial"",""time""
""fullscreenenter"",""0"",""6307""
","
","2169.800000000745","<img style='border: 4px solid darkgrey;' src='img/tf1_3_M_ss2.jpeg'></img>","0","","exp","","0","<img src='img/tf1_3_T1_ss2_md.jpeg'></img>","0","true",""
"","html-keyboard-response","21","82771","0.0-10.0-0.3","1119","""event"",""trial"",""time""
""fullscreenenter"",""0"",""6307""
","
","
","""event"",""trial"",""time""
""fullscreenenter"",""0"",""6307""
","
","null","<div style=""font-size:60px;"">+</div>","","null","fixation","2021-08-31 02:51:35.897","","","","",""
"","mars-trial","22","86916","0.0-10.0-1.3","1119","""event"",""trial"",""time""
""fullscreenenter"",""0"",""6307""
","
","
","""event"",""trial"",""time""
""fullscreenenter"",""0"",""6307""
","
","3533.099999997765","<img style='border: 4px solid darkgrey;' src='img/tf1_4_M_ss3.jpeg'></img>","0","","exp","","0","<img src='img/tf1_4_T1_ss3_md.jpeg'></img>","0","true",""
"","html-keyboard-response","23","87418","0.0-10.0-0.4","1119","""event"",""trial"",""time""
""fullscreenenter"",""0"",""6307""
","
","
","""event"",""trial"",""time""
""fullscreenenter"",""0"",""6307""
","
","null","<div style=""font-size:60px;"">+</div>","","null","fixation","2021-08-31 02:51:40.544","","","","",""
"","mars-trial","24","90202","0.0-10.0-1.4","1119","""event"",""trial"",""time""
""fullscreenenter"",""0"",""6307""
","
","
","""event"",""trial"",""time""
""fullscreenenter"",""0"",""6307""
","
","2178.10000000149","<img style='border: 4px solid darkgrey;' src='img/tf1_5_M_ss1.jpeg'></img>","1","","exp","","0","<img src='img/tf1_5_T1_ss1_md.jpeg'></img>","0","true",""
"","html-keyboard-response","25","90707","0.0-10.0-0.5","1119","""event"",""trial"",""time""
""fullscreenenter"",""0"",""6307""
","
","
","""event"",""trial"",""time""
""fullscreenenter"",""0"",""6307""
","
","null","<div style=""font-size:60px;"">+</div>","","null","fixation","2021-08-31 02:51:43.833","","","","",""
"","mars-trial","26","103711","0.0-10.0-1.5","1119","""event"",""trial"",""time""
""fullscreenenter"",""0"",""6307""
","
","
","""event"",""trial"",""time""
""fullscreenenter"",""0"",""6307""
","
","12391.39999999851","<img style='border: 4px solid darkgrey;' src='img/tf1_6_M_ss2.jpeg'></img>","3","","exp","","3","<img src='img/tf1_6_T1_ss2_md.jpeg'></img>","0","false",""
"","html-keyboard-response","27","104213","0.0-10.0-0.6","1119","""event"",""trial"",""time""
""fullscreenenter"",""0"",""6307""
","
","
","""event"",""trial"",""time""
""fullscreenenter"",""0"",""6307""
","
","null","<div style=""font-size:60px;"">+</div>","","null","fixation","2021-08-31 02:51:57.339","","","","",""
"","mars-trial","28","107311","0.0-10.0-1.6","1119","""event"",""trial"",""time""
""fullscreenenter"",""0"",""6307""
","
","
","""event"",""trial"",""time""
""fullscreenenter"",""0"",""6307""
","
","2490.699999999255","<img style='border: 4px solid darkgrey;' src='img/tf1_7_M_ss3.jpeg'></img>","1","","exp","","0","<img src='img/tf1_7_T1_ss3_md.jpeg'></img>","0","true",""
"","html-keyboard-response","29","107816","0.0-10.0-0.7","1119","""event"",""trial"",""time""
""fullscreenenter"",""0"",""6307""
","
","
","""event"",""trial"",""time""
""fullscreenenter"",""0"",""6307""
","
","null","<div style=""font-size:60px;"">+</div>","","null","fixation","2021-08-31 02:52:00.942","","","","",""
"","mars-trial","30","114043","0.0-10.0-1.7","1119","""event"",""trial"",""time""
""fullscreenenter"",""0"",""6307""
","
","
","""event"",""trial"",""time""
""fullscreenenter"",""0"",""6307""
","
","5615.199999999255","<img style='border: 4px solid darkgrey;' src='img/tf1_8_M_ss1.jpeg'></img>","3","","exp","","0","<img src='img/tf1_8_T1_ss1_md.jpeg'></img>","0","true",""
"","html-keyboard-response","31","114545","0.0-10.0-0.8","1119","""event"",""trial"",""time""
""fullscreenenter"",""0"",""6307""
","
","
","""event"",""trial"",""time""
""fullscreenenter"",""0"",""6307""
","
","null","<div style=""font-size:60px;"">+</div>","","null","fixation","2021-08-31 02:52:07.671","","","","",""
"","mars-trial","32","122526","0.0-10.0-1.8","1119","""event"",""trial"",""time""
""fullscreenenter"",""0"",""6307""
","
","
","""event"",""trial"",""time""
""fullscreenenter"",""0"",""6307""
","
","7369.5","<img style='border: 4px solid darkgrey;' src='img/tf1_9_M_ss2.jpeg'></img>","2","","exp","","0","<img src='img/tf1_9_T1_ss2_md.jpeg'></img>","0","true",""
"","html-keyboard-response","33","123031","0.0-10.0-0.9","1119","""event"",""trial"",""time""
""fullscreenenter"",""0"",""6307""
","
","
","""event"",""trial"",""time""
""fullscreenenter"",""0"",""6307""
","
","null","<div style=""font-size:60px;"">+</div>","","null","fixation","2021-08-31 02:52:16.157","","","","",""
"","mars-trial","34","127583","0.0-10.0-1.9","1119","""event"",""trial"",""time""
""fullscreenenter"",""0"",""6307""
","
","
","""event"",""trial"",""time""
""fullscreenenter"",""0"",""6307""
","
","3946.60000000149","<img style='border: 4px solid darkgrey;' src='img/tf1_10_M_ss3.jpeg'></img>","2","","exp","","0","<img src='img/tf1_10_T1_ss3_md.jpeg'></img>","0","true",""
"","html-keyboard-response","35","128088","0.0-10.0-0.10","1119","""event"",""trial"",""time""
""fullscreenenter"",""0"",""6307""
","
","
","""event"",""trial"",""time""
""fullscreenenter"",""0"",""6307""
","
","null","<div style=""font-size:60px;"">+</div>","","null","fixation","2021-08-31 02:52:21.214","","","","",""
"","mars-trial","36","148986","0.0-10.0-1.10","1119","""event"",""trial"",""time""
""fullscreenenter"",""0"",""6307""
","
","
","""event"",""trial"",""time""
""fullscreenenter"",""0"",""6307""
","
","20291.699999999255","<img style='border: 4px solid darkgrey;' src='img/tf1_11_M_ss1.jpeg'></img>","0","","exp","","2","<img src='img/tf1_11_T1_ss1_md.jpeg'></img>","0","false",""
"","html-keyboard-response","37","149491","0.0-10.0-0.11","1119","""event"",""trial"",""time""
""fullscreenenter"",""0"",""6307""
","
","
","""event"",""trial"",""time""
""fullscreenenter"",""0"",""6307""
","
","null","<div style=""font-size:60px;"">+</div>","","null","fixation","2021-08-31 02:52:42.617","","","","",""
"","mars-trial","38","175911","0.0-10.0-1.11","1119","""event"",""trial"",""time""
""fullscreenenter"",""0"",""6307""
","
","
","""event"",""trial"",""time""
""fullscreenenter"",""0"",""6307""
","
","25809.699999999255","<img style='border: 4px solid darkgrey;' src='img/tf1_12_M_ss2.jpeg'></img>","1","","exp","","3","<img src='img/tf1_12_T1_ss2_md.jpeg'></img>","0","false",""
"","html-keyboard-response","39","176416","0.0-10.0-0.12","1119","""event"",""trial"",""time""
""fullscreenenter"",""0"",""6307""
","
","
","""event"",""trial"",""time""
""fullscreenenter"",""0"",""6307""
","
","null","<div style=""font-size:60px;"">+</div>","","null","fixation","2021-08-31 02:53:09.542","","","","",""
"","mars-trial","40","187400","0.0-10.0-1.12","1119","""event"",""trial"",""time""
""fullscreenenter"",""0"",""6307""
","
","
","""event"",""trial"",""time""
""fullscreenenter"",""0"",""6307""
","
","10376.400000002235","<img style='border: 4px solid darkgrey;' src='img/tf1_13_M_ss3.jpeg'></img>","0","","exp","","0","<img src='img/tf1_13_T1_ss3_md.jpeg'></img>","0","true",""
"","html-keyboard-response","41","187902","0.0-10.0-0.13","1119","""event"",""trial"",""time""
""fullscreenenter"",""0"",""6307""
","
","
","""event"",""trial"",""time""
""fullscreenenter"",""0"",""6307""
","
","null","<div style=""font-size:60px;"">+</div>","","null","fixation","2021-08-31 02:53:21.028","","","","",""
"","mars-trial","42","199842","0.0-10.0-1.13","1119","""event"",""trial"",""time""
""fullscreenenter"",""0"",""6307""
","
","
","""event"",""trial"",""time""
""fullscreenenter"",""0"",""6307""
","
","11332.5","<img style='border: 4px solid darkgrey;' src='img/tf1_14_M_ss1.jpeg'></img>","2","","exp","","0","<img src='img/tf1_14_T1_ss1_md.jpeg'></img>","0","true",""
"","html-keyboard-response","43","200347","0.0-10.0-0.14","1119","""event"",""trial"",""time""
""fullscreenenter"",""0"",""6307""
","
","
","""event"",""trial"",""time""
""fullscreenenter"",""0"",""6307""
","
","null","<div style=""font-size:60px;"">+</div>","","null","fixation","2021-08-31 02:53:33.473","","","","",""
"","mars-trial","44","208954","0.0-10.0-1.14","1119","""event"",""trial"",""time""
""fullscreenenter"",""0"",""6307""
","
","
","""event"",""trial"",""time""
""fullscreenenter"",""0"",""6307""
","
","7996.800000000745","<img style='border: 4px solid darkgrey;' src='img/tf1_15_M_ss2.jpeg'></img>","0","","exp","","1","<img src='img/tf1_15_T1_ss2_md.jpeg'></img>","0","false",""
"","html-keyboard-response","45","209457","0.0-10.0-0.15","1119","""event"",""trial"",""time""
""fullscreenenter"",""0"",""6307""
","
","
","""event"",""trial"",""time""
""fullscreenenter"",""0"",""6307""
","
","null","<div style=""font-size:60px;"">+</div>","","null","fixation","2021-08-31 02:53:42.583","","","","",""
"","mars-trial","46","214689","0.0-10.0-1.15","1119","""event"",""trial"",""time""
""fullscreenenter"",""0"",""6307""
","
","
","""event"",""trial"",""time""
""fullscreenenter"",""0"",""6307""
","
","4626.300000000745","<img style='border: 4px solid darkgrey;' src='img/tf1_16_M_ss3.jpeg'></img>","2","","exp","","0","<img src='img/tf1_16_T1_ss3_md.jpeg'></img>","0","true",""
"","html-keyboard-response","47","215190","0.0-10.0-0.16","1119","""event"",""trial"",""time""
""fullscreenenter"",""0"",""6307""
","
","
","""event"",""trial"",""time""
""fullscreenenter"",""0"",""6307""
","
","null","<div style=""font-size:60px;"">+</div>","","null","fixation","2021-08-31 02:53:48.316","","","","",""
"","mars-trial","48","236801","0.0-10.0-1.16","1119","""event"",""trial"",""time""
""fullscreenenter"",""0"",""6307""
","
","
","""event"",""trial"",""time""
""fullscreenenter"",""0"",""6307""
","
","21004","<img style='border: 4px solid darkgrey;' src='img/tf1_17_M_ss1.jpeg'></img>","2","","exp","","0","<img src='img/tf1_17_T1_ss1_md.jpeg'></img>","0","true",""
"","html-keyboard-response","49","237303","0.0-10.0-0.17","1119","""event"",""trial"",""time""
""fullscreenenter"",""0"",""6307""
","
","
","""event"",""trial"",""time""
""fullscreenenter"",""0"",""6307""
","
","null","<div style=""font-size:60px;"">+</div>","","null","fixation","2021-08-31 02:54:10.429","","","","",""
"","mars-trial","50","242071","0.0-10.0-1.17","1119","""event"",""trial"",""time""
""fullscreenenter"",""0"",""6307""
","
","
","""event"",""trial"",""time""
""fullscreenenter"",""0"",""6307""
","
","4159.10000000149","<img style='border: 4px solid darkgrey;' src='img/tf1_18_M_ss2.jpeg'></img>","2","","exp","","1","<img src='img/tf1_18_T1_ss2_md.jpeg'></img>","0","false",""
"","html-keyboard-response","51","242572","0.0-10.0-0.18","1119","""event"",""trial"",""time""
""fullscreenenter"",""0"",""6307""
","
","
","""event"",""trial"",""time""
""fullscreenenter"",""0"",""6307""
","
","null","<div style=""font-size:60px;"">+</div>","","null","fixation","2021-08-31 02:54:15.698","","","","",""
"","mars-trial","52","258286","0.0-10.0-1.18","1119","""event"",""trial"",""time""
""fullscreenenter"",""0"",""6307""
","
","
","""event"",""trial"",""time""
""fullscreenenter"",""0"",""6307""
","
","15103.10000000149","<img style='border: 4px solid darkgrey;' src='img/tf1_19_M_ss3.jpeg'></img>","0","","exp","","3","<img src='img/tf1_19_T1_ss3_md.jpeg'></img>","0","false",""
"","html-keyboard-response","53","258791","0.0-10.0-0.19","1119","""event"",""trial"",""time""
""fullscreenenter"",""0"",""6307""
","
","
","""event"",""trial"",""time""
""fullscreenenter"",""0"",""6307""
","
","null","<div style=""font-size:60px;"">+</div>","","null","fixation","2021-08-31 02:54:31.917","","","","",""
"","mars-trial","54","268155","0.0-10.0-1.19","1119","""event"",""trial"",""time""
""fullscreenenter"",""0"",""6307""
","
","
","""event"",""trial"",""time""
""fullscreenenter"",""0"",""6307""
","
","8756.5","<img style='border: 4px solid darkgrey;' src='img/tf1_20_M_ss1.jpeg'></img>","0","","exp","","0","<img src='img/tf1_20_T1_ss1_md.jpeg'></img>","0","true",""
"","html-keyboard-response","55","268660","0.0-10.0-0.20","1119","""event"",""trial"",""time""
""fullscreenenter"",""0"",""6307""
","
","
","""event"",""trial"",""time""
""fullscreenenter"",""0"",""6307""
","
","null","<div style=""font-size:60px;"">+</div>","","null","fixation","2021-08-31 02:54:41.786","","","","",""
"","mars-trial","56","283666","0.0-10.0-1.20","1119","""event"",""trial"",""time""
""fullscreenenter"",""0"",""6307""
","
","
","""event"",""trial"",""time""
""fullscreenenter"",""0"",""6307""
","
","14395.599999997765","<img style='border: 4px solid darkgrey;' src='img/tf1_21_M_ss2.jpeg'></img>","2","","exp","","1","<img src='img/tf1_21_T1_ss2_md.jpeg'></img>","0","false",""
"","html-keyboard-response","57","284171","0.0-10.0-0.21","1119","""event"",""trial"",""time""
""fullscreenenter"",""0"",""6307""
","
","
","""event"",""trial"",""time""
""fullscreenenter"",""0"",""6307""
","
","null","<div style=""font-size:60px;"">+</div>","","null","fixation","2021-08-31 02:54:57.297","","","","",""
"","mars-trial","58","291108","0.0-10.0-1.21","1119","""event"",""trial"",""time""
""fullscreenenter"",""0"",""6307""
","
","
","""event"",""trial"",""time""
""fullscreenenter"",""0"",""6307""
","
","6325.699999999255","<img style='border: 4px solid darkgrey;' src='img/tf1_22_M_ss3.jpeg'></img>","0","","exp","","0","<img src='img/tf1_22_T1_ss3_md.jpeg'></img>","0","true",""
"","html-keyboard-response","59","291613","0.0-10.0-0.22","1119","""event"",""trial"",""time""
""fullscreenenter"",""0"",""6307""
","
","
","""event"",""trial"",""time""
""fullscreenenter"",""0"",""6307""
","
","null","<div style=""font-size:60px;"">+</div>","","null","fixation","2021-08-31 02:55:04.739","","","","",""
"","mars-trial","60","314259","0.0-10.0-1.22","1119","""event"",""trial"",""time""
""fullscreenenter"",""0"",""6307""
","
","
","""event"",""trial"",""time""
""fullscreenenter"",""0"",""6307""
","
","22037.5","<img style='border: 4px solid darkgrey;' src='img/tf1_23_M_ss1.jpeg'></img>","1","","exp","","0","<img src='img/tf1_23_T1_ss1_md.jpeg'></img>","0","true",""
"","html-keyboard-response","61","314764","0.0-10.0-0.23","1119","""event"",""trial"",""time""
""fullscreenenter"",""0"",""6307""
","
","
","""event"",""trial"",""time""
""fullscreenenter"",""0"",""6307""
","
","null","<div style=""font-size:60px;"">+</div>","","null","fixation","2021-08-31 02:55:27.890","","","","",""
"","mars-trial","62","322160","0.0-10.0-1.23","1119","""event"",""trial"",""time""
""fullscreenenter"",""0"",""6307""
","
","
","""event"",""trial"",""time""
""fullscreenenter"",""0"",""6307""
","
","6782.800000000745","<img style='border: 4px solid darkgrey;' src='img/tf1_24_M_ss2.jpeg'></img>","1","","exp","","2","<img src='img/tf1_24_T1_ss2_md.jpeg'></img>","0","false",""
"","html-keyboard-response","63","322664","0.0-10.0-0.24","1119","""event"",""trial"",""time""
""fullscreenenter"",""0"",""6307""
","
","
","""event"",""trial"",""time""
""fullscreenenter"",""0"",""6307""
","
","null","<div style=""font-size:60px;"">+</div>","","null","fixation","2021-08-31 02:55:35.790","","","","",""
"","mars-trial","64","339981","0.0-10.0-1.24","1119","""event"",""trial"",""time""
""fullscreenenter"",""0"",""6307""
","
","
","""event"",""trial"",""time""
""fullscreenenter"",""0"",""6307""
","
","16712.400000002235","<img style='border: 4px solid darkgrey;' src='img/tf1_25_M_ss3.jpeg'></img>","2","","exp","","0","<img src='img/tf1_25_T1_ss3_md.jpeg'></img>","0","true",""
"","html-keyboard-response","65","340487","0.0-10.0-0.25","1119","""event"",""trial"",""time""
""fullscreenenter"",""0"",""6307""
","
","
","""event"",""trial"",""time""
""fullscreenenter"",""0"",""6307""
","
","null","<div style=""font-size:60px;"">+</div>","","null","fixation","2021-08-31 02:55:53.613","","","","",""
"","mars-trial","66","355977","0.0-10.0-1.25","1119","""event"",""trial"",""time""
""fullscreenenter"",""0"",""6307""
","
","
","""event"",""trial"",""time""
""fullscreenenter"",""0"",""6307""
","
","14880.800000000745","<img style='border: 4px solid darkgrey;' src='img/tf1_26_M_ss1.jpeg'></img>","3","","exp","","3","<img src='img/tf1_26_T1_ss1_md.jpeg'></img>","0","false",""
"","html-keyboard-response","67","356479","0.0-10.0-0.26","1119","""event"",""trial"",""time""
""fullscreenenter"",""0"",""6307""
","
","
","""event"",""trial"",""time""
""fullscreenenter"",""0"",""6307""
","
","null","<div style=""font-size:60px;"">+</div>","","null","fixation","2021-08-31 02:56:09.605","","","","",""
"","mars-trial","68","364550","0.0-10.0-1.26","1119","""event"",""trial"",""time""
""fullscreenenter"",""0"",""6307""
","
","
","""event"",""trial"",""time""
""fullscreenenter"",""0"",""6307""
","
","7461.300000000745","<img style='border: 4px solid darkgrey;' src='img/tf1_27_M_ss2.jpeg'></img>","0","","exp","","1","<img src='img/tf1_27_T1_ss2_md.jpeg'></img>","0","false",""
"","html-keyboard-response","69","365054","0.0-10.0-0.27","1119","""event"",""trial"",""time""
""fullscreenenter"",""0"",""6307""
","
","
","""event"",""trial"",""time""
""fullscreenenter"",""0"",""6307""
","
","null","<div style=""font-size:60px;"">+</div>","","null","fixation","2021-08-31 02:56:18.180","","","","",""
"","mars-trial","70","380357","0.0-10.0-1.27","1119","""event"",""trial"",""time""
""fullscreenenter"",""0"",""6307""
","
","
","""event"",""trial"",""time""
""fullscreenenter"",""0"",""6307""
","
","14691.60000000149","<img style='border: 4px solid darkgrey;' src='img/tf1_28_M_ss3.jpeg'></img>","3","","exp","","0","<img src='img/tf1_28_T1_ss3_md.jpeg'></img>","0","true",""
"","html-keyboard-response","71","380858","0.0-10.0-0.28","1119","""event"",""trial"",""time""
""fullscreenenter"",""0"",""6307""
","
","
","""event"",""trial"",""time""
""fullscreenenter"",""0"",""6307""
","
","null","<div style=""font-size:60px;"">+</div>","","null","fixation","2021-08-31 02:56:33.984","","","","",""
"","mars-trial","72","393191","0.0-10.0-1.28","1119","""event"",""trial"",""time""
""fullscreenenter"",""0"",""6307""
","
","
","""event"",""trial"",""time""
""fullscreenenter"",""0"",""6307""
","
","11726.60000000149","<img style='border: 4px solid darkgrey;' src='img/tf1_29_M_ss1.jpeg'></img>","3","","exp","","0","<img src='img/tf1_29_T1_ss1_md.jpeg'></img>","0","true",""
"","html-keyboard-response","73","393697","0.0-10.0-0.29","1119","""event"",""trial"",""time""
""fullscreenenter"",""0"",""6307""
","
","
","""event"",""trial"",""time""
""fullscreenenter"",""0"",""6307""
","
","null","<div style=""font-size:60px;"">+</div>","","null","fixation","2021-08-31 02:56:46.823","","","","",""
"","mars-trial","74","421703","0.0-10.0-1.29","1119","""event"",""trial"",""time""
""fullscreenenter"",""0"",""6307""
","
","
","""event"",""trial"",""time""
""fullscreenenter"",""0"",""6307""
","
","27392.89999999851","<img style='border: 4px solid darkgrey;' src='img/tf1_30_M_ss2.jpeg'></img>","3","","exp","","3","<img src='img/tf1_30_T1_ss2_md.jpeg'></img>","0","false",""
"","html-keyboard-response","75","422207","0.0-10.0-0.30","1119","""event"",""trial"",""time""
""fullscreenenter"",""0"",""6307""
","
","
","""event"",""trial"",""time""
""fullscreenenter"",""0"",""6307""
","
","null","<div style=""font-size:60px;"">+</div>","","null","fixation","2021-08-31 02:57:15.333","","","","",""
"","mars-trial","76","434844","0.0-10.0-1.30","1119","""event"",""trial"",""time""
""fullscreenenter"",""0"",""6307""
","
","
","""event"",""trial"",""time""
""fullscreenenter"",""0"",""6307""
","
","12025.10000000149","<img style='border: 4px solid darkgrey;' src='img/tf1_31_M_ss3.jpeg'></img>","1","","exp","","1","<img src='img/tf1_31_T1_ss3_md.jpeg'></img>","0","false",""
"","html-keyboard-response","77","435349","0.0-10.0-0.31","1119","""event"",""trial"",""time""
""fullscreenenter"",""0"",""6307""
","
","
","""event"",""trial"",""time""
""fullscreenenter"",""0"",""6307""
","
","null","<div style=""font-size:60px;"">+</div>","","null","fixation","2021-08-31 02:57:28.475","","","","",""
"","mars-trial","78","443407","0.0-10.0-1.31","1119","""event"",""trial"",""time""
""fullscreenenter"",""0"",""6307""
","
","
","""event"",""trial"",""time""
""fullscreenenter"",""0"",""6307""
","
","7444.099999997765","<img style='border: 4px solid darkgrey;' src='img/tf1_32_M_ss1.jpeg'></img>","2","","exp","","0","<img src='img/tf1_32_T1_ss1_md.jpeg'></img>","0","true",""
"","html-keyboard-response","79","443912","0.0-10.0-0.32","1119","""event"",""trial"",""time""
""fullscreenenter"",""0"",""6307""
","
","
","""event"",""trial"",""time""
""fullscreenenter"",""0"",""6307""
","
","null","<div style=""font-size:60px;"">+</div>","","null","fixation","2021-08-31 02:57:37.038","","","","",""
"","mars-trial","80","455354","0.0-10.0-1.32","1119","""event"",""trial"",""time""
""fullscreenenter"",""0"",""6307""
","
","
","""event"",""trial"",""time""
""fullscreenenter"",""0"",""6307""
","
","10832.60000000149","<img style='border: 4px solid darkgrey;' src='img/tf1_33_M_ss2.jpeg'></img>","1","","exp","","0","<img src='img/tf1_33_T1_ss2_md.jpeg'></img>","0","true",""
"","html-keyboard-response","81","455859","0.0-10.0-0.33","1119","""event"",""trial"",""time""
""fullscreenenter"",""0"",""6307""
","
","
","""event"",""trial"",""time""
""fullscreenenter"",""0"",""6307""
","
","null","<div style=""font-size:60px;"">+</div>","","null","fixation","2021-08-31 02:57:48.985","","","","",""
"","mars-trial","82","470883","0.0-10.0-1.33","1119","""event"",""trial"",""time""
""fullscreenenter"",""0"",""6307""
","
","
","""event"",""trial"",""time""
""fullscreenenter"",""0"",""6307""
","
","14411","<img style='border: 4px solid darkgrey;' src='img/tf1_34_M_ss3.jpeg'></img>","0","","exp","","1","<img src='img/tf1_34_T1_ss3_md.jpeg'></img>","0","false",""
"","html-keyboard-response","83","471385","0.0-10.0-0.34","1119","""event"",""trial"",""time""
""fullscreenenter"",""0"",""6307""
","
","
","""event"",""trial"",""time""
""fullscreenenter"",""0"",""6307""
","
","null","<div style=""font-size:60px;"">+</div>","","null","fixation","2021-08-31 02:58:04.511","","","","",""
"","mars-trial","84","479858","0.0-10.0-1.34","1119","""event"",""trial"",""time""
""fullscreenenter"",""0"",""6307""
","
","
","""event"",""trial"",""time""
""fullscreenenter"",""0"",""6307""
","
","7862.400000002235","<img style='border: 4px solid darkgrey;' src='img/tf1_35_M_ss1.jpeg'></img>","2","","exp","","1","<img src='img/tf1_35_T1_ss1_md.jpeg'></img>","0","false",""
"","html-keyboard-response","85","480363","0.0-10.0-0.35","1119","""event"",""trial"",""time""
""fullscreenenter"",""0"",""6307""
","
","
","""event"",""trial"",""time""
""fullscreenenter"",""0"",""6307""
","
","null","<div style=""font-size:60px;"">+</div>","","null","fixation","2021-08-31 02:58:13.489","","","","",""
"","mars-trial","86","493802","0.0-10.0-1.35","1119","""event"",""trial"",""time""
""fullscreenenter"",""0"",""6307""
","
","
","""event"",""trial"",""time""
""fullscreenenter"",""0"",""6307""
","
","12829.60000000149","<img style='border: 4px solid darkgrey;' src='img/tf1_36_M_ss2.jpeg'></img>","2","","exp","","3","<img src='img/tf1_36_T1_ss2_md.jpeg'></img>","0","false",""
"","html-keyboard-response","87","494307","0.0-10.0-0.36","1119","""event"",""trial"",""time""
""fullscreenenter"",""0"",""6307""
","
","
","""event"",""trial"",""time""
""fullscreenenter"",""0"",""6307""
","
","null","<div style=""font-size:60px;"">+</div>","","null","fixation","2021-08-31 02:58:27.433","","","","",""
"","mars-trial","88","506637","0.0-10.0-1.36","1119","""event"",""trial"",""time""
""fullscreenenter"",""0"",""6307""
","
","
","""event"",""trial"",""time""
""fullscreenenter"",""0"",""6307""
","
","11719.199999999255","<img style='border: 4px solid darkgrey;' src='img/tf1_37_M_ss3.jpeg'></img>","1","","exp","","2","<img src='img/tf1_37_T1_ss3_md.jpeg'></img>","0","false",""
"","html-keyboard-response","89","507142","0.0-10.0-0.37","1119","""event"",""trial"",""time""
""fullscreenenter"",""0"",""6307""
","
","
","""event"",""trial"",""time""
""fullscreenenter"",""0"",""6307""
","
","null","<div style=""font-size:60px;"">+</div>","","null","fixation","2021-08-31 02:58:40.268","","","","",""
"","mars-trial","90","517203","0.0-10.0-1.37","1119","""event"",""trial"",""time""
""fullscreenenter"",""0"",""6307""
","
","
","""event"",""trial"",""time""
""fullscreenenter"",""0"",""6307""
","
","9449.900000002235","<img style='border: 4px solid darkgrey;' src='img/tf1_38_M_ss1.jpeg'></img>","3","","exp","","0","<img src='img/tf1_38_T1_ss1_md.jpeg'></img>","0","true",""
"","html-keyboard-response","91","517705","0.0-10.0-0.38","1119","""event"",""trial"",""time""
""fullscreenenter"",""0"",""6307""
","
","
","""event"",""trial"",""time""
""fullscreenenter"",""0"",""6307""
","
","null","<div style=""font-size:60px;"">+</div>","","null","fixation","2021-08-31 02:58:50.831","","","","",""
"","mars-trial","92","525776","0.0-10.0-1.38","1119","""event"",""trial"",""time""
""fullscreenenter"",""0"",""6307""
","
","
","""event"",""trial"",""time""
""fullscreenenter"",""0"",""6307""
","
","7465.5","<img style='border: 4px solid darkgrey;' src='img/tf1_39_M_ss2.jpeg'></img>","1","","exp","","1","<img src='img/tf1_39_T1_ss2_md.jpeg'></img>","0","false",""
"","html-keyboard-response","93","526281","0.0-10.0-0.39","1119","""event"",""trial"",""time""
""fullscreenenter"",""0"",""6307""
","
","
","""event"",""trial"",""time""
""fullscreenenter"",""0"",""6307""
","
","null","<div style=""font-size:60px;"">+</div>","","null","fixation","2021-08-31 02:58:59.407","","","","",""
"","mars-trial","94","529934","0.0-10.0-1.39","1119","""event"",""trial"",""time""
""fullscreenenter"",""0"",""6307""
","
","
","""event"",""trial"",""time""
""fullscreenenter"",""0"",""6307""
","
","3044.5","<img style='border: 4px solid darkgrey;' src='img/tf1_40_M_ss3.jpeg'></img>","1","","exp","","2","<img src='img/tf1_40_T1_ss3_md.jpeg'></img>","0","false",""
"","html-keyboard-response","95","530438","0.0-10.0-0.40","1119","""event"",""trial"",""time""
""fullscreenenter"",""0"",""6307""
","
","
","""event"",""trial"",""time""
""fullscreenenter"",""0"",""6307""
","
","null","<div style=""font-size:60px;"">+</div>","","null","fixation","2021-08-31 02:59:03.564","","","","",""
"","mars-trial","96","535981","0.0-10.0-1.40","1119","""event"",""trial"",""time""
""fullscreenenter"",""0"",""6307""
","
","
","""event"",""trial"",""time""
""fullscreenenter"",""0"",""6307""
","
","4934.89999999851","<img style='border: 4px solid darkgrey;' src='img/tf1_41_M_ss1.jpeg'></img>","2","","exp","","0","<img src='img/tf1_41_T1_ss1_md.jpeg'></img>","0","true",""
"","html-keyboard-response","97","536487","0.0-10.0-0.41","1119","""event"",""trial"",""time""
""fullscreenenter"",""0"",""6307""
","
","
","""event"",""trial"",""time""
""fullscreenenter"",""0"",""6307""
","
","null","<div style=""font-size:60px;"">+</div>","","null","fixation","2021-08-31 02:59:09.613","","","","",""
"","mars-trial","98","552277","0.0-10.0-1.41","1119","""event"",""trial"",""time""
""fullscreenenter"",""0"",""6307""
","
","
","""event"",""trial"",""time""
""fullscreenenter"",""0"",""6307""
","
","","","","","exp","","","<img src='img/tf1_42_T1_ss2_md.jpeg'></img>","0","false",""
"","html-keyboard-response","99","552782","0.0-10.0-0.42","1119","""event"",""trial"",""time""
""fullscreenenter"",""0"",""6307""
","
","
","""event"",""trial"",""time""
""fullscreenenter"",""0"",""6307""
","
","null","<div style=""font-size:60px;"">+</div>","","null","fixation","2021-08-31 02:59:25.908","","","","",""
"","audio-button-response","100","554895","0.0-11.0","1119","""event"",""trial"",""time""
""fullscreenenter"",""0"",""6307""
","
","
","""event"",""trial"",""time""
""fullscreenenter"",""0"",""6307""
","
","2006.5999999977648","audio/mars_instructions_slide5.wav","0","","","","","","","",""
"","pavlovia","101","554901","0.0-12.0","1119","""event"",""trial"",""time""
""fullscreenenter"",""0"",""6307""
""fullscreenexit"",""102"",""566098""
","
","
","""event"",""trial"",""time""
""fullscreenenter"",""0"",""6307""
","""event"",""trial"",""time""
""fullscreenexit"",""102"",""566098""
","","","","","","","","","","",""
