"success","trial_type","trial_index","time_elapsed","internal_node_id","subject_id","interactions","blur_events","focus_events","fullscreenenter_events","fullscreenexit_events","rt","stimulus","button_pressed","key_press","part","timestamp","unshuffled_button","correct_response","correct_button","correct","value"
"true","fullscreen","0","3301","0.0-0.0","179","""event"",""trial"",""time""
""fullscreenenter"",""0"",""2317""
","
","
","""event"",""trial"",""time""
""fullscreenenter"",""0"",""2317""
","
","","","","","","","","","","",""
"","pavlovia","1","3307","0.0-1.0","179","""event"",""trial"",""time""
""fullscreenenter"",""0"",""2317""
","
","
","""event"",""trial"",""time""
""fullscreenenter"",""0"",""2317""
","
","","","","","","","","","","",""
"","html-button-response","2","5632","0.0-2.0","179","""event"",""trial"",""time""
""fullscreenenter"",""0"",""2317""
","
","
","""event"",""trial"",""time""
""fullscreenenter"",""0"",""2317""
","
","2322.66500001424","<p>Welcome! Press START to begin.</p><br>","0","","","","","","","",""
"","audio-button-response","3","13488","0.0-3.0","179","""event"",""trial"",""time""
""fullscreenenter"",""0"",""2317""
","
","
","""event"",""trial"",""time""
""fullscreenenter"",""0"",""2317""
","
","7851.345000002766","audio/mars_instructions_slide2.wav","0","","","","","","","",""
"","audio-button-response","4","24496","0.0-4.0","179","""event"",""trial"",""time""
""fullscreenenter"",""0"",""2317""
","
","
","""event"",""trial"",""time""
""fullscreenenter"",""0"",""2317""
","
","11004.774999979418","audio/mars_instructions_slide3.wav","0","","","","","","","",""
"","html-keyboard-response","5","25002","0.0-5.0-0.0","179","""event"",""trial"",""time""
""fullscreenenter"",""0"",""2317""
","
","
","""event"",""trial"",""time""
""fullscreenenter"",""0"",""2317""
","
","null","<div style=""font-size:60px;"">+</div>","","null","fixation","2021-03-30 02:15:43.662","","","","",""
"","mars-trial","6","43376","0.0-5.0-1.0","179","""event"",""trial"",""time""
""fullscreenenter"",""0"",""2317""
","
","
","""event"",""trial"",""time""
""fullscreenenter"",""0"",""2317""
","
","16260.985000000801","<img style='border: 4px solid darkgrey;' src='practice/pt1_M1.png'></img>","0","","practice","","2","<img src='practice/pt1_T1.png'></img>","0","false",""
"","html-keyboard-response","7","43881","0.0-5.1-0.1","179","""event"",""trial"",""time""
""fullscreenenter"",""0"",""2317""
","
","
","""event"",""trial"",""time""
""fullscreenenter"",""0"",""2317""
","
","null","<div style=""font-size:60px;"">+</div>","","null","fixation","2021-03-30 02:16:02.541","","","","",""
"","mars-trial","8","60904","0.0-5.1-1.1","179","""event"",""trial"",""time""
""fullscreenenter"",""0"",""2317""
","
","
","""event"",""trial"",""time""
""fullscreenenter"",""0"",""2317""
","
","14908.100000000559","<img style='border: 4px solid darkgrey;' src='practice/pt1_M1.png'></img>","2","","practice","","0","<img src='practice/pt1_T1.png'></img>","0","true",""
"","html-keyboard-response","9","61406","0.0-6.0-0.0","179","""event"",""trial"",""time""
""fullscreenenter"",""0"",""2317""
","
","
","""event"",""trial"",""time""
""fullscreenenter"",""0"",""2317""
","
","null","<div style=""font-size:60px;"">+</div>","","null","fixation","2021-03-30 02:16:20.066","","","","",""
"","mars-trial","10","67231","0.0-6.0-1.0","179","""event"",""trial"",""time""
""fullscreenenter"",""0"",""2317""
","
","
","""event"",""trial"",""time""
""fullscreenenter"",""0"",""2317""
","
","3713.4550000191666","<img style='border: 4px solid darkgrey;' src='practice/pt2_M1.png'></img>","2","","practice","","0","<img src='practice/pt2_T1.png'></img>","0","true",""
"","html-keyboard-response","11","67736","0.0-7.0-0.0","179","""event"",""trial"",""time""
""fullscreenenter"",""0"",""2317""
","
","
","""event"",""trial"",""time""
""fullscreenenter"",""0"",""2317""
","
","null","<div style=""font-size:60px;"">+</div>","","null","fixation","2021-03-30 02:16:26.396","","","","",""
"","mars-trial","12","71718","0.0-7.0-1.0","179","""event"",""trial"",""time""
""fullscreenenter"",""0"",""2317""
","
","
","""event"",""trial"",""time""
""fullscreenenter"",""0"",""2317""
","
","1868.784999998752","<img style='border: 4px solid darkgrey;' src='practice/pt3_M1.png'></img>","3","","practice","","0","<img src='practice/pt3_T1.png'></img>","0","true",""
"","audio-button-response","13","75202","0.0-8.0","179","""event"",""trial"",""time""
""fullscreenenter"",""0"",""2317""
","
","
","""event"",""trial"",""time""
""fullscreenenter"",""0"",""2317""
","
","3482.049999991432","audio/mars_instructions_slide4.wav","0","","","","","","","",""
"","call-function","14","75204","0.0-9.0","179","""event"",""trial"",""time""
""fullscreenenter"",""0"",""2317""
","
","
","""event"",""trial"",""time""
""fullscreenenter"",""0"",""2317""
","
","","","","","","","","","","",""
"","html-keyboard-response","15","75706","0.0-10.0-0.0","179","""event"",""trial"",""time""
""fullscreenenter"",""0"",""2317""
","
","
","""event"",""trial"",""time""
""fullscreenenter"",""0"",""2317""
","
","null","<div style=""font-size:60px;"">+</div>","","null","fixation","2021-03-30 02:16:34.366","","","","",""
"","mars-trial","16","81576","0.0-10.0-1.0","179","""event"",""trial"",""time""
""fullscreenenter"",""0"",""2317""
","
","
","""event"",""trial"",""time""
""fullscreenenter"",""0"",""2317""
","
","5257.2650000220165","<img style='border: 4px solid darkgrey;' src='img/tf1_1_M_ss3.jpeg'></img>","3","","exp","","0","<img src='img/tf1_1_T1_ss3_md.jpeg'></img>","0","true",""
"","html-keyboard-response","17","82081","0.0-10.0-0.1","179","""event"",""trial"",""time""
""fullscreenenter"",""0"",""2317""
","
","
","""event"",""trial"",""time""
""fullscreenenter"",""0"",""2317""
","
","null","<div style=""font-size:60px;"">+</div>","","null","fixation","2021-03-30 02:16:40.741","","","","",""
"","mars-trial","18","84978","0.0-10.0-1.1","179","""event"",""trial"",""time""
""fullscreenenter"",""0"",""2317""
","
","
","""event"",""trial"",""time""
""fullscreenenter"",""0"",""2317""
","
","2288.555000006454","<img style='border: 4px solid darkgrey;' src='img/tf1_2_M_ss1.jpeg'></img>","3","","exp","","0","<img src='img/tf1_2_T1_ss1_md.jpeg'></img>","0","true",""
"","html-keyboard-response","19","85483","0.0-10.0-0.2","179","""event"",""trial"",""time""
""fullscreenenter"",""0"",""2317""
","
","
","""event"",""trial"",""time""
""fullscreenenter"",""0"",""2317""
","
","null","<div style=""font-size:60px;"">+</div>","","null","fixation","2021-03-30 02:16:44.143","","","","",""
"","mars-trial","20","90807","0.0-10.0-1.2","179","""event"",""trial"",""time""
""fullscreenenter"",""0"",""2317""
","
","
","""event"",""trial"",""time""
""fullscreenenter"",""0"",""2317""
","
","4712.014999997336","<img style='border: 4px solid darkgrey;' src='img/tf1_3_M_ss2.jpeg'></img>","0","","exp","","0","<img src='img/tf1_3_T1_ss2_md.jpeg'></img>","0","true",""
"","html-keyboard-response","21","91311","0.0-10.0-0.3","179","""event"",""trial"",""time""
""fullscreenenter"",""0"",""2317""
","
","
","""event"",""trial"",""time""
""fullscreenenter"",""0"",""2317""
","
","null","<div style=""font-size:60px;"">+</div>","","null","fixation","2021-03-30 02:16:49.971","","","","",""
"","mars-trial","22","96275","0.0-10.0-1.3","179","""event"",""trial"",""time""
""fullscreenenter"",""0"",""2317""
","
","
","""event"",""trial"",""time""
""fullscreenenter"",""0"",""2317""
","
","4353.19999998319","<img style='border: 4px solid darkgrey;' src='img/tf1_4_M_ss3.jpeg'></img>","2","","exp","","0","<img src='img/tf1_4_T1_ss3_md.jpeg'></img>","0","true",""
"","html-keyboard-response","23","96780","0.0-10.0-0.4","179","""event"",""trial"",""time""
""fullscreenenter"",""0"",""2317""
","
","
","""event"",""trial"",""time""
""fullscreenenter"",""0"",""2317""
","
","null","<div style=""font-size:60px;"">+</div>","","null","fixation","2021-03-30 02:16:55.440","","","","",""
"","mars-trial","24","99619","0.0-10.0-1.4","179","""event"",""trial"",""time""
""fullscreenenter"",""0"",""2317""
","
","
","""event"",""trial"",""time""
""fullscreenenter"",""0"",""2317""
","
","2226.1349999753293","<img style='border: 4px solid darkgrey;' src='img/tf1_5_M_ss1.jpeg'></img>","0","","exp","","0","<img src='img/tf1_5_T1_ss1_md.jpeg'></img>","0","true",""
"","html-keyboard-response","25","100124","0.0-10.0-0.5","179","""event"",""trial"",""time""
""fullscreenenter"",""0"",""2317""
","
","
","""event"",""trial"",""time""
""fullscreenenter"",""0"",""2317""
","
","null","<div style=""font-size:60px;"">+</div>","","null","fixation","2021-03-30 02:16:58.784","","","","",""
"","mars-trial","26","110923","0.0-10.0-1.5","179","""event"",""trial"",""time""
""fullscreenenter"",""0"",""2317""
","
","
","""event"",""trial"",""time""
""fullscreenenter"",""0"",""2317""
","
","10188.439999998081","<img style='border: 4px solid darkgrey;' src='img/tf1_6_M_ss2.jpeg'></img>","1","","exp","","3","<img src='img/tf1_6_T1_ss2_md.jpeg'></img>","0","false",""
"","html-keyboard-response","27","111428","0.0-10.0-0.6","179","""event"",""trial"",""time""
""fullscreenenter"",""0"",""2317""
","
","
","""event"",""trial"",""time""
""fullscreenenter"",""0"",""2317""
","
","null","<div style=""font-size:60px;"">+</div>","","null","fixation","2021-03-30 02:17:10.088","","","","",""
"","mars-trial","28","118383","0.0-10.0-1.6","179","""event"",""trial"",""time""
""fullscreenenter"",""0"",""2317""
","
","
","""event"",""trial"",""time""
""fullscreenenter"",""0"",""2317""
","
","6348.339999996824","<img style='border: 4px solid darkgrey;' src='img/tf1_7_M_ss3.jpeg'></img>","1","","exp","","0","<img src='img/tf1_7_T1_ss3_md.jpeg'></img>","0","true",""
"","html-keyboard-response","29","118888","0.0-10.0-0.7","179","""event"",""trial"",""time""
""fullscreenenter"",""0"",""2317""
","
","
","""event"",""trial"",""time""
""fullscreenenter"",""0"",""2317""
","
","null","<div style=""font-size:60px;"">+</div>","","null","fixation","2021-03-30 02:17:17.548","","","","",""
"","mars-trial","30","128096","0.0-10.0-1.7","179","""event"",""trial"",""time""
""fullscreenenter"",""0"",""2317""
","
","
","""event"",""trial"",""time""
""fullscreenenter"",""0"",""2317""
","
","8594.925000012154","<img style='border: 4px solid darkgrey;' src='img/tf1_8_M_ss1.jpeg'></img>","0","","exp","","3","<img src='img/tf1_8_T1_ss1_md.jpeg'></img>","0","false",""
"","html-keyboard-response","31","128600","0.0-10.0-0.8","179","""event"",""trial"",""time""
""fullscreenenter"",""0"",""2317""
","
","
","""event"",""trial"",""time""
""fullscreenenter"",""0"",""2317""
","
","null","<div style=""font-size:60px;"">+</div>","","null","fixation","2021-03-30 02:17:27.261","","","","",""
"","mars-trial","32","135509","0.0-10.0-1.8","179","""event"",""trial"",""time""
""fullscreenenter"",""0"",""2317""
","
","
","""event"",""trial"",""time""
""fullscreenenter"",""0"",""2317""
","
","6296.3350000209175","<img style='border: 4px solid darkgrey;' src='img/tf1_9_M_ss2.jpeg'></img>","0","","exp","","0","<img src='img/tf1_9_T1_ss2_md.jpeg'></img>","0","true",""
"","html-keyboard-response","33","136014","0.0-10.0-0.9","179","""event"",""trial"",""time""
""fullscreenenter"",""0"",""2317""
","
","
","""event"",""trial"",""time""
""fullscreenenter"",""0"",""2317""
","
","null","<div style=""font-size:60px;"">+</div>","","null","fixation","2021-03-30 02:17:34.674","","","","",""
"","mars-trial","34","154075","0.0-10.0-1.9","179","""event"",""trial"",""time""
""fullscreenenter"",""0"",""2317""
","
","
","""event"",""trial"",""time""
""fullscreenenter"",""0"",""2317""
","
","17451.295000006212","<img style='border: 4px solid darkgrey;' src='img/tf1_10_M_ss3.jpeg'></img>","1","","exp","","0","<img src='img/tf1_10_T1_ss3_md.jpeg'></img>","0","true",""
"","html-keyboard-response","35","154580","0.0-10.0-0.10","179","""event"",""trial"",""time""
""fullscreenenter"",""0"",""2317""
","
","
","""event"",""trial"",""time""
""fullscreenenter"",""0"",""2317""
","
","null","<div style=""font-size:60px;"">+</div>","","null","fixation","2021-03-30 02:17:53.240","","","","",""
"","mars-trial","36","163392","0.0-10.0-1.10","179","""event"",""trial"",""time""
""fullscreenenter"",""0"",""2317""
","
","
","""event"",""trial"",""time""
""fullscreenenter"",""0"",""2317""
","
","8201.499999995576","<img style='border: 4px solid darkgrey;' src='img/tf1_11_M_ss1.jpeg'></img>","0","","exp","","0","<img src='img/tf1_11_T1_ss1_md.jpeg'></img>","0","true",""
"","html-keyboard-response","37","163897","0.0-10.0-0.11","179","""event"",""trial"",""time""
""fullscreenenter"",""0"",""2317""
","
","
","""event"",""trial"",""time""
""fullscreenenter"",""0"",""2317""
","
","null","<div style=""font-size:60px;"">+</div>","","null","fixation","2021-03-30 02:18:02.558","","","","",""
"","mars-trial","38","170574","0.0-10.0-1.11","179","""event"",""trial"",""time""
""fullscreenenter"",""0"",""2317""
","
","
","""event"",""trial"",""time""
""fullscreenenter"",""0"",""2317""
","
","6067.1499999880325","<img style='border: 4px solid darkgrey;' src='img/tf1_12_M_ss2.jpeg'></img>","0","","exp","","2","<img src='img/tf1_12_T1_ss2_md.jpeg'></img>","0","false",""
"","html-keyboard-response","39","171079","0.0-10.0-0.12","179","""event"",""trial"",""time""
""fullscreenenter"",""0"",""2317""
","
","
","""event"",""trial"",""time""
""fullscreenenter"",""0"",""2317""
","
","null","<div style=""font-size:60px;"">+</div>","","null","fixation","2021-03-30 02:18:09.739","","","","",""
"","mars-trial","40","177146","0.0-10.0-1.12","179","""event"",""trial"",""time""
""fullscreenenter"",""0"",""2317""
","
","
","""event"",""trial"",""time""
""fullscreenenter"",""0"",""2317""
","
","5454.949999984819","<img style='border: 4px solid darkgrey;' src='img/tf1_13_M_ss3.jpeg'></img>","3","","exp","","2","<img src='img/tf1_13_T1_ss3_md.jpeg'></img>","0","false",""
"","html-keyboard-response","41","177650","0.0-10.0-0.13","179","""event"",""trial"",""time""
""fullscreenenter"",""0"",""2317""
","
","
","""event"",""trial"",""time""
""fullscreenenter"",""0"",""2317""
","
","null","<div style=""font-size:60px;"">+</div>","","null","fixation","2021-03-30 02:18:16.310","","","","",""
"","mars-trial","42","196631","0.0-10.0-1.13","179","""event"",""trial"",""time""
""fullscreenenter"",""0"",""2317""
","
","
","""event"",""trial"",""time""
""fullscreenenter"",""0"",""2317""
","
","18368.855000007898","<img style='border: 4px solid darkgrey;' src='img/tf1_14_M_ss1.jpeg'></img>","2","","exp","","1","<img src='img/tf1_14_T1_ss1_md.jpeg'></img>","0","false",""
"","html-keyboard-response","43","197135","0.0-10.0-0.14","179","""event"",""trial"",""time""
""fullscreenenter"",""0"",""2317""
","
","
","""event"",""trial"",""time""
""fullscreenenter"",""0"",""2317""
","
","null","<div style=""font-size:60px;"">+</div>","","null","fixation","2021-03-30 02:18:35.795","","","","",""
"","mars-trial","44","200697","0.0-10.0-1.14","179","""event"",""trial"",""time""
""fullscreenenter"",""0"",""2317""
","
","
","""event"",""trial"",""time""
""fullscreenenter"",""0"",""2317""
","
","2952.839999983553","<img style='border: 4px solid darkgrey;' src='img/tf1_15_M_ss2.jpeg'></img>","3","","exp","","1","<img src='img/tf1_15_T1_ss2_md.jpeg'></img>","0","false",""
"","html-keyboard-response","45","201202","0.0-10.0-0.15","179","""event"",""trial"",""time""
""fullscreenenter"",""0"",""2317""
","
","
","""event"",""trial"",""time""
""fullscreenenter"",""0"",""2317""
","
","null","<div style=""font-size:60px;"">+</div>","","null","fixation","2021-03-30 02:18:39.862","","","","",""
"","mars-trial","46","208826","0.0-10.0-1.15","179","""event"",""trial"",""time""
""fullscreenenter"",""0"",""2317""
","
","
","""event"",""trial"",""time""
""fullscreenenter"",""0"",""2317""
","
","7010.920000000624","<img style='border: 4px solid darkgrey;' src='img/tf1_16_M_ss3.jpeg'></img>","3","","exp","","3","<img src='img/tf1_16_T1_ss3_md.jpeg'></img>","0","false",""
"","html-keyboard-response","47","209331","0.0-10.0-0.16","179","""event"",""trial"",""time""
""fullscreenenter"",""0"",""2317""
","
","
","""event"",""trial"",""time""
""fullscreenenter"",""0"",""2317""
","
","null","<div style=""font-size:60px;"">+</div>","","null","fixation","2021-03-30 02:18:47.991","","","","",""
"","mars-trial","48","226659","0.0-10.0-1.16","179","""event"",""trial"",""time""
""fullscreenenter"",""0"",""2317""
","
","
","""event"",""trial"",""time""
""fullscreenenter"",""0"",""2317""
","
","16712.255000020377","<img style='border: 4px solid darkgrey;' src='img/tf1_17_M_ss1.jpeg'></img>","3","","exp","","3","<img src='img/tf1_17_T1_ss1_md.jpeg'></img>","0","false",""
"","html-keyboard-response","49","227165","0.0-10.0-0.17","179","""event"",""trial"",""time""
""fullscreenenter"",""0"",""2317""
","
","
","""event"",""trial"",""time""
""fullscreenenter"",""0"",""2317""
","
","null","<div style=""font-size:60px;"">+</div>","","null","fixation","2021-03-30 02:19:05.825","","","","",""
"","mars-trial","50","235832","0.0-10.0-1.17","179","""event"",""trial"",""time""
""fullscreenenter"",""0"",""2317""
","
","
","""event"",""trial"",""time""
""fullscreenenter"",""0"",""2317""
","
","8053.299999999581","<img style='border: 4px solid darkgrey;' src='img/tf1_18_M_ss2.jpeg'></img>","2","","exp","","3","<img src='img/tf1_18_T1_ss2_md.jpeg'></img>","0","false",""
"","html-keyboard-response","51","236337","0.0-10.0-0.18","179","""event"",""trial"",""time""
""fullscreenenter"",""0"",""2317""
","
","
","""event"",""trial"",""time""
""fullscreenenter"",""0"",""2317""
","
","null","<div style=""font-size:60px;"">+</div>","","null","fixation","2021-03-30 02:19:14.998","","","","",""
"","mars-trial","52","241031","0.0-10.0-1.18","179","""event"",""trial"",""time""
""fullscreenenter"",""0"",""2317""
","
","
","""event"",""trial"",""time""
""fullscreenenter"",""0"",""2317""
","
","4083.13499999349","<img style='border: 4px solid darkgrey;' src='img/tf1_19_M_ss3.jpeg'></img>","3","","exp","","3","<img src='img/tf1_19_T1_ss3_md.jpeg'></img>","0","false",""
"","html-keyboard-response","53","241533","0.0-10.0-0.19","179","""event"",""trial"",""time""
""fullscreenenter"",""0"",""2317""
","
","
","""event"",""trial"",""time""
""fullscreenenter"",""0"",""2317""
","
","null","<div style=""font-size:60px;"">+</div>","","null","fixation","2021-03-30 02:19:20.193","","","","",""
"","mars-trial","54","247157","0.0-10.0-1.19","179","""event"",""trial"",""time""
""fullscreenenter"",""0"",""2317""
","
","
","""event"",""trial"",""time""
""fullscreenenter"",""0"",""2317""
","
","5010.385000001406","<img style='border: 4px solid darkgrey;' src='img/tf1_20_M_ss1.jpeg'></img>","3","","exp","","2","<img src='img/tf1_20_T1_ss1_md.jpeg'></img>","0","false",""
"","html-keyboard-response","55","247661","0.0-10.0-0.20","179","""event"",""trial"",""time""
""fullscreenenter"",""0"",""2317""
","
","
","""event"",""trial"",""time""
""fullscreenenter"",""0"",""2317""
","
","null","<div style=""font-size:60px;"">+</div>","","null","fixation","2021-03-30 02:19:26.321","","","","",""
"","mars-trial","56","249047","0.0-10.0-1.20","179","""event"",""trial"",""time""
""fullscreenenter"",""0"",""2317""
","
","
","""event"",""trial"",""time""
""fullscreenenter"",""0"",""2317""
","
","777.8049999906216","<img style='border: 4px solid darkgrey;' src='img/tf1_21_M_ss2.jpeg'></img>","3","","exp","","0","<img src='img/tf1_21_T1_ss2_md.jpeg'></img>","0","true",""
"","html-keyboard-response","57","249550","0.0-10.0-0.21","179","""event"",""trial"",""time""
""fullscreenenter"",""0"",""2317""
","
","
","""event"",""trial"",""time""
""fullscreenenter"",""0"",""2317""
","
","null","<div style=""font-size:60px;"">+</div>","","null","fixation","2021-03-30 02:19:28.210","","","","",""
"","mars-trial","58","260337","0.0-10.0-1.21","179","""event"",""trial"",""time""
""fullscreenenter"",""0"",""2317""
","
","
","""event"",""trial"",""time""
""fullscreenenter"",""0"",""2317""
","
","10177.189999987604","<img style='border: 4px solid darkgrey;' src='img/tf1_22_M_ss3.jpeg'></img>","3","","exp","","1","<img src='img/tf1_22_T1_ss3_md.jpeg'></img>","0","false",""
"","html-keyboard-response","59","260842","0.0-10.0-0.22","179","""event"",""trial"",""time""
""fullscreenenter"",""0"",""2317""
","
","
","""event"",""trial"",""time""
""fullscreenenter"",""0"",""2317""
","
","null","<div style=""font-size:60px;"">+</div>","","null","fixation","2021-03-30 02:19:39.502","","","","",""
"","mars-trial","60","272260","0.0-10.0-1.22","179","""event"",""trial"",""time""
""fullscreenenter"",""0"",""2317""
","
","
","""event"",""trial"",""time""
""fullscreenenter"",""0"",""2317""
","
","10803.899999998976","<img style='border: 4px solid darkgrey;' src='img/tf1_23_M_ss1.jpeg'></img>","1","","exp","","2","<img src='img/tf1_23_T1_ss1_md.jpeg'></img>","0","false",""
"","html-keyboard-response","61","272764","0.0-10.0-0.23","179","""event"",""trial"",""time""
""fullscreenenter"",""0"",""2317""
","
","
","""event"",""trial"",""time""
""fullscreenenter"",""0"",""2317""
","
","null","<div style=""font-size:60px;"">+</div>","","null","fixation","2021-03-30 02:19:51.424","","","","",""
"","mars-trial","62","298329","0.0-10.0-1.23","179","""event"",""trial"",""time""
""fullscreenenter"",""0"",""2317""
","
","
","""event"",""trial"",""time""
""fullscreenenter"",""0"",""2317""
","
","24954.544999985956","<img style='border: 4px solid darkgrey;' src='img/tf1_24_M_ss2.jpeg'></img>","1","","exp","","3","<img src='img/tf1_24_T1_ss2_md.jpeg'></img>","0","false",""
"","html-keyboard-response","63","298834","0.0-10.0-0.24","179","""event"",""trial"",""time""
""fullscreenenter"",""0"",""2317""
","
","
","""event"",""trial"",""time""
""fullscreenenter"",""0"",""2317""
","
","null","<div style=""font-size:60px;"">+</div>","","null","fixation","2021-03-30 02:20:17.494","","","","",""
"","mars-trial","64","317491","0.0-10.0-1.24","179","""event"",""trial"",""time""
""fullscreenenter"",""0"",""2317""
","
","
","""event"",""trial"",""time""
""fullscreenenter"",""0"",""2317""
","
","18044.5400000026","<img style='border: 4px solid darkgrey;' src='img/tf1_25_M_ss3.jpeg'></img>","0","","exp","","2","<img src='img/tf1_25_T1_ss3_md.jpeg'></img>","0","false",""
"","html-keyboard-response","65","317995","0.0-10.0-0.25","179","""event"",""trial"",""time""
""fullscreenenter"",""0"",""2317""
","
","
","""event"",""trial"",""time""
""fullscreenenter"",""0"",""2317""
","
","null","<div style=""font-size:60px;"">+</div>","","null","fixation","2021-03-30 02:20:36.655","","","","",""
"","mars-trial","66","331633","0.0-10.0-1.25","179","""event"",""trial"",""time""
""fullscreenenter"",""0"",""2317""
","
","
","""event"",""trial"",""time""
""fullscreenenter"",""0"",""2317""
","
","13021.290000004228","<img style='border: 4px solid darkgrey;' src='img/tf1_26_M_ss1.jpeg'></img>","2","","exp","","2","<img src='img/tf1_26_T1_ss1_md.jpeg'></img>","0","false",""
"","html-keyboard-response","67","332138","0.0-10.0-0.26","179","""event"",""trial"",""time""
""fullscreenenter"",""0"",""2317""
","
","
","""event"",""trial"",""time""
""fullscreenenter"",""0"",""2317""
","
","null","<div style=""font-size:60px;"">+</div>","","null","fixation","2021-03-30 02:20:50.798","","","","",""
"","mars-trial","68","346743","0.0-10.0-1.26","179","""event"",""trial"",""time""
""fullscreenenter"",""0"",""2317""
","
","
","""event"",""trial"",""time""
""fullscreenenter"",""0"",""2317""
","
","13992.809999996098","<img style='border: 4px solid darkgrey;' src='img/tf1_27_M_ss2.jpeg'></img>","0","","exp","","1","<img src='img/tf1_27_T1_ss2_md.jpeg'></img>","0","false",""
"","html-keyboard-response","69","347245","0.0-10.0-0.27","179","""event"",""trial"",""time""
""fullscreenenter"",""0"",""2317""
","
","
","""event"",""trial"",""time""
""fullscreenenter"",""0"",""2317""
","
","null","<div style=""font-size:60px;"">+</div>","","null","fixation","2021-03-30 02:21:05.905","","","","",""
"","mars-trial","70","349514","0.0-10.0-1.27","179","""event"",""trial"",""time""
""fullscreenenter"",""0"",""2317""
","
","
","""event"",""trial"",""time""
""fullscreenenter"",""0"",""2317""
","
","1654.8349999939092","<img style='border: 4px solid darkgrey;' src='img/tf1_28_M_ss3.jpeg'></img>","1","","exp","","3","<img src='img/tf1_28_T1_ss3_md.jpeg'></img>","0","false",""
"","html-keyboard-response","71","350019","0.0-10.0-0.28","179","""event"",""trial"",""time""
""fullscreenenter"",""0"",""2317""
","
","
","""event"",""trial"",""time""
""fullscreenenter"",""0"",""2317""
","
","null","<div style=""font-size:60px;"">+</div>","","null","fixation","2021-03-30 02:21:08.679","","","","",""
"","mars-trial","72","350835","0.0-10.0-1.28","179","""event"",""trial"",""time""
""fullscreenenter"",""0"",""2317""
","
","
","""event"",""trial"",""time""
""fullscreenenter"",""0"",""2317""
","
","206.93000001483597","<img style='border: 4px solid darkgrey;' src='img/tf1_29_M_ss1.jpeg'></img>","1","","exp","","0","<img src='img/tf1_29_T1_ss1_md.jpeg'></img>","0","true",""
"","html-keyboard-response","73","351337","0.0-10.0-0.29","179","""event"",""trial"",""time""
""fullscreenenter"",""0"",""2317""
","
","
","""event"",""trial"",""time""
""fullscreenenter"",""0"",""2317""
","
","null","<div style=""font-size:60px;"">+</div>","","null","fixation","2021-03-30 02:21:09.997","","","","",""
"","mars-trial","74","354662","0.0-10.0-1.29","179","""event"",""trial"",""time""
""fullscreenenter"",""0"",""2317""
","
","
","""event"",""trial"",""time""
""fullscreenenter"",""0"",""2317""
","
","2713.74000000651","<img style='border: 4px solid darkgrey;' src='img/tf1_30_M_ss2.jpeg'></img>","3","","exp","","0","<img src='img/tf1_30_T1_ss2_md.jpeg'></img>","0","true",""
"","html-keyboard-response","75","355166","0.0-10.0-0.30","179","""event"",""trial"",""time""
""fullscreenenter"",""0"",""2317""
","
","
","""event"",""trial"",""time""
""fullscreenenter"",""0"",""2317""
","
","null","<div style=""font-size:60px;"">+</div>","","null","fixation","2021-03-30 02:21:13.826","","","","",""
"","mars-trial","76","357994","0.0-10.0-1.30","179","""event"",""trial"",""time""
""fullscreenenter"",""0"",""2317""
","
","
","""event"",""trial"",""time""
""fullscreenenter"",""0"",""2317""
","
","2221.1950000200886","<img style='border: 4px solid darkgrey;' src='img/tf1_31_M_ss3.jpeg'></img>","0","","exp","","0","<img src='img/tf1_31_T1_ss3_md.jpeg'></img>","0","true",""
"","html-keyboard-response","77","358498","0.0-10.0-0.31","179","""event"",""trial"",""time""
""fullscreenenter"",""0"",""2317""
","
","
","""event"",""trial"",""time""
""fullscreenenter"",""0"",""2317""
","
","null","<div style=""font-size:60px;"">+</div>","","null","fixation","2021-03-30 02:21:17.158","","","","",""
"","mars-trial","78","362357","0.0-10.0-1.31","179","""event"",""trial"",""time""
""fullscreenenter"",""0"",""2317""
","
","
","""event"",""trial"",""time""
""fullscreenenter"",""0"",""2317""
","
","3253.480000013951","<img style='border: 4px solid darkgrey;' src='img/tf1_32_M_ss1.jpeg'></img>","0","","exp","","2","<img src='img/tf1_32_T1_ss1_md.jpeg'></img>","0","false",""
"","html-keyboard-response","79","362860","0.0-10.0-0.32","179","""event"",""trial"",""time""
""fullscreenenter"",""0"",""2317""
","
","
","""event"",""trial"",""time""
""fullscreenenter"",""0"",""2317""
","
","null","<div style=""font-size:60px;"">+</div>","","null","fixation","2021-03-30 02:21:21.520","","","","",""
"","mars-trial","80","368056","0.0-10.0-1.32","179","""event"",""trial"",""time""
""fullscreenenter"",""0"",""2317""
","
","
","""event"",""trial"",""time""
""fullscreenenter"",""0"",""2317""
","
","4585.974999994505","<img style='border: 4px solid darkgrey;' src='img/tf1_33_M_ss2.jpeg'></img>","3","","exp","","2","<img src='img/tf1_33_T1_ss2_md.jpeg'></img>","0","false",""
"","html-keyboard-response","81","368561","0.0-10.0-0.33","179","""event"",""trial"",""time""
""fullscreenenter"",""0"",""2317""
","
","
","""event"",""trial"",""time""
""fullscreenenter"",""0"",""2317""
","
","null","<div style=""font-size:60px;"">+</div>","","null","fixation","2021-03-30 02:21:27.221","","","","",""
"","mars-trial","82","370437","0.0-10.0-1.33","179","""event"",""trial"",""time""
""fullscreenenter"",""0"",""2317""
","
","
","""event"",""trial"",""time""
""fullscreenenter"",""0"",""2317""
","
","1262.0849999948405","<img style='border: 4px solid darkgrey;' src='img/tf1_34_M_ss3.jpeg'></img>","2","","exp","","0","<img src='img/tf1_34_T1_ss3_md.jpeg'></img>","0","true",""
"","html-keyboard-response","83","370938","0.0-10.0-0.34","179","""event"",""trial"",""time""
""fullscreenenter"",""0"",""2317""
","
","
","""event"",""trial"",""time""
""fullscreenenter"",""0"",""2317""
","
","null","<div style=""font-size:60px;"">+</div>","","null","fixation","2021-03-30 02:21:29.598","","","","",""
"","mars-trial","84","372831","0.0-10.0-1.34","179","""event"",""trial"",""time""
""fullscreenenter"",""0"",""2317""
","
","
","""event"",""trial"",""time""
""fullscreenenter"",""0"",""2317""
","
","1283.2999999809545","<img style='border: 4px solid darkgrey;' src='img/tf1_35_M_ss1.jpeg'></img>","3","","exp","","1","<img src='img/tf1_35_T1_ss1_md.jpeg'></img>","0","false",""
"","html-keyboard-response","85","373335","0.0-10.0-0.35","179","""event"",""trial"",""time""
""fullscreenenter"",""0"",""2317""
","
","
","""event"",""trial"",""time""
""fullscreenenter"",""0"",""2317""
","
","null","<div style=""font-size:60px;"">+</div>","","null","fixation","2021-03-30 02:21:31.995","","","","",""
"","mars-trial","86","374495","0.0-10.0-1.35","179","""event"",""trial"",""time""
""fullscreenenter"",""0"",""2317""
","
","
","""event"",""trial"",""time""
""fullscreenenter"",""0"",""2317""
","
","551.9050000002608","<img style='border: 4px solid darkgrey;' src='img/tf1_36_M_ss2.jpeg'></img>","1","","exp","","0","<img src='img/tf1_36_T1_ss2_md.jpeg'></img>","0","true",""
"","html-keyboard-response","87","374999","0.0-10.0-0.36","179","""event"",""trial"",""time""
""fullscreenenter"",""0"",""2317""
","
","
","""event"",""trial"",""time""
""fullscreenenter"",""0"",""2317""
","
","null","<div style=""font-size:60px;"">+</div>","","null","fixation","2021-03-30 02:21:33.659","","","","",""
"","mars-trial","88","397710","0.0-10.0-1.36","179","""event"",""trial"",""time""
""fullscreenenter"",""0"",""2317""
","
","
","""event"",""trial"",""time""
""fullscreenenter"",""0"",""2317""
","
","22097.450000001118","<img style='border: 4px solid darkgrey;' src='img/tf1_37_M_ss3.jpeg'></img>","1","","exp","","1","<img src='img/tf1_37_T1_ss3_md.jpeg'></img>","0","false",""
"","html-keyboard-response","89","398217","0.0-10.0-0.37","179","""event"",""trial"",""time""
""fullscreenenter"",""0"",""2317""
","
","
","""event"",""trial"",""time""
""fullscreenenter"",""0"",""2317""
","
","null","<div style=""font-size:60px;"">+</div>","","null","fixation","2021-03-30 02:21:56.877","","","","",""
"","mars-trial","90","404265","0.0-10.0-1.37","179","""event"",""trial"",""time""
""fullscreenenter"",""0"",""2317""
","
","
","""event"",""trial"",""time""
""fullscreenenter"",""0"",""2317""
","
","5438.625000009779","<img style='border: 4px solid darkgrey;' src='img/tf1_38_M_ss1.jpeg'></img>","3","","exp","","1","<img src='img/tf1_38_T1_ss1_md.jpeg'></img>","0","false",""
"","html-keyboard-response","91","404769","0.0-10.0-0.38","179","""event"",""trial"",""time""
""fullscreenenter"",""0"",""2317""
","
","
","""event"",""trial"",""time""
""fullscreenenter"",""0"",""2317""
","
","null","<div style=""font-size:60px;"">+</div>","","null","fixation","2021-03-30 02:22:03.430","","","","",""
"","mars-trial","92","408729","0.0-10.0-1.38","179","""event"",""trial"",""time""
""fullscreenenter"",""0"",""2317""
","
","
","""event"",""trial"",""time""
""fullscreenenter"",""0"",""2317""
","
","3346.514999982901","<img style='border: 4px solid darkgrey;' src='img/tf1_39_M_ss2.jpeg'></img>","1","","exp","","0","<img src='img/tf1_39_T1_ss2_md.jpeg'></img>","0","true",""
"","html-keyboard-response","93","409234","0.0-10.0-0.39","179","""event"",""trial"",""time""
""fullscreenenter"",""0"",""2317""
","
","
","""event"",""trial"",""time""
""fullscreenenter"",""0"",""2317""
","
","null","<div style=""font-size:60px;"">+</div>","","null","fixation","2021-03-30 02:22:07.894","","","","",""
"","mars-trial","94","412810","0.0-10.0-1.39","179","""event"",""trial"",""time""
""fullscreenenter"",""0"",""2317""
","
","
","""event"",""trial"",""time""
""fullscreenenter"",""0"",""2317""
","
","2963.999999978114","<img style='border: 4px solid darkgrey;' src='img/tf1_40_M_ss3.jpeg'></img>","2","","exp","","3","<img src='img/tf1_40_T1_ss3_md.jpeg'></img>","0","false",""
"","html-keyboard-response","95","413315","0.0-10.0-0.40","179","""event"",""trial"",""time""
""fullscreenenter"",""0"",""2317""
","
","
","""event"",""trial"",""time""
""fullscreenenter"",""0"",""2317""
","
","null","<div style=""font-size:60px;"">+</div>","","null","fixation","2021-03-30 02:22:11.975","","","","",""
"","mars-trial","96","423527","0.0-10.0-1.40","179","""event"",""trial"",""time""
""fullscreenenter"",""0"",""2317""
","
","
","""event"",""trial"",""time""
""fullscreenenter"",""0"",""2317""
","
","9601.829999999609","<img style='border: 4px solid darkgrey;' src='img/tf1_41_M_ss1.jpeg'></img>","1","","exp","","1","<img src='img/tf1_41_T1_ss1_md.jpeg'></img>","0","false",""
"","html-keyboard-response","97","424032","0.0-10.0-0.41","179","""event"",""trial"",""time""
""fullscreenenter"",""0"",""2317""
""fullscreenexit"",""98"",""431642""
","
","
","""event"",""trial"",""time""
""fullscreenenter"",""0"",""2317""
","""event"",""trial"",""time""
""fullscreenexit"",""98"",""431642""
","null","<div style=""font-size:60px;"">+</div>","","null","fixation","2021-03-30 02:22:22.692","","","","",""
"","mars-trial","98","435268","0.0-10.0-1.41","179","""event"",""trial"",""time""
""fullscreenenter"",""0"",""2317""
""fullscreenexit"",""98"",""431642""
","
","
","""event"",""trial"",""time""
""fullscreenenter"",""0"",""2317""
","""event"",""trial"",""time""
""fullscreenexit"",""98"",""431642""
","10625.700000004144","<img style='border: 4px solid darkgrey;' src='img/tf1_42_M_ss2.jpeg'></img>","1","","exp","","3","<img src='img/tf1_42_T1_ss2_md.jpeg'></img>","0","false",""
"","html-keyboard-response","99","435771","0.0-10.0-0.42","179","""event"",""trial"",""time""
""fullscreenenter"",""0"",""2317""
""fullscreenexit"",""98"",""431642""
","
","
","""event"",""trial"",""time""
""fullscreenenter"",""0"",""2317""
","""event"",""trial"",""time""
""fullscreenexit"",""98"",""431642""
","null","<div style=""font-size:60px;"">+</div>","","null","fixation","2021-03-30 02:22:34.431","","","","",""
"","mars-trial","100","437627","0.0-10.0-1.42","179","""event"",""trial"",""time""
""fullscreenenter"",""0"",""2317""
""fullscreenexit"",""98"",""431642""
","
","
","""event"",""trial"",""time""
""fullscreenenter"",""0"",""2317""
","""event"",""trial"",""time""
""fullscreenexit"",""98"",""431642""
","1248.0999999970663","<img style='border: 4px solid darkgrey;' src='img/tf1_43_M_ss3.jpeg'></img>","3","","exp","","1","<img src='img/tf1_43_T1_ss3_md.jpeg'></img>","0","false",""
"","html-keyboard-response","101","438133","0.0-10.0-0.43","179","""event"",""trial"",""time""
""fullscreenenter"",""0"",""2317""
""fullscreenexit"",""98"",""431642""
","
","
","""event"",""trial"",""time""
""fullscreenenter"",""0"",""2317""
","""event"",""trial"",""time""
""fullscreenexit"",""98"",""431642""
","null","<div style=""font-size:60px;"">+</div>","","null","fixation","2021-03-30 02:22:36.793","","","","",""
"","mars-trial","102","439406","0.0-10.0-1.43","179","""event"",""trial"",""time""
""fullscreenenter"",""0"",""2317""
""fullscreenexit"",""98"",""431642""
","
","
","""event"",""trial"",""time""
""fullscreenenter"",""0"",""2317""
","""event"",""trial"",""time""
""fullscreenexit"",""98"",""431642""
","664.7349999984726","<img style='border: 4px solid darkgrey;' src='img/tf1_44_M_ss1.jpeg'></img>","0","","exp","","2","<img src='img/tf1_44_T1_ss1_md.jpeg'></img>","0","false",""
"","html-keyboard-response","103","439910","0.0-10.0-0.44","179","""event"",""trial"",""time""
""fullscreenenter"",""0"",""2317""
""fullscreenexit"",""98"",""431642""
","
","
","""event"",""trial"",""time""
""fullscreenenter"",""0"",""2317""
","""event"",""trial"",""time""
""fullscreenexit"",""98"",""431642""
","null","<div style=""font-size:60px;"">+</div>","","null","fixation","2021-03-30 02:22:38.570","","","","",""
"","mars-trial","104","441091","0.0-10.0-1.44","179","""event"",""trial"",""time""
""fullscreenenter"",""0"",""2317""
""fullscreenexit"",""98"",""431642""
","
","
","""event"",""trial"",""time""
""fullscreenenter"",""0"",""2317""
","""event"",""trial"",""time""
""fullscreenexit"",""98"",""431642""
","572.5349999847822","<img style='border: 4px solid darkgrey;' src='img/tf1_45_M_ss2.jpeg'></img>","1","","exp","","3","<img src='img/tf1_45_T1_ss2_md.jpeg'></img>","0","false",""
"","html-keyboard-response","105","441593","0.0-10.0-0.45","179","""event"",""trial"",""time""
""fullscreenenter"",""0"",""2317""
""fullscreenexit"",""98"",""431642""
","
","
","""event"",""trial"",""time""
""fullscreenenter"",""0"",""2317""
","""event"",""trial"",""time""
""fullscreenexit"",""98"",""431642""
","null","<div style=""font-size:60px;"">+</div>","","null","fixation","2021-03-30 02:22:40.253","","","","",""
"","mars-trial","106","442382","0.0-10.0-1.45","179","""event"",""trial"",""time""
""fullscreenenter"",""0"",""2317""
""fullscreenexit"",""98"",""431642""
","
","
","""event"",""trial"",""time""
""fullscreenenter"",""0"",""2317""
","""event"",""trial"",""time""
""fullscreenexit"",""98"",""431642""
","178.8900000101421","<img style='border: 4px solid darkgrey;' src='img/tf1_46_M_ss3.jpeg'></img>","1","","exp","","3","<img src='img/tf1_46_T1_ss3_md.jpeg'></img>","0","false",""
"","html-keyboard-response","107","442888","0.0-10.0-0.46","179","""event"",""trial"",""time""
""fullscreenenter"",""0"",""2317""
""fullscreenexit"",""98"",""431642""
","
","
","""event"",""trial"",""time""
""fullscreenenter"",""0"",""2317""
","""event"",""trial"",""time""
""fullscreenexit"",""98"",""431642""
","null","<div style=""font-size:60px;"">+</div>","","null","fixation","2021-03-30 02:22:41.548","","","","",""
"","mars-trial","108","443604","0.0-10.0-1.46","179","""event"",""trial"",""time""
""fullscreenenter"",""0"",""2317""
""fullscreenexit"",""98"",""431642""
","
","
","""event"",""trial"",""time""
""fullscreenenter"",""0"",""2317""
","""event"",""trial"",""time""
""fullscreenexit"",""98"",""431642""
","107.61999999522232","<img style='border: 4px solid darkgrey;' src='img/tf1_47_M_ss1.jpeg'></img>","1","","exp","","3","<img src='img/tf1_47_T1_ss1_md.jpeg'></img>","0","false",""
"","html-keyboard-response","109","444107","0.0-10.0-0.47","179","""event"",""trial"",""time""
""fullscreenenter"",""0"",""2317""
""fullscreenexit"",""98"",""431642""
","
","
","""event"",""trial"",""time""
""fullscreenenter"",""0"",""2317""
","""event"",""trial"",""time""
""fullscreenexit"",""98"",""431642""
","null","<div style=""font-size:60px;"">+</div>","","null","fixation","2021-03-30 02:22:42.767","","","","",""
"","mars-trial","110","445152","0.0-10.0-1.47","179","""event"",""trial"",""time""
""fullscreenenter"",""0"",""2317""
""fullscreenexit"",""98"",""431642""
","
","
","""event"",""trial"",""time""
""fullscreenenter"",""0"",""2317""
","""event"",""trial"",""time""
""fullscreenexit"",""98"",""431642""
","434.60499998764135","<img style='border: 4px solid darkgrey;' src='img/tf1_48_M_ss2.jpeg'></img>","2","","exp","","3","<img src='img/tf1_48_T1_ss2_md.jpeg'></img>","0","false",""
"","html-keyboard-response","111","445657","0.0-10.0-0.48","179","""event"",""trial"",""time""
""fullscreenenter"",""0"",""2317""
""fullscreenexit"",""98"",""431642""
","
","
","""event"",""trial"",""time""
""fullscreenenter"",""0"",""2317""
","""event"",""trial"",""time""
""fullscreenexit"",""98"",""431642""
","null","<div style=""font-size:60px;"">+</div>","","null","fixation","2021-03-30 02:22:44.317","","","","",""
"","mars-trial","112","446482","0.0-10.0-1.48","179","""event"",""trial"",""time""
""fullscreenenter"",""0"",""2317""
""fullscreenexit"",""98"",""431642""
","
","
","""event"",""trial"",""time""
""fullscreenenter"",""0"",""2317""
","""event"",""trial"",""time""
""fullscreenexit"",""98"",""431642""
","213.7349999975413","<img style='border: 4px solid darkgrey;' src='img/tf1_49_M_ss3.jpeg'></img>","3","","exp","","1","<img src='img/tf1_49_T1_ss3_md.jpeg'></img>","0","false",""
"","html-keyboard-response","113","446983","0.0-10.0-0.49","179","""event"",""trial"",""time""
""fullscreenenter"",""0"",""2317""
""fullscreenexit"",""98"",""431642""
","
","
","""event"",""trial"",""time""
""fullscreenenter"",""0"",""2317""
","""event"",""trial"",""time""
""fullscreenexit"",""98"",""431642""
","null","<div style=""font-size:60px;"">+</div>","","null","fixation","2021-03-30 02:22:45.643","","","","",""
"","mars-trial","114","447730","0.0-10.0-1.49","179","""event"",""trial"",""time""
""fullscreenenter"",""0"",""2317""
""fullscreenexit"",""98"",""431642""
","
","
","""event"",""trial"",""time""
""fullscreenenter"",""0"",""2317""
","""event"",""trial"",""time""
""fullscreenexit"",""98"",""431642""
","137.0699999970384","<img style='border: 4px solid darkgrey;' src='img/tf1_50_M_ss1.jpeg'></img>","0","","exp","","0","<img src='img/tf1_50_T1_ss1_md.jpeg'></img>","0","true",""
"","html-keyboard-response","115","448235","0.0-10.0-0.50","179","""event"",""trial"",""time""
""fullscreenenter"",""0"",""2317""
""fullscreenexit"",""98"",""431642""
""blur"",""116"",""449813""
""focus"",""116"",""459227""
""blur"",""116"",""460105""
""focus"",""116"",""467993""
""blur"",""116"",""472123""
","""event"",""trial"",""time""
""blur"",""116"",""449813""
""blur"",""116"",""460105""
""blur"",""116"",""472123""
","""event"",""trial"",""time""
""focus"",""116"",""459227""
""focus"",""116"",""467993""
","""event"",""trial"",""time""
""fullscreenenter"",""0"",""2317""
","""event"",""trial"",""time""
""fullscreenexit"",""98"",""431642""
","null","<div style=""font-size:60px;"">+</div>","","null","fixation","2021-03-30 02:22:46.895","","","","",""
"","mars-trial","116","478679","0.0-10.0-1.50","179","""event"",""trial"",""time""
""fullscreenenter"",""0"",""2317""
""fullscreenexit"",""98"",""431642""
""blur"",""116"",""449813""
""focus"",""116"",""459227""
""blur"",""116"",""460105""
""focus"",""116"",""467993""
""blur"",""116"",""472123""
","""event"",""trial"",""time""
""blur"",""116"",""449813""
""blur"",""116"",""460105""
""blur"",""116"",""472123""
","""event"",""trial"",""time""
""focus"",""116"",""459227""
""focus"",""116"",""467993""
","""event"",""trial"",""time""
""fullscreenenter"",""0"",""2317""
","""event"",""trial"",""time""
""fullscreenexit"",""98"",""431642""
","null","<img style='border: 4px solid darkgrey;' src='img/tf1_51_M_ss2.jpeg'></img>","null","","exp","","null","<img src='img/tf1_51_T1_ss2_md.jpeg'></img>","0","false",""
"","html-keyboard-response","117","479328","0.0-10.0-0.51","179","""event"",""trial"",""time""
""fullscreenenter"",""0"",""2317""
""fullscreenexit"",""98"",""431642""
""blur"",""116"",""449813""
""focus"",""116"",""459227""
""blur"",""116"",""460105""
""focus"",""116"",""467993""
""blur"",""116"",""472123""
""focus"",""118"",""483378""
","""event"",""trial"",""time""
""blur"",""116"",""449813""
""blur"",""116"",""460105""
""blur"",""116"",""472123""
","""event"",""trial"",""time""
""focus"",""116"",""459227""
""focus"",""116"",""467993""
""focus"",""118"",""483378""
","""event"",""trial"",""time""
""fullscreenenter"",""0"",""2317""
","""event"",""trial"",""time""
""fullscreenexit"",""98"",""431642""
","null","<div style=""font-size:60px;"">+</div>","","null","fixation","2021-03-30 02:23:17.989","","","","",""
"","mars-trial","118","484954","0.0-10.0-1.51","179","""event"",""trial"",""time""
""fullscreenenter"",""0"",""2317""
""fullscreenexit"",""98"",""431642""
""blur"",""116"",""449813""
""focus"",""116"",""459227""
""blur"",""116"",""460105""
""focus"",""116"",""467993""
""blur"",""116"",""472123""
""focus"",""118"",""483378""
","""event"",""trial"",""time""
""blur"",""116"",""449813""
""blur"",""116"",""460105""
""blur"",""116"",""472123""
","""event"",""trial"",""time""
""focus"",""116"",""459227""
""focus"",""116"",""467993""
""focus"",""118"",""483378""
","""event"",""trial"",""time""
""fullscreenenter"",""0"",""2317""
","""event"",""trial"",""time""
""fullscreenexit"",""98"",""431642""
","3969.8849999986123","<img style='border: 4px solid darkgrey;' src='img/tf1_52_M_ss3.jpeg'></img>","3","","exp","","2","<img src='img/tf1_52_T1_ss3_md.jpeg'></img>","0","false",""
"","html-keyboard-response","119","485459","0.0-10.0-0.52","179","""event"",""trial"",""time""
""fullscreenenter"",""0"",""2317""
""fullscreenexit"",""98"",""431642""
""blur"",""116"",""449813""
""focus"",""116"",""459227""
""blur"",""116"",""460105""
""focus"",""116"",""467993""
""blur"",""116"",""472123""
""focus"",""118"",""483378""
","""event"",""trial"",""time""
""blur"",""116"",""449813""
""blur"",""116"",""460105""
""blur"",""116"",""472123""
","""event"",""trial"",""time""
""focus"",""116"",""459227""
""focus"",""116"",""467993""
""focus"",""118"",""483378""
","""event"",""trial"",""time""
""fullscreenenter"",""0"",""2317""
","""event"",""trial"",""time""
""fullscreenexit"",""98"",""431642""
","null","<div style=""font-size:60px;"">+</div>","","null","fixation","2021-03-30 02:23:24.119","","","","",""
"","mars-trial","120","486677","0.0-10.0-1.52","179","""event"",""trial"",""time""
""fullscreenenter"",""0"",""2317""
""fullscreenexit"",""98"",""431642""
""blur"",""116"",""449813""
""focus"",""116"",""459227""
""blur"",""116"",""460105""
""focus"",""116"",""467993""
""blur"",""116"",""472123""
""focus"",""118"",""483378""
","""event"",""trial"",""time""
""blur"",""116"",""449813""
""blur"",""116"",""460105""
""blur"",""116"",""472123""
","""event"",""trial"",""time""
""focus"",""116"",""459227""
""focus"",""116"",""467993""
""focus"",""118"",""483378""
","""event"",""trial"",""time""
""fullscreenenter"",""0"",""2317""
","""event"",""trial"",""time""
""fullscreenexit"",""98"",""431642""
","603.995000012219","<img style='border: 4px solid darkgrey;' src='img/tf1_53_M_ss1.jpeg'></img>","1","","exp","","0","<img src='img/tf1_53_T1_ss1_md.jpeg'></img>","0","true",""
"","html-keyboard-response","121","487179","0.0-10.0-0.53","179","""event"",""trial"",""time""
""fullscreenenter"",""0"",""2317""
""fullscreenexit"",""98"",""431642""
""blur"",""116"",""449813""
""focus"",""116"",""459227""
""blur"",""116"",""460105""
""focus"",""116"",""467993""
""blur"",""116"",""472123""
""focus"",""118"",""483378""
""blur"",""122"",""491553""
","""event"",""trial"",""time""
""blur"",""116"",""449813""
""blur"",""116"",""460105""
""blur"",""116"",""472123""
""blur"",""122"",""491553""
","""event"",""trial"",""time""
""focus"",""116"",""459227""
""focus"",""116"",""467993""
""focus"",""118"",""483378""
","""event"",""trial"",""time""
""fullscreenenter"",""0"",""2317""
","""event"",""trial"",""time""
""fullscreenexit"",""98"",""431642""
","null","<div style=""font-size:60px;"">+</div>","","null","fixation","2021-03-30 02:23:25.839","","","","",""
"","mars-trial","122","518621","0.0-10.0-1.53","179","""event"",""trial"",""time""
""fullscreenenter"",""0"",""2317""
""fullscreenexit"",""98"",""431642""
""blur"",""116"",""449813""
""focus"",""116"",""459227""
""blur"",""116"",""460105""
""focus"",""116"",""467993""
""blur"",""116"",""472123""
""focus"",""118"",""483378""
""blur"",""122"",""491553""
","""event"",""trial"",""time""
""blur"",""116"",""449813""
""blur"",""116"",""460105""
""blur"",""116"",""472123""
""blur"",""122"",""491553""
","""event"",""trial"",""time""
""focus"",""116"",""459227""
""focus"",""116"",""467993""
""focus"",""118"",""483378""
","""event"",""trial"",""time""
""fullscreenenter"",""0"",""2317""
","""event"",""trial"",""time""
""fullscreenexit"",""98"",""431642""
","null","<img style='border: 4px solid darkgrey;' src='img/tf1_54_M_ss2.jpeg'></img>","null","","exp","","null","<img src='img/tf1_54_T1_ss2_md.jpeg'></img>","0","false",""
"","html-keyboard-response","123","519566","0.0-10.0-0.54","179","""event"",""trial"",""time""
""fullscreenenter"",""0"",""2317""
""fullscreenexit"",""98"",""431642""
""blur"",""116"",""449813""
""focus"",""116"",""459227""
""blur"",""116"",""460105""
""focus"",""116"",""467993""
""blur"",""116"",""472123""
""focus"",""118"",""483378""
""blur"",""122"",""491553""
""focus"",""124"",""525349""
","""event"",""trial"",""time""
""blur"",""116"",""449813""
""blur"",""116"",""460105""
""blur"",""116"",""472123""
""blur"",""122"",""491553""
","""event"",""trial"",""time""
""focus"",""116"",""459227""
""focus"",""116"",""467993""
""focus"",""118"",""483378""
""focus"",""124"",""525349""
","""event"",""trial"",""time""
""fullscreenenter"",""0"",""2317""
","""event"",""trial"",""time""
""fullscreenexit"",""98"",""431642""
","null","<div style=""font-size:60px;"">+</div>","","null","fixation","2021-03-30 02:23:58.226","","","","",""
"","mars-trial","124","527902","0.0-10.0-1.54","179","""event"",""trial"",""time""
""fullscreenenter"",""0"",""2317""
""fullscreenexit"",""98"",""431642""
""blur"",""116"",""449813""
""focus"",""116"",""459227""
""blur"",""116"",""460105""
""focus"",""116"",""467993""
""blur"",""116"",""472123""
""focus"",""118"",""483378""
""blur"",""122"",""491553""
""focus"",""124"",""525349""
","""event"",""trial"",""time""
""blur"",""116"",""449813""
""blur"",""116"",""460105""
""blur"",""116"",""472123""
""blur"",""122"",""491553""
","""event"",""trial"",""time""
""focus"",""116"",""459227""
""focus"",""116"",""467993""
""focus"",""118"",""483378""
""focus"",""124"",""525349""
","""event"",""trial"",""time""
""fullscreenenter"",""0"",""2317""
","""event"",""trial"",""time""
""fullscreenexit"",""98"",""431642""
","6967.749999981606","<img style='border: 4px solid darkgrey;' src='img/tf1_55_M_ss3.jpeg'></img>","3","","exp","","2","<img src='img/tf1_55_T1_ss3_md.jpeg'></img>","0","false",""
"","html-keyboard-response","125","528407","0.0-10.0-0.55","179","""event"",""trial"",""time""
""fullscreenenter"",""0"",""2317""
""fullscreenexit"",""98"",""431642""
""blur"",""116"",""449813""
""focus"",""116"",""459227""
""blur"",""116"",""460105""
""focus"",""116"",""467993""
""blur"",""116"",""472123""
""focus"",""118"",""483378""
""blur"",""122"",""491553""
""focus"",""124"",""525349""
","""event"",""trial"",""time""
""blur"",""116"",""449813""
""blur"",""116"",""460105""
""blur"",""116"",""472123""
""blur"",""122"",""491553""
","""event"",""trial"",""time""
""focus"",""116"",""459227""
""focus"",""116"",""467993""
""focus"",""118"",""483378""
""focus"",""124"",""525349""
","""event"",""trial"",""time""
""fullscreenenter"",""0"",""2317""
","""event"",""trial"",""time""
""fullscreenexit"",""98"",""431642""
","null","<div style=""font-size:60px;"">+</div>","","null","fixation","2021-03-30 02:24:07.067","","","","",""
"","mars-trial","126","537417","0.0-10.0-1.55","179","""event"",""trial"",""time""
""fullscreenenter"",""0"",""2317""
""fullscreenexit"",""98"",""431642""
""blur"",""116"",""449813""
""focus"",""116"",""459227""
""blur"",""116"",""460105""
""focus"",""116"",""467993""
""blur"",""116"",""472123""
""focus"",""118"",""483378""
""blur"",""122"",""491553""
""focus"",""124"",""525349""
","""event"",""trial"",""time""
""blur"",""116"",""449813""
""blur"",""116"",""460105""
""blur"",""116"",""472123""
""blur"",""122"",""491553""
","""event"",""trial"",""time""
""focus"",""116"",""459227""
""focus"",""116"",""467993""
""focus"",""118"",""483378""
""focus"",""124"",""525349""
","""event"",""trial"",""time""
""fullscreenenter"",""0"",""2317""
","""event"",""trial"",""time""
""fullscreenexit"",""98"",""431642""
","8399.6900000202","<img style='border: 4px solid darkgrey;' src='img/tf1_56_M_ss1.jpeg'></img>","2","","exp","","0","<img src='img/tf1_56_T1_ss1_md.jpeg'></img>","0","true",""
"","html-keyboard-response","127","537919","0.0-10.0-0.56","179","""event"",""trial"",""time""
""fullscreenenter"",""0"",""2317""
""fullscreenexit"",""98"",""431642""
""blur"",""116"",""449813""
""focus"",""116"",""459227""
""blur"",""116"",""460105""
""focus"",""116"",""467993""
""blur"",""116"",""472123""
""focus"",""118"",""483378""
""blur"",""122"",""491553""
""focus"",""124"",""525349""
""blur"",""128"",""547208""
""focus"",""128"",""553962""
","""event"",""trial"",""time""
""blur"",""116"",""449813""
""blur"",""116"",""460105""
""blur"",""116"",""472123""
""blur"",""122"",""491553""
""blur"",""128"",""547208""
","""event"",""trial"",""time""
""focus"",""116"",""459227""
""focus"",""116"",""467993""
""focus"",""118"",""483378""
""focus"",""124"",""525349""
""focus"",""128"",""553962""
","""event"",""trial"",""time""
""fullscreenenter"",""0"",""2317""
","""event"",""trial"",""time""
""fullscreenexit"",""98"",""431642""
","null","<div style=""font-size:60px;"">+</div>","","null","fixation","2021-03-30 02:24:16.579","","","","",""
"","mars-trial","128","555240","0.0-10.0-1.56","179","""event"",""trial"",""time""
""fullscreenenter"",""0"",""2317""
""fullscreenexit"",""98"",""431642""
""blur"",""116"",""449813""
""focus"",""116"",""459227""
""blur"",""116"",""460105""
""focus"",""116"",""467993""
""blur"",""116"",""472123""
""focus"",""118"",""483378""
""blur"",""122"",""491553""
""focus"",""124"",""525349""
""blur"",""128"",""547208""
""focus"",""128"",""553962""
","""event"",""trial"",""time""
""blur"",""116"",""449813""
""blur"",""116"",""460105""
""blur"",""116"",""472123""
""blur"",""122"",""491553""
""blur"",""128"",""547208""
","""event"",""trial"",""time""
""focus"",""116"",""459227""
""focus"",""116"",""467993""
""focus"",""118"",""483378""
""focus"",""124"",""525349""
""focus"",""128"",""553962""
","""event"",""trial"",""time""
""fullscreenenter"",""0"",""2317""
","""event"",""trial"",""time""
""fullscreenexit"",""98"",""431642""
","","","","","exp","","","<img src='img/tf1_57_T1_ss2_md.jpeg'></img>","0","false",""
"","html-keyboard-response","129","555745","0.0-10.0-0.57","179","""event"",""trial"",""time""
""fullscreenenter"",""0"",""2317""
""fullscreenexit"",""98"",""431642""
""blur"",""116"",""449813""
""focus"",""116"",""459227""
""blur"",""116"",""460105""
""focus"",""116"",""467993""
""blur"",""116"",""472123""
""focus"",""118"",""483378""
""blur"",""122"",""491553""
""focus"",""124"",""525349""
""blur"",""128"",""547208""
""focus"",""128"",""553962""
","""event"",""trial"",""time""
""blur"",""116"",""449813""
""blur"",""116"",""460105""
""blur"",""116"",""472123""
""blur"",""122"",""491553""
""blur"",""128"",""547208""
","""event"",""trial"",""time""
""focus"",""116"",""459227""
""focus"",""116"",""467993""
""focus"",""118"",""483378""
""focus"",""124"",""525349""
""focus"",""128"",""553962""
","""event"",""trial"",""time""
""fullscreenenter"",""0"",""2317""
","""event"",""trial"",""time""
""fullscreenexit"",""98"",""431642""
","null","<div style=""font-size:60px;"">+</div>","","null","fixation","2021-03-30 02:24:34.405","","","","",""
"","audio-button-response","130","564148","0.0-11.0","179","""event"",""trial"",""time""
""fullscreenenter"",""0"",""2317""
""fullscreenexit"",""98"",""431642""
""blur"",""116"",""449813""
""focus"",""116"",""459227""
""blur"",""116"",""460105""
""focus"",""116"",""467993""
""blur"",""116"",""472123""
""focus"",""118"",""483378""
""blur"",""122"",""491553""
""focus"",""124"",""525349""
""blur"",""128"",""547208""
""focus"",""128"",""553962""
","""event"",""trial"",""time""
""blur"",""116"",""449813""
""blur"",""116"",""460105""
""blur"",""116"",""472123""
""blur"",""122"",""491553""
""blur"",""128"",""547208""
","""event"",""trial"",""time""
""focus"",""116"",""459227""
""focus"",""116"",""467993""
""focus"",""118"",""483378""
""focus"",""124"",""525349""
""focus"",""128"",""553962""
","""event"",""trial"",""time""
""fullscreenenter"",""0"",""2317""
","""event"",""trial"",""time""
""fullscreenexit"",""98"",""431642""
","8295.335000002524","audio/mars_instructions_slide5.wav","0","","","","","","","",""
