"success","trial_type","trial_index","time_elapsed","internal_node_id","subject_id","interactions","blur_events","focus_events","fullscreenenter_events","fullscreenexit_events","rt","stimulus","button_pressed","key_press","part","timestamp","unshuffled_button","correct_response","correct_button","correct","value"
"true","fullscreen","0","6027","0.0-0.0","200","""event"",""trial"",""time""
""fullscreenenter"",""0"",""5034""
","
","
","""event"",""trial"",""time""
""fullscreenenter"",""0"",""5034""
","
","","","","","","","","","","",""
"","pavlovia","1","6037","0.0-1.0","200","""event"",""trial"",""time""
""fullscreenenter"",""0"",""5034""
","
","
","""event"",""trial"",""time""
""fullscreenenter"",""0"",""5034""
","
","","","","","","","","","","",""
"","html-button-response","2","7190","0.0-2.0","200","""event"",""trial"",""time""
""fullscreenenter"",""0"",""5034""
","
","
","""event"",""trial"",""time""
""fullscreenenter"",""0"",""5034""
","
","1151.2999999523163","<p>Welcome! Press START to begin.</p><br>","0","","","","","","","",""
"","audio-button-response","3","22444","0.0-3.0","200","""event"",""trial"",""time""
""fullscreenenter"",""0"",""5034""
","
","
","""event"",""trial"",""time""
""fullscreenenter"",""0"",""5034""
","
","15252.899999976158","audio/mars_instructions_slide2.wav","0","","","","","","","",""
"","audio-button-response","4","29166","0.0-4.0","200","""event"",""trial"",""time""
""fullscreenenter"",""0"",""5034""
","
","
","""event"",""trial"",""time""
""fullscreenenter"",""0"",""5034""
","
","6721.099999904633","audio/mars_instructions_slide3.wav","0","","","","","","","",""
"","html-keyboard-response","5","29686","0.0-5.0-0.0","200","""event"",""trial"",""time""
""fullscreenenter"",""0"",""5034""
","
","
","""event"",""trial"",""time""
""fullscreenenter"",""0"",""5034""
","
","null","<div style=""font-size:60px;"">+</div>","","null","fixation","2021-06-22 00:03:47.048","","","","",""
"","mars-trial","6","34597","0.0-5.0-1.0","200","""event"",""trial"",""time""
""fullscreenenter"",""0"",""5034""
","
","
","""event"",""trial"",""time""
""fullscreenenter"",""0"",""5034""
","
","2779.600000023842","<img style='border: 4px solid darkgrey;' src='practice/pt1_M1.png'></img>","3","","practice","","0","<img src='practice/pt1_T1.png'></img>","0","true",""
"","html-keyboard-response","7","35106","0.0-6.0-0.0","200","""event"",""trial"",""time""
""fullscreenenter"",""0"",""5034""
","
","
","""event"",""trial"",""time""
""fullscreenenter"",""0"",""5034""
","
","null","<div style=""font-size:60px;"">+</div>","","null","fixation","2021-06-22 00:03:52.467","","","","",""
"","mars-trial","8","38682","0.0-6.0-1.0","200","""event"",""trial"",""time""
""fullscreenenter"",""0"",""5034""
","
","
","""event"",""trial"",""time""
""fullscreenenter"",""0"",""5034""
","
","1451.3999999761581","<img style='border: 4px solid darkgrey;' src='practice/pt2_M1.png'></img>","3","","practice","","0","<img src='practice/pt2_T1.png'></img>","0","true",""
"","html-keyboard-response","9","39186","0.0-7.0-0.0","200","""event"",""trial"",""time""
""fullscreenenter"",""0"",""5034""
","
","
","""event"",""trial"",""time""
""fullscreenenter"",""0"",""5034""
","
","null","<div style=""font-size:60px;"">+</div>","","null","fixation","2021-06-22 00:03:56.547","","","","",""
"","mars-trial","10","42943","0.0-7.0-1.0","200","""event"",""trial"",""time""
""fullscreenenter"",""0"",""5034""
","
","
","""event"",""trial"",""time""
""fullscreenenter"",""0"",""5034""
","
","1650.6999999284744","<img style='border: 4px solid darkgrey;' src='practice/pt3_M1.png'></img>","0","","practice","","0","<img src='practice/pt3_T1.png'></img>","0","true",""
"","audio-button-response","11","44490","0.0-8.0","200","""event"",""trial"",""time""
""fullscreenenter"",""0"",""5034""
","
","
","""event"",""trial"",""time""
""fullscreenenter"",""0"",""5034""
","
","1544","audio/mars_instructions_slide4.wav","0","","","","","","","",""
"","call-function","12","44490","0.0-9.0","200","""event"",""trial"",""time""
""fullscreenenter"",""0"",""5034""
","
","
","""event"",""trial"",""time""
""fullscreenenter"",""0"",""5034""
","
","","","","","","","","","","",""
"","html-keyboard-response","13","44997","0.0-10.0-0.0","200","""event"",""trial"",""time""
""fullscreenenter"",""0"",""5034""
","
","
","""event"",""trial"",""time""
""fullscreenenter"",""0"",""5034""
","
","null","<div style=""font-size:60px;"">+</div>","","null","fixation","2021-06-22 00:04:02.358","","","","",""
"","mars-trial","14","47107","0.0-10.0-1.0","200","""event"",""trial"",""time""
""fullscreenenter"",""0"",""5034""
","
","
","""event"",""trial"",""time""
""fullscreenenter"",""0"",""5034""
","
","1480.2999999523163","<img style='border: 4px solid darkgrey;' src='img/tf1_1_M_ss3.jpeg'></img>","1","","exp","","0","<img src='img/tf1_1_T1_ss3_md.jpeg'></img>","0","true",""
"","html-keyboard-response","15","47617","0.0-10.0-0.1","200","""event"",""trial"",""time""
""fullscreenenter"",""0"",""5034""
","
","
","""event"",""trial"",""time""
""fullscreenenter"",""0"",""5034""
","
","null","<div style=""font-size:60px;"">+</div>","","null","fixation","2021-06-22 00:04:04.978","","","","",""
"","mars-trial","16","50007","0.0-10.0-1.1","200","""event"",""trial"",""time""
""fullscreenenter"",""0"",""5034""
","
","
","""event"",""trial"",""time""
""fullscreenenter"",""0"",""5034""
","
","1749.1000000238419","<img style='border: 4px solid darkgrey;' src='img/tf1_2_M_ss1.jpeg'></img>","1","","exp","","0","<img src='img/tf1_2_T1_ss1_md.jpeg'></img>","0","true",""
"","html-keyboard-response","17","50516","0.0-10.0-0.2","200","""event"",""trial"",""time""
""fullscreenenter"",""0"",""5034""
","
","
","""event"",""trial"",""time""
""fullscreenenter"",""0"",""5034""
","
","null","<div style=""font-size:60px;"">+</div>","","null","fixation","2021-06-22 00:04:07.877","","","","",""
"","mars-trial","18","53899","0.0-10.0-1.2","200","""event"",""trial"",""time""
""fullscreenenter"",""0"",""5034""
","
","
","""event"",""trial"",""time""
""fullscreenenter"",""0"",""5034""
","
","2758.899999976158","<img style='border: 4px solid darkgrey;' src='img/tf1_3_M_ss2.jpeg'></img>","0","","exp","","0","<img src='img/tf1_3_T1_ss2_md.jpeg'></img>","0","true",""
"","html-keyboard-response","19","54406","0.0-10.0-0.3","200","""event"",""trial"",""time""
""fullscreenenter"",""0"",""5034""
","
","
","""event"",""trial"",""time""
""fullscreenenter"",""0"",""5034""
","
","null","<div style=""font-size:60px;"">+</div>","","null","fixation","2021-06-22 00:04:11.768","","","","",""
"","mars-trial","20","57387","0.0-10.0-1.3","200","""event"",""trial"",""time""
""fullscreenenter"",""0"",""5034""
","
","
","""event"",""trial"",""time""
""fullscreenenter"",""0"",""5034""
","
","2358.3000000715256","<img style='border: 4px solid darkgrey;' src='img/tf1_4_M_ss3.jpeg'></img>","1","","exp","","0","<img src='img/tf1_4_T1_ss3_md.jpeg'></img>","0","true",""
"","html-keyboard-response","21","57896","0.0-10.0-0.4","200","""event"",""trial"",""time""
""fullscreenenter"",""0"",""5034""
","
","
","""event"",""trial"",""time""
""fullscreenenter"",""0"",""5034""
","
","null","<div style=""font-size:60px;"">+</div>","","null","fixation","2021-06-22 00:04:15.257","","","","",""
"","mars-trial","22","60597","0.0-10.0-1.4","200","""event"",""trial"",""time""
""fullscreenenter"",""0"",""5034""
","
","
","""event"",""trial"",""time""
""fullscreenenter"",""0"",""5034""
","
","2069.100000023842","<img style='border: 4px solid darkgrey;' src='img/tf1_5_M_ss1.jpeg'></img>","2","","exp","","0","<img src='img/tf1_5_T1_ss1_md.jpeg'></img>","0","true",""
"","html-keyboard-response","23","61116","0.0-10.0-0.5","200","""event"",""trial"",""time""
""fullscreenenter"",""0"",""5034""
","
","
","""event"",""trial"",""time""
""fullscreenenter"",""0"",""5034""
","
","null","<div style=""font-size:60px;"">+</div>","","null","fixation","2021-06-22 00:04:18.477","","","","",""
"","mars-trial","24","70677","0.0-10.0-1.5","200","""event"",""trial"",""time""
""fullscreenenter"",""0"",""5034""
","
","
","""event"",""trial"",""time""
""fullscreenenter"",""0"",""5034""
","
","8931","<img style='border: 4px solid darkgrey;' src='img/tf1_6_M_ss2.jpeg'></img>","0","","exp","","1","<img src='img/tf1_6_T1_ss2_md.jpeg'></img>","0","false",""
"","html-keyboard-response","25","71187","0.0-10.0-0.6","200","""event"",""trial"",""time""
""fullscreenenter"",""0"",""5034""
","
","
","""event"",""trial"",""time""
""fullscreenenter"",""0"",""5034""
","
","null","<div style=""font-size:60px;"">+</div>","","null","fixation","2021-06-22 00:04:28.548","","","","",""
"","mars-trial","26","77535","0.0-10.0-1.6","200","""event"",""trial"",""time""
""fullscreenenter"",""0"",""5034""
","
","
","""event"",""trial"",""time""
""fullscreenenter"",""0"",""5034""
","
","5724.100000023842","<img style='border: 4px solid darkgrey;' src='img/tf1_7_M_ss3.jpeg'></img>","3","","exp","","0","<img src='img/tf1_7_T1_ss3_md.jpeg'></img>","0","true",""
"","html-keyboard-response","27","78038","0.0-10.0-0.7","200","""event"",""trial"",""time""
""fullscreenenter"",""0"",""5034""
","
","
","""event"",""trial"",""time""
""fullscreenenter"",""0"",""5034""
","
","null","<div style=""font-size:60px;"">+</div>","","null","fixation","2021-06-22 00:04:35.399","","","","",""
"","mars-trial","28","85427","0.0-10.0-1.7","200","""event"",""trial"",""time""
""fullscreenenter"",""0"",""5034""
","
","
","""event"",""trial"",""time""
""fullscreenenter"",""0"",""5034""
","
","6782.899999976158","<img style='border: 4px solid darkgrey;' src='img/tf1_8_M_ss1.jpeg'></img>","0","","exp","","0","<img src='img/tf1_8_T1_ss1_md.jpeg'></img>","0","true",""
"","html-keyboard-response","29","85930","0.0-10.0-0.8","200","""event"",""trial"",""time""
""fullscreenenter"",""0"",""5034""
","
","
","""event"",""trial"",""time""
""fullscreenenter"",""0"",""5034""
","
","null","<div style=""font-size:60px;"">+</div>","","null","fixation","2021-06-22 00:04:43.291","","","","",""
"","mars-trial","30","91257","0.0-10.0-1.8","200","""event"",""trial"",""time""
""fullscreenenter"",""0"",""5034""
","
","
","""event"",""trial"",""time""
""fullscreenenter"",""0"",""5034""
","
","4718.399999976158","<img style='border: 4px solid darkgrey;' src='img/tf1_9_M_ss2.jpeg'></img>","2","","exp","","0","<img src='img/tf1_9_T1_ss2_md.jpeg'></img>","0","true",""
"","html-keyboard-response","31","91760","0.0-10.0-0.9","200","""event"",""trial"",""time""
""fullscreenenter"",""0"",""5034""
","
","
","""event"",""trial"",""time""
""fullscreenenter"",""0"",""5034""
","
","null","<div style=""font-size:60px;"">+</div>","","null","fixation","2021-06-22 00:04:49.121","","","","",""
"","mars-trial","32","97290","0.0-10.0-1.9","200","""event"",""trial"",""time""
""fullscreenenter"",""0"",""5034""
","
","
","""event"",""trial"",""time""
""fullscreenenter"",""0"",""5034""
","
","4922.100000023842","<img style='border: 4px solid darkgrey;' src='img/tf1_10_M_ss3.jpeg'></img>","3","","exp","","0","<img src='img/tf1_10_T1_ss3_md.jpeg'></img>","0","true",""
"","html-keyboard-response","33","97793","0.0-10.0-0.10","200","""event"",""trial"",""time""
""fullscreenenter"",""0"",""5034""
","
","
","""event"",""trial"",""time""
""fullscreenenter"",""0"",""5034""
","
","null","<div style=""font-size:60px;"">+</div>","","null","fixation","2021-06-22 00:04:55.155","","","","",""
"","mars-trial","34","110639","0.0-10.0-1.10","200","""event"",""trial"",""time""
""fullscreenenter"",""0"",""5034""
","
","
","""event"",""trial"",""time""
""fullscreenenter"",""0"",""5034""
","
","12225","<img style='border: 4px solid darkgrey;' src='img/tf1_11_M_ss1.jpeg'></img>","3","","exp","","0","<img src='img/tf1_11_T1_ss1_md.jpeg'></img>","0","true",""
"","html-keyboard-response","35","111142","0.0-10.0-0.11","200","""event"",""trial"",""time""
""fullscreenenter"",""0"",""5034""
","
","
","""event"",""trial"",""time""
""fullscreenenter"",""0"",""5034""
","
","null","<div style=""font-size:60px;"">+</div>","","null","fixation","2021-06-22 00:05:08.503","","","","",""
"","mars-trial","36","118701","0.0-10.0-1.11","200","""event"",""trial"",""time""
""fullscreenenter"",""0"",""5034""
","
","
","""event"",""trial"",""time""
""fullscreenenter"",""0"",""5034""
","
","6952.399999976158","<img style='border: 4px solid darkgrey;' src='img/tf1_12_M_ss2.jpeg'></img>","1","","exp","","0","<img src='img/tf1_12_T1_ss2_md.jpeg'></img>","0","true",""
"","html-keyboard-response","37","119204","0.0-10.0-0.12","200","""event"",""trial"",""time""
""fullscreenenter"",""0"",""5034""
","
","
","""event"",""trial"",""time""
""fullscreenenter"",""0"",""5034""
","
","null","<div style=""font-size:60px;"">+</div>","","null","fixation","2021-06-22 00:05:16.566","","","","",""
"","mars-trial","38","121723","0.0-10.0-1.12","200","""event"",""trial"",""time""
""fullscreenenter"",""0"",""5034""
","
","
","""event"",""trial"",""time""
""fullscreenenter"",""0"",""5034""
","
","1911.7999999523163","<img style='border: 4px solid darkgrey;' src='img/tf1_13_M_ss3.jpeg'></img>","2","","exp","","0","<img src='img/tf1_13_T1_ss3_md.jpeg'></img>","0","true",""
"","html-keyboard-response","39","122226","0.0-10.0-0.13","200","""event"",""trial"",""time""
""fullscreenenter"",""0"",""5034""
","
","
","""event"",""trial"",""time""
""fullscreenenter"",""0"",""5034""
","
","null","<div style=""font-size:60px;"">+</div>","","null","fixation","2021-06-22 00:05:19.587","","","","",""
"","mars-trial","40","124103","0.0-10.0-1.13","200","""event"",""trial"",""time""
""fullscreenenter"",""0"",""5034""
","
","
","""event"",""trial"",""time""
""fullscreenenter"",""0"",""5034""
","
","1271.5","<img style='border: 4px solid darkgrey;' src='img/tf1_14_M_ss1.jpeg'></img>","2","","exp","","0","<img src='img/tf1_14_T1_ss1_md.jpeg'></img>","0","true",""
"","html-keyboard-response","41","124606","0.0-10.0-0.14","200","""event"",""trial"",""time""
""fullscreenenter"",""0"",""5034""
","
","
","""event"",""trial"",""time""
""fullscreenenter"",""0"",""5034""
","
","null","<div style=""font-size:60px;"">+</div>","","null","fixation","2021-06-22 00:05:21.967","","","","",""
"","mars-trial","42","126107","0.0-10.0-1.14","200","""event"",""trial"",""time""
""fullscreenenter"",""0"",""5034""
","
","
","""event"",""trial"",""time""
""fullscreenenter"",""0"",""5034""
","
","894.5","<img style='border: 4px solid darkgrey;' src='img/tf1_15_M_ss2.jpeg'></img>","2","","exp","","1","<img src='img/tf1_15_T1_ss2_md.jpeg'></img>","0","false",""
"","html-keyboard-response","43","126610","0.0-10.0-0.15","200","""event"",""trial"",""time""
""fullscreenenter"",""0"",""5034""
","
","
","""event"",""trial"",""time""
""fullscreenenter"",""0"",""5034""
","
","null","<div style=""font-size:60px;"">+</div>","","null","fixation","2021-06-22 00:05:23.971","","","","",""
"","mars-trial","44","128038","0.0-10.0-1.15","200","""event"",""trial"",""time""
""fullscreenenter"",""0"",""5034""
","
","
","""event"",""trial"",""time""
""fullscreenenter"",""0"",""5034""
","
","821.7999999523163","<img style='border: 4px solid darkgrey;' src='img/tf1_16_M_ss3.jpeg'></img>","1","","exp","","0","<img src='img/tf1_16_T1_ss3_md.jpeg'></img>","0","true",""
"","html-keyboard-response","45","128541","0.0-10.0-0.16","200","""event"",""trial"",""time""
""fullscreenenter"",""0"",""5034""
","
","
","""event"",""trial"",""time""
""fullscreenenter"",""0"",""5034""
","
","null","<div style=""font-size:60px;"">+</div>","","null","fixation","2021-06-22 00:05:25.903","","","","",""
"","mars-trial","46","130301","0.0-10.0-1.16","200","""event"",""trial"",""time""
""fullscreenenter"",""0"",""5034""
","
","
","""event"",""trial"",""time""
""fullscreenenter"",""0"",""5034""
","
","1153.6999999284744","<img style='border: 4px solid darkgrey;' src='img/tf1_17_M_ss1.jpeg'></img>","3","","exp","","3","<img src='img/tf1_17_T1_ss1_md.jpeg'></img>","0","false",""
"","html-keyboard-response","47","130804","0.0-10.0-0.17","200","""event"",""trial"",""time""
""fullscreenenter"",""0"",""5034""
","
","
","""event"",""trial"",""time""
""fullscreenenter"",""0"",""5034""
","
","null","<div style=""font-size:60px;"">+</div>","","null","fixation","2021-06-22 00:05:28.165","","","","",""
"","mars-trial","48","140062","0.0-10.0-1.17","200","""event"",""trial"",""time""
""fullscreenenter"",""0"",""5034""
","
","
","""event"",""trial"",""time""
""fullscreenenter"",""0"",""5034""
","
","8650.600000023842","<img style='border: 4px solid darkgrey;' src='img/tf1_18_M_ss2.jpeg'></img>","1","","exp","","0","<img src='img/tf1_18_T1_ss2_md.jpeg'></img>","0","true",""
"","html-keyboard-response","49","140566","0.0-10.0-0.18","200","""event"",""trial"",""time""
""fullscreenenter"",""0"",""5034""
","
","
","""event"",""trial"",""time""
""fullscreenenter"",""0"",""5034""
","
","null","<div style=""font-size:60px;"">+</div>","","null","fixation","2021-06-22 00:05:37.927","","","","",""
"","mars-trial","50","143011","0.0-10.0-1.18","200","""event"",""trial"",""time""
""fullscreenenter"",""0"",""5034""
","
","
","""event"",""trial"",""time""
""fullscreenenter"",""0"",""5034""
","
","1836.8999999761581","<img style='border: 4px solid darkgrey;' src='img/tf1_19_M_ss3.jpeg'></img>","2","","exp","","3","<img src='img/tf1_19_T1_ss3_md.jpeg'></img>","0","false",""
"","html-keyboard-response","51","143514","0.0-10.0-0.19","200","""event"",""trial"",""time""
""fullscreenenter"",""0"",""5034""
","
","
","""event"",""trial"",""time""
""fullscreenenter"",""0"",""5034""
","
","null","<div style=""font-size:60px;"">+</div>","","null","fixation","2021-06-22 00:05:40.875","","","","",""
"","mars-trial","52","150713","0.0-10.0-1.19","200","""event"",""trial"",""time""
""fullscreenenter"",""0"",""5034""
","
","
","""event"",""trial"",""time""
""fullscreenenter"",""0"",""5034""
","
","6591.699999928474","<img style='border: 4px solid darkgrey;' src='img/tf1_20_M_ss1.jpeg'></img>","3","","exp","","1","<img src='img/tf1_20_T1_ss1_md.jpeg'></img>","0","false",""
"","html-keyboard-response","53","151217","0.0-10.0-0.20","200","""event"",""trial"",""time""
""fullscreenenter"",""0"",""5034""
","
","
","""event"",""trial"",""time""
""fullscreenenter"",""0"",""5034""
","
","null","<div style=""font-size:60px;"">+</div>","","null","fixation","2021-06-22 00:05:48.578","","","","",""
"","mars-trial","54","152973","0.0-10.0-1.20","200","""event"",""trial"",""time""
""fullscreenenter"",""0"",""5034""
","
","
","""event"",""trial"",""time""
""fullscreenenter"",""0"",""5034""
","
","1148.7999999523163","<img style='border: 4px solid darkgrey;' src='img/tf1_21_M_ss2.jpeg'></img>","2","","exp","","3","<img src='img/tf1_21_T1_ss2_md.jpeg'></img>","0","false",""
"","html-keyboard-response","55","153476","0.0-10.0-0.21","200","""event"",""trial"",""time""
""fullscreenenter"",""0"",""5034""
","
","
","""event"",""trial"",""time""
""fullscreenenter"",""0"",""5034""
","
","null","<div style=""font-size:60px;"">+</div>","","null","fixation","2021-06-22 00:05:50.837","","","","",""
"","mars-trial","56","154712","0.0-10.0-1.21","200","""event"",""trial"",""time""
""fullscreenenter"",""0"",""5034""
","
","
","""event"",""trial"",""time""
""fullscreenenter"",""0"",""5034""
","
","629.5","<img style='border: 4px solid darkgrey;' src='img/tf1_22_M_ss3.jpeg'></img>","0","","exp","","3","<img src='img/tf1_22_T1_ss3_md.jpeg'></img>","0","false",""
"","html-keyboard-response","57","155216","0.0-10.0-0.22","200","""event"",""trial"",""time""
""fullscreenenter"",""0"",""5034""
","
","
","""event"",""trial"",""time""
""fullscreenenter"",""0"",""5034""
","
","null","<div style=""font-size:60px;"">+</div>","","null","fixation","2021-06-22 00:05:52.577","","","","",""
"","mars-trial","58","156337","0.0-10.0-1.22","200","""event"",""trial"",""time""
""fullscreenenter"",""0"",""5034""
","
","
","""event"",""trial"",""time""
""fullscreenenter"",""0"",""5034""
","
","514.6999999284744","<img style='border: 4px solid darkgrey;' src='img/tf1_23_M_ss1.jpeg'></img>","2","","exp","","2","<img src='img/tf1_23_T1_ss1_md.jpeg'></img>","0","false",""
"","html-keyboard-response","59","156840","0.0-10.0-0.23","200","""event"",""trial"",""time""
""fullscreenenter"",""0"",""5034""
","
","
","""event"",""trial"",""time""
""fullscreenenter"",""0"",""5034""
","
","null","<div style=""font-size:60px;"">+</div>","","null","fixation","2021-06-22 00:05:54.201","","","","",""
"","mars-trial","60","158335","0.0-10.0-1.23","200","""event"",""trial"",""time""
""fullscreenenter"",""0"",""5034""
","
","
","""event"",""trial"",""time""
""fullscreenenter"",""0"",""5034""
","
","890.7999999523163","<img style='border: 4px solid darkgrey;' src='img/tf1_24_M_ss2.jpeg'></img>","3","","exp","","2","<img src='img/tf1_24_T1_ss2_md.jpeg'></img>","0","false",""
"","html-keyboard-response","61","158837","0.0-10.0-0.24","200","""event"",""trial"",""time""
""fullscreenenter"",""0"",""5034""
","
","
","""event"",""trial"",""time""
""fullscreenenter"",""0"",""5034""
","
","null","<div style=""font-size:60px;"">+</div>","","null","fixation","2021-06-22 00:05:56.198","","","","",""
"","mars-trial","62","165035","0.0-10.0-1.24","200","""event"",""trial"",""time""
""fullscreenenter"",""0"",""5034""
","
","
","""event"",""trial"",""time""
""fullscreenenter"",""0"",""5034""
","
","5592","<img style='border: 4px solid darkgrey;' src='img/tf1_25_M_ss3.jpeg'></img>","3","","exp","","2","<img src='img/tf1_25_T1_ss3_md.jpeg'></img>","0","false",""
"","html-keyboard-response","63","165543","0.0-10.0-0.25","200","""event"",""trial"",""time""
""fullscreenenter"",""0"",""5034""
","
","
","""event"",""trial"",""time""
""fullscreenenter"",""0"",""5034""
","
","null","<div style=""font-size:60px;"">+</div>","","null","fixation","2021-06-22 00:06:02.904","","","","",""
"","mars-trial","64","180440","0.0-10.0-1.25","200","""event"",""trial"",""time""
""fullscreenenter"",""0"",""5034""
","
","
","""event"",""trial"",""time""
""fullscreenenter"",""0"",""5034""
","
","14290.600000023842","<img style='border: 4px solid darkgrey;' src='img/tf1_26_M_ss1.jpeg'></img>","2","","exp","","1","<img src='img/tf1_26_T1_ss1_md.jpeg'></img>","0","false",""
"","html-keyboard-response","65","180942","0.0-10.0-0.26","200","""event"",""trial"",""time""
""fullscreenenter"",""0"",""5034""
","
","
","""event"",""trial"",""time""
""fullscreenenter"",""0"",""5034""
","
","null","<div style=""font-size:60px;"">+</div>","","null","fixation","2021-06-22 00:06:18.303","","","","",""
"","mars-trial","66","182731","0.0-10.0-1.26","200","""event"",""trial"",""time""
""fullscreenenter"",""0"",""5034""
","
","
","""event"",""trial"",""time""
""fullscreenenter"",""0"",""5034""
","
","1171.6999999284744","<img style='border: 4px solid darkgrey;' src='img/tf1_27_M_ss2.jpeg'></img>","2","","exp","","0","<img src='img/tf1_27_T1_ss2_md.jpeg'></img>","0","true",""
"","html-keyboard-response","67","183234","0.0-10.0-0.27","200","""event"",""trial"",""time""
""fullscreenenter"",""0"",""5034""
","
","
","""event"",""trial"",""time""
""fullscreenenter"",""0"",""5034""
","
","null","<div style=""font-size:60px;"">+</div>","","null","fixation","2021-06-22 00:06:20.595","","","","",""
"","mars-trial","68","184617","0.0-10.0-1.27","200","""event"",""trial"",""time""
""fullscreenenter"",""0"",""5034""
","
","
","""event"",""trial"",""time""
""fullscreenenter"",""0"",""5034""
","
","778.0999999046326","<img style='border: 4px solid darkgrey;' src='img/tf1_28_M_ss3.jpeg'></img>","2","","exp","","2","<img src='img/tf1_28_T1_ss3_md.jpeg'></img>","0","false",""
"","html-keyboard-response","69","185119","0.0-10.0-0.28","200","""event"",""trial"",""time""
""fullscreenenter"",""0"",""5034""
","
","
","""event"",""trial"",""time""
""fullscreenenter"",""0"",""5034""
","
","null","<div style=""font-size:60px;"">+</div>","","null","fixation","2021-06-22 00:06:22.481","","","","",""
"","mars-trial","70","186198","0.0-10.0-1.28","200","""event"",""trial"",""time""
""fullscreenenter"",""0"",""5034""
","
","
","""event"",""trial"",""time""
""fullscreenenter"",""0"",""5034""
","
","472.89999997615814","<img style='border: 4px solid darkgrey;' src='img/tf1_29_M_ss1.jpeg'></img>","2","","exp","","2","<img src='img/tf1_29_T1_ss1_md.jpeg'></img>","0","false",""
"","html-keyboard-response","71","186700","0.0-10.0-0.29","200","""event"",""trial"",""time""
""fullscreenenter"",""0"",""5034""
","
","
","""event"",""trial"",""time""
""fullscreenenter"",""0"",""5034""
","
","null","<div style=""font-size:60px;"">+</div>","","null","fixation","2021-06-22 00:06:24.061","","","","",""
"","mars-trial","72","187987","0.0-10.0-1.29","200","""event"",""trial"",""time""
""fullscreenenter"",""0"",""5034""
","
","
","""event"",""trial"",""time""
""fullscreenenter"",""0"",""5034""
","
","682.3000000715256","<img style='border: 4px solid darkgrey;' src='img/tf1_30_M_ss2.jpeg'></img>","1","","exp","","2","<img src='img/tf1_30_T1_ss2_md.jpeg'></img>","0","false",""
"","html-keyboard-response","73","188490","0.0-10.0-0.30","200","""event"",""trial"",""time""
""fullscreenenter"",""0"",""5034""
","
","
","""event"",""trial"",""time""
""fullscreenenter"",""0"",""5034""
","
","null","<div style=""font-size:60px;"">+</div>","","null","fixation","2021-06-22 00:06:25.851","","","","",""
"","mars-trial","74","194513","0.0-10.0-1.30","200","""event"",""trial"",""time""
""fullscreenenter"",""0"",""5034""
","
","
","""event"",""trial"",""time""
""fullscreenenter"",""0"",""5034""
","
","5418.399999976158","<img style='border: 4px solid darkgrey;' src='img/tf1_31_M_ss3.jpeg'></img>","2","","exp","","0","<img src='img/tf1_31_T1_ss3_md.jpeg'></img>","0","true",""
"","html-keyboard-response","75","195016","0.0-10.0-0.31","200","""event"",""trial"",""time""
""fullscreenenter"",""0"",""5034""
","
","
","""event"",""trial"",""time""
""fullscreenenter"",""0"",""5034""
","
","null","<div style=""font-size:60px;"">+</div>","","null","fixation","2021-06-22 00:06:32.377","","","","",""
"","mars-trial","76","203332","0.0-10.0-1.31","200","""event"",""trial"",""time""
""fullscreenenter"",""0"",""5034""
","
","
","""event"",""trial"",""time""
""fullscreenenter"",""0"",""5034""
","
","7709.300000071526","<img style='border: 4px solid darkgrey;' src='img/tf1_32_M_ss1.jpeg'></img>","2","","exp","","0","<img src='img/tf1_32_T1_ss1_md.jpeg'></img>","0","true",""
"","html-keyboard-response","77","203835","0.0-10.0-0.32","200","""event"",""trial"",""time""
""fullscreenenter"",""0"",""5034""
","
","
","""event"",""trial"",""time""
""fullscreenenter"",""0"",""5034""
","
","null","<div style=""font-size:60px;"">+</div>","","null","fixation","2021-06-22 00:06:41.196","","","","",""
"","mars-trial","78","222131","0.0-10.0-1.32","200","""event"",""trial"",""time""
""fullscreenenter"",""0"",""5034""
","
","
","""event"",""trial"",""time""
""fullscreenenter"",""0"",""5034""
","
","17689.5","<img style='border: 4px solid darkgrey;' src='img/tf1_33_M_ss2.jpeg'></img>","1","","exp","","2","<img src='img/tf1_33_T1_ss2_md.jpeg'></img>","0","false",""
"","html-keyboard-response","79","222634","0.0-10.0-0.33","200","""event"",""trial"",""time""
""fullscreenenter"",""0"",""5034""
","
","
","""event"",""trial"",""time""
""fullscreenenter"",""0"",""5034""
","
","null","<div style=""font-size:60px;"">+</div>","","null","fixation","2021-06-22 00:06:59.995","","","","",""
"","mars-trial","80","229570","0.0-10.0-1.33","200","""event"",""trial"",""time""
""fullscreenenter"",""0"",""5034""
","
","
","""event"",""trial"",""time""
""fullscreenenter"",""0"",""5034""
","
","6330.100000023842","<img style='border: 4px solid darkgrey;' src='img/tf1_34_M_ss3.jpeg'></img>","2","","exp","","3","<img src='img/tf1_34_T1_ss3_md.jpeg'></img>","0","false",""
"","html-keyboard-response","81","230074","0.0-10.0-0.34","200","""event"",""trial"",""time""
""fullscreenenter"",""0"",""5034""
","
","
","""event"",""trial"",""time""
""fullscreenenter"",""0"",""5034""
","
","null","<div style=""font-size:60px;"">+</div>","","null","fixation","2021-06-22 00:07:07.435","","","","",""
"","mars-trial","82","231763","0.0-10.0-1.34","200","""event"",""trial"",""time""
""fullscreenenter"",""0"",""5034""
","
","
","""event"",""trial"",""time""
""fullscreenenter"",""0"",""5034""
","
","1082.2000000476837","<img style='border: 4px solid darkgrey;' src='img/tf1_35_M_ss1.jpeg'></img>","2","","exp","","3","<img src='img/tf1_35_T1_ss1_md.jpeg'></img>","0","false",""
"","html-keyboard-response","83","232265","0.0-10.0-0.35","200","""event"",""trial"",""time""
""fullscreenenter"",""0"",""5034""
","
","
","""event"",""trial"",""time""
""fullscreenenter"",""0"",""5034""
","
","null","<div style=""font-size:60px;"">+</div>","","null","fixation","2021-06-22 00:07:09.626","","","","",""
"","mars-trial","84","233508","0.0-10.0-1.35","200","""event"",""trial"",""time""
""fullscreenenter"",""0"",""5034""
","
","
","""event"",""trial"",""time""
""fullscreenenter"",""0"",""5034""
","
","636.1000000238419","<img style='border: 4px solid darkgrey;' src='img/tf1_36_M_ss2.jpeg'></img>","1","","exp","","2","<img src='img/tf1_36_T1_ss2_md.jpeg'></img>","0","false",""
"","html-keyboard-response","85","234013","0.0-10.0-0.36","200","""event"",""trial"",""time""
""fullscreenenter"",""0"",""5034""
","
","
","""event"",""trial"",""time""
""fullscreenenter"",""0"",""5034""
","
","null","<div style=""font-size:60px;"">+</div>","","null","fixation","2021-06-22 00:07:11.374","","","","",""
"","mars-trial","86","238362","0.0-10.0-1.36","200","""event"",""trial"",""time""
""fullscreenenter"",""0"",""5034""
","
","
","""event"",""trial"",""time""
""fullscreenenter"",""0"",""5034""
","
","3743.2000000476837","<img style='border: 4px solid darkgrey;' src='img/tf1_37_M_ss3.jpeg'></img>","2","","exp","","3","<img src='img/tf1_37_T1_ss3_md.jpeg'></img>","0","false",""
"","html-keyboard-response","87","238865","0.0-10.0-0.37","200","""event"",""trial"",""time""
""fullscreenenter"",""0"",""5034""
","
","
","""event"",""trial"",""time""
""fullscreenenter"",""0"",""5034""
","
","null","<div style=""font-size:60px;"">+</div>","","null","fixation","2021-06-22 00:07:16.226","","","","",""
"","mars-trial","88","246840","0.0-10.0-1.37","200","""event"",""trial"",""time""
""fullscreenenter"",""0"",""5034""
","
","
","""event"",""trial"",""time""
""fullscreenenter"",""0"",""5034""
","
","7363.399999976158","<img style='border: 4px solid darkgrey;' src='img/tf1_38_M_ss1.jpeg'></img>","2","","exp","","0","<img src='img/tf1_38_T1_ss1_md.jpeg'></img>","0","true",""
"","html-keyboard-response","89","247343","0.0-10.0-0.38","200","""event"",""trial"",""time""
""fullscreenenter"",""0"",""5034""
","
","
","""event"",""trial"",""time""
""fullscreenenter"",""0"",""5034""
","
","null","<div style=""font-size:60px;"">+</div>","","null","fixation","2021-06-22 00:07:24.704","","","","",""
"","mars-trial","90","250035","0.0-10.0-1.38","200","""event"",""trial"",""time""
""fullscreenenter"",""0"",""5034""
","
","
","""event"",""trial"",""time""
""fullscreenenter"",""0"",""5034""
","
","2085.399999976158","<img style='border: 4px solid darkgrey;' src='img/tf1_39_M_ss2.jpeg'></img>","2","","exp","","1","<img src='img/tf1_39_T1_ss2_md.jpeg'></img>","0","false",""
"","html-keyboard-response","91","250537","0.0-10.0-0.39","200","""event"",""trial"",""time""
""fullscreenenter"",""0"",""5034""
","
","
","""event"",""trial"",""time""
""fullscreenenter"",""0"",""5034""
","
","null","<div style=""font-size:60px;"">+</div>","","null","fixation","2021-06-22 00:07:27.899","","","","",""
"","mars-trial","92","255743","0.0-10.0-1.39","200","""event"",""trial"",""time""
""fullscreenenter"",""0"",""5034""
","
","
","""event"",""trial"",""time""
""fullscreenenter"",""0"",""5034""
","
","4599.100000023842","<img style='border: 4px solid darkgrey;' src='img/tf1_40_M_ss3.jpeg'></img>","3","","exp","","3","<img src='img/tf1_40_T1_ss3_md.jpeg'></img>","0","false",""
"","html-keyboard-response","93","256247","0.0-10.0-0.40","200","""event"",""trial"",""time""
""fullscreenenter"",""0"",""5034""
","
","
","""event"",""trial"",""time""
""fullscreenenter"",""0"",""5034""
","
","null","<div style=""font-size:60px;"">+</div>","","null","fixation","2021-06-22 00:07:33.608","","","","",""
"","mars-trial","94","262626","0.0-10.0-1.40","200","""event"",""trial"",""time""
""fullscreenenter"",""0"",""5034""
","
","
","""event"",""trial"",""time""
""fullscreenenter"",""0"",""5034""
","
","5771.200000047684","<img style='border: 4px solid darkgrey;' src='img/tf1_41_M_ss1.jpeg'></img>","0","","exp","","0","<img src='img/tf1_41_T1_ss1_md.jpeg'></img>","0","true",""
"","html-keyboard-response","95","263130","0.0-10.0-0.41","200","""event"",""trial"",""time""
""fullscreenenter"",""0"",""5034""
","
","
","""event"",""trial"",""time""
""fullscreenenter"",""0"",""5034""
","
","null","<div style=""font-size:60px;"">+</div>","","null","fixation","2021-06-22 00:07:40.491","","","","",""
"","mars-trial","96","264933","0.0-10.0-1.41","200","""event"",""trial"",""time""
""fullscreenenter"",""0"",""5034""
","
","
","""event"",""trial"",""time""
""fullscreenenter"",""0"",""5034""
","
","1196.6000000238419","<img style='border: 4px solid darkgrey;' src='img/tf1_42_M_ss2.jpeg'></img>","1","","exp","","3","<img src='img/tf1_42_T1_ss2_md.jpeg'></img>","0","false",""
"","html-keyboard-response","97","265436","0.0-10.0-0.42","200","""event"",""trial"",""time""
""fullscreenenter"",""0"",""5034""
","
","
","""event"",""trial"",""time""
""fullscreenenter"",""0"",""5034""
","
","null","<div style=""font-size:60px;"">+</div>","","null","fixation","2021-06-22 00:07:42.797","","","","",""
"","mars-trial","98","271530","0.0-10.0-1.42","200","""event"",""trial"",""time""
""fullscreenenter"",""0"",""5034""
","
","
","""event"",""trial"",""time""
""fullscreenenter"",""0"",""5034""
","
","5487.700000047684","<img style='border: 4px solid darkgrey;' src='img/tf1_43_M_ss3.jpeg'></img>","3","","exp","","0","<img src='img/tf1_43_T1_ss3_md.jpeg'></img>","0","true",""
"","html-keyboard-response","99","272033","0.0-10.0-0.43","200","""event"",""trial"",""time""
""fullscreenenter"",""0"",""5034""
","
","
","""event"",""trial"",""time""
""fullscreenenter"",""0"",""5034""
","
","null","<div style=""font-size:60px;"">+</div>","","null","fixation","2021-06-22 00:07:49.394","","","","",""
"","mars-trial","100","278210","0.0-10.0-1.43","200","""event"",""trial"",""time""
""fullscreenenter"",""0"",""5034""
","
","
","""event"",""trial"",""time""
""fullscreenenter"",""0"",""5034""
","
","5569.5","<img style='border: 4px solid darkgrey;' src='img/tf1_44_M_ss1.jpeg'></img>","2","","exp","","3","<img src='img/tf1_44_T1_ss1_md.jpeg'></img>","0","false",""
"","html-keyboard-response","101","278712","0.0-10.0-0.44","200","""event"",""trial"",""time""
""fullscreenenter"",""0"",""5034""
","
","
","""event"",""trial"",""time""
""fullscreenenter"",""0"",""5034""
","
","null","<div style=""font-size:60px;"">+</div>","","null","fixation","2021-06-22 00:07:56.073","","","","",""
"","mars-trial","102","281497","0.0-10.0-1.44","200","""event"",""trial"",""time""
""fullscreenenter"",""0"",""5034""
","
","
","""event"",""trial"",""time""
""fullscreenenter"",""0"",""5034""
","
","2178.8000000715256","<img style='border: 4px solid darkgrey;' src='img/tf1_45_M_ss2.jpeg'></img>","2","","exp","","1","<img src='img/tf1_45_T1_ss2_md.jpeg'></img>","0","false",""
"","html-keyboard-response","103","282000","0.0-10.0-0.45","200","""event"",""trial"",""time""
""fullscreenenter"",""0"",""5034""
","
","
","""event"",""trial"",""time""
""fullscreenenter"",""0"",""5034""
","
","null","<div style=""font-size:60px;"">+</div>","","null","fixation","2021-06-22 00:07:59.361","","","","",""
"","mars-trial","104","283197","0.0-10.0-1.45","200","""event"",""trial"",""time""
""fullscreenenter"",""0"",""5034""
","
","
","""event"",""trial"",""time""
""fullscreenenter"",""0"",""5034""
","
","590.5999999046326","<img style='border: 4px solid darkgrey;' src='img/tf1_46_M_ss3.jpeg'></img>","1","","exp","","1","<img src='img/tf1_46_T1_ss3_md.jpeg'></img>","0","false",""
"","html-keyboard-response","105","283700","0.0-10.0-0.46","200","""event"",""trial"",""time""
""fullscreenenter"",""0"",""5034""
","
","
","""event"",""trial"",""time""
""fullscreenenter"",""0"",""5034""
","
","null","<div style=""font-size:60px;"">+</div>","","null","fixation","2021-06-22 00:08:01.061","","","","",""
"","mars-trial","106","307271","0.0-10.0-1.46","200","""event"",""trial"",""time""
""fullscreenenter"",""0"",""5034""
","
","
","""event"",""trial"",""time""
""fullscreenenter"",""0"",""5034""
","
","22965.699999928474","<img style='border: 4px solid darkgrey;' src='img/tf1_47_M_ss1.jpeg'></img>","2","","exp","","3","<img src='img/tf1_47_T1_ss1_md.jpeg'></img>","0","false",""
"","html-keyboard-response","107","307774","0.0-10.0-0.47","200","""event"",""trial"",""time""
""fullscreenenter"",""0"",""5034""
","
","
","""event"",""trial"",""time""
""fullscreenenter"",""0"",""5034""
","
","null","<div style=""font-size:60px;"">+</div>","","null","fixation","2021-06-22 00:08:25.135","","","","",""
"","mars-trial","108","321401","0.0-10.0-1.47","200","""event"",""trial"",""time""
""fullscreenenter"",""0"",""5034""
","
","
","""event"",""trial"",""time""
""fullscreenenter"",""0"",""5034""
","
","13020.599999904633","<img style='border: 4px solid darkgrey;' src='img/tf1_48_M_ss2.jpeg'></img>","3","","exp","","2","<img src='img/tf1_48_T1_ss2_md.jpeg'></img>","0","false",""
"","html-keyboard-response","109","321903","0.0-10.0-0.48","200","""event"",""trial"",""time""
""fullscreenenter"",""0"",""5034""
","
","
","""event"",""trial"",""time""
""fullscreenenter"",""0"",""5034""
","
","null","<div style=""font-size:60px;"">+</div>","","null","fixation","2021-06-22 00:08:39.264","","","","",""
"","mars-trial","110","323855","0.0-10.0-1.48","200","""event"",""trial"",""time""
""fullscreenenter"",""0"",""5034""
","
","
","""event"",""trial"",""time""
""fullscreenenter"",""0"",""5034""
","
","1345.2999999523163","<img style='border: 4px solid darkgrey;' src='img/tf1_49_M_ss3.jpeg'></img>","3","","exp","","1","<img src='img/tf1_49_T1_ss3_md.jpeg'></img>","0","false",""
"","html-keyboard-response","111","324357","0.0-10.0-0.49","200","""event"",""trial"",""time""
""fullscreenenter"",""0"",""5034""
","
","
","""event"",""trial"",""time""
""fullscreenenter"",""0"",""5034""
","
","null","<div style=""font-size:60px;"">+</div>","","null","fixation","2021-06-22 00:08:41.718","","","","",""
"","mars-trial","112","325780","0.0-10.0-1.49","200","""event"",""trial"",""time""
""fullscreenenter"",""0"",""5034""
","
","
","""event"",""trial"",""time""
""fullscreenenter"",""0"",""5034""
","
","816.8999999761581","<img style='border: 4px solid darkgrey;' src='img/tf1_50_M_ss1.jpeg'></img>","2","","exp","","3","<img src='img/tf1_50_T1_ss1_md.jpeg'></img>","0","false",""
"","html-keyboard-response","113","326282","0.0-10.0-0.50","200","""event"",""trial"",""time""
""fullscreenenter"",""0"",""5034""
","
","
","""event"",""trial"",""time""
""fullscreenenter"",""0"",""5034""
","
","null","<div style=""font-size:60px;"">+</div>","","null","fixation","2021-06-22 00:08:43.643","","","","",""
"","mars-trial","114","327355","0.0-10.0-1.50","200","""event"",""trial"",""time""
""fullscreenenter"",""0"",""5034""
","
","
","""event"",""trial"",""time""
""fullscreenenter"",""0"",""5034""
","
","455.3000000715256","<img style='border: 4px solid darkgrey;' src='img/tf1_51_M_ss2.jpeg'></img>","1","","exp","","2","<img src='img/tf1_51_T1_ss2_md.jpeg'></img>","0","false",""
"","html-keyboard-response","115","327857","0.0-10.0-0.51","200","""event"",""trial"",""time""
""fullscreenenter"",""0"",""5034""
","
","
","""event"",""trial"",""time""
""fullscreenenter"",""0"",""5034""
","
","null","<div style=""font-size:60px;"">+</div>","","null","fixation","2021-06-22 00:08:45.218","","","","",""
"","mars-trial","116","329990","0.0-10.0-1.51","200","""event"",""trial"",""time""
""fullscreenenter"",""0"",""5034""
","
","
","""event"",""trial"",""time""
""fullscreenenter"",""0"",""5034""
","
","1527.6000000238419","<img style='border: 4px solid darkgrey;' src='img/tf1_52_M_ss3.jpeg'></img>","0","","exp","","1","<img src='img/tf1_52_T1_ss3_md.jpeg'></img>","0","false",""
"","html-keyboard-response","117","330504","0.0-10.0-0.52","200","""event"",""trial"",""time""
""fullscreenenter"",""0"",""5034""
","
","
","""event"",""trial"",""time""
""fullscreenenter"",""0"",""5034""
","
","null","<div style=""font-size:60px;"">+</div>","","null","fixation","2021-06-22 00:08:47.865","","","","",""
"","mars-trial","118","332447","0.0-10.0-1.52","200","""event"",""trial"",""time""
""fullscreenenter"",""0"",""5034""
","
","
","""event"",""trial"",""time""
""fullscreenenter"",""0"",""5034""
","
","1337.2000000476837","<img style='border: 4px solid darkgrey;' src='img/tf1_53_M_ss1.jpeg'></img>","2","","exp","","0","<img src='img/tf1_53_T1_ss1_md.jpeg'></img>","0","true",""
"","html-keyboard-response","119","332950","0.0-10.0-0.53","200","""event"",""trial"",""time""
""fullscreenenter"",""0"",""5034""
","
","
","""event"",""trial"",""time""
""fullscreenenter"",""0"",""5034""
","
","null","<div style=""font-size:60px;"">+</div>","","null","fixation","2021-06-22 00:08:50.311","","","","",""
"","mars-trial","120","334023","0.0-10.0-1.53","200","""event"",""trial"",""time""
""fullscreenenter"",""0"",""5034""
","
","
","""event"",""trial"",""time""
""fullscreenenter"",""0"",""5034""
","
","468","<img style='border: 4px solid darkgrey;' src='img/tf1_54_M_ss2.jpeg'></img>","2","","exp","","2","<img src='img/tf1_54_T1_ss2_md.jpeg'></img>","0","false",""
"","html-keyboard-response","121","334526","0.0-10.0-0.54","200","""event"",""trial"",""time""
""fullscreenenter"",""0"",""5034""
","
","
","""event"",""trial"",""time""
""fullscreenenter"",""0"",""5034""
","
","null","<div style=""font-size:60px;"">+</div>","","null","fixation","2021-06-22 00:08:51.887","","","","",""
"","mars-trial","122","335602","0.0-10.0-1.54","200","""event"",""trial"",""time""
""fullscreenenter"",""0"",""5034""
","
","
","""event"",""trial"",""time""
""fullscreenenter"",""0"",""5034""
","
","469.5","<img style='border: 4px solid darkgrey;' src='img/tf1_55_M_ss3.jpeg'></img>","1","","exp","","2","<img src='img/tf1_55_T1_ss3_md.jpeg'></img>","0","false",""
"","html-keyboard-response","123","336104","0.0-10.0-0.55","200","""event"",""trial"",""time""
""fullscreenenter"",""0"",""5034""
","
","
","""event"",""trial"",""time""
""fullscreenenter"",""0"",""5034""
","
","null","<div style=""font-size:60px;"">+</div>","","null","fixation","2021-06-22 00:08:53.465","","","","",""
"","mars-trial","124","337187","0.0-10.0-1.55","200","""event"",""trial"",""time""
""fullscreenenter"",""0"",""5034""
","
","
","""event"",""trial"",""time""
""fullscreenenter"",""0"",""5034""
","
","478.1999999284744","<img style='border: 4px solid darkgrey;' src='img/tf1_56_M_ss1.jpeg'></img>","2","","exp","","0","<img src='img/tf1_56_T1_ss1_md.jpeg'></img>","0","true",""
"","html-keyboard-response","125","337690","0.0-10.0-0.56","200","""event"",""trial"",""time""
""fullscreenenter"",""0"",""5034""
","
","
","""event"",""trial"",""time""
""fullscreenenter"",""0"",""5034""
","
","null","<div style=""font-size:60px;"">+</div>","","null","fixation","2021-06-22 00:08:55.051","","","","",""
"","mars-trial","126","339399","0.0-10.0-1.56","200","""event"",""trial"",""time""
""fullscreenenter"",""0"",""5034""
","
","
","""event"",""trial"",""time""
""fullscreenenter"",""0"",""5034""
","
","1103.6999999284744","<img style='border: 4px solid darkgrey;' src='img/tf1_57_M_ss2.jpeg'></img>","1","","exp","","1","<img src='img/tf1_57_T1_ss2_md.jpeg'></img>","0","false",""
"","html-keyboard-response","127","339901","0.0-10.0-0.57","200","""event"",""trial"",""time""
""fullscreenenter"",""0"",""5034""
","
","
","""event"",""trial"",""time""
""fullscreenenter"",""0"",""5034""
","
","null","<div style=""font-size:60px;"">+</div>","","null","fixation","2021-06-22 00:08:57.262","","","","",""
"","mars-trial","128","341075","0.0-10.0-1.57","200","""event"",""trial"",""time""
""fullscreenenter"",""0"",""5034""
","
","
","""event"",""trial"",""time""
""fullscreenenter"",""0"",""5034""
","
","568.3000000715256","<img style='border: 4px solid darkgrey;' src='img/tf1_58_M_ss3.jpeg'></img>","2","","exp","","1","<img src='img/tf1_58_T1_ss3_md.jpeg'></img>","0","false",""
"","html-keyboard-response","129","341577","0.0-10.0-0.58","200","""event"",""trial"",""time""
""fullscreenenter"",""0"",""5034""
","
","
","""event"",""trial"",""time""
""fullscreenenter"",""0"",""5034""
","
","null","<div style=""font-size:60px;"">+</div>","","null","fixation","2021-06-22 00:08:58.938","","","","",""
"","mars-trial","130","342643","0.0-10.0-1.58","200","""event"",""trial"",""time""
""fullscreenenter"",""0"",""5034""
","
","
","""event"",""trial"",""time""
""fullscreenenter"",""0"",""5034""
","
","460.09999990463257","<img style='border: 4px solid darkgrey;' src='img/tf1_59_M_ss1.jpeg'></img>","3","","exp","","1","<img src='img/tf1_59_T1_ss1_md.jpeg'></img>","0","false",""
"","html-keyboard-response","131","343147","0.0-10.0-0.59","200","""event"",""trial"",""time""
""fullscreenenter"",""0"",""5034""
","
","
","""event"",""trial"",""time""
""fullscreenenter"",""0"",""5034""
","
","null","<div style=""font-size:60px;"">+</div>","","null","fixation","2021-06-22 00:09:00.509","","","","",""
"","mars-trial","132","344731","0.0-10.0-1.59","200","""event"",""trial"",""time""
""fullscreenenter"",""0"",""5034""
","
","
","""event"",""trial"",""time""
""fullscreenenter"",""0"",""5034""
","
","976.8000000715256","<img style='border: 4px solid darkgrey;' src='img/tf1_60_M_ss2.jpeg'></img>","1","","exp","","3","<img src='img/tf1_60_T1_ss2_md.jpeg'></img>","0","false",""
"","html-keyboard-response","133","345234","0.0-10.0-0.60","200","""event"",""trial"",""time""
""fullscreenenter"",""0"",""5034""
","
","
","""event"",""trial"",""time""
""fullscreenenter"",""0"",""5034""
","
","null","<div style=""font-size:60px;"">+</div>","","null","fixation","2021-06-22 00:09:02.595","","","","",""
"","mars-trial","134","346265","0.0-10.0-1.60","200","""event"",""trial"",""time""
""fullscreenenter"",""0"",""5034""
","
","
","""event"",""trial"",""time""
""fullscreenenter"",""0"",""5034""
","
","426","<img style='border: 4px solid darkgrey;' src='img/tf1_61_M_ss3.jpeg'></img>","2","","exp","","1","<img src='img/tf1_61_T1_ss3_md.jpeg'></img>","0","false",""
"","html-keyboard-response","135","346767","0.0-10.0-0.61","200","""event"",""trial"",""time""
""fullscreenenter"",""0"",""5034""
","
","
","""event"",""trial"",""time""
""fullscreenenter"",""0"",""5034""
","
","null","<div style=""font-size:60px;"">+</div>","","null","fixation","2021-06-22 00:09:04.129","","","","",""
"","mars-trial","136","347767","0.0-10.0-1.61","200","""event"",""trial"",""time""
""fullscreenenter"",""0"",""5034""
","
","
","""event"",""trial"",""time""
""fullscreenenter"",""0"",""5034""
","
","394.6999999284744","<img style='border: 4px solid darkgrey;' src='img/tf1_62_M_ss1.jpeg'></img>","1","","exp","","1","<img src='img/tf1_62_T1_ss1_md.jpeg'></img>","0","false",""
"","html-keyboard-response","137","348269","0.0-10.0-0.62","200","""event"",""trial"",""time""
""fullscreenenter"",""0"",""5034""
","
","
","""event"",""trial"",""time""
""fullscreenenter"",""0"",""5034""
","
","null","<div style=""font-size:60px;"">+</div>","","null","fixation","2021-06-22 00:09:05.630","","","","",""
"","mars-trial","138","349441","0.0-10.0-1.62","200","""event"",""trial"",""time""
""fullscreenenter"",""0"",""5034""
","
","
","""event"",""trial"",""time""
""fullscreenenter"",""0"",""5034""
","
","566.5","<img style='border: 4px solid darkgrey;' src='img/tf1_63_M_ss2.jpeg'></img>","3","","exp","","3","<img src='img/tf1_63_T1_ss2_md.jpeg'></img>","0","false",""
"","html-keyboard-response","139","349944","0.0-10.0-0.63","200","""event"",""trial"",""time""
""fullscreenenter"",""0"",""5034""
","
","
","""event"",""trial"",""time""
""fullscreenenter"",""0"",""5034""
","
","null","<div style=""font-size:60px;"">+</div>","","null","fixation","2021-06-22 00:09:07.305","","","","",""
"","mars-trial","140","352095","0.0-10.0-1.63","200","""event"",""trial"",""time""
""fullscreenenter"",""0"",""5034""
","
","
","""event"",""trial"",""time""
""fullscreenenter"",""0"",""5034""
","
","1546.0999999046326","<img style='border: 4px solid darkgrey;' src='img/tf1_64_M_ss3.jpeg'></img>","2","","exp","","2","<img src='img/tf1_64_T1_ss3_md.jpeg'></img>","0","false",""
"","html-keyboard-response","141","352597","0.0-10.0-0.64","200","""event"",""trial"",""time""
""fullscreenenter"",""0"",""5034""
","
","
","""event"",""trial"",""time""
""fullscreenenter"",""0"",""5034""
","
","null","<div style=""font-size:60px;"">+</div>","","null","fixation","2021-06-22 00:09:09.958","","","","",""
"","mars-trial","142","353830","0.0-10.0-1.64","200","""event"",""trial"",""time""
""fullscreenenter"",""0"",""5034""
","
","
","""event"",""trial"",""time""
""fullscreenenter"",""0"",""5034""
","
","626.2000000476837","<img style='border: 4px solid darkgrey;' src='img/tf1_65_M_ss1.jpeg'></img>","1","","exp","","1","<img src='img/tf1_65_T1_ss1_md.jpeg'></img>","0","false",""
"","html-keyboard-response","143","354332","0.0-10.0-0.65","200","""event"",""trial"",""time""
""fullscreenenter"",""0"",""5034""
","
","
","""event"",""trial"",""time""
""fullscreenenter"",""0"",""5034""
","
","null","<div style=""font-size:60px;"">+</div>","","null","fixation","2021-06-22 00:09:11.693","","","","",""
"","mars-trial","144","362849","0.0-10.0-1.65","200","""event"",""trial"",""time""
""fullscreenenter"",""0"",""5034""
","
","
","""event"",""trial"",""time""
""fullscreenenter"",""0"",""5034""
","
","7911.600000023842","<img style='border: 4px solid darkgrey;' src='img/tf1_66_M_ss2.jpeg'></img>","1","","exp","","3","<img src='img/tf1_66_T1_ss2_md.jpeg'></img>","0","false",""
"","html-keyboard-response","145","363352","0.0-10.0-0.66","200","""event"",""trial"",""time""
""fullscreenenter"",""0"",""5034""
","
","
","""event"",""trial"",""time""
""fullscreenenter"",""0"",""5034""
","
","null","<div style=""font-size:60px;"">+</div>","","null","fixation","2021-06-22 00:09:20.713","","","","",""
"","mars-trial","146","365185","0.0-10.0-1.66","200","""event"",""trial"",""time""
""fullscreenenter"",""0"",""5034""
","
","
","""event"",""trial"",""time""
""fullscreenenter"",""0"",""5034""
","
","1225.6000000238419","<img style='border: 4px solid darkgrey;' src='img/tf1_67_M_ss3.jpeg'></img>","2","","exp","","0","<img src='img/tf1_67_T1_ss3_md.jpeg'></img>","0","true",""
"","html-keyboard-response","147","365687","0.0-10.0-0.67","200","""event"",""trial"",""time""
""fullscreenenter"",""0"",""5034""
","
","
","""event"",""trial"",""time""
""fullscreenenter"",""0"",""5034""
","
","null","<div style=""font-size:60px;"">+</div>","","null","fixation","2021-06-22 00:09:23.048","","","","",""
"","mars-trial","148","367847","0.0-10.0-1.67","200","""event"",""trial"",""time""
""fullscreenenter"",""0"",""5034""
","
","
","""event"",""trial"",""time""
""fullscreenenter"",""0"",""5034""
","
","1555","<img style='border: 4px solid darkgrey;' src='img/tf1_68_M_ss1.jpeg'></img>","3","","exp","","0","<img src='img/tf1_68_T1_ss1_md.jpeg'></img>","0","true",""
"","html-keyboard-response","149","368350","0.0-10.0-0.68","200","""event"",""trial"",""time""
""fullscreenenter"",""0"",""5034""
","
","
","""event"",""trial"",""time""
""fullscreenenter"",""0"",""5034""
","
","null","<div style=""font-size:60px;"">+</div>","","null","fixation","2021-06-22 00:09:25.711","","","","",""
"","mars-trial","150","369915","0.0-10.0-1.68","200","""event"",""trial"",""time""
""fullscreenenter"",""0"",""5034""
","
","
","""event"",""trial"",""time""
""fullscreenenter"",""0"",""5034""
","
","959.7000000476837","<img style='border: 4px solid darkgrey;' src='img/tf1_69_M_ss2.jpeg'></img>","3","","exp","","0","<img src='img/tf1_69_T1_ss2_md.jpeg'></img>","0","true",""
"","html-keyboard-response","151","370418","0.0-10.0-0.69","200","""event"",""trial"",""time""
""fullscreenenter"",""0"",""5034""
","
","
","""event"",""trial"",""time""
""fullscreenenter"",""0"",""5034""
","
","null","<div style=""font-size:60px;"">+</div>","","null","fixation","2021-06-22 00:09:27.779","","","","",""
"","mars-trial","152","382550","0.0-10.0-1.69","200","""event"",""trial"",""time""
""fullscreenenter"",""0"",""5034""
","
","
","""event"",""trial"",""time""
""fullscreenenter"",""0"",""5034""
","
","11524.800000071526","<img style='border: 4px solid darkgrey;' src='img/tf1_70_M_ss3.jpeg'></img>","0","","exp","","0","<img src='img/tf1_70_T1_ss3_md.jpeg'></img>","0","true",""
"","html-keyboard-response","153","383053","0.0-10.0-0.70","200","""event"",""trial"",""time""
""fullscreenenter"",""0"",""5034""
","
","
","""event"",""trial"",""time""
""fullscreenenter"",""0"",""5034""
","
","null","<div style=""font-size:60px;"">+</div>","","null","fixation","2021-06-22 00:09:40.415","","","","",""
"","mars-trial","154","387131","0.0-10.0-1.70","200","""event"",""trial"",""time""
""fullscreenenter"",""0"",""5034""
","
","
","""event"",""trial"",""time""
""fullscreenenter"",""0"",""5034""
","
","3470.2999999523163","<img style='border: 4px solid darkgrey;' src='img/tf1_71_M_ss1.jpeg'></img>","1","","exp","","1","<img src='img/tf1_71_T1_ss1_md.jpeg'></img>","0","false",""
"","html-keyboard-response","155","387634","0.0-10.0-0.71","200","""event"",""trial"",""time""
""fullscreenenter"",""0"",""5034""
","
","
","""event"",""trial"",""time""
""fullscreenenter"",""0"",""5034""
","
","null","<div style=""font-size:60px;"">+</div>","","null","fixation","2021-06-22 00:09:44.995","","","","",""
"","mars-trial","156","391883","0.0-10.0-1.71","200","""event"",""trial"",""time""
""fullscreenenter"",""0"",""5034""
","
","
","""event"",""trial"",""time""
""fullscreenenter"",""0"",""5034""
","
","3642.399999976158","<img style='border: 4px solid darkgrey;' src='img/tf1_72_M_ss2.jpeg'></img>","1","","exp","","1","<img src='img/tf1_72_T1_ss2_md.jpeg'></img>","0","false",""
"","html-keyboard-response","157","392386","0.0-10.0-0.72","200","""event"",""trial"",""time""
""fullscreenenter"",""0"",""5034""
","
","
","""event"",""trial"",""time""
""fullscreenenter"",""0"",""5034""
","
","null","<div style=""font-size:60px;"">+</div>","","null","fixation","2021-06-22 00:09:49.747","","","","",""
"","mars-trial","158","393931","0.0-10.0-1.72","200","""event"",""trial"",""time""
""fullscreenenter"",""0"",""5034""
","
","
","""event"",""trial"",""time""
""fullscreenenter"",""0"",""5034""
","
","938.5","<img style='border: 4px solid darkgrey;' src='img/tf1_73_M_ss3.jpeg'></img>","2","","exp","","1","<img src='img/tf1_73_T1_ss3_md.jpeg'></img>","0","false",""
"","html-keyboard-response","159","394434","0.0-10.0-0.73","200","""event"",""trial"",""time""
""fullscreenenter"",""0"",""5034""
","
","
","""event"",""trial"",""time""
""fullscreenenter"",""0"",""5034""
","
","null","<div style=""font-size:60px;"">+</div>","","null","fixation","2021-06-22 00:09:51.795","","","","",""
"","mars-trial","160","401642","0.0-10.0-1.73","200","""event"",""trial"",""time""
""fullscreenenter"",""0"",""5034""
","
","
","""event"",""trial"",""time""
""fullscreenenter"",""0"",""5034""
","
","6602.200000047684","<img style='border: 4px solid darkgrey;' src='img/tf1_74_M_ss1.jpeg'></img>","3","","exp","","0","<img src='img/tf1_74_T1_ss1_md.jpeg'></img>","0","true",""
"","html-keyboard-response","161","402145","0.0-10.0-0.74","200","""event"",""trial"",""time""
""fullscreenenter"",""0"",""5034""
","
","
","""event"",""trial"",""time""
""fullscreenenter"",""0"",""5034""
","
","null","<div style=""font-size:60px;"">+</div>","","null","fixation","2021-06-22 00:09:59.506","","","","",""
"","mars-trial","162","404734","0.0-10.0-1.74","200","""event"",""trial"",""time""
""fullscreenenter"",""0"",""5034""
","
","
","""event"",""trial"",""time""
""fullscreenenter"",""0"",""5034""
","
","1981.7000000476837","<img style='border: 4px solid darkgrey;' src='img/tf1_75_M_ss2.jpeg'></img>","3","","exp","","0","<img src='img/tf1_75_T1_ss2_md.jpeg'></img>","0","true",""
"","html-keyboard-response","163","405236","0.0-10.0-0.75","200","""event"",""trial"",""time""
""fullscreenenter"",""0"",""5034""
","
","
","""event"",""trial"",""time""
""fullscreenenter"",""0"",""5034""
","
","null","<div style=""font-size:60px;"">+</div>","","null","fixation","2021-06-22 00:10:02.598","","","","",""
"","mars-trial","164","406445","0.0-10.0-1.75","200","""event"",""trial"",""time""
""fullscreenenter"",""0"",""5034""
","
","
","""event"",""trial"",""time""
""fullscreenenter"",""0"",""5034""
","
","603","<img style='border: 4px solid darkgrey;' src='img/tf1_76_M_ss3.jpeg'></img>","3","","exp","","1","<img src='img/tf1_76_T1_ss3_md.jpeg'></img>","0","false",""
"","html-keyboard-response","165","406948","0.0-10.0-0.76","200","""event"",""trial"",""time""
""fullscreenenter"",""0"",""5034""
","
","
","""event"",""trial"",""time""
""fullscreenenter"",""0"",""5034""
","
","null","<div style=""font-size:60px;"">+</div>","","null","fixation","2021-06-22 00:10:04.309","","","","",""
"","mars-trial","166","410796","0.0-10.0-1.76","200","""event"",""trial"",""time""
""fullscreenenter"",""0"",""5034""
","
","
","""event"",""trial"",""time""
""fullscreenenter"",""0"",""5034""
","
","3241","<img style='border: 4px solid darkgrey;' src='img/tf1_77_M_ss1.jpeg'></img>","1","","exp","","1","<img src='img/tf1_77_T1_ss1_md.jpeg'></img>","0","false",""
"","html-keyboard-response","167","411300","0.0-10.0-0.77","200","""event"",""trial"",""time""
""fullscreenenter"",""0"",""5034""
","
","
","""event"",""trial"",""time""
""fullscreenenter"",""0"",""5034""
","
","null","<div style=""font-size:60px;"">+</div>","","null","fixation","2021-06-22 00:10:08.661","","","","",""
"","mars-trial","168","413057","0.0-10.0-1.77","200","""event"",""trial"",""time""
""fullscreenenter"",""0"",""5034""
","
","
","""event"",""trial"",""time""
""fullscreenenter"",""0"",""5034""
","
","1149.6000000238419","<img style='border: 4px solid darkgrey;' src='img/tf1_78_M_ss2.jpeg'></img>","1","","exp","","1","<img src='img/tf1_78_T1_ss2_md.jpeg'></img>","0","false",""
"","html-keyboard-response","169","413560","0.0-10.0-0.78","200","""event"",""trial"",""time""
""fullscreenenter"",""0"",""5034""
","
","
","""event"",""trial"",""time""
""fullscreenenter"",""0"",""5034""
","
","null","<div style=""font-size:60px;"">+</div>","","null","fixation","2021-06-22 00:10:10.921","","","","",""
"","mars-trial","170","415260","0.0-10.0-1.78","200","""event"",""trial"",""time""
""fullscreenenter"",""0"",""5034""
","
","
","""event"",""trial"",""time""
""fullscreenenter"",""0"",""5034""
","
","1092.3999999761581","<img style='border: 4px solid darkgrey;' src='img/tf1_79_M_ss3.jpeg'></img>","1","","exp","","0","<img src='img/tf1_79_T1_ss3_md.jpeg'></img>","0","true",""
"","html-keyboard-response","171","415762","0.0-10.0-0.79","200","""event"",""trial"",""time""
""fullscreenenter"",""0"",""5034""
","
","
","""event"",""trial"",""time""
""fullscreenenter"",""0"",""5034""
","
","null","<div style=""font-size:60px;"">+</div>","","null","fixation","2021-06-22 00:10:13.124","","","","",""
"","mars-trial","172","416906","0.0-10.0-1.79","200","""event"",""trial"",""time""
""fullscreenenter"",""0"",""5034""
","
","
","""event"",""trial"",""time""
""fullscreenenter"",""0"",""5034""
","
","537","<img style='border: 4px solid darkgrey;' src='img/tf1_80_M_ss1.jpeg'></img>","1","","exp","","3","<img src='img/tf1_80_T1_ss1_md.jpeg'></img>","0","false",""
"","audio-button-response","173","420831","0.0-11.0","200","""event"",""trial"",""time""
""fullscreenenter"",""0"",""5034""
","
","
","""event"",""trial"",""time""
""fullscreenenter"",""0"",""5034""
","
","3922.5","audio/mars_instructions_slide5.wav","0","","","","","","","",""
