"success","trial_type","trial_index","time_elapsed","internal_node_id","subject_id","interactions","blur_events","focus_events","fullscreenenter_events","fullscreenexit_events","rt","stimulus","button_pressed","key_press","part","timestamp","unshuffled_button","correct_response","correct_button","correct","value"
"true","fullscreen","0","4000","0.0-0.0","954","""event"",""trial"",""time""
""fullscreenenter"",""0"",""3006""
","
","
","""event"",""trial"",""time""
""fullscreenenter"",""0"",""3006""
","
","","","","","","","","","","",""
"","pavlovia","1","4003","0.0-1.0","954","""event"",""trial"",""time""
""fullscreenenter"",""0"",""3006""
","
","
","""event"",""trial"",""time""
""fullscreenenter"",""0"",""3006""
","
","","","","","","","","","","",""
"","html-button-response","2","5547","0.0-2.0","954","""event"",""trial"",""time""
""fullscreenenter"",""0"",""3006""
","
","
","""event"",""trial"",""time""
""fullscreenenter"",""0"",""3006""
","
","1542.7000000029802","<p>Welcome! Press START to begin.</p><br>","0","","","","","","","",""
"","audio-button-response","3","10981","0.0-3.0","954","""event"",""trial"",""time""
""fullscreenenter"",""0"",""3006""
","
","
","""event"",""trial"",""time""
""fullscreenenter"",""0"",""3006""
","
","5432.899999991059","audio/mars_instructions_slide2.wav","0","","","","","","","",""
"","audio-button-response","4","13663","0.0-4.0","954","""event"",""trial"",""time""
""fullscreenenter"",""0"",""3006""
","
","
","""event"",""trial"",""time""
""fullscreenenter"",""0"",""3006""
","
","2681.0999999940395","audio/mars_instructions_slide3.wav","0","","","","","","","",""
"","html-keyboard-response","5","14164","0.0-5.0-0.0","954","""event"",""trial"",""time""
""fullscreenenter"",""0"",""3006""
","
","
","""event"",""trial"",""time""
""fullscreenenter"",""0"",""3006""
","
","null","<div style=""font-size:60px;"">+</div>","","null","fixation","2021-07-13 19:45:36.678","","","","",""
"","mars-trial","6","21144","0.0-5.0-1.0","954","""event"",""trial"",""time""
""fullscreenenter"",""0"",""3006""
","
","
","""event"",""trial"",""time""
""fullscreenenter"",""0"",""3006""
","
","4872.399999991059","<img style='border: 4px solid darkgrey;' src='practice/pt1_M1.png'></img>","2","","practice","","2","<img src='practice/pt1_T1.png'></img>","0","false",""
"","html-keyboard-response","7","21646","0.0-5.1-0.1","954","""event"",""trial"",""time""
""fullscreenenter"",""0"",""3006""
","
","
","""event"",""trial"",""time""
""fullscreenenter"",""0"",""3006""
","
","null","<div style=""font-size:60px;"">+</div>","","null","fixation","2021-07-13 19:45:44.160","","","","",""
"","mars-trial","8","25811","0.0-5.1-1.1","954","""event"",""trial"",""time""
""fullscreenenter"",""0"",""3006""
","
","
","""event"",""trial"",""time""
""fullscreenenter"",""0"",""3006""
","
","2059.5999999940395","<img style='border: 4px solid darkgrey;' src='practice/pt1_M1.png'></img>","2","","practice","","3","<img src='practice/pt1_T1.png'></img>","0","false",""
"","html-keyboard-response","9","26314","0.0-5.2-0.2","954","""event"",""trial"",""time""
""fullscreenenter"",""0"",""3006""
","
","
","""event"",""trial"",""time""
""fullscreenenter"",""0"",""3006""
","
","null","<div style=""font-size:60px;"">+</div>","","null","fixation","2021-07-13 19:45:48.828","","","","",""
"","mars-trial","10","30290","0.0-5.2-1.2","954","""event"",""trial"",""time""
""fullscreenenter"",""0"",""3006""
","
","
","""event"",""trial"",""time""
""fullscreenenter"",""0"",""3006""
","
","1871","<img style='border: 4px solid darkgrey;' src='practice/pt1_M1.png'></img>","2","","practice","","0","<img src='practice/pt1_T1.png'></img>","0","true",""
"","html-keyboard-response","11","30791","0.0-6.0-0.0","954","""event"",""trial"",""time""
""fullscreenenter"",""0"",""3006""
","
","
","""event"",""trial"",""time""
""fullscreenenter"",""0"",""3006""
","
","null","<div style=""font-size:60px;"">+</div>","","null","fixation","2021-07-13 19:45:53.305","","","","",""
"","mars-trial","12","34991","0.0-6.0-1.0","954","""event"",""trial"",""time""
""fullscreenenter"",""0"",""3006""
","
","
","""event"",""trial"",""time""
""fullscreenenter"",""0"",""3006""
","
","2092.5","<img style='border: 4px solid darkgrey;' src='practice/pt2_M1.png'></img>","0","","practice","","0","<img src='practice/pt2_T1.png'></img>","0","true",""
"","html-keyboard-response","13","35496","0.0-7.0-0.0","954","""event"",""trial"",""time""
""fullscreenenter"",""0"",""3006""
","
","
","""event"",""trial"",""time""
""fullscreenenter"",""0"",""3006""
","
","null","<div style=""font-size:60px;"">+</div>","","null","fixation","2021-07-13 19:45:58.010","","","","",""
"","mars-trial","14","41832","0.0-7.0-1.0","954","""event"",""trial"",""time""
""fullscreenenter"",""0"",""3006""
","
","
","""event"",""trial"",""time""
""fullscreenenter"",""0"",""3006""
","
","4224.5999999940395","<img style='border: 4px solid darkgrey;' src='practice/pt3_M1.png'></img>","3","","practice","","0","<img src='practice/pt3_T1.png'></img>","0","true",""
"","audio-button-response","15","43214","0.0-8.0","954","""event"",""trial"",""time""
""fullscreenenter"",""0"",""3006""
","
","
","""event"",""trial"",""time""
""fullscreenenter"",""0"",""3006""
","
","1381.5","audio/mars_instructions_slide4.wav","0","","","","","","","",""
"","call-function","16","43215","0.0-9.0","954","""event"",""trial"",""time""
""fullscreenenter"",""0"",""3006""
","
","
","""event"",""trial"",""time""
""fullscreenenter"",""0"",""3006""
","
","","","","","","","","","","",""
"","html-keyboard-response","17","43719","0.0-10.0-0.0","954","""event"",""trial"",""time""
""fullscreenenter"",""0"",""3006""
","
","
","""event"",""trial"",""time""
""fullscreenenter"",""0"",""3006""
","
","null","<div style=""font-size:60px;"">+</div>","","null","fixation","2021-07-13 19:46:06.233","","","","",""
"","mars-trial","18","46050","0.0-10.0-1.0","954","""event"",""trial"",""time""
""fullscreenenter"",""0"",""3006""
","
","
","""event"",""trial"",""time""
""fullscreenenter"",""0"",""3006""
","
","1723.7000000029802","<img style='border: 4px solid darkgrey;' src='img/tf1_1_M_ss3.jpeg'></img>","1","","exp","","0","<img src='img/tf1_1_T1_ss3_md.jpeg'></img>","0","true",""
"","html-keyboard-response","19","46551","0.0-10.0-0.1","954","""event"",""trial"",""time""
""fullscreenenter"",""0"",""3006""
","
","
","""event"",""trial"",""time""
""fullscreenenter"",""0"",""3006""
","
","null","<div style=""font-size:60px;"">+</div>","","null","fixation","2021-07-13 19:46:09.065","","","","",""
"","mars-trial","20","48792","0.0-10.0-1.1","954","""event"",""trial"",""time""
""fullscreenenter"",""0"",""3006""
","
","
","""event"",""trial"",""time""
""fullscreenenter"",""0"",""3006""
","
","1632","<img style='border: 4px solid darkgrey;' src='img/tf1_2_M_ss1.jpeg'></img>","2","","exp","","0","<img src='img/tf1_2_T1_ss1_md.jpeg'></img>","0","true",""
"","html-keyboard-response","21","49297","0.0-10.0-0.2","954","""event"",""trial"",""time""
""fullscreenenter"",""0"",""3006""
","
","
","""event"",""trial"",""time""
""fullscreenenter"",""0"",""3006""
","
","null","<div style=""font-size:60px;"">+</div>","","null","fixation","2021-07-13 19:46:11.811","","","","",""
"","mars-trial","22","51757","0.0-10.0-1.2","954","""event"",""trial"",""time""
""fullscreenenter"",""0"",""3006""
","
","
","""event"",""trial"",""time""
""fullscreenenter"",""0"",""3006""
","
","1852.7999999970198","<img style='border: 4px solid darkgrey;' src='img/tf1_3_M_ss2.jpeg'></img>","3","","exp","","0","<img src='img/tf1_3_T1_ss2_md.jpeg'></img>","0","true",""
"","html-keyboard-response","23","52258","0.0-10.0-0.3","954","""event"",""trial"",""time""
""fullscreenenter"",""0"",""3006""
","
","
","""event"",""trial"",""time""
""fullscreenenter"",""0"",""3006""
","
","null","<div style=""font-size:60px;"">+</div>","","null","fixation","2021-07-13 19:46:14.772","","","","",""
"","mars-trial","24","55113","0.0-10.0-1.3","954","""event"",""trial"",""time""
""fullscreenenter"",""0"",""3006""
","
","
","""event"",""trial"",""time""
""fullscreenenter"",""0"",""3006""
","
","2245.2999999970198","<img style='border: 4px solid darkgrey;' src='img/tf1_4_M_ss3.jpeg'></img>","1","","exp","","0","<img src='img/tf1_4_T1_ss3_md.jpeg'></img>","0","true",""
"","html-keyboard-response","25","55618","0.0-10.0-0.4","954","""event"",""trial"",""time""
""fullscreenenter"",""0"",""3006""
","
","
","""event"",""trial"",""time""
""fullscreenenter"",""0"",""3006""
","
","null","<div style=""font-size:60px;"">+</div>","","null","fixation","2021-07-13 19:46:18.132","","","","",""
"","mars-trial","26","57867","0.0-10.0-1.4","954","""event"",""trial"",""time""
""fullscreenenter"",""0"",""3006""
","
","
","""event"",""trial"",""time""
""fullscreenenter"",""0"",""3006""
","
","1638.9000000059605","<img style='border: 4px solid darkgrey;' src='img/tf1_5_M_ss1.jpeg'></img>","3","","exp","","0","<img src='img/tf1_5_T1_ss1_md.jpeg'></img>","0","true",""
"","html-keyboard-response","27","58370","0.0-10.0-0.5","954","""event"",""trial"",""time""
""fullscreenenter"",""0"",""3006""
","
","
","""event"",""trial"",""time""
""fullscreenenter"",""0"",""3006""
","
","null","<div style=""font-size:60px;"">+</div>","","null","fixation","2021-07-13 19:46:20.884","","","","",""
"","mars-trial","28","65298","0.0-10.0-1.5","954","""event"",""trial"",""time""
""fullscreenenter"",""0"",""3006""
","
","
","""event"",""trial"",""time""
""fullscreenenter"",""0"",""3006""
","
","6322.5","<img style='border: 4px solid darkgrey;' src='img/tf1_6_M_ss2.jpeg'></img>","1","","exp","","3","<img src='img/tf1_6_T1_ss2_md.jpeg'></img>","0","false",""
"","html-keyboard-response","29","65799","0.0-10.0-0.6","954","""event"",""trial"",""time""
""fullscreenenter"",""0"",""3006""
","
","
","""event"",""trial"",""time""
""fullscreenenter"",""0"",""3006""
","
","null","<div style=""font-size:60px;"">+</div>","","null","fixation","2021-07-13 19:46:28.313","","","","",""
"","mars-trial","30","68466","0.0-10.0-1.6","954","""event"",""trial"",""time""
""fullscreenenter"",""0"",""3006""
","
","
","""event"",""trial"",""time""
""fullscreenenter"",""0"",""3006""
","
","2058.2000000029802","<img style='border: 4px solid darkgrey;' src='img/tf1_7_M_ss3.jpeg'></img>","2","","exp","","1","<img src='img/tf1_7_T1_ss3_md.jpeg'></img>","0","false",""
"","html-keyboard-response","31","68972","0.0-10.0-0.7","954","""event"",""trial"",""time""
""fullscreenenter"",""0"",""3006""
","
","
","""event"",""trial"",""time""
""fullscreenenter"",""0"",""3006""
","
","null","<div style=""font-size:60px;"">+</div>","","null","fixation","2021-07-13 19:46:31.486","","","","",""
"","mars-trial","32","70054","0.0-10.0-1.7","954","""event"",""trial"",""time""
""fullscreenenter"",""0"",""3006""
","
","
","""event"",""trial"",""time""
""fullscreenenter"",""0"",""3006""
","
","476.70000000298023","<img style='border: 4px solid darkgrey;' src='img/tf1_8_M_ss1.jpeg'></img>","2","","exp","","3","<img src='img/tf1_8_T1_ss1_md.jpeg'></img>","0","false",""
"","html-keyboard-response","33","70557","0.0-10.0-0.8","954","""event"",""trial"",""time""
""fullscreenenter"",""0"",""3006""
","
","
","""event"",""trial"",""time""
""fullscreenenter"",""0"",""3006""
","
","null","<div style=""font-size:60px;"">+</div>","","null","fixation","2021-07-13 19:46:33.072","","","","",""
"","mars-trial","34","71384","0.0-10.0-1.8","954","""event"",""trial"",""time""
""fullscreenenter"",""0"",""3006""
","
","
","""event"",""trial"",""time""
""fullscreenenter"",""0"",""3006""
","
","222.20000000298023","<img style='border: 4px solid darkgrey;' src='img/tf1_9_M_ss2.jpeg'></img>","2","","exp","","1","<img src='img/tf1_9_T1_ss2_md.jpeg'></img>","0","false",""
"","html-keyboard-response","35","71889","0.0-10.0-0.9","954","""event"",""trial"",""time""
""fullscreenenter"",""0"",""3006""
","
","
","""event"",""trial"",""time""
""fullscreenenter"",""0"",""3006""
","
","null","<div style=""font-size:60px;"">+</div>","","null","fixation","2021-07-13 19:46:34.403","","","","",""
"","mars-trial","36","73307","0.0-10.0-1.9","954","""event"",""trial"",""time""
""fullscreenenter"",""0"",""3006""
","
","
","""event"",""trial"",""time""
""fullscreenenter"",""0"",""3006""
","
","809.8999999910593","<img style='border: 4px solid darkgrey;' src='img/tf1_10_M_ss3.jpeg'></img>","2","","exp","","2","<img src='img/tf1_10_T1_ss3_md.jpeg'></img>","0","false",""
"","html-keyboard-response","37","73812","0.0-10.0-0.10","954","""event"",""trial"",""time""
""fullscreenenter"",""0"",""3006""
","
","
","""event"",""trial"",""time""
""fullscreenenter"",""0"",""3006""
","
","null","<div style=""font-size:60px;"">+</div>","","null","fixation","2021-07-13 19:46:36.326","","","","",""
"","mars-trial","38","75107","0.0-10.0-1.10","954","""event"",""trial"",""time""
""fullscreenenter"",""0"",""3006""
","
","
","""event"",""trial"",""time""
""fullscreenenter"",""0"",""3006""
","
","686.2999999970198","<img style='border: 4px solid darkgrey;' src='img/tf1_11_M_ss1.jpeg'></img>","2","","exp","","2","<img src='img/tf1_11_T1_ss1_md.jpeg'></img>","0","false",""
"","html-keyboard-response","39","75612","0.0-10.0-0.11","954","""event"",""trial"",""time""
""fullscreenenter"",""0"",""3006""
""fullscreenexit"",""40"",""76458""
""blur"",""40"",""76459""
""focus"",""40"",""78360""
""blur"",""40"",""79269""
""focus"",""40"",""86389""
","""event"",""trial"",""time""
""blur"",""40"",""76459""
""blur"",""40"",""79269""
","""event"",""trial"",""time""
""focus"",""40"",""78360""
""focus"",""40"",""86389""
","""event"",""trial"",""time""
""fullscreenenter"",""0"",""3006""
","""event"",""trial"",""time""
""fullscreenexit"",""40"",""76458""
","null","<div style=""font-size:60px;"">+</div>","","null","fixation","2021-07-13 19:46:38.126","","","","",""
"","mars-trial","40","87841","0.0-10.0-1.11","954","""event"",""trial"",""time""
""fullscreenenter"",""0"",""3006""
""fullscreenexit"",""40"",""76458""
""blur"",""40"",""76459""
""focus"",""40"",""78360""
""blur"",""40"",""79269""
""focus"",""40"",""86389""
","""event"",""trial"",""time""
""blur"",""40"",""76459""
""blur"",""40"",""79269""
","""event"",""trial"",""time""
""focus"",""40"",""78360""
""focus"",""40"",""86389""
","""event"",""trial"",""time""
""fullscreenenter"",""0"",""3006""
","""event"",""trial"",""time""
""fullscreenexit"",""40"",""76458""
","11610.20000000298","<img style='border: 4px solid darkgrey;' src='img/tf1_12_M_ss2.jpeg'></img>","2","","exp","","1","<img src='img/tf1_12_T1_ss2_md.jpeg'></img>","0","false",""
"","html-keyboard-response","41","88346","0.0-10.0-0.12","954","""event"",""trial"",""time""
""fullscreenenter"",""0"",""3006""
""fullscreenexit"",""40"",""76458""
""blur"",""40"",""76459""
""focus"",""40"",""78360""
""blur"",""40"",""79269""
""focus"",""40"",""86389""
","""event"",""trial"",""time""
""blur"",""40"",""76459""
""blur"",""40"",""79269""
","""event"",""trial"",""time""
""focus"",""40"",""78360""
""focus"",""40"",""86389""
","""event"",""trial"",""time""
""fullscreenenter"",""0"",""3006""
","""event"",""trial"",""time""
""fullscreenexit"",""40"",""76458""
","null","<div style=""font-size:60px;"">+</div>","","null","fixation","2021-07-13 19:46:50.860","","","","",""
"","mars-trial","42","92215","0.0-10.0-1.12","954","""event"",""trial"",""time""
""fullscreenenter"",""0"",""3006""
""fullscreenexit"",""40"",""76458""
""blur"",""40"",""76459""
""focus"",""40"",""78360""
""blur"",""40"",""79269""
""focus"",""40"",""86389""
","""event"",""trial"",""time""
""blur"",""40"",""76459""
""blur"",""40"",""79269""
","""event"",""trial"",""time""
""focus"",""40"",""78360""
""focus"",""40"",""86389""
","""event"",""trial"",""time""
""fullscreenenter"",""0"",""3006""
","""event"",""trial"",""time""
""fullscreenexit"",""40"",""76458""
","3252.7999999970198","<img style='border: 4px solid darkgrey;' src='img/tf1_13_M_ss3.jpeg'></img>","3","","exp","","0","<img src='img/tf1_13_T1_ss3_md.jpeg'></img>","0","true",""
"","html-keyboard-response","43","92720","0.0-10.0-0.13","954","""event"",""trial"",""time""
""fullscreenenter"",""0"",""3006""
""fullscreenexit"",""40"",""76458""
""blur"",""40"",""76459""
""focus"",""40"",""78360""
""blur"",""40"",""79269""
""focus"",""40"",""86389""
","""event"",""trial"",""time""
""blur"",""40"",""76459""
""blur"",""40"",""79269""
","""event"",""trial"",""time""
""focus"",""40"",""78360""
""focus"",""40"",""86389""
","""event"",""trial"",""time""
""fullscreenenter"",""0"",""3006""
","""event"",""trial"",""time""
""fullscreenexit"",""40"",""76458""
","null","<div style=""font-size:60px;"">+</div>","","null","fixation","2021-07-13 19:46:55.234","","","","",""
"","mars-trial","44","98935","0.0-10.0-1.13","954","""event"",""trial"",""time""
""fullscreenenter"",""0"",""3006""
""fullscreenexit"",""40"",""76458""
""blur"",""40"",""76459""
""focus"",""40"",""78360""
""blur"",""40"",""79269""
""focus"",""40"",""86389""
","""event"",""trial"",""time""
""blur"",""40"",""76459""
""blur"",""40"",""79269""
","""event"",""trial"",""time""
""focus"",""40"",""78360""
""focus"",""40"",""86389""
","""event"",""trial"",""time""
""fullscreenenter"",""0"",""3006""
","""event"",""trial"",""time""
""fullscreenexit"",""40"",""76458""
","5601.600000008941","<img style='border: 4px solid darkgrey;' src='img/tf1_14_M_ss1.jpeg'></img>","3","","exp","","0","<img src='img/tf1_14_T1_ss1_md.jpeg'></img>","0","true",""
"","html-keyboard-response","45","99439","0.0-10.0-0.14","954","""event"",""trial"",""time""
""fullscreenenter"",""0"",""3006""
""fullscreenexit"",""40"",""76458""
""blur"",""40"",""76459""
""focus"",""40"",""78360""
""blur"",""40"",""79269""
""focus"",""40"",""86389""
","""event"",""trial"",""time""
""blur"",""40"",""76459""
""blur"",""40"",""79269""
","""event"",""trial"",""time""
""focus"",""40"",""78360""
""focus"",""40"",""86389""
","""event"",""trial"",""time""
""fullscreenenter"",""0"",""3006""
","""event"",""trial"",""time""
""fullscreenexit"",""40"",""76458""
","null","<div style=""font-size:60px;"">+</div>","","null","fixation","2021-07-13 19:47:01.953","","","","",""
"","mars-trial","46","100653","0.0-10.0-1.14","954","""event"",""trial"",""time""
""fullscreenenter"",""0"",""3006""
""fullscreenexit"",""40"",""76458""
""blur"",""40"",""76459""
""focus"",""40"",""78360""
""blur"",""40"",""79269""
""focus"",""40"",""86389""
","""event"",""trial"",""time""
""blur"",""40"",""76459""
""blur"",""40"",""79269""
","""event"",""trial"",""time""
""focus"",""40"",""78360""
""focus"",""40"",""86389""
","""event"",""trial"",""time""
""fullscreenenter"",""0"",""3006""
","""event"",""trial"",""time""
""fullscreenexit"",""40"",""76458""
","603.7999999970198","<img style='border: 4px solid darkgrey;' src='img/tf1_15_M_ss2.jpeg'></img>","3","","exp","","0","<img src='img/tf1_15_T1_ss2_md.jpeg'></img>","0","true",""
"","html-keyboard-response","47","101155","0.0-10.0-0.15","954","""event"",""trial"",""time""
""fullscreenenter"",""0"",""3006""
""fullscreenexit"",""40"",""76458""
""blur"",""40"",""76459""
""focus"",""40"",""78360""
""blur"",""40"",""79269""
""focus"",""40"",""86389""
","""event"",""trial"",""time""
""blur"",""40"",""76459""
""blur"",""40"",""79269""
","""event"",""trial"",""time""
""focus"",""40"",""78360""
""focus"",""40"",""86389""
","""event"",""trial"",""time""
""fullscreenenter"",""0"",""3006""
","""event"",""trial"",""time""
""fullscreenexit"",""40"",""76458""
","null","<div style=""font-size:60px;"">+</div>","","null","fixation","2021-07-13 19:47:03.669","","","","",""
"","mars-trial","48","102141","0.0-10.0-1.15","954","""event"",""trial"",""time""
""fullscreenenter"",""0"",""3006""
""fullscreenexit"",""40"",""76458""
""blur"",""40"",""76459""
""focus"",""40"",""78360""
""blur"",""40"",""79269""
""focus"",""40"",""86389""
","""event"",""trial"",""time""
""blur"",""40"",""76459""
""blur"",""40"",""79269""
","""event"",""trial"",""time""
""focus"",""40"",""78360""
""focus"",""40"",""86389""
","""event"",""trial"",""time""
""fullscreenenter"",""0"",""3006""
","""event"",""trial"",""time""
""fullscreenexit"",""40"",""76458""
","379.79999999701977","<img style='border: 4px solid darkgrey;' src='img/tf1_16_M_ss3.jpeg'></img>","3","","exp","","3","<img src='img/tf1_16_T1_ss3_md.jpeg'></img>","0","false",""
"","html-keyboard-response","49","102644","0.0-10.0-0.16","954","""event"",""trial"",""time""
""fullscreenenter"",""0"",""3006""
""fullscreenexit"",""40"",""76458""
""blur"",""40"",""76459""
""focus"",""40"",""78360""
""blur"",""40"",""79269""
""focus"",""40"",""86389""
","""event"",""trial"",""time""
""blur"",""40"",""76459""
""blur"",""40"",""79269""
","""event"",""trial"",""time""
""focus"",""40"",""78360""
""focus"",""40"",""86389""
","""event"",""trial"",""time""
""fullscreenenter"",""0"",""3006""
","""event"",""trial"",""time""
""fullscreenexit"",""40"",""76458""
","null","<div style=""font-size:60px;"">+</div>","","null","fixation","2021-07-13 19:47:05.158","","","","",""
"","mars-trial","50","103515","0.0-10.0-1.16","954","""event"",""trial"",""time""
""fullscreenenter"",""0"",""3006""
""fullscreenexit"",""40"",""76458""
""blur"",""40"",""76459""
""focus"",""40"",""78360""
""blur"",""40"",""79269""
""focus"",""40"",""86389""
","""event"",""trial"",""time""
""blur"",""40"",""76459""
""blur"",""40"",""79269""
","""event"",""trial"",""time""
""focus"",""40"",""78360""
""focus"",""40"",""86389""
","""event"",""trial"",""time""
""fullscreenenter"",""0"",""3006""
","""event"",""trial"",""time""
""fullscreenexit"",""40"",""76458""
","258.90000000596046","<img style='border: 4px solid darkgrey;' src='img/tf1_17_M_ss1.jpeg'></img>","3","","exp","","3","<img src='img/tf1_17_T1_ss1_md.jpeg'></img>","0","false",""
"","html-keyboard-response","51","104020","0.0-10.0-0.17","954","""event"",""trial"",""time""
""fullscreenenter"",""0"",""3006""
""fullscreenexit"",""40"",""76458""
""blur"",""40"",""76459""
""focus"",""40"",""78360""
""blur"",""40"",""79269""
""focus"",""40"",""86389""
","""event"",""trial"",""time""
""blur"",""40"",""76459""
""blur"",""40"",""79269""
","""event"",""trial"",""time""
""focus"",""40"",""78360""
""focus"",""40"",""86389""
","""event"",""trial"",""time""
""fullscreenenter"",""0"",""3006""
","""event"",""trial"",""time""
""fullscreenexit"",""40"",""76458""
","null","<div style=""font-size:60px;"">+</div>","","null","fixation","2021-07-13 19:47:06.534","","","","",""
"","mars-trial","52","105449","0.0-10.0-1.17","954","""event"",""trial"",""time""
""fullscreenenter"",""0"",""3006""
""fullscreenexit"",""40"",""76458""
""blur"",""40"",""76459""
""focus"",""40"",""78360""
""blur"",""40"",""79269""
""focus"",""40"",""86389""
","""event"",""trial"",""time""
""blur"",""40"",""76459""
""blur"",""40"",""79269""
","""event"",""trial"",""time""
""focus"",""40"",""78360""
""focus"",""40"",""86389""
","""event"",""trial"",""time""
""fullscreenenter"",""0"",""3006""
","""event"",""trial"",""time""
""fullscreenexit"",""40"",""76458""
","822.9000000059605","<img style='border: 4px solid darkgrey;' src='img/tf1_18_M_ss2.jpeg'></img>","3","","exp","","3","<img src='img/tf1_18_T1_ss2_md.jpeg'></img>","0","false",""
"","html-keyboard-response","53","105954","0.0-10.0-0.18","954","""event"",""trial"",""time""
""fullscreenenter"",""0"",""3006""
""fullscreenexit"",""40"",""76458""
""blur"",""40"",""76459""
""focus"",""40"",""78360""
""blur"",""40"",""79269""
""focus"",""40"",""86389""
","""event"",""trial"",""time""
""blur"",""40"",""76459""
""blur"",""40"",""79269""
","""event"",""trial"",""time""
""focus"",""40"",""78360""
""focus"",""40"",""86389""
","""event"",""trial"",""time""
""fullscreenenter"",""0"",""3006""
","""event"",""trial"",""time""
""fullscreenexit"",""40"",""76458""
","null","<div style=""font-size:60px;"">+</div>","","null","fixation","2021-07-13 19:47:08.468","","","","",""
"","mars-trial","54","107672","0.0-10.0-1.18","954","""event"",""trial"",""time""
""fullscreenenter"",""0"",""3006""
""fullscreenexit"",""40"",""76458""
""blur"",""40"",""76459""
""focus"",""40"",""78360""
""blur"",""40"",""79269""
""focus"",""40"",""86389""
","""event"",""trial"",""time""
""blur"",""40"",""76459""
""blur"",""40"",""79269""
","""event"",""trial"",""time""
""focus"",""40"",""78360""
""focus"",""40"",""86389""
","""event"",""trial"",""time""
""fullscreenenter"",""0"",""3006""
","""event"",""trial"",""time""
""fullscreenexit"",""40"",""76458""
","1105.4000000059605","<img style='border: 4px solid darkgrey;' src='img/tf1_19_M_ss3.jpeg'></img>","1","","exp","","1","<img src='img/tf1_19_T1_ss3_md.jpeg'></img>","0","false",""
"","html-keyboard-response","55","108173","0.0-10.0-0.19","954","""event"",""trial"",""time""
""fullscreenenter"",""0"",""3006""
""fullscreenexit"",""40"",""76458""
""blur"",""40"",""76459""
""focus"",""40"",""78360""
""blur"",""40"",""79269""
""focus"",""40"",""86389""
","""event"",""trial"",""time""
""blur"",""40"",""76459""
""blur"",""40"",""79269""
","""event"",""trial"",""time""
""focus"",""40"",""78360""
""focus"",""40"",""86389""
","""event"",""trial"",""time""
""fullscreenenter"",""0"",""3006""
","""event"",""trial"",""time""
""fullscreenexit"",""40"",""76458""
","null","<div style=""font-size:60px;"">+</div>","","null","fixation","2021-07-13 19:47:10.688","","","","",""
"","mars-trial","56","110100","0.0-10.0-1.19","954","""event"",""trial"",""time""
""fullscreenenter"",""0"",""3006""
""fullscreenexit"",""40"",""76458""
""blur"",""40"",""76459""
""focus"",""40"",""78360""
""blur"",""40"",""79269""
""focus"",""40"",""86389""
","""event"",""trial"",""time""
""blur"",""40"",""76459""
""blur"",""40"",""79269""
","""event"",""trial"",""time""
""focus"",""40"",""78360""
""focus"",""40"",""86389""
","""event"",""trial"",""time""
""fullscreenenter"",""0"",""3006""
","""event"",""trial"",""time""
""fullscreenexit"",""40"",""76458""
","1321.800000011921","<img style='border: 4px solid darkgrey;' src='img/tf1_20_M_ss1.jpeg'></img>","0","","exp","","3","<img src='img/tf1_20_T1_ss1_md.jpeg'></img>","0","false",""
"","html-keyboard-response","57","110603","0.0-10.0-0.20","954","""event"",""trial"",""time""
""fullscreenenter"",""0"",""3006""
""fullscreenexit"",""40"",""76458""
""blur"",""40"",""76459""
""focus"",""40"",""78360""
""blur"",""40"",""79269""
""focus"",""40"",""86389""
","""event"",""trial"",""time""
""blur"",""40"",""76459""
""blur"",""40"",""79269""
","""event"",""trial"",""time""
""focus"",""40"",""78360""
""focus"",""40"",""86389""
","""event"",""trial"",""time""
""fullscreenenter"",""0"",""3006""
","""event"",""trial"",""time""
""fullscreenexit"",""40"",""76458""
","null","<div style=""font-size:60px;"">+</div>","","null","fixation","2021-07-13 19:47:13.117","","","","",""
"","mars-trial","58","111610","0.0-10.0-1.20","954","""event"",""trial"",""time""
""fullscreenenter"",""0"",""3006""
""fullscreenexit"",""40"",""76458""
""blur"",""40"",""76459""
""focus"",""40"",""78360""
""blur"",""40"",""79269""
""focus"",""40"",""86389""
","""event"",""trial"",""time""
""blur"",""40"",""76459""
""blur"",""40"",""79269""
","""event"",""trial"",""time""
""focus"",""40"",""78360""
""focus"",""40"",""86389""
","""event"",""trial"",""time""
""fullscreenenter"",""0"",""3006""
","""event"",""trial"",""time""
""fullscreenexit"",""40"",""76458""
","399.5","<img style='border: 4px solid darkgrey;' src='img/tf1_21_M_ss2.jpeg'></img>","3","","exp","","0","<img src='img/tf1_21_T1_ss2_md.jpeg'></img>","0","true",""
"","html-keyboard-response","59","112114","0.0-10.0-0.21","954","""event"",""trial"",""time""
""fullscreenenter"",""0"",""3006""
""fullscreenexit"",""40"",""76458""
""blur"",""40"",""76459""
""focus"",""40"",""78360""
""blur"",""40"",""79269""
""focus"",""40"",""86389""
","""event"",""trial"",""time""
""blur"",""40"",""76459""
""blur"",""40"",""79269""
","""event"",""trial"",""time""
""focus"",""40"",""78360""
""focus"",""40"",""86389""
","""event"",""trial"",""time""
""fullscreenenter"",""0"",""3006""
","""event"",""trial"",""time""
""fullscreenexit"",""40"",""76458""
","null","<div style=""font-size:60px;"">+</div>","","null","fixation","2021-07-13 19:47:14.628","","","","",""
"","mars-trial","60","113299","0.0-10.0-1.21","954","""event"",""trial"",""time""
""fullscreenenter"",""0"",""3006""
""fullscreenexit"",""40"",""76458""
""blur"",""40"",""76459""
""focus"",""40"",""78360""
""blur"",""40"",""79269""
""focus"",""40"",""86389""
","""event"",""trial"",""time""
""blur"",""40"",""76459""
""blur"",""40"",""79269""
","""event"",""trial"",""time""
""focus"",""40"",""78360""
""focus"",""40"",""86389""
","""event"",""trial"",""time""
""fullscreenenter"",""0"",""3006""
","""event"",""trial"",""time""
""fullscreenexit"",""40"",""76458""
","573.2000000029802","<img style='border: 4px solid darkgrey;' src='img/tf1_22_M_ss3.jpeg'></img>","3","","exp","","1","<img src='img/tf1_22_T1_ss3_md.jpeg'></img>","0","false",""
"","html-keyboard-response","61","113803","0.0-10.0-0.22","954","""event"",""trial"",""time""
""fullscreenenter"",""0"",""3006""
""fullscreenexit"",""40"",""76458""
""blur"",""40"",""76459""
""focus"",""40"",""78360""
""blur"",""40"",""79269""
""focus"",""40"",""86389""
","""event"",""trial"",""time""
""blur"",""40"",""76459""
""blur"",""40"",""79269""
","""event"",""trial"",""time""
""focus"",""40"",""78360""
""focus"",""40"",""86389""
","""event"",""trial"",""time""
""fullscreenenter"",""0"",""3006""
","""event"",""trial"",""time""
""fullscreenexit"",""40"",""76458""
","null","<div style=""font-size:60px;"">+</div>","","null","fixation","2021-07-13 19:47:16.317","","","","",""
"","mars-trial","62","116464","0.0-10.0-1.22","954","""event"",""trial"",""time""
""fullscreenenter"",""0"",""3006""
""fullscreenexit"",""40"",""76458""
""blur"",""40"",""76459""
""focus"",""40"",""78360""
""blur"",""40"",""79269""
""focus"",""40"",""86389""
","""event"",""trial"",""time""
""blur"",""40"",""76459""
""blur"",""40"",""79269""
","""event"",""trial"",""time""
""focus"",""40"",""78360""
""focus"",""40"",""86389""
","""event"",""trial"",""time""
""fullscreenenter"",""0"",""3006""
","""event"",""trial"",""time""
""fullscreenexit"",""40"",""76458""
","2052.199999988079","<img style='border: 4px solid darkgrey;' src='img/tf1_23_M_ss1.jpeg'></img>","3","","exp","","2","<img src='img/tf1_23_T1_ss1_md.jpeg'></img>","0","false",""
"","html-keyboard-response","63","116967","0.0-10.0-0.23","954","""event"",""trial"",""time""
""fullscreenenter"",""0"",""3006""
""fullscreenexit"",""40"",""76458""
""blur"",""40"",""76459""
""focus"",""40"",""78360""
""blur"",""40"",""79269""
""focus"",""40"",""86389""
","""event"",""trial"",""time""
""blur"",""40"",""76459""
""blur"",""40"",""79269""
","""event"",""trial"",""time""
""focus"",""40"",""78360""
""focus"",""40"",""86389""
","""event"",""trial"",""time""
""fullscreenenter"",""0"",""3006""
","""event"",""trial"",""time""
""fullscreenexit"",""40"",""76458""
","null","<div style=""font-size:60px;"">+</div>","","null","fixation","2021-07-13 19:47:19.481","","","","",""
"","mars-trial","64","119424","0.0-10.0-1.23","954","""event"",""trial"",""time""
""fullscreenenter"",""0"",""3006""
""fullscreenexit"",""40"",""76458""
""blur"",""40"",""76459""
""focus"",""40"",""78360""
""blur"",""40"",""79269""
""focus"",""40"",""86389""
","""event"",""trial"",""time""
""blur"",""40"",""76459""
""blur"",""40"",""79269""
","""event"",""trial"",""time""
""focus"",""40"",""78360""
""focus"",""40"",""86389""
","""event"",""trial"",""time""
""fullscreenenter"",""0"",""3006""
","""event"",""trial"",""time""
""fullscreenexit"",""40"",""76458""
","1846.7999999970198","<img style='border: 4px solid darkgrey;' src='img/tf1_24_M_ss2.jpeg'></img>","3","","exp","","1","<img src='img/tf1_24_T1_ss2_md.jpeg'></img>","0","false",""
"","html-keyboard-response","65","119929","0.0-10.0-0.24","954","""event"",""trial"",""time""
""fullscreenenter"",""0"",""3006""
""fullscreenexit"",""40"",""76458""
""blur"",""40"",""76459""
""focus"",""40"",""78360""
""blur"",""40"",""79269""
""focus"",""40"",""86389""
","""event"",""trial"",""time""
""blur"",""40"",""76459""
""blur"",""40"",""79269""
","""event"",""trial"",""time""
""focus"",""40"",""78360""
""focus"",""40"",""86389""
","""event"",""trial"",""time""
""fullscreenenter"",""0"",""3006""
","""event"",""trial"",""time""
""fullscreenexit"",""40"",""76458""
","null","<div style=""font-size:60px;"">+</div>","","null","fixation","2021-07-13 19:47:22.443","","","","",""
"","mars-trial","66","121360","0.0-10.0-1.24","954","""event"",""trial"",""time""
""fullscreenenter"",""0"",""3006""
""fullscreenexit"",""40"",""76458""
""blur"",""40"",""76459""
""focus"",""40"",""78360""
""blur"",""40"",""79269""
""focus"",""40"",""86389""
","""event"",""trial"",""time""
""blur"",""40"",""76459""
""blur"",""40"",""79269""
","""event"",""trial"",""time""
""focus"",""40"",""78360""
""focus"",""40"",""86389""
","""event"",""trial"",""time""
""fullscreenenter"",""0"",""3006""
","""event"",""trial"",""time""
""fullscreenexit"",""40"",""76458""
","823.5","<img style='border: 4px solid darkgrey;' src='img/tf1_25_M_ss3.jpeg'></img>","3","","exp","","0","<img src='img/tf1_25_T1_ss3_md.jpeg'></img>","0","true",""
"","html-keyboard-response","67","121866","0.0-10.0-0.25","954","""event"",""trial"",""time""
""fullscreenenter"",""0"",""3006""
""fullscreenexit"",""40"",""76458""
""blur"",""40"",""76459""
""focus"",""40"",""78360""
""blur"",""40"",""79269""
""focus"",""40"",""86389""
","""event"",""trial"",""time""
""blur"",""40"",""76459""
""blur"",""40"",""79269""
","""event"",""trial"",""time""
""focus"",""40"",""78360""
""focus"",""40"",""86389""
","""event"",""trial"",""time""
""fullscreenenter"",""0"",""3006""
","""event"",""trial"",""time""
""fullscreenexit"",""40"",""76458""
","null","<div style=""font-size:60px;"">+</div>","","null","fixation","2021-07-13 19:47:24.381","","","","",""
"","mars-trial","68","123754","0.0-10.0-1.25","954","""event"",""trial"",""time""
""fullscreenenter"",""0"",""3006""
""fullscreenexit"",""40"",""76458""
""blur"",""40"",""76459""
""focus"",""40"",""78360""
""blur"",""40"",""79269""
""focus"",""40"",""86389""
","""event"",""trial"",""time""
""blur"",""40"",""76459""
""blur"",""40"",""79269""
","""event"",""trial"",""time""
""focus"",""40"",""78360""
""focus"",""40"",""86389""
","""event"",""trial"",""time""
""fullscreenenter"",""0"",""3006""
","""event"",""trial"",""time""
""fullscreenexit"",""40"",""76458""
","1274.7999999970198","<img style='border: 4px solid darkgrey;' src='img/tf1_26_M_ss1.jpeg'></img>","3","","exp","","2","<img src='img/tf1_26_T1_ss1_md.jpeg'></img>","0","false",""
"","html-keyboard-response","69","124259","0.0-10.0-0.26","954","""event"",""trial"",""time""
""fullscreenenter"",""0"",""3006""
""fullscreenexit"",""40"",""76458""
""blur"",""40"",""76459""
""focus"",""40"",""78360""
""blur"",""40"",""79269""
""focus"",""40"",""86389""
","""event"",""trial"",""time""
""blur"",""40"",""76459""
""blur"",""40"",""79269""
","""event"",""trial"",""time""
""focus"",""40"",""78360""
""focus"",""40"",""86389""
","""event"",""trial"",""time""
""fullscreenenter"",""0"",""3006""
","""event"",""trial"",""time""
""fullscreenexit"",""40"",""76458""
","null","<div style=""font-size:60px;"">+</div>","","null","fixation","2021-07-13 19:47:26.773","","","","",""
"","mars-trial","70","125739","0.0-10.0-1.26","954","""event"",""trial"",""time""
""fullscreenenter"",""0"",""3006""
""fullscreenexit"",""40"",""76458""
""blur"",""40"",""76459""
""focus"",""40"",""78360""
""blur"",""40"",""79269""
""focus"",""40"",""86389""
","""event"",""trial"",""time""
""blur"",""40"",""76459""
""blur"",""40"",""79269""
","""event"",""trial"",""time""
""focus"",""40"",""78360""
""focus"",""40"",""86389""
","""event"",""trial"",""time""
""fullscreenenter"",""0"",""3006""
","""event"",""trial"",""time""
""fullscreenexit"",""40"",""76458""
","872.6000000089407","<img style='border: 4px solid darkgrey;' src='img/tf1_27_M_ss2.jpeg'></img>","3","","exp","","2","<img src='img/tf1_27_T1_ss2_md.jpeg'></img>","0","false",""
"","html-keyboard-response","71","126245","0.0-10.0-0.27","954","""event"",""trial"",""time""
""fullscreenenter"",""0"",""3006""
""fullscreenexit"",""40"",""76458""
""blur"",""40"",""76459""
""focus"",""40"",""78360""
""blur"",""40"",""79269""
""focus"",""40"",""86389""
","""event"",""trial"",""time""
""blur"",""40"",""76459""
""blur"",""40"",""79269""
","""event"",""trial"",""time""
""focus"",""40"",""78360""
""focus"",""40"",""86389""
","""event"",""trial"",""time""
""fullscreenenter"",""0"",""3006""
","""event"",""trial"",""time""
""fullscreenexit"",""40"",""76458""
","null","<div style=""font-size:60px;"">+</div>","","null","fixation","2021-07-13 19:47:28.759","","","","",""
"","mars-trial","72","128302","0.0-10.0-1.27","954","""event"",""trial"",""time""
""fullscreenenter"",""0"",""3006""
""fullscreenexit"",""40"",""76458""
""blur"",""40"",""76459""
""focus"",""40"",""78360""
""blur"",""40"",""79269""
""focus"",""40"",""86389""
","""event"",""trial"",""time""
""blur"",""40"",""76459""
""blur"",""40"",""79269""
","""event"",""trial"",""time""
""focus"",""40"",""78360""
""focus"",""40"",""86389""
","""event"",""trial"",""time""
""fullscreenenter"",""0"",""3006""
","""event"",""trial"",""time""
""fullscreenexit"",""40"",""76458""
","1447.7999999970198","<img style='border: 4px solid darkgrey;' src='img/tf1_28_M_ss3.jpeg'></img>","3","","exp","","2","<img src='img/tf1_28_T1_ss3_md.jpeg'></img>","0","false",""
"","html-keyboard-response","73","128805","0.0-10.0-0.28","954","""event"",""trial"",""time""
""fullscreenenter"",""0"",""3006""
""fullscreenexit"",""40"",""76458""
""blur"",""40"",""76459""
""focus"",""40"",""78360""
""blur"",""40"",""79269""
""focus"",""40"",""86389""
","""event"",""trial"",""time""
""blur"",""40"",""76459""
""blur"",""40"",""79269""
","""event"",""trial"",""time""
""focus"",""40"",""78360""
""focus"",""40"",""86389""
","""event"",""trial"",""time""
""fullscreenenter"",""0"",""3006""
","""event"",""trial"",""time""
""fullscreenexit"",""40"",""76458""
","null","<div style=""font-size:60px;"">+</div>","","null","fixation","2021-07-13 19:47:31.319","","","","",""
"","mars-trial","74","131491","0.0-10.0-1.28","954","""event"",""trial"",""time""
""fullscreenenter"",""0"",""3006""
""fullscreenexit"",""40"",""76458""
""blur"",""40"",""76459""
""focus"",""40"",""78360""
""blur"",""40"",""79269""
""focus"",""40"",""86389""
","""event"",""trial"",""time""
""blur"",""40"",""76459""
""blur"",""40"",""79269""
","""event"",""trial"",""time""
""focus"",""40"",""78360""
""focus"",""40"",""86389""
","""event"",""trial"",""time""
""fullscreenenter"",""0"",""3006""
","""event"",""trial"",""time""
""fullscreenexit"",""40"",""76458""
","2076.0999999940395","<img style='border: 4px solid darkgrey;' src='img/tf1_29_M_ss1.jpeg'></img>","3","","exp","","3","<img src='img/tf1_29_T1_ss1_md.jpeg'></img>","0","false",""
"","html-keyboard-response","75","131992","0.0-10.0-0.29","954","""event"",""trial"",""time""
""fullscreenenter"",""0"",""3006""
""fullscreenexit"",""40"",""76458""
""blur"",""40"",""76459""
""focus"",""40"",""78360""
""blur"",""40"",""79269""
""focus"",""40"",""86389""
","""event"",""trial"",""time""
""blur"",""40"",""76459""
""blur"",""40"",""79269""
","""event"",""trial"",""time""
""focus"",""40"",""78360""
""focus"",""40"",""86389""
","""event"",""trial"",""time""
""fullscreenenter"",""0"",""3006""
","""event"",""trial"",""time""
""fullscreenexit"",""40"",""76458""
","null","<div style=""font-size:60px;"">+</div>","","null","fixation","2021-07-13 19:47:34.506","","","","",""
"","mars-trial","76","133681","0.0-10.0-1.29","954","""event"",""trial"",""time""
""fullscreenenter"",""0"",""3006""
""fullscreenexit"",""40"",""76458""
""blur"",""40"",""76459""
""focus"",""40"",""78360""
""blur"",""40"",""79269""
""focus"",""40"",""86389""
","""event"",""trial"",""time""
""blur"",""40"",""76459""
""blur"",""40"",""79269""
","""event"",""trial"",""time""
""focus"",""40"",""78360""
""focus"",""40"",""86389""
","""event"",""trial"",""time""
""fullscreenenter"",""0"",""3006""
","""event"",""trial"",""time""
""fullscreenexit"",""40"",""76458""
","1077.8999999910593","<img style='border: 4px solid darkgrey;' src='img/tf1_30_M_ss2.jpeg'></img>","3","","exp","","2","<img src='img/tf1_30_T1_ss2_md.jpeg'></img>","0","false",""
"","html-keyboard-response","77","134183","0.0-10.0-0.30","954","""event"",""trial"",""time""
""fullscreenenter"",""0"",""3006""
""fullscreenexit"",""40"",""76458""
""blur"",""40"",""76459""
""focus"",""40"",""78360""
""blur"",""40"",""79269""
""focus"",""40"",""86389""
","""event"",""trial"",""time""
""blur"",""40"",""76459""
""blur"",""40"",""79269""
","""event"",""trial"",""time""
""focus"",""40"",""78360""
""focus"",""40"",""86389""
","""event"",""trial"",""time""
""fullscreenenter"",""0"",""3006""
","""event"",""trial"",""time""
""fullscreenexit"",""40"",""76458""
","null","<div style=""font-size:60px;"">+</div>","","null","fixation","2021-07-13 19:47:36.697","","","","",""
"","mars-trial","78","135278","0.0-10.0-1.30","954","""event"",""trial"",""time""
""fullscreenenter"",""0"",""3006""
""fullscreenexit"",""40"",""76458""
""blur"",""40"",""76459""
""focus"",""40"",""78360""
""blur"",""40"",""79269""
""focus"",""40"",""86389""
","""event"",""trial"",""time""
""blur"",""40"",""76459""
""blur"",""40"",""79269""
","""event"",""trial"",""time""
""focus"",""40"",""78360""
""focus"",""40"",""86389""
","""event"",""trial"",""time""
""fullscreenenter"",""0"",""3006""
","""event"",""trial"",""time""
""fullscreenexit"",""40"",""76458""
","486.59999999403954","<img style='border: 4px solid darkgrey;' src='img/tf1_31_M_ss3.jpeg'></img>","3","","exp","","1","<img src='img/tf1_31_T1_ss3_md.jpeg'></img>","0","false",""
"","html-keyboard-response","79","135780","0.0-10.0-0.31","954","""event"",""trial"",""time""
""fullscreenenter"",""0"",""3006""
""fullscreenexit"",""40"",""76458""
""blur"",""40"",""76459""
""focus"",""40"",""78360""
""blur"",""40"",""79269""
""focus"",""40"",""86389""
","""event"",""trial"",""time""
""blur"",""40"",""76459""
""blur"",""40"",""79269""
","""event"",""trial"",""time""
""focus"",""40"",""78360""
""focus"",""40"",""86389""
","""event"",""trial"",""time""
""fullscreenenter"",""0"",""3006""
","""event"",""trial"",""time""
""fullscreenexit"",""40"",""76458""
","null","<div style=""font-size:60px;"">+</div>","","null","fixation","2021-07-13 19:47:38.294","","","","",""
"","mars-trial","80","137385","0.0-10.0-1.31","954","""event"",""trial"",""time""
""fullscreenenter"",""0"",""3006""
""fullscreenexit"",""40"",""76458""
""blur"",""40"",""76459""
""focus"",""40"",""78360""
""blur"",""40"",""79269""
""focus"",""40"",""86389""
","""event"",""trial"",""time""
""blur"",""40"",""76459""
""blur"",""40"",""79269""
","""event"",""trial"",""time""
""focus"",""40"",""78360""
""focus"",""40"",""86389""
","""event"",""trial"",""time""
""fullscreenenter"",""0"",""3006""
","""event"",""trial"",""time""
""fullscreenexit"",""40"",""76458""
","996.5","<img style='border: 4px solid darkgrey;' src='img/tf1_32_M_ss1.jpeg'></img>","3","","exp","","3","<img src='img/tf1_32_T1_ss1_md.jpeg'></img>","0","false",""
"","html-keyboard-response","81","137891","0.0-10.0-0.32","954","""event"",""trial"",""time""
""fullscreenenter"",""0"",""3006""
""fullscreenexit"",""40"",""76458""
""blur"",""40"",""76459""
""focus"",""40"",""78360""
""blur"",""40"",""79269""
""focus"",""40"",""86389""
","""event"",""trial"",""time""
""blur"",""40"",""76459""
""blur"",""40"",""79269""
","""event"",""trial"",""time""
""focus"",""40"",""78360""
""focus"",""40"",""86389""
","""event"",""trial"",""time""
""fullscreenenter"",""0"",""3006""
","""event"",""trial"",""time""
""fullscreenexit"",""40"",""76458""
","null","<div style=""font-size:60px;"">+</div>","","null","fixation","2021-07-13 19:47:40.405","","","","",""
"","mars-trial","82","138982","0.0-10.0-1.32","954","""event"",""trial"",""time""
""fullscreenenter"",""0"",""3006""
""fullscreenexit"",""40"",""76458""
""blur"",""40"",""76459""
""focus"",""40"",""78360""
""blur"",""40"",""79269""
""focus"",""40"",""86389""
","""event"",""trial"",""time""
""blur"",""40"",""76459""
""blur"",""40"",""79269""
","""event"",""trial"",""time""
""focus"",""40"",""78360""
""focus"",""40"",""86389""
","""event"",""trial"",""time""
""fullscreenenter"",""0"",""3006""
","""event"",""trial"",""time""
""fullscreenexit"",""40"",""76458""
","482.79999999701977","<img style='border: 4px solid darkgrey;' src='img/tf1_33_M_ss2.jpeg'></img>","3","","exp","","2","<img src='img/tf1_33_T1_ss2_md.jpeg'></img>","0","false",""
"","html-keyboard-response","83","139486","0.0-10.0-0.33","954","""event"",""trial"",""time""
""fullscreenenter"",""0"",""3006""
""fullscreenexit"",""40"",""76458""
""blur"",""40"",""76459""
""focus"",""40"",""78360""
""blur"",""40"",""79269""
""focus"",""40"",""86389""
","""event"",""trial"",""time""
""blur"",""40"",""76459""
""blur"",""40"",""79269""
","""event"",""trial"",""time""
""focus"",""40"",""78360""
""focus"",""40"",""86389""
","""event"",""trial"",""time""
""fullscreenenter"",""0"",""3006""
","""event"",""trial"",""time""
""fullscreenexit"",""40"",""76458""
","null","<div style=""font-size:60px;"">+</div>","","null","fixation","2021-07-13 19:47:42.000","","","","",""
"","mars-trial","84","141012","0.0-10.0-1.33","954","""event"",""trial"",""time""
""fullscreenenter"",""0"",""3006""
""fullscreenexit"",""40"",""76458""
""blur"",""40"",""76459""
""focus"",""40"",""78360""
""blur"",""40"",""79269""
""focus"",""40"",""86389""
","""event"",""trial"",""time""
""blur"",""40"",""76459""
""blur"",""40"",""79269""
","""event"",""trial"",""time""
""focus"",""40"",""78360""
""focus"",""40"",""86389""
","""event"",""trial"",""time""
""fullscreenenter"",""0"",""3006""
","""event"",""trial"",""time""
""fullscreenexit"",""40"",""76458""
","917.2000000029802","<img style='border: 4px solid darkgrey;' src='img/tf1_34_M_ss3.jpeg'></img>","3","","exp","","3","<img src='img/tf1_34_T1_ss3_md.jpeg'></img>","0","false",""
"","html-keyboard-response","85","141518","0.0-10.0-0.34","954","""event"",""trial"",""time""
""fullscreenenter"",""0"",""3006""
""fullscreenexit"",""40"",""76458""
""blur"",""40"",""76459""
""focus"",""40"",""78360""
""blur"",""40"",""79269""
""focus"",""40"",""86389""
","""event"",""trial"",""time""
""blur"",""40"",""76459""
""blur"",""40"",""79269""
","""event"",""trial"",""time""
""focus"",""40"",""78360""
""focus"",""40"",""86389""
","""event"",""trial"",""time""
""fullscreenenter"",""0"",""3006""
","""event"",""trial"",""time""
""fullscreenexit"",""40"",""76458""
","null","<div style=""font-size:60px;"">+</div>","","null","fixation","2021-07-13 19:47:44.032","","","","",""
"","mars-trial","86","142407","0.0-10.0-1.34","954","""event"",""trial"",""time""
""fullscreenenter"",""0"",""3006""
""fullscreenexit"",""40"",""76458""
""blur"",""40"",""76459""
""focus"",""40"",""78360""
""blur"",""40"",""79269""
""focus"",""40"",""86389""
","""event"",""trial"",""time""
""blur"",""40"",""76459""
""blur"",""40"",""79269""
","""event"",""trial"",""time""
""focus"",""40"",""78360""
""focus"",""40"",""86389""
","""event"",""trial"",""time""
""fullscreenenter"",""0"",""3006""
","""event"",""trial"",""time""
""fullscreenexit"",""40"",""76458""
","280","<img style='border: 4px solid darkgrey;' src='img/tf1_35_M_ss1.jpeg'></img>","3","","exp","","0","<img src='img/tf1_35_T1_ss1_md.jpeg'></img>","0","true",""
"","html-keyboard-response","87","142911","0.0-10.0-0.35","954","""event"",""trial"",""time""
""fullscreenenter"",""0"",""3006""
""fullscreenexit"",""40"",""76458""
""blur"",""40"",""76459""
""focus"",""40"",""78360""
""blur"",""40"",""79269""
""focus"",""40"",""86389""
","""event"",""trial"",""time""
""blur"",""40"",""76459""
""blur"",""40"",""79269""
","""event"",""trial"",""time""
""focus"",""40"",""78360""
""focus"",""40"",""86389""
","""event"",""trial"",""time""
""fullscreenenter"",""0"",""3006""
","""event"",""trial"",""time""
""fullscreenexit"",""40"",""76458""
","null","<div style=""font-size:60px;"">+</div>","","null","fixation","2021-07-13 19:47:45.425","","","","",""
"","mars-trial","88","143823","0.0-10.0-1.35","954","""event"",""trial"",""time""
""fullscreenenter"",""0"",""3006""
""fullscreenexit"",""40"",""76458""
""blur"",""40"",""76459""
""focus"",""40"",""78360""
""blur"",""40"",""79269""
""focus"",""40"",""86389""
","""event"",""trial"",""time""
""blur"",""40"",""76459""
""blur"",""40"",""79269""
","""event"",""trial"",""time""
""focus"",""40"",""78360""
""focus"",""40"",""86389""
","""event"",""trial"",""time""
""fullscreenenter"",""0"",""3006""
","""event"",""trial"",""time""
""fullscreenexit"",""40"",""76458""
","303.3999999910593","<img style='border: 4px solid darkgrey;' src='img/tf1_36_M_ss2.jpeg'></img>","3","","exp","","1","<img src='img/tf1_36_T1_ss2_md.jpeg'></img>","0","false",""
"","html-keyboard-response","89","144328","0.0-10.0-0.36","954","""event"",""trial"",""time""
""fullscreenenter"",""0"",""3006""
""fullscreenexit"",""40"",""76458""
""blur"",""40"",""76459""
""focus"",""40"",""78360""
""blur"",""40"",""79269""
""focus"",""40"",""86389""
","""event"",""trial"",""time""
""blur"",""40"",""76459""
""blur"",""40"",""79269""
","""event"",""trial"",""time""
""focus"",""40"",""78360""
""focus"",""40"",""86389""
","""event"",""trial"",""time""
""fullscreenenter"",""0"",""3006""
","""event"",""trial"",""time""
""fullscreenexit"",""40"",""76458""
","null","<div style=""font-size:60px;"">+</div>","","null","fixation","2021-07-13 19:47:46.842","","","","",""
"","mars-trial","90","146534","0.0-10.0-1.36","954","""event"",""trial"",""time""
""fullscreenenter"",""0"",""3006""
""fullscreenexit"",""40"",""76458""
""blur"",""40"",""76459""
""focus"",""40"",""78360""
""blur"",""40"",""79269""
""focus"",""40"",""86389""
","""event"",""trial"",""time""
""blur"",""40"",""76459""
""blur"",""40"",""79269""
","""event"",""trial"",""time""
""focus"",""40"",""78360""
""focus"",""40"",""86389""
","""event"",""trial"",""time""
""fullscreenenter"",""0"",""3006""
","""event"",""trial"",""time""
""fullscreenexit"",""40"",""76458""
","1596.2999999970198","<img style='border: 4px solid darkgrey;' src='img/tf1_37_M_ss3.jpeg'></img>","3","","exp","","1","<img src='img/tf1_37_T1_ss3_md.jpeg'></img>","0","false",""
"","html-keyboard-response","91","147035","0.0-10.0-0.37","954","""event"",""trial"",""time""
""fullscreenenter"",""0"",""3006""
""fullscreenexit"",""40"",""76458""
""blur"",""40"",""76459""
""focus"",""40"",""78360""
""blur"",""40"",""79269""
""focus"",""40"",""86389""
","""event"",""trial"",""time""
""blur"",""40"",""76459""
""blur"",""40"",""79269""
","""event"",""trial"",""time""
""focus"",""40"",""78360""
""focus"",""40"",""86389""
","""event"",""trial"",""time""
""fullscreenenter"",""0"",""3006""
","""event"",""trial"",""time""
""fullscreenexit"",""40"",""76458""
","null","<div style=""font-size:60px;"">+</div>","","null","fixation","2021-07-13 19:47:49.549","","","","",""
"","mars-trial","92","149141","0.0-10.0-1.37","954","""event"",""trial"",""time""
""fullscreenenter"",""0"",""3006""
""fullscreenexit"",""40"",""76458""
""blur"",""40"",""76459""
""focus"",""40"",""78360""
""blur"",""40"",""79269""
""focus"",""40"",""86389""
","""event"",""trial"",""time""
""blur"",""40"",""76459""
""blur"",""40"",""79269""
","""event"",""trial"",""time""
""focus"",""40"",""78360""
""focus"",""40"",""86389""
","""event"",""trial"",""time""
""fullscreenenter"",""0"",""3006""
","""event"",""trial"",""time""
""fullscreenexit"",""40"",""76458""
","1499.2999999970198","<img style='border: 4px solid darkgrey;' src='img/tf1_38_M_ss1.jpeg'></img>","3","","exp","","0","<img src='img/tf1_38_T1_ss1_md.jpeg'></img>","0","true",""
"","html-keyboard-response","93","149645","0.0-10.0-0.38","954","""event"",""trial"",""time""
""fullscreenenter"",""0"",""3006""
""fullscreenexit"",""40"",""76458""
""blur"",""40"",""76459""
""focus"",""40"",""78360""
""blur"",""40"",""79269""
""focus"",""40"",""86389""
","""event"",""trial"",""time""
""blur"",""40"",""76459""
""blur"",""40"",""79269""
","""event"",""trial"",""time""
""focus"",""40"",""78360""
""focus"",""40"",""86389""
","""event"",""trial"",""time""
""fullscreenenter"",""0"",""3006""
","""event"",""trial"",""time""
""fullscreenexit"",""40"",""76458""
","null","<div style=""font-size:60px;"">+</div>","","null","fixation","2021-07-13 19:47:52.159","","","","",""
"","mars-trial","94","151921","0.0-10.0-1.38","954","""event"",""trial"",""time""
""fullscreenenter"",""0"",""3006""
""fullscreenexit"",""40"",""76458""
""blur"",""40"",""76459""
""focus"",""40"",""78360""
""blur"",""40"",""79269""
""focus"",""40"",""86389""
","""event"",""trial"",""time""
""blur"",""40"",""76459""
""blur"",""40"",""79269""
","""event"",""trial"",""time""
""focus"",""40"",""78360""
""focus"",""40"",""86389""
","""event"",""trial"",""time""
""fullscreenenter"",""0"",""3006""
","""event"",""trial"",""time""
""fullscreenexit"",""40"",""76458""
","1667.199999988079","<img style='border: 4px solid darkgrey;' src='img/tf1_39_M_ss2.jpeg'></img>","3","","exp","","3","<img src='img/tf1_39_T1_ss2_md.jpeg'></img>","0","false",""
"","html-keyboard-response","95","152426","0.0-10.0-0.39","954","""event"",""trial"",""time""
""fullscreenenter"",""0"",""3006""
""fullscreenexit"",""40"",""76458""
""blur"",""40"",""76459""
""focus"",""40"",""78360""
""blur"",""40"",""79269""
""focus"",""40"",""86389""
","""event"",""trial"",""time""
""blur"",""40"",""76459""
""blur"",""40"",""79269""
","""event"",""trial"",""time""
""focus"",""40"",""78360""
""focus"",""40"",""86389""
","""event"",""trial"",""time""
""fullscreenenter"",""0"",""3006""
","""event"",""trial"",""time""
""fullscreenexit"",""40"",""76458""
","null","<div style=""font-size:60px;"">+</div>","","null","fixation","2021-07-13 19:47:54.940","","","","",""
"","mars-trial","96","154320","0.0-10.0-1.39","954","""event"",""trial"",""time""
""fullscreenenter"",""0"",""3006""
""fullscreenexit"",""40"",""76458""
""blur"",""40"",""76459""
""focus"",""40"",""78360""
""blur"",""40"",""79269""
""focus"",""40"",""86389""
","""event"",""trial"",""time""
""blur"",""40"",""76459""
""blur"",""40"",""79269""
","""event"",""trial"",""time""
""focus"",""40"",""78360""
""focus"",""40"",""86389""
","""event"",""trial"",""time""
""fullscreenenter"",""0"",""3006""
","""event"",""trial"",""time""
""fullscreenexit"",""40"",""76458""
","1284.7000000029802","<img style='border: 4px solid darkgrey;' src='img/tf1_40_M_ss3.jpeg'></img>","3","","exp","","1","<img src='img/tf1_40_T1_ss3_md.jpeg'></img>","0","false",""
"","html-keyboard-response","97","154823","0.0-10.0-0.40","954","""event"",""trial"",""time""
""fullscreenenter"",""0"",""3006""
""fullscreenexit"",""40"",""76458""
""blur"",""40"",""76459""
""focus"",""40"",""78360""
""blur"",""40"",""79269""
""focus"",""40"",""86389""
","""event"",""trial"",""time""
""blur"",""40"",""76459""
""blur"",""40"",""79269""
","""event"",""trial"",""time""
""focus"",""40"",""78360""
""focus"",""40"",""86389""
","""event"",""trial"",""time""
""fullscreenenter"",""0"",""3006""
","""event"",""trial"",""time""
""fullscreenexit"",""40"",""76458""
","null","<div style=""font-size:60px;"">+</div>","","null","fixation","2021-07-13 19:47:57.337","","","","",""
"","mars-trial","98","156136","0.0-10.0-1.40","954","""event"",""trial"",""time""
""fullscreenenter"",""0"",""3006""
""fullscreenexit"",""40"",""76458""
""blur"",""40"",""76459""
""focus"",""40"",""78360""
""blur"",""40"",""79269""
""focus"",""40"",""86389""
","""event"",""trial"",""time""
""blur"",""40"",""76459""
""blur"",""40"",""79269""
","""event"",""trial"",""time""
""focus"",""40"",""78360""
""focus"",""40"",""86389""
","""event"",""trial"",""time""
""fullscreenenter"",""0"",""3006""
","""event"",""trial"",""time""
""fullscreenexit"",""40"",""76458""
","702.5","<img style='border: 4px solid darkgrey;' src='img/tf1_41_M_ss1.jpeg'></img>","3","","exp","","1","<img src='img/tf1_41_T1_ss1_md.jpeg'></img>","0","false",""
"","html-keyboard-response","99","156640","0.0-10.0-0.41","954","""event"",""trial"",""time""
""fullscreenenter"",""0"",""3006""
""fullscreenexit"",""40"",""76458""
""blur"",""40"",""76459""
""focus"",""40"",""78360""
""blur"",""40"",""79269""
""focus"",""40"",""86389""
","""event"",""trial"",""time""
""blur"",""40"",""76459""
""blur"",""40"",""79269""
","""event"",""trial"",""time""
""focus"",""40"",""78360""
""focus"",""40"",""86389""
","""event"",""trial"",""time""
""fullscreenenter"",""0"",""3006""
","""event"",""trial"",""time""
""fullscreenexit"",""40"",""76458""
","null","<div style=""font-size:60px;"">+</div>","","null","fixation","2021-07-13 19:47:59.154","","","","",""
"","mars-trial","100","158269","0.0-10.0-1.41","954","""event"",""trial"",""time""
""fullscreenenter"",""0"",""3006""
""fullscreenexit"",""40"",""76458""
""blur"",""40"",""76459""
""focus"",""40"",""78360""
""blur"",""40"",""79269""
""focus"",""40"",""86389""
","""event"",""trial"",""time""
""blur"",""40"",""76459""
""blur"",""40"",""79269""
","""event"",""trial"",""time""
""focus"",""40"",""78360""
""focus"",""40"",""86389""
","""event"",""trial"",""time""
""fullscreenenter"",""0"",""3006""
","""event"",""trial"",""time""
""fullscreenexit"",""40"",""76458""
","1016.2999999970198","<img style='border: 4px solid darkgrey;' src='img/tf1_42_M_ss2.jpeg'></img>","3","","exp","","1","<img src='img/tf1_42_T1_ss2_md.jpeg'></img>","0","false",""
"","html-keyboard-response","101","158771","0.0-10.0-0.42","954","""event"",""trial"",""time""
""fullscreenenter"",""0"",""3006""
""fullscreenexit"",""40"",""76458""
""blur"",""40"",""76459""
""focus"",""40"",""78360""
""blur"",""40"",""79269""
""focus"",""40"",""86389""
","""event"",""trial"",""time""
""blur"",""40"",""76459""
""blur"",""40"",""79269""
","""event"",""trial"",""time""
""focus"",""40"",""78360""
""focus"",""40"",""86389""
","""event"",""trial"",""time""
""fullscreenenter"",""0"",""3006""
","""event"",""trial"",""time""
""fullscreenexit"",""40"",""76458""
","null","<div style=""font-size:60px;"">+</div>","","null","fixation","2021-07-13 19:48:01.285","","","","",""
"","mars-trial","102","160205","0.0-10.0-1.42","954","""event"",""trial"",""time""
""fullscreenenter"",""0"",""3006""
""fullscreenexit"",""40"",""76458""
""blur"",""40"",""76459""
""focus"",""40"",""78360""
""blur"",""40"",""79269""
""focus"",""40"",""86389""
","""event"",""trial"",""time""
""blur"",""40"",""76459""
""blur"",""40"",""79269""
","""event"",""trial"",""time""
""focus"",""40"",""78360""
""focus"",""40"",""86389""
","""event"",""trial"",""time""
""fullscreenenter"",""0"",""3006""
","""event"",""trial"",""time""
""fullscreenexit"",""40"",""76458""
","823.2999999970198","<img style='border: 4px solid darkgrey;' src='img/tf1_43_M_ss3.jpeg'></img>","3","","exp","","3","<img src='img/tf1_43_T1_ss3_md.jpeg'></img>","0","false",""
"","html-keyboard-response","103","160708","0.0-10.0-0.43","954","""event"",""trial"",""time""
""fullscreenenter"",""0"",""3006""
""fullscreenexit"",""40"",""76458""
""blur"",""40"",""76459""
""focus"",""40"",""78360""
""blur"",""40"",""79269""
""focus"",""40"",""86389""
","""event"",""trial"",""time""
""blur"",""40"",""76459""
""blur"",""40"",""79269""
","""event"",""trial"",""time""
""focus"",""40"",""78360""
""focus"",""40"",""86389""
","""event"",""trial"",""time""
""fullscreenenter"",""0"",""3006""
","""event"",""trial"",""time""
""fullscreenexit"",""40"",""76458""
","null","<div style=""font-size:60px;"">+</div>","","null","fixation","2021-07-13 19:48:03.222","","","","",""
"","mars-trial","104","164292","0.0-10.0-1.43","954","""event"",""trial"",""time""
""fullscreenenter"",""0"",""3006""
""fullscreenexit"",""40"",""76458""
""blur"",""40"",""76459""
""focus"",""40"",""78360""
""blur"",""40"",""79269""
""focus"",""40"",""86389""
","""event"",""trial"",""time""
""blur"",""40"",""76459""
""blur"",""40"",""79269""
","""event"",""trial"",""time""
""focus"",""40"",""78360""
""focus"",""40"",""86389""
","""event"",""trial"",""time""
""fullscreenenter"",""0"",""3006""
","""event"",""trial"",""time""
""fullscreenexit"",""40"",""76458""
","2978.2000000029802","<img style='border: 4px solid darkgrey;' src='img/tf1_44_M_ss1.jpeg'></img>","3","","exp","","0","<img src='img/tf1_44_T1_ss1_md.jpeg'></img>","0","true",""
"","html-keyboard-response","105","164793","0.0-10.0-0.44","954","""event"",""trial"",""time""
""fullscreenenter"",""0"",""3006""
""fullscreenexit"",""40"",""76458""
""blur"",""40"",""76459""
""focus"",""40"",""78360""
""blur"",""40"",""79269""
""focus"",""40"",""86389""
","""event"",""trial"",""time""
""blur"",""40"",""76459""
""blur"",""40"",""79269""
","""event"",""trial"",""time""
""focus"",""40"",""78360""
""focus"",""40"",""86389""
","""event"",""trial"",""time""
""fullscreenenter"",""0"",""3006""
","""event"",""trial"",""time""
""fullscreenexit"",""40"",""76458""
","null","<div style=""font-size:60px;"">+</div>","","null","fixation","2021-07-13 19:48:07.307","","","","",""
"","mars-trial","106","167792","0.0-10.0-1.44","954","""event"",""trial"",""time""
""fullscreenenter"",""0"",""3006""
""fullscreenexit"",""40"",""76458""
""blur"",""40"",""76459""
""focus"",""40"",""78360""
""blur"",""40"",""79269""
""focus"",""40"",""86389""
","""event"",""trial"",""time""
""blur"",""40"",""76459""
""blur"",""40"",""79269""
","""event"",""trial"",""time""
""focus"",""40"",""78360""
""focus"",""40"",""86389""
","""event"",""trial"",""time""
""fullscreenenter"",""0"",""3006""
","""event"",""trial"",""time""
""fullscreenexit"",""40"",""76458""
","2391.5999999940395","<img style='border: 4px solid darkgrey;' src='img/tf1_45_M_ss2.jpeg'></img>","3","","exp","","2","<img src='img/tf1_45_T1_ss2_md.jpeg'></img>","0","false",""
"","html-keyboard-response","107","168297","0.0-10.0-0.45","954","""event"",""trial"",""time""
""fullscreenenter"",""0"",""3006""
""fullscreenexit"",""40"",""76458""
""blur"",""40"",""76459""
""focus"",""40"",""78360""
""blur"",""40"",""79269""
""focus"",""40"",""86389""
","""event"",""trial"",""time""
""blur"",""40"",""76459""
""blur"",""40"",""79269""
","""event"",""trial"",""time""
""focus"",""40"",""78360""
""focus"",""40"",""86389""
","""event"",""trial"",""time""
""fullscreenenter"",""0"",""3006""
","""event"",""trial"",""time""
""fullscreenexit"",""40"",""76458""
","null","<div style=""font-size:60px;"">+</div>","","null","fixation","2021-07-13 19:48:10.811","","","","",""
"","mars-trial","108","170207","0.0-10.0-1.45","954","""event"",""trial"",""time""
""fullscreenenter"",""0"",""3006""
""fullscreenexit"",""40"",""76458""
""blur"",""40"",""76459""
""focus"",""40"",""78360""
""blur"",""40"",""79269""
""focus"",""40"",""86389""
","""event"",""trial"",""time""
""blur"",""40"",""76459""
""blur"",""40"",""79269""
","""event"",""trial"",""time""
""focus"",""40"",""78360""
""focus"",""40"",""86389""
","""event"",""trial"",""time""
""fullscreenenter"",""0"",""3006""
","""event"",""trial"",""time""
""fullscreenexit"",""40"",""76458""
","1301.6000000089407","<img style='border: 4px solid darkgrey;' src='img/tf1_46_M_ss3.jpeg'></img>","3","","exp","","1","<img src='img/tf1_46_T1_ss3_md.jpeg'></img>","0","false",""
"","html-keyboard-response","109","170712","0.0-10.0-0.46","954","""event"",""trial"",""time""
""fullscreenenter"",""0"",""3006""
""fullscreenexit"",""40"",""76458""
""blur"",""40"",""76459""
""focus"",""40"",""78360""
""blur"",""40"",""79269""
""focus"",""40"",""86389""
","""event"",""trial"",""time""
""blur"",""40"",""76459""
""blur"",""40"",""79269""
","""event"",""trial"",""time""
""focus"",""40"",""78360""
""focus"",""40"",""86389""
","""event"",""trial"",""time""
""fullscreenenter"",""0"",""3006""
","""event"",""trial"",""time""
""fullscreenexit"",""40"",""76458""
","null","<div style=""font-size:60px;"">+</div>","","null","fixation","2021-07-13 19:48:13.226","","","","",""
"","mars-trial","110","172306","0.0-10.0-1.46","954","""event"",""trial"",""time""
""fullscreenenter"",""0"",""3006""
""fullscreenexit"",""40"",""76458""
""blur"",""40"",""76459""
""focus"",""40"",""78360""
""blur"",""40"",""79269""
""focus"",""40"",""86389""
","""event"",""trial"",""time""
""blur"",""40"",""76459""
""blur"",""40"",""79269""
","""event"",""trial"",""time""
""focus"",""40"",""78360""
""focus"",""40"",""86389""
","""event"",""trial"",""time""
""fullscreenenter"",""0"",""3006""
","""event"",""trial"",""time""
""fullscreenexit"",""40"",""76458""
","985.2000000029802","<img style='border: 4px solid darkgrey;' src='img/tf1_47_M_ss1.jpeg'></img>","3","","exp","","0","<img src='img/tf1_47_T1_ss1_md.jpeg'></img>","0","true",""
"","html-keyboard-response","111","172807","0.0-10.0-0.47","954","""event"",""trial"",""time""
""fullscreenenter"",""0"",""3006""
""fullscreenexit"",""40"",""76458""
""blur"",""40"",""76459""
""focus"",""40"",""78360""
""blur"",""40"",""79269""
""focus"",""40"",""86389""
","""event"",""trial"",""time""
""blur"",""40"",""76459""
""blur"",""40"",""79269""
","""event"",""trial"",""time""
""focus"",""40"",""78360""
""focus"",""40"",""86389""
","""event"",""trial"",""time""
""fullscreenenter"",""0"",""3006""
","""event"",""trial"",""time""
""fullscreenexit"",""40"",""76458""
","null","<div style=""font-size:60px;"">+</div>","","null","fixation","2021-07-13 19:48:15.321","","","","",""
"","mars-trial","112","175304","0.0-10.0-1.47","954","""event"",""trial"",""time""
""fullscreenenter"",""0"",""3006""
""fullscreenexit"",""40"",""76458""
""blur"",""40"",""76459""
""focus"",""40"",""78360""
""blur"",""40"",""79269""
""focus"",""40"",""86389""
","""event"",""trial"",""time""
""blur"",""40"",""76459""
""blur"",""40"",""79269""
","""event"",""trial"",""time""
""focus"",""40"",""78360""
""focus"",""40"",""86389""
","""event"",""trial"",""time""
""fullscreenenter"",""0"",""3006""
","""event"",""trial"",""time""
""fullscreenexit"",""40"",""76458""
","1887","<img style='border: 4px solid darkgrey;' src='img/tf1_48_M_ss2.jpeg'></img>","3","","exp","","1","<img src='img/tf1_48_T1_ss2_md.jpeg'></img>","0","false",""
"","html-keyboard-response","113","175809","0.0-10.0-0.48","954","""event"",""trial"",""time""
""fullscreenenter"",""0"",""3006""
""fullscreenexit"",""40"",""76458""
""blur"",""40"",""76459""
""focus"",""40"",""78360""
""blur"",""40"",""79269""
""focus"",""40"",""86389""
","""event"",""trial"",""time""
""blur"",""40"",""76459""
""blur"",""40"",""79269""
","""event"",""trial"",""time""
""focus"",""40"",""78360""
""focus"",""40"",""86389""
","""event"",""trial"",""time""
""fullscreenenter"",""0"",""3006""
","""event"",""trial"",""time""
""fullscreenexit"",""40"",""76458""
","null","<div style=""font-size:60px;"">+</div>","","null","fixation","2021-07-13 19:48:18.323","","","","",""
"","mars-trial","114","179600","0.0-10.0-1.48","954","""event"",""trial"",""time""
""fullscreenenter"",""0"",""3006""
""fullscreenexit"",""40"",""76458""
""blur"",""40"",""76459""
""focus"",""40"",""78360""
""blur"",""40"",""79269""
""focus"",""40"",""86389""
","""event"",""trial"",""time""
""blur"",""40"",""76459""
""blur"",""40"",""79269""
","""event"",""trial"",""time""
""focus"",""40"",""78360""
""focus"",""40"",""86389""
","""event"",""trial"",""time""
""fullscreenenter"",""0"",""3006""
","""event"",""trial"",""time""
""fullscreenexit"",""40"",""76458""
","3180.5999999940395","<img style='border: 4px solid darkgrey;' src='img/tf1_49_M_ss3.jpeg'></img>","3","","exp","","3","<img src='img/tf1_49_T1_ss3_md.jpeg'></img>","0","false",""
"","html-keyboard-response","115","180101","0.0-10.0-0.49","954","""event"",""trial"",""time""
""fullscreenenter"",""0"",""3006""
""fullscreenexit"",""40"",""76458""
""blur"",""40"",""76459""
""focus"",""40"",""78360""
""blur"",""40"",""79269""
""focus"",""40"",""86389""
","""event"",""trial"",""time""
""blur"",""40"",""76459""
""blur"",""40"",""79269""
","""event"",""trial"",""time""
""focus"",""40"",""78360""
""focus"",""40"",""86389""
","""event"",""trial"",""time""
""fullscreenenter"",""0"",""3006""
","""event"",""trial"",""time""
""fullscreenexit"",""40"",""76458""
","null","<div style=""font-size:60px;"">+</div>","","null","fixation","2021-07-13 19:48:22.615","","","","",""
"","mars-trial","116","181132","0.0-10.0-1.49","954","""event"",""trial"",""time""
""fullscreenenter"",""0"",""3006""
""fullscreenexit"",""40"",""76458""
""blur"",""40"",""76459""
""focus"",""40"",""78360""
""blur"",""40"",""79269""
""focus"",""40"",""86389""
","""event"",""trial"",""time""
""blur"",""40"",""76459""
""blur"",""40"",""79269""
","""event"",""trial"",""time""
""focus"",""40"",""78360""
""focus"",""40"",""86389""
","""event"",""trial"",""time""
""fullscreenenter"",""0"",""3006""
","""event"",""trial"",""time""
""fullscreenexit"",""40"",""76458""
","422.20000000298023","<img style='border: 4px solid darkgrey;' src='img/tf1_50_M_ss1.jpeg'></img>","3","","exp","","2","<img src='img/tf1_50_T1_ss1_md.jpeg'></img>","0","false",""
"","html-keyboard-response","117","181637","0.0-10.0-0.50","954","""event"",""trial"",""time""
""fullscreenenter"",""0"",""3006""
""fullscreenexit"",""40"",""76458""
""blur"",""40"",""76459""
""focus"",""40"",""78360""
""blur"",""40"",""79269""
""focus"",""40"",""86389""
","""event"",""trial"",""time""
""blur"",""40"",""76459""
""blur"",""40"",""79269""
","""event"",""trial"",""time""
""focus"",""40"",""78360""
""focus"",""40"",""86389""
","""event"",""trial"",""time""
""fullscreenenter"",""0"",""3006""
","""event"",""trial"",""time""
""fullscreenexit"",""40"",""76458""
","null","<div style=""font-size:60px;"">+</div>","","null","fixation","2021-07-13 19:48:24.151","","","","",""
"","mars-trial","118","183483","0.0-10.0-1.50","954","""event"",""trial"",""time""
""fullscreenenter"",""0"",""3006""
""fullscreenexit"",""40"",""76458""
""blur"",""40"",""76459""
""focus"",""40"",""78360""
""blur"",""40"",""79269""
""focus"",""40"",""86389""
","""event"",""trial"",""time""
""blur"",""40"",""76459""
""blur"",""40"",""79269""
","""event"",""trial"",""time""
""focus"",""40"",""78360""
""focus"",""40"",""86389""
","""event"",""trial"",""time""
""fullscreenenter"",""0"",""3006""
","""event"",""trial"",""time""
""fullscreenexit"",""40"",""76458""
","1234","<img style='border: 4px solid darkgrey;' src='img/tf1_51_M_ss2.jpeg'></img>","3","","exp","","0","<img src='img/tf1_51_T1_ss2_md.jpeg'></img>","0","true",""
"","html-keyboard-response","119","183988","0.0-10.0-0.51","954","""event"",""trial"",""time""
""fullscreenenter"",""0"",""3006""
""fullscreenexit"",""40"",""76458""
""blur"",""40"",""76459""
""focus"",""40"",""78360""
""blur"",""40"",""79269""
""focus"",""40"",""86389""
","""event"",""trial"",""time""
""blur"",""40"",""76459""
""blur"",""40"",""79269""
","""event"",""trial"",""time""
""focus"",""40"",""78360""
""focus"",""40"",""86389""
","""event"",""trial"",""time""
""fullscreenenter"",""0"",""3006""
","""event"",""trial"",""time""
""fullscreenexit"",""40"",""76458""
","null","<div style=""font-size:60px;"">+</div>","","null","fixation","2021-07-13 19:48:26.502","","","","",""
"","mars-trial","120","185805","0.0-10.0-1.51","954","""event"",""trial"",""time""
""fullscreenenter"",""0"",""3006""
""fullscreenexit"",""40"",""76458""
""blur"",""40"",""76459""
""focus"",""40"",""78360""
""blur"",""40"",""79269""
""focus"",""40"",""86389""
","""event"",""trial"",""time""
""blur"",""40"",""76459""
""blur"",""40"",""79269""
","""event"",""trial"",""time""
""focus"",""40"",""78360""
""focus"",""40"",""86389""
","""event"",""trial"",""time""
""fullscreenenter"",""0"",""3006""
","""event"",""trial"",""time""
""fullscreenexit"",""40"",""76458""
","1208.7999999970198","<img style='border: 4px solid darkgrey;' src='img/tf1_52_M_ss3.jpeg'></img>","3","","exp","","3","<img src='img/tf1_52_T1_ss3_md.jpeg'></img>","0","false",""
"","html-keyboard-response","121","186310","0.0-10.0-0.52","954","""event"",""trial"",""time""
""fullscreenenter"",""0"",""3006""
""fullscreenexit"",""40"",""76458""
""blur"",""40"",""76459""
""focus"",""40"",""78360""
""blur"",""40"",""79269""
""focus"",""40"",""86389""
","""event"",""trial"",""time""
""blur"",""40"",""76459""
""blur"",""40"",""79269""
","""event"",""trial"",""time""
""focus"",""40"",""78360""
""focus"",""40"",""86389""
","""event"",""trial"",""time""
""fullscreenenter"",""0"",""3006""
","""event"",""trial"",""time""
""fullscreenexit"",""40"",""76458""
","null","<div style=""font-size:60px;"">+</div>","","null","fixation","2021-07-13 19:48:28.824","","","","",""
"","mars-trial","122","190744","0.0-10.0-1.52","954","""event"",""trial"",""time""
""fullscreenenter"",""0"",""3006""
""fullscreenexit"",""40"",""76458""
""blur"",""40"",""76459""
""focus"",""40"",""78360""
""blur"",""40"",""79269""
""focus"",""40"",""86389""
","""event"",""trial"",""time""
""blur"",""40"",""76459""
""blur"",""40"",""79269""
","""event"",""trial"",""time""
""focus"",""40"",""78360""
""focus"",""40"",""86389""
","""event"",""trial"",""time""
""fullscreenenter"",""0"",""3006""
","""event"",""trial"",""time""
""fullscreenexit"",""40"",""76458""
","3825.5","<img style='border: 4px solid darkgrey;' src='img/tf1_53_M_ss1.jpeg'></img>","3","","exp","","0","<img src='img/tf1_53_T1_ss1_md.jpeg'></img>","0","true",""
"","html-keyboard-response","123","191249","0.0-10.0-0.53","954","""event"",""trial"",""time""
""fullscreenenter"",""0"",""3006""
""fullscreenexit"",""40"",""76458""
""blur"",""40"",""76459""
""focus"",""40"",""78360""
""blur"",""40"",""79269""
""focus"",""40"",""86389""
","""event"",""trial"",""time""
""blur"",""40"",""76459""
""blur"",""40"",""79269""
","""event"",""trial"",""time""
""focus"",""40"",""78360""
""focus"",""40"",""86389""
","""event"",""trial"",""time""
""fullscreenenter"",""0"",""3006""
","""event"",""trial"",""time""
""fullscreenexit"",""40"",""76458""
","null","<div style=""font-size:60px;"">+</div>","","null","fixation","2021-07-13 19:48:33.763","","","","",""
"","mars-trial","124","193317","0.0-10.0-1.53","954","""event"",""trial"",""time""
""fullscreenenter"",""0"",""3006""
""fullscreenexit"",""40"",""76458""
""blur"",""40"",""76459""
""focus"",""40"",""78360""
""blur"",""40"",""79269""
""focus"",""40"",""86389""
","""event"",""trial"",""time""
""blur"",""40"",""76459""
""blur"",""40"",""79269""
","""event"",""trial"",""time""
""focus"",""40"",""78360""
""focus"",""40"",""86389""
","""event"",""trial"",""time""
""fullscreenenter"",""0"",""3006""
","""event"",""trial"",""time""
""fullscreenexit"",""40"",""76458""
","1454.6000000089407","<img style='border: 4px solid darkgrey;' src='img/tf1_54_M_ss2.jpeg'></img>","3","","exp","","3","<img src='img/tf1_54_T1_ss2_md.jpeg'></img>","0","false",""
"","html-keyboard-response","125","193822","0.0-10.0-0.54","954","""event"",""trial"",""time""
""fullscreenenter"",""0"",""3006""
""fullscreenexit"",""40"",""76458""
""blur"",""40"",""76459""
""focus"",""40"",""78360""
""blur"",""40"",""79269""
""focus"",""40"",""86389""
","""event"",""trial"",""time""
""blur"",""40"",""76459""
""blur"",""40"",""79269""
","""event"",""trial"",""time""
""focus"",""40"",""78360""
""focus"",""40"",""86389""
","""event"",""trial"",""time""
""fullscreenenter"",""0"",""3006""
","""event"",""trial"",""time""
""fullscreenexit"",""40"",""76458""
","null","<div style=""font-size:60px;"">+</div>","","null","fixation","2021-07-13 19:48:36.336","","","","",""
"","mars-trial","126","195645","0.0-10.0-1.54","954","""event"",""trial"",""time""
""fullscreenenter"",""0"",""3006""
""fullscreenexit"",""40"",""76458""
""blur"",""40"",""76459""
""focus"",""40"",""78360""
""blur"",""40"",""79269""
""focus"",""40"",""86389""
","""event"",""trial"",""time""
""blur"",""40"",""76459""
""blur"",""40"",""79269""
","""event"",""trial"",""time""
""focus"",""40"",""78360""
""focus"",""40"",""86389""
","""event"",""trial"",""time""
""fullscreenenter"",""0"",""3006""
","""event"",""trial"",""time""
""fullscreenexit"",""40"",""76458""
","1212.7999999970198","<img style='border: 4px solid darkgrey;' src='img/tf1_55_M_ss3.jpeg'></img>","3","","exp","","1","<img src='img/tf1_55_T1_ss3_md.jpeg'></img>","0","false",""
"","html-keyboard-response","127","196149","0.0-10.0-0.55","954","""event"",""trial"",""time""
""fullscreenenter"",""0"",""3006""
""fullscreenexit"",""40"",""76458""
""blur"",""40"",""76459""
""focus"",""40"",""78360""
""blur"",""40"",""79269""
""focus"",""40"",""86389""
","""event"",""trial"",""time""
""blur"",""40"",""76459""
""blur"",""40"",""79269""
","""event"",""trial"",""time""
""focus"",""40"",""78360""
""focus"",""40"",""86389""
","""event"",""trial"",""time""
""fullscreenenter"",""0"",""3006""
","""event"",""trial"",""time""
""fullscreenexit"",""40"",""76458""
","null","<div style=""font-size:60px;"">+</div>","","null","fixation","2021-07-13 19:48:38.663","","","","",""
"","mars-trial","128","198204","0.0-10.0-1.55","954","""event"",""trial"",""time""
""fullscreenenter"",""0"",""3006""
""fullscreenexit"",""40"",""76458""
""blur"",""40"",""76459""
""focus"",""40"",""78360""
""blur"",""40"",""79269""
""focus"",""40"",""86389""
","""event"",""trial"",""time""
""blur"",""40"",""76459""
""blur"",""40"",""79269""
","""event"",""trial"",""time""
""focus"",""40"",""78360""
""focus"",""40"",""86389""
","""event"",""trial"",""time""
""fullscreenenter"",""0"",""3006""
","""event"",""trial"",""time""
""fullscreenexit"",""40"",""76458""
","1442.2999999970198","<img style='border: 4px solid darkgrey;' src='img/tf1_56_M_ss1.jpeg'></img>","3","","exp","","3","<img src='img/tf1_56_T1_ss1_md.jpeg'></img>","0","false",""
"","html-keyboard-response","129","198706","0.0-10.0-0.56","954","""event"",""trial"",""time""
""fullscreenenter"",""0"",""3006""
""fullscreenexit"",""40"",""76458""
""blur"",""40"",""76459""
""focus"",""40"",""78360""
""blur"",""40"",""79269""
""focus"",""40"",""86389""
","""event"",""trial"",""time""
""blur"",""40"",""76459""
""blur"",""40"",""79269""
","""event"",""trial"",""time""
""focus"",""40"",""78360""
""focus"",""40"",""86389""
","""event"",""trial"",""time""
""fullscreenenter"",""0"",""3006""
","""event"",""trial"",""time""
""fullscreenexit"",""40"",""76458""
","null","<div style=""font-size:60px;"">+</div>","","null","fixation","2021-07-13 19:48:41.220","","","","",""
"","mars-trial","130","201072","0.0-10.0-1.56","954","""event"",""trial"",""time""
""fullscreenenter"",""0"",""3006""
""fullscreenexit"",""40"",""76458""
""blur"",""40"",""76459""
""focus"",""40"",""78360""
""blur"",""40"",""79269""
""focus"",""40"",""86389""
","""event"",""trial"",""time""
""blur"",""40"",""76459""
""blur"",""40"",""79269""
","""event"",""trial"",""time""
""focus"",""40"",""78360""
""focus"",""40"",""86389""
","""event"",""trial"",""time""
""fullscreenenter"",""0"",""3006""
","""event"",""trial"",""time""
""fullscreenexit"",""40"",""76458""
","1756.4000000059605","<img style='border: 4px solid darkgrey;' src='img/tf1_57_M_ss2.jpeg'></img>","3","","exp","","2","<img src='img/tf1_57_T1_ss2_md.jpeg'></img>","0","false",""
"","html-keyboard-response","131","201577","0.0-10.0-0.57","954","""event"",""trial"",""time""
""fullscreenenter"",""0"",""3006""
""fullscreenexit"",""40"",""76458""
""blur"",""40"",""76459""
""focus"",""40"",""78360""
""blur"",""40"",""79269""
""focus"",""40"",""86389""
","""event"",""trial"",""time""
""blur"",""40"",""76459""
""blur"",""40"",""79269""
","""event"",""trial"",""time""
""focus"",""40"",""78360""
""focus"",""40"",""86389""
","""event"",""trial"",""time""
""fullscreenenter"",""0"",""3006""
","""event"",""trial"",""time""
""fullscreenexit"",""40"",""76458""
","null","<div style=""font-size:60px;"">+</div>","","null","fixation","2021-07-13 19:48:44.091","","","","",""
"","mars-trial","132","202941","0.0-10.0-1.57","954","""event"",""trial"",""time""
""fullscreenenter"",""0"",""3006""
""fullscreenexit"",""40"",""76458""
""blur"",""40"",""76459""
""focus"",""40"",""78360""
""blur"",""40"",""79269""
""focus"",""40"",""86389""
","""event"",""trial"",""time""
""blur"",""40"",""76459""
""blur"",""40"",""79269""
","""event"",""trial"",""time""
""focus"",""40"",""78360""
""focus"",""40"",""86389""
","""event"",""trial"",""time""
""fullscreenenter"",""0"",""3006""
","""event"",""trial"",""time""
""fullscreenexit"",""40"",""76458""
","753.0999999940395","<img style='border: 4px solid darkgrey;' src='img/tf1_58_M_ss3.jpeg'></img>","3","","exp","","1","<img src='img/tf1_58_T1_ss3_md.jpeg'></img>","0","false",""
"","html-keyboard-response","133","203446","0.0-10.0-0.58","954","""event"",""trial"",""time""
""fullscreenenter"",""0"",""3006""
""fullscreenexit"",""40"",""76458""
""blur"",""40"",""76459""
""focus"",""40"",""78360""
""blur"",""40"",""79269""
""focus"",""40"",""86389""
","""event"",""trial"",""time""
""blur"",""40"",""76459""
""blur"",""40"",""79269""
","""event"",""trial"",""time""
""focus"",""40"",""78360""
""focus"",""40"",""86389""
","""event"",""trial"",""time""
""fullscreenenter"",""0"",""3006""
","""event"",""trial"",""time""
""fullscreenexit"",""40"",""76458""
","null","<div style=""font-size:60px;"">+</div>","","null","fixation","2021-07-13 19:48:45.960","","","","",""
"","mars-trial","134","205304","0.0-10.0-1.58","954","""event"",""trial"",""time""
""fullscreenenter"",""0"",""3006""
""fullscreenexit"",""40"",""76458""
""blur"",""40"",""76459""
""focus"",""40"",""78360""
""blur"",""40"",""79269""
""focus"",""40"",""86389""
","""event"",""trial"",""time""
""blur"",""40"",""76459""
""blur"",""40"",""79269""
","""event"",""trial"",""time""
""focus"",""40"",""78360""
""focus"",""40"",""86389""
","""event"",""trial"",""time""
""fullscreenenter"",""0"",""3006""
","""event"",""trial"",""time""
""fullscreenexit"",""40"",""76458""
","1248.5","<img style='border: 4px solid darkgrey;' src='img/tf1_59_M_ss1.jpeg'></img>","3","","exp","","3","<img src='img/tf1_59_T1_ss1_md.jpeg'></img>","0","false",""
"","html-keyboard-response","135","205809","0.0-10.0-0.59","954","""event"",""trial"",""time""
""fullscreenenter"",""0"",""3006""
""fullscreenexit"",""40"",""76458""
""blur"",""40"",""76459""
""focus"",""40"",""78360""
""blur"",""40"",""79269""
""focus"",""40"",""86389""
","""event"",""trial"",""time""
""blur"",""40"",""76459""
""blur"",""40"",""79269""
","""event"",""trial"",""time""
""focus"",""40"",""78360""
""focus"",""40"",""86389""
","""event"",""trial"",""time""
""fullscreenenter"",""0"",""3006""
","""event"",""trial"",""time""
""fullscreenexit"",""40"",""76458""
","null","<div style=""font-size:60px;"">+</div>","","null","fixation","2021-07-13 19:48:48.323","","","","",""
"","mars-trial","136","207487","0.0-10.0-1.59","954","""event"",""trial"",""time""
""fullscreenenter"",""0"",""3006""
""fullscreenexit"",""40"",""76458""
""blur"",""40"",""76459""
""focus"",""40"",""78360""
""blur"",""40"",""79269""
""focus"",""40"",""86389""
","""event"",""trial"",""time""
""blur"",""40"",""76459""
""blur"",""40"",""79269""
","""event"",""trial"",""time""
""focus"",""40"",""78360""
""focus"",""40"",""86389""
","""event"",""trial"",""time""
""fullscreenenter"",""0"",""3006""
","""event"",""trial"",""time""
""fullscreenexit"",""40"",""76458""
","1067","<img style='border: 4px solid darkgrey;' src='img/tf1_60_M_ss2.jpeg'></img>","3","","exp","","3","<img src='img/tf1_60_T1_ss2_md.jpeg'></img>","0","false",""
"","html-keyboard-response","137","207989","0.0-10.0-0.60","954","""event"",""trial"",""time""
""fullscreenenter"",""0"",""3006""
""fullscreenexit"",""40"",""76458""
""blur"",""40"",""76459""
""focus"",""40"",""78360""
""blur"",""40"",""79269""
""focus"",""40"",""86389""
","""event"",""trial"",""time""
""blur"",""40"",""76459""
""blur"",""40"",""79269""
","""event"",""trial"",""time""
""focus"",""40"",""78360""
""focus"",""40"",""86389""
","""event"",""trial"",""time""
""fullscreenenter"",""0"",""3006""
","""event"",""trial"",""time""
""fullscreenexit"",""40"",""76458""
","null","<div style=""font-size:60px;"">+</div>","","null","fixation","2021-07-13 19:48:50.503","","","","",""
"","mars-trial","138","210213","0.0-10.0-1.60","954","""event"",""trial"",""time""
""fullscreenenter"",""0"",""3006""
""fullscreenexit"",""40"",""76458""
""blur"",""40"",""76459""
""focus"",""40"",""78360""
""blur"",""40"",""79269""
""focus"",""40"",""86389""
","""event"",""trial"",""time""
""blur"",""40"",""76459""
""blur"",""40"",""79269""
","""event"",""trial"",""time""
""focus"",""40"",""78360""
""focus"",""40"",""86389""
","""event"",""trial"",""time""
""fullscreenenter"",""0"",""3006""
","""event"",""trial"",""time""
""fullscreenexit"",""40"",""76458""
","1619.3999999910593","<img style='border: 4px solid darkgrey;' src='img/tf1_61_M_ss3.jpeg'></img>","3","","exp","","3","<img src='img/tf1_61_T1_ss3_md.jpeg'></img>","0","false",""
"","html-keyboard-response","139","210717","0.0-10.0-0.61","954","""event"",""trial"",""time""
""fullscreenenter"",""0"",""3006""
""fullscreenexit"",""40"",""76458""
""blur"",""40"",""76459""
""focus"",""40"",""78360""
""blur"",""40"",""79269""
""focus"",""40"",""86389""
","""event"",""trial"",""time""
""blur"",""40"",""76459""
""blur"",""40"",""79269""
","""event"",""trial"",""time""
""focus"",""40"",""78360""
""focus"",""40"",""86389""
","""event"",""trial"",""time""
""fullscreenenter"",""0"",""3006""
","""event"",""trial"",""time""
""fullscreenexit"",""40"",""76458""
","null","<div style=""font-size:60px;"">+</div>","","null","fixation","2021-07-13 19:48:53.231","","","","",""
"","mars-trial","140","214269","0.0-10.0-1.61","954","""event"",""trial"",""time""
""fullscreenenter"",""0"",""3006""
""fullscreenexit"",""40"",""76458""
""blur"",""40"",""76459""
""focus"",""40"",""78360""
""blur"",""40"",""79269""
""focus"",""40"",""86389""
","""event"",""trial"",""time""
""blur"",""40"",""76459""
""blur"",""40"",""79269""
","""event"",""trial"",""time""
""focus"",""40"",""78360""
""focus"",""40"",""86389""
","""event"",""trial"",""time""
""fullscreenenter"",""0"",""3006""
","""event"",""trial"",""time""
""fullscreenexit"",""40"",""76458""
","2940.6000000089407","<img style='border: 4px solid darkgrey;' src='img/tf1_62_M_ss1.jpeg'></img>","3","","exp","","3","<img src='img/tf1_62_T1_ss1_md.jpeg'></img>","0","false",""
"","html-keyboard-response","141","214772","0.0-10.0-0.62","954","""event"",""trial"",""time""
""fullscreenenter"",""0"",""3006""
""fullscreenexit"",""40"",""76458""
""blur"",""40"",""76459""
""focus"",""40"",""78360""
""blur"",""40"",""79269""
""focus"",""40"",""86389""
","""event"",""trial"",""time""
""blur"",""40"",""76459""
""blur"",""40"",""79269""
","""event"",""trial"",""time""
""focus"",""40"",""78360""
""focus"",""40"",""86389""
","""event"",""trial"",""time""
""fullscreenenter"",""0"",""3006""
","""event"",""trial"",""time""
""fullscreenexit"",""40"",""76458""
","null","<div style=""font-size:60px;"">+</div>","","null","fixation","2021-07-13 19:48:57.286","","","","",""
"","mars-trial","142","216328","0.0-10.0-1.62","954","""event"",""trial"",""time""
""fullscreenenter"",""0"",""3006""
""fullscreenexit"",""40"",""76458""
""blur"",""40"",""76459""
""focus"",""40"",""78360""
""blur"",""40"",""79269""
""focus"",""40"",""86389""
","""event"",""trial"",""time""
""blur"",""40"",""76459""
""blur"",""40"",""79269""
","""event"",""trial"",""time""
""focus"",""40"",""78360""
""focus"",""40"",""86389""
","""event"",""trial"",""time""
""fullscreenenter"",""0"",""3006""
","""event"",""trial"",""time""
""fullscreenexit"",""40"",""76458""
","943.2000000029802","<img style='border: 4px solid darkgrey;' src='img/tf1_63_M_ss2.jpeg'></img>","3","","exp","","2","<img src='img/tf1_63_T1_ss2_md.jpeg'></img>","0","false",""
"","html-keyboard-response","143","216829","0.0-10.0-0.63","954","""event"",""trial"",""time""
""fullscreenenter"",""0"",""3006""
""fullscreenexit"",""40"",""76458""
""blur"",""40"",""76459""
""focus"",""40"",""78360""
""blur"",""40"",""79269""
""focus"",""40"",""86389""
","""event"",""trial"",""time""
""blur"",""40"",""76459""
""blur"",""40"",""79269""
","""event"",""trial"",""time""
""focus"",""40"",""78360""
""focus"",""40"",""86389""
","""event"",""trial"",""time""
""fullscreenenter"",""0"",""3006""
","""event"",""trial"",""time""
""fullscreenexit"",""40"",""76458""
","null","<div style=""font-size:60px;"">+</div>","","null","fixation","2021-07-13 19:48:59.343","","","","",""
"","mars-trial","144","221001","0.0-10.0-1.63","954","""event"",""trial"",""time""
""fullscreenenter"",""0"",""3006""
""fullscreenexit"",""40"",""76458""
""blur"",""40"",""76459""
""focus"",""40"",""78360""
""blur"",""40"",""79269""
""focus"",""40"",""86389""
","""event"",""trial"",""time""
""blur"",""40"",""76459""
""blur"",""40"",""79269""
","""event"",""trial"",""time""
""focus"",""40"",""78360""
""focus"",""40"",""86389""
","""event"",""trial"",""time""
""fullscreenenter"",""0"",""3006""
","""event"",""trial"",""time""
""fullscreenexit"",""40"",""76458""
","3564","<img style='border: 4px solid darkgrey;' src='img/tf1_64_M_ss3.jpeg'></img>","3","","exp","","0","<img src='img/tf1_64_T1_ss3_md.jpeg'></img>","0","true",""
"","html-keyboard-response","145","221502","0.0-10.0-0.64","954","""event"",""trial"",""time""
""fullscreenenter"",""0"",""3006""
""fullscreenexit"",""40"",""76458""
""blur"",""40"",""76459""
""focus"",""40"",""78360""
""blur"",""40"",""79269""
""focus"",""40"",""86389""
","""event"",""trial"",""time""
""blur"",""40"",""76459""
""blur"",""40"",""79269""
","""event"",""trial"",""time""
""focus"",""40"",""78360""
""focus"",""40"",""86389""
","""event"",""trial"",""time""
""fullscreenenter"",""0"",""3006""
","""event"",""trial"",""time""
""fullscreenexit"",""40"",""76458""
","null","<div style=""font-size:60px;"">+</div>","","null","fixation","2021-07-13 19:49:04.016","","","","",""
"","mars-trial","146","222806","0.0-10.0-1.64","954","""event"",""trial"",""time""
""fullscreenenter"",""0"",""3006""
""fullscreenexit"",""40"",""76458""
""blur"",""40"",""76459""
""focus"",""40"",""78360""
""blur"",""40"",""79269""
""focus"",""40"",""86389""
","""event"",""trial"",""time""
""blur"",""40"",""76459""
""blur"",""40"",""79269""
","""event"",""trial"",""time""
""focus"",""40"",""78360""
""focus"",""40"",""86389""
","""event"",""trial"",""time""
""fullscreenenter"",""0"",""3006""
","""event"",""trial"",""time""
""fullscreenexit"",""40"",""76458""
","694.6999999880791","<img style='border: 4px solid darkgrey;' src='img/tf1_65_M_ss1.jpeg'></img>","3","","exp","","0","<img src='img/tf1_65_T1_ss1_md.jpeg'></img>","0","true",""
"","html-keyboard-response","147","223309","0.0-10.0-0.65","954","""event"",""trial"",""time""
""fullscreenenter"",""0"",""3006""
""fullscreenexit"",""40"",""76458""
""blur"",""40"",""76459""
""focus"",""40"",""78360""
""blur"",""40"",""79269""
""focus"",""40"",""86389""
","""event"",""trial"",""time""
""blur"",""40"",""76459""
""blur"",""40"",""79269""
","""event"",""trial"",""time""
""focus"",""40"",""78360""
""focus"",""40"",""86389""
","""event"",""trial"",""time""
""fullscreenenter"",""0"",""3006""
","""event"",""trial"",""time""
""fullscreenexit"",""40"",""76458""
","null","<div style=""font-size:60px;"">+</div>","","null","fixation","2021-07-13 19:49:05.823","","","","",""
"","mars-trial","148","225133","0.0-10.0-1.65","954","""event"",""trial"",""time""
""fullscreenenter"",""0"",""3006""
""fullscreenexit"",""40"",""76458""
""blur"",""40"",""76459""
""focus"",""40"",""78360""
""blur"",""40"",""79269""
""focus"",""40"",""86389""
","""event"",""trial"",""time""
""blur"",""40"",""76459""
""blur"",""40"",""79269""
","""event"",""trial"",""time""
""focus"",""40"",""78360""
""focus"",""40"",""86389""
","""event"",""trial"",""time""
""fullscreenenter"",""0"",""3006""
","""event"",""trial"",""time""
""fullscreenexit"",""40"",""76458""
","1219.2000000029802","<img style='border: 4px solid darkgrey;' src='img/tf1_66_M_ss2.jpeg'></img>","3","","exp","","2","<img src='img/tf1_66_T1_ss2_md.jpeg'></img>","0","false",""
"","html-keyboard-response","149","225639","0.0-10.0-0.66","954","""event"",""trial"",""time""
""fullscreenenter"",""0"",""3006""
""fullscreenexit"",""40"",""76458""
""blur"",""40"",""76459""
""focus"",""40"",""78360""
""blur"",""40"",""79269""
""focus"",""40"",""86389""
","""event"",""trial"",""time""
""blur"",""40"",""76459""
""blur"",""40"",""79269""
","""event"",""trial"",""time""
""focus"",""40"",""78360""
""focus"",""40"",""86389""
","""event"",""trial"",""time""
""fullscreenenter"",""0"",""3006""
","""event"",""trial"",""time""
""fullscreenexit"",""40"",""76458""
","null","<div style=""font-size:60px;"">+</div>","","null","fixation","2021-07-13 19:49:08.153","","","","",""
"","mars-trial","150","227363","0.0-10.0-1.66","954","""event"",""trial"",""time""
""fullscreenenter"",""0"",""3006""
""fullscreenexit"",""40"",""76458""
""blur"",""40"",""76459""
""focus"",""40"",""78360""
""blur"",""40"",""79269""
""focus"",""40"",""86389""
","""event"",""trial"",""time""
""blur"",""40"",""76459""
""blur"",""40"",""79269""
","""event"",""trial"",""time""
""focus"",""40"",""78360""
""focus"",""40"",""86389""
","""event"",""trial"",""time""
""fullscreenenter"",""0"",""3006""
","""event"",""trial"",""time""
""fullscreenexit"",""40"",""76458""
","1114","<img style='border: 4px solid darkgrey;' src='img/tf1_67_M_ss3.jpeg'></img>","3","","exp","","0","<img src='img/tf1_67_T1_ss3_md.jpeg'></img>","0","true",""
"","html-keyboard-response","151","227867","0.0-10.0-0.67","954","""event"",""trial"",""time""
""fullscreenenter"",""0"",""3006""
""fullscreenexit"",""40"",""76458""
""blur"",""40"",""76459""
""focus"",""40"",""78360""
""blur"",""40"",""79269""
""focus"",""40"",""86389""
","""event"",""trial"",""time""
""blur"",""40"",""76459""
""blur"",""40"",""79269""
","""event"",""trial"",""time""
""focus"",""40"",""78360""
""focus"",""40"",""86389""
","""event"",""trial"",""time""
""fullscreenenter"",""0"",""3006""
","""event"",""trial"",""time""
""fullscreenexit"",""40"",""76458""
","null","<div style=""font-size:60px;"">+</div>","","null","fixation","2021-07-13 19:49:10.381","","","","",""
"","mars-trial","152","230828","0.0-10.0-1.67","954","""event"",""trial"",""time""
""fullscreenenter"",""0"",""3006""
""fullscreenexit"",""40"",""76458""
""blur"",""40"",""76459""
""focus"",""40"",""78360""
""blur"",""40"",""79269""
""focus"",""40"",""86389""
","""event"",""trial"",""time""
""blur"",""40"",""76459""
""blur"",""40"",""79269""
","""event"",""trial"",""time""
""focus"",""40"",""78360""
""focus"",""40"",""86389""
","""event"",""trial"",""time""
""fullscreenenter"",""0"",""3006""
","""event"",""trial"",""time""
""fullscreenexit"",""40"",""76458""
","2352.6000000089407","<img style='border: 4px solid darkgrey;' src='img/tf1_68_M_ss1.jpeg'></img>","3","","exp","","3","<img src='img/tf1_68_T1_ss1_md.jpeg'></img>","0","false",""
"","html-keyboard-response","153","231330","0.0-10.0-0.68","954","""event"",""trial"",""time""
""fullscreenenter"",""0"",""3006""
""fullscreenexit"",""40"",""76458""
""blur"",""40"",""76459""
""focus"",""40"",""78360""
""blur"",""40"",""79269""
""focus"",""40"",""86389""
","""event"",""trial"",""time""
""blur"",""40"",""76459""
""blur"",""40"",""79269""
","""event"",""trial"",""time""
""focus"",""40"",""78360""
""focus"",""40"",""86389""
","""event"",""trial"",""time""
""fullscreenenter"",""0"",""3006""
","""event"",""trial"",""time""
""fullscreenexit"",""40"",""76458""
","null","<div style=""font-size:60px;"">+</div>","","null","fixation","2021-07-13 19:49:13.844","","","","",""
"","mars-trial","154","236254","0.0-10.0-1.68","954","""event"",""trial"",""time""
""fullscreenenter"",""0"",""3006""
""fullscreenexit"",""40"",""76458""
""blur"",""40"",""76459""
""focus"",""40"",""78360""
""blur"",""40"",""79269""
""focus"",""40"",""86389""
","""event"",""trial"",""time""
""blur"",""40"",""76459""
""blur"",""40"",""79269""
","""event"",""trial"",""time""
""focus"",""40"",""78360""
""focus"",""40"",""86389""
","""event"",""trial"",""time""
""fullscreenenter"",""0"",""3006""
","""event"",""trial"",""time""
""fullscreenexit"",""40"",""76458""
","4318.100000008941","<img style='border: 4px solid darkgrey;' src='img/tf1_69_M_ss2.jpeg'></img>","1","","exp","","1","<img src='img/tf1_69_T1_ss2_md.jpeg'></img>","0","false",""
"","html-keyboard-response","155","236755","0.0-10.0-0.69","954","""event"",""trial"",""time""
""fullscreenenter"",""0"",""3006""
""fullscreenexit"",""40"",""76458""
""blur"",""40"",""76459""
""focus"",""40"",""78360""
""blur"",""40"",""79269""
""focus"",""40"",""86389""
","""event"",""trial"",""time""
""blur"",""40"",""76459""
""blur"",""40"",""79269""
","""event"",""trial"",""time""
""focus"",""40"",""78360""
""focus"",""40"",""86389""
","""event"",""trial"",""time""
""fullscreenenter"",""0"",""3006""
","""event"",""trial"",""time""
""fullscreenexit"",""40"",""76458""
","null","<div style=""font-size:60px;"">+</div>","","null","fixation","2021-07-13 19:49:19.269","","","","",""
"","mars-trial","156","241829","0.0-10.0-1.69","954","""event"",""trial"",""time""
""fullscreenenter"",""0"",""3006""
""fullscreenexit"",""40"",""76458""
""blur"",""40"",""76459""
""focus"",""40"",""78360""
""blur"",""40"",""79269""
""focus"",""40"",""86389""
","""event"",""trial"",""time""
""blur"",""40"",""76459""
""blur"",""40"",""79269""
","""event"",""trial"",""time""
""focus"",""40"",""78360""
""focus"",""40"",""86389""
","""event"",""trial"",""time""
""fullscreenenter"",""0"",""3006""
","""event"",""trial"",""time""
""fullscreenexit"",""40"",""76458""
