"success","trial_type","trial_index","time_elapsed","internal_node_id","subject_id","interactions","blur_events","focus_events","fullscreenenter_events","fullscreenexit_events","rt","stimulus","button_pressed","key_press","part","timestamp","unshuffled_button","correct_response","correct_button","correct","value"
"true","fullscreen","0","3480","0.0-0.0","929","""event"",""trial"",""time""
""fullscreenenter"",""0"",""2494""
","
","
","""event"",""trial"",""time""
""fullscreenenter"",""0"",""2494""
","
","","","","","","","","","","",""
"","pavlovia","1","3483","0.0-1.0","929","""event"",""trial"",""time""
""fullscreenenter"",""0"",""2494""
","
","
","""event"",""trial"",""time""
""fullscreenenter"",""0"",""2494""
","
","","","","","","","","","","",""
"","html-button-response","2","5489","0.0-2.0","929","""event"",""trial"",""time""
""fullscreenenter"",""0"",""2494""
","
","
","""event"",""trial"",""time""
""fullscreenenter"",""0"",""2494""
","
","2005.0999999940395","<p>Welcome! Press START to begin.</p><br>","0","","","","","","","",""
"","audio-button-response","3","12633","0.0-3.0","929","""event"",""trial"",""time""
""fullscreenenter"",""0"",""2494""
","
","
","""event"",""trial"",""time""
""fullscreenenter"",""0"",""2494""
","
","7142.800000011921","audio/mars_instructions_slide2.wav","0","","","","","","","",""
"","audio-button-response","4","15997","0.0-4.0","929","""event"",""trial"",""time""
""fullscreenenter"",""0"",""2494""
","
","
","""event"",""trial"",""time""
""fullscreenenter"",""0"",""2494""
","
","3362.2999999821186","audio/mars_instructions_slide3.wav","0","","","","","","","",""
"","html-keyboard-response","5","16501","0.0-5.0-0.0","929","""event"",""trial"",""time""
""fullscreenenter"",""0"",""2494""
","
","
","""event"",""trial"",""time""
""fullscreenenter"",""0"",""2494""
","
","null","<div style=""font-size:60px;"">+</div>","","null","fixation","2021-06-28 17:33:55.888","","","","",""
"","mars-trial","6","21772","0.0-5.0-1.0","929","""event"",""trial"",""time""
""fullscreenenter"",""0"",""2494""
","
","
","""event"",""trial"",""time""
""fullscreenenter"",""0"",""2494""
","
","3158.4000000059605","<img style='border: 4px solid darkgrey;' src='practice/pt1_M1.png'></img>","3","","practice","","0","<img src='practice/pt1_T1.png'></img>","0","true",""
"","html-keyboard-response","7","22276","0.0-6.0-0.0","929","""event"",""trial"",""time""
""fullscreenenter"",""0"",""2494""
","
","
","""event"",""trial"",""time""
""fullscreenenter"",""0"",""2494""
","
","null","<div style=""font-size:60px;"">+</div>","","null","fixation","2021-06-28 17:34:01.663","","","","",""
"","mars-trial","8","26099","0.0-6.0-1.0","929","""event"",""trial"",""time""
""fullscreenenter"",""0"",""2494""
","
","
","""event"",""trial"",""time""
""fullscreenenter"",""0"",""2494""
","
","1714","<img style='border: 4px solid darkgrey;' src='practice/pt2_M1.png'></img>","3","","practice","","0","<img src='practice/pt2_T1.png'></img>","0","true",""
"","html-keyboard-response","9","26602","0.0-7.0-0.0","929","""event"",""trial"",""time""
""fullscreenenter"",""0"",""2494""
","
","
","""event"",""trial"",""time""
""fullscreenenter"",""0"",""2494""
","
","null","<div style=""font-size:60px;"">+</div>","","null","fixation","2021-06-28 17:34:05.989","","","","",""
"","mars-trial","10","30162","0.0-7.0-1.0","929","""event"",""trial"",""time""
""fullscreenenter"",""0"",""2494""
","
","
","""event"",""trial"",""time""
""fullscreenenter"",""0"",""2494""
","
","1450.0999999940395","<img style='border: 4px solid darkgrey;' src='practice/pt3_M1.png'></img>","1","","practice","","0","<img src='practice/pt3_T1.png'></img>","0","true",""
"","audio-button-response","11","32129","0.0-8.0","929","""event"",""trial"",""time""
""fullscreenenter"",""0"",""2494""
","
","
","""event"",""trial"",""time""
""fullscreenenter"",""0"",""2494""
","
","1965.8999999761581","audio/mars_instructions_slide4.wav","0","","","","","","","",""
"","call-function","12","32130","0.0-9.0","929","""event"",""trial"",""time""
""fullscreenenter"",""0"",""2494""
","
","
","""event"",""trial"",""time""
""fullscreenenter"",""0"",""2494""
","
","","","","","","","","","","",""
"","html-keyboard-response","13","32634","0.0-10.0-0.0","929","""event"",""trial"",""time""
""fullscreenenter"",""0"",""2494""
","
","
","""event"",""trial"",""time""
""fullscreenenter"",""0"",""2494""
","
","null","<div style=""font-size:60px;"">+</div>","","null","fixation","2021-06-28 17:34:12.021","","","","",""
"","mars-trial","14","34914","0.0-10.0-1.0","929","""event"",""trial"",""time""
""fullscreenenter"",""0"",""2494""
","
","
","""event"",""trial"",""time""
""fullscreenenter"",""0"",""2494""
","
","1673.5","<img style='border: 4px solid darkgrey;' src='img/tf1_1_M_ss3.jpeg'></img>","0","","exp","","0","<img src='img/tf1_1_T1_ss3_md.jpeg'></img>","0","true",""
"","html-keyboard-response","15","35419","0.0-10.0-0.1","929","""event"",""trial"",""time""
""fullscreenenter"",""0"",""2494""
","
","
","""event"",""trial"",""time""
""fullscreenenter"",""0"",""2494""
","
","null","<div style=""font-size:60px;"">+</div>","","null","fixation","2021-06-28 17:34:14.806","","","","",""
"","mars-trial","16","38404","0.0-10.0-1.1","929","""event"",""trial"",""time""
""fullscreenenter"",""0"",""2494""
","
","
","""event"",""trial"",""time""
""fullscreenenter"",""0"",""2494""
","
","2379.5","<img style='border: 4px solid darkgrey;' src='img/tf1_2_M_ss1.jpeg'></img>","0","","exp","","0","<img src='img/tf1_2_T1_ss1_md.jpeg'></img>","0","true",""
"","html-keyboard-response","17","38909","0.0-10.0-0.2","929","""event"",""trial"",""time""
""fullscreenenter"",""0"",""2494""
","
","
","""event"",""trial"",""time""
""fullscreenenter"",""0"",""2494""
","
","null","<div style=""font-size:60px;"">+</div>","","null","fixation","2021-06-28 17:34:18.296","","","","",""
"","mars-trial","18","41510","0.0-10.0-1.2","929","""event"",""trial"",""time""
""fullscreenenter"",""0"",""2494""
","
","
","""event"",""trial"",""time""
""fullscreenenter"",""0"",""2494""
","
","1990.699999988079","<img style='border: 4px solid darkgrey;' src='img/tf1_3_M_ss2.jpeg'></img>","1","","exp","","0","<img src='img/tf1_3_T1_ss2_md.jpeg'></img>","0","true",""
"","html-keyboard-response","19","42011","0.0-10.0-0.3","929","""event"",""trial"",""time""
""fullscreenenter"",""0"",""2494""
","
","
","""event"",""trial"",""time""
""fullscreenenter"",""0"",""2494""
","
","null","<div style=""font-size:60px;"">+</div>","","null","fixation","2021-06-28 17:34:21.398","","","","",""
"","mars-trial","20","46135","0.0-10.0-1.3","929","""event"",""trial"",""time""
""fullscreenenter"",""0"",""2494""
","
","
","""event"",""trial"",""time""
""fullscreenenter"",""0"",""2494""
","
","3517.0999999940395","<img style='border: 4px solid darkgrey;' src='img/tf1_4_M_ss3.jpeg'></img>","3","","exp","","0","<img src='img/tf1_4_T1_ss3_md.jpeg'></img>","0","true",""
"","html-keyboard-response","21","46641","0.0-10.0-0.4","929","""event"",""trial"",""time""
""fullscreenenter"",""0"",""2494""
","
","
","""event"",""trial"",""time""
""fullscreenenter"",""0"",""2494""
","
","null","<div style=""font-size:60px;"">+</div>","","null","fixation","2021-06-28 17:34:26.028","","","","",""
"","mars-trial","22","48609","0.0-10.0-1.4","929","""event"",""trial"",""time""
""fullscreenenter"",""0"",""2494""
","
","
","""event"",""trial"",""time""
""fullscreenenter"",""0"",""2494""
","
","1357.2000000178814","<img style='border: 4px solid darkgrey;' src='img/tf1_5_M_ss1.jpeg'></img>","0","","exp","","0","<img src='img/tf1_5_T1_ss1_md.jpeg'></img>","0","true",""
"","html-keyboard-response","23","49114","0.0-10.0-0.5","929","""event"",""trial"",""time""
""fullscreenenter"",""0"",""2494""
","
","
","""event"",""trial"",""time""
""fullscreenenter"",""0"",""2494""
","
","null","<div style=""font-size:60px;"">+</div>","","null","fixation","2021-06-28 17:34:28.501","","","","",""
"","mars-trial","24","58631","0.0-10.0-1.5","929","""event"",""trial"",""time""
""fullscreenenter"",""0"",""2494""
","
","
","""event"",""trial"",""time""
""fullscreenenter"",""0"",""2494""
","
","8911","<img style='border: 4px solid darkgrey;' src='img/tf1_6_M_ss2.jpeg'></img>","0","","exp","","0","<img src='img/tf1_6_T1_ss2_md.jpeg'></img>","0","true",""
"","html-keyboard-response","25","59133","0.0-10.0-0.6","929","""event"",""trial"",""time""
""fullscreenenter"",""0"",""2494""
","
","
","""event"",""trial"",""time""
""fullscreenenter"",""0"",""2494""
","
","null","<div style=""font-size:60px;"">+</div>","","null","fixation","2021-06-28 17:34:38.520","","","","",""
"","mars-trial","26","62392","0.0-10.0-1.6","929","""event"",""trial"",""time""
""fullscreenenter"",""0"",""2494""
","
","
","""event"",""trial"",""time""
""fullscreenenter"",""0"",""2494""
","
","2648.100000023842","<img style='border: 4px solid darkgrey;' src='img/tf1_7_M_ss3.jpeg'></img>","1","","exp","","0","<img src='img/tf1_7_T1_ss3_md.jpeg'></img>","0","true",""
"","html-keyboard-response","27","62897","0.0-10.0-0.7","929","""event"",""trial"",""time""
""fullscreenenter"",""0"",""2494""
","
","
","""event"",""trial"",""time""
""fullscreenenter"",""0"",""2494""
","
","null","<div style=""font-size:60px;"">+</div>","","null","fixation","2021-06-28 17:34:42.284","","","","",""
"","mars-trial","28","67610","0.0-10.0-1.7","929","""event"",""trial"",""time""
""fullscreenenter"",""0"",""2494""
","
","
","""event"",""trial"",""time""
""fullscreenenter"",""0"",""2494""
","
","4103.0999999940395","<img style='border: 4px solid darkgrey;' src='img/tf1_8_M_ss1.jpeg'></img>","0","","exp","","0","<img src='img/tf1_8_T1_ss1_md.jpeg'></img>","0","true",""
"","html-keyboard-response","29","68115","0.0-10.0-0.8","929","""event"",""trial"",""time""
""fullscreenenter"",""0"",""2494""
","
","
","""event"",""trial"",""time""
""fullscreenenter"",""0"",""2494""
","
","null","<div style=""font-size:60px;"">+</div>","","null","fixation","2021-06-28 17:34:47.502","","","","",""
"","mars-trial","30","73189","0.0-10.0-1.8","929","""event"",""trial"",""time""
""fullscreenenter"",""0"",""2494""
","
","
","""event"",""trial"",""time""
""fullscreenenter"",""0"",""2494""
","
","4464.200000017881","<img style='border: 4px solid darkgrey;' src='img/tf1_9_M_ss2.jpeg'></img>","2","","exp","","0","<img src='img/tf1_9_T1_ss2_md.jpeg'></img>","0","true",""
"","html-keyboard-response","31","73695","0.0-10.0-0.9","929","""event"",""trial"",""time""
""fullscreenenter"",""0"",""2494""
","
","
","""event"",""trial"",""time""
""fullscreenenter"",""0"",""2494""
","
","null","<div style=""font-size:60px;"">+</div>","","null","fixation","2021-06-28 17:34:53.082","","","","",""
"","mars-trial","32","83302","0.0-10.0-1.9","929","""event"",""trial"",""time""
""fullscreenenter"",""0"",""2494""
","
","
","""event"",""trial"",""time""
""fullscreenenter"",""0"",""2494""
","
","8999.200000017881","<img style='border: 4px solid darkgrey;' src='img/tf1_10_M_ss3.jpeg'></img>","2","","exp","","0","<img src='img/tf1_10_T1_ss3_md.jpeg'></img>","0","true",""
"","html-keyboard-response","33","83807","0.0-10.0-0.10","929","""event"",""trial"",""time""
""fullscreenenter"",""0"",""2494""
","
","
","""event"",""trial"",""time""
""fullscreenenter"",""0"",""2494""
","
","null","<div style=""font-size:60px;"">+</div>","","null","fixation","2021-06-28 17:35:03.194","","","","",""
"","mars-trial","34","91406","0.0-10.0-1.10","929","""event"",""trial"",""time""
""fullscreenenter"",""0"",""2494""
","
","
","""event"",""trial"",""time""
""fullscreenenter"",""0"",""2494""
","
","6986.700000017881","<img style='border: 4px solid darkgrey;' src='img/tf1_11_M_ss1.jpeg'></img>","3","","exp","","1","<img src='img/tf1_11_T1_ss1_md.jpeg'></img>","0","false",""
"","html-keyboard-response","35","91911","0.0-10.0-0.11","929","""event"",""trial"",""time""
""fullscreenenter"",""0"",""2494""
","
","
","""event"",""trial"",""time""
""fullscreenenter"",""0"",""2494""
","
","null","<div style=""font-size:60px;"">+</div>","","null","fixation","2021-06-28 17:35:11.298","","","","",""
"","mars-trial","36","106097","0.0-10.0-1.11","929","""event"",""trial"",""time""
""fullscreenenter"",""0"",""2494""
","
","
","""event"",""trial"",""time""
""fullscreenenter"",""0"",""2494""
","
","13575.199999988079","<img style='border: 4px solid darkgrey;' src='img/tf1_12_M_ss2.jpeg'></img>","0","","exp","","1","<img src='img/tf1_12_T1_ss2_md.jpeg'></img>","0","false",""
"","html-keyboard-response","37","106602","0.0-10.0-0.12","929","""event"",""trial"",""time""
""fullscreenenter"",""0"",""2494""
","
","
","""event"",""trial"",""time""
""fullscreenenter"",""0"",""2494""
","
","null","<div style=""font-size:60px;"">+</div>","","null","fixation","2021-06-28 17:35:25.989","","","","",""
"","mars-trial","38","116083","0.0-10.0-1.12","929","""event"",""trial"",""time""
""fullscreenenter"",""0"",""2494""
","
","
","""event"",""trial"",""time""
""fullscreenenter"",""0"",""2494""
","
","8873.899999976158","<img style='border: 4px solid darkgrey;' src='img/tf1_13_M_ss3.jpeg'></img>","1","","exp","","0","<img src='img/tf1_13_T1_ss3_md.jpeg'></img>","0","true",""
"","html-keyboard-response","39","116584","0.0-10.0-0.13","929","""event"",""trial"",""time""
""fullscreenenter"",""0"",""2494""
","
","
","""event"",""trial"",""time""
""fullscreenenter"",""0"",""2494""
","
","null","<div style=""font-size:60px;"">+</div>","","null","fixation","2021-06-28 17:35:35.971","","","","",""
"","mars-trial","40","132477","0.0-10.0-1.13","929","""event"",""trial"",""time""
""fullscreenenter"",""0"",""2494""
","
","
","""event"",""trial"",""time""
""fullscreenenter"",""0"",""2494""
","
","15284.59999999404","<img style='border: 4px solid darkgrey;' src='img/tf1_14_M_ss1.jpeg'></img>","0","","exp","","1","<img src='img/tf1_14_T1_ss1_md.jpeg'></img>","0","false",""
"","html-keyboard-response","41","132978","0.0-10.0-0.14","929","""event"",""trial"",""time""
""fullscreenenter"",""0"",""2494""
","
","
","""event"",""trial"",""time""
""fullscreenenter"",""0"",""2494""
","
","null","<div style=""font-size:60px;"">+</div>","","null","fixation","2021-06-28 17:35:52.365","","","","",""
"","mars-trial","42","140598","0.0-10.0-1.14","929","""event"",""trial"",""time""
""fullscreenenter"",""0"",""2494""
","
","
","""event"",""trial"",""time""
""fullscreenenter"",""0"",""2494""
","
","7011.5999999940395","<img style='border: 4px solid darkgrey;' src='img/tf1_15_M_ss2.jpeg'></img>","2","","exp","","2","<img src='img/tf1_15_T1_ss2_md.jpeg'></img>","0","false",""
"","html-keyboard-response","43","141103","0.0-10.0-0.15","929","""event"",""trial"",""time""
""fullscreenenter"",""0"",""2494""
","
","
","""event"",""trial"",""time""
""fullscreenenter"",""0"",""2494""
","
","null","<div style=""font-size:60px;"">+</div>","","null","fixation","2021-06-28 17:36:00.490","","","","",""
"","mars-trial","44","152505","0.0-10.0-1.15","929","""event"",""trial"",""time""
""fullscreenenter"",""0"",""2494""
","
","
","""event"",""trial"",""time""
""fullscreenenter"",""0"",""2494""
","
","10788.799999982119","<img style='border: 4px solid darkgrey;' src='img/tf1_16_M_ss3.jpeg'></img>","0","","exp","","0","<img src='img/tf1_16_T1_ss3_md.jpeg'></img>","0","true",""
"","html-keyboard-response","45","153010","0.0-10.0-0.16","929","""event"",""trial"",""time""
""fullscreenenter"",""0"",""2494""
","
","
","""event"",""trial"",""time""
""fullscreenenter"",""0"",""2494""
","
","null","<div style=""font-size:60px;"">+</div>","","null","fixation","2021-06-28 17:36:12.397","","","","",""
"","mars-trial","46","170976","0.0-10.0-1.16","929","""event"",""trial"",""time""
""fullscreenenter"",""0"",""2494""
","
","
","""event"",""trial"",""time""
""fullscreenenter"",""0"",""2494""
","
","17355","<img style='border: 4px solid darkgrey;' src='img/tf1_17_M_ss1.jpeg'></img>","3","","exp","","2","<img src='img/tf1_17_T1_ss1_md.jpeg'></img>","0","false",""
"","html-keyboard-response","47","171482","0.0-10.0-0.17","929","""event"",""trial"",""time""
""fullscreenenter"",""0"",""2494""
","
","
","""event"",""trial"",""time""
""fullscreenenter"",""0"",""2494""
","
","null","<div style=""font-size:60px;"">+</div>","","null","fixation","2021-06-28 17:36:30.869","","","","",""
"","mars-trial","48","184566","0.0-10.0-1.17","929","""event"",""trial"",""time""
""fullscreenenter"",""0"",""2494""
","
","
","""event"",""trial"",""time""
""fullscreenenter"",""0"",""2494""
","
","12473.299999982119","<img style='border: 4px solid darkgrey;' src='img/tf1_18_M_ss2.jpeg'></img>","0","","exp","","0","<img src='img/tf1_18_T1_ss2_md.jpeg'></img>","0","true",""
"","html-keyboard-response","49","185068","0.0-10.0-0.18","929","""event"",""trial"",""time""
""fullscreenenter"",""0"",""2494""
","
","
","""event"",""trial"",""time""
""fullscreenenter"",""0"",""2494""
","
","null","<div style=""font-size:60px;"">+</div>","","null","fixation","2021-06-28 17:36:44.455","","","","",""
"","mars-trial","50","191875","0.0-10.0-1.18","929","""event"",""trial"",""time""
""fullscreenenter"",""0"",""2494""
","
","
","""event"",""trial"",""time""
""fullscreenenter"",""0"",""2494""
","
","6202","<img style='border: 4px solid darkgrey;' src='img/tf1_19_M_ss3.jpeg'></img>","0","","exp","","3","<img src='img/tf1_19_T1_ss3_md.jpeg'></img>","0","false",""
"","html-keyboard-response","51","192380","0.0-10.0-0.19","929","""event"",""trial"",""time""
""fullscreenenter"",""0"",""2494""
","
","
","""event"",""trial"",""time""
""fullscreenenter"",""0"",""2494""
","
","null","<div style=""font-size:60px;"">+</div>","","null","fixation","2021-06-28 17:36:51.767","","","","",""
"","mars-trial","52","202272","0.0-10.0-1.19","929","""event"",""trial"",""time""
""fullscreenenter"",""0"",""2494""
","
","
","""event"",""trial"",""time""
""fullscreenenter"",""0"",""2494""
","
","9282.90000000596","<img style='border: 4px solid darkgrey;' src='img/tf1_20_M_ss1.jpeg'></img>","3","","exp","","0","<img src='img/tf1_20_T1_ss1_md.jpeg'></img>","0","true",""
"","html-keyboard-response","53","202777","0.0-10.0-0.20","929","""event"",""trial"",""time""
""fullscreenenter"",""0"",""2494""
","
","
","""event"",""trial"",""time""
""fullscreenenter"",""0"",""2494""
","
","null","<div style=""font-size:60px;"">+</div>","","null","fixation","2021-06-28 17:37:02.164","","","","",""
"","mars-trial","54","232378","0.0-10.0-1.20","929","""event"",""trial"",""time""
""fullscreenenter"",""0"",""2494""
","
","
","""event"",""trial"",""time""
""fullscreenenter"",""0"",""2494""
","
","28990.09999999404","<img style='border: 4px solid darkgrey;' src='img/tf1_21_M_ss2.jpeg'></img>","2","","exp","","0","<img src='img/tf1_21_T1_ss2_md.jpeg'></img>","0","true",""
"","html-keyboard-response","55","232883","0.0-10.0-0.21","929","""event"",""trial"",""time""
""fullscreenenter"",""0"",""2494""
","
","
","""event"",""trial"",""time""
""fullscreenenter"",""0"",""2494""
","
","null","<div style=""font-size:60px;"">+</div>","","null","fixation","2021-06-28 17:37:32.270","","","","",""
"","mars-trial","56","238205","0.0-10.0-1.21","929","""event"",""trial"",""time""
""fullscreenenter"",""0"",""2494""
","
","
","""event"",""trial"",""time""
""fullscreenenter"",""0"",""2494""
","
","4716.100000023842","<img style='border: 4px solid darkgrey;' src='img/tf1_22_M_ss3.jpeg'></img>","0","","exp","","0","<img src='img/tf1_22_T1_ss3_md.jpeg'></img>","0","true",""
"","html-keyboard-response","57","238711","0.0-10.0-0.22","929","""event"",""trial"",""time""
""fullscreenenter"",""0"",""2494""
","
","
","""event"",""trial"",""time""
""fullscreenenter"",""0"",""2494""
","
","null","<div style=""font-size:60px;"">+</div>","","null","fixation","2021-06-28 17:37:38.098","","","","",""
"","mars-trial","58","248667","0.0-10.0-1.22","929","""event"",""trial"",""time""
""fullscreenenter"",""0"",""2494""
","
","
","""event"",""trial"",""time""
""fullscreenenter"",""0"",""2494""
","
","9346.59999999404","<img style='border: 4px solid darkgrey;' src='img/tf1_23_M_ss1.jpeg'></img>","2","","exp","","0","<img src='img/tf1_23_T1_ss1_md.jpeg'></img>","0","true",""
"","html-keyboard-response","59","249172","0.0-10.0-0.23","929","""event"",""trial"",""time""
""fullscreenenter"",""0"",""2494""
","
","
","""event"",""trial"",""time""
""fullscreenenter"",""0"",""2494""
","
","null","<div style=""font-size:60px;"">+</div>","","null","fixation","2021-06-28 17:37:48.559","","","","",""
"","mars-trial","60","275689","0.0-10.0-1.23","929","""event"",""trial"",""time""
""fullscreenenter"",""0"",""2494""
","
","
","""event"",""trial"",""time""
""fullscreenenter"",""0"",""2494""
","
","25908.19999998808","<img style='border: 4px solid darkgrey;' src='img/tf1_24_M_ss2.jpeg'></img>","1","","exp","","0","<img src='img/tf1_24_T1_ss2_md.jpeg'></img>","0","true",""
"","html-keyboard-response","61","276195","0.0-10.0-0.24","929","""event"",""trial"",""time""
""fullscreenenter"",""0"",""2494""
","
","
","""event"",""trial"",""time""
""fullscreenenter"",""0"",""2494""
","
","null","<div style=""font-size:60px;"">+</div>","","null","fixation","2021-06-28 17:38:15.582","","","","",""
"","mars-trial","62","285007","0.0-10.0-1.24","929","""event"",""trial"",""time""
""fullscreenenter"",""0"",""2494""
","
","
","""event"",""trial"",""time""
""fullscreenenter"",""0"",""2494""
","
","8202.800000011921","<img style='border: 4px solid darkgrey;' src='img/tf1_25_M_ss3.jpeg'></img>","3","","exp","","0","<img src='img/tf1_25_T1_ss3_md.jpeg'></img>","0","true",""
"","html-keyboard-response","63","285512","0.0-10.0-0.25","929","""event"",""trial"",""time""
""fullscreenenter"",""0"",""2494""
","
","
","""event"",""trial"",""time""
""fullscreenenter"",""0"",""2494""
","
","null","<div style=""font-size:60px;"">+</div>","","null","fixation","2021-06-28 17:38:24.899","","","","",""
"","mars-trial","64","296965","0.0-10.0-1.25","929","""event"",""trial"",""time""
""fullscreenenter"",""0"",""2494""
","
","
","""event"",""trial"",""time""
""fullscreenenter"",""0"",""2494""
","
","10843.300000011921","<img style='border: 4px solid darkgrey;' src='img/tf1_26_M_ss1.jpeg'></img>","3","","exp","","0","<img src='img/tf1_26_T1_ss1_md.jpeg'></img>","0","true",""
"","html-keyboard-response","65","297470","0.0-10.0-0.26","929","""event"",""trial"",""time""
""fullscreenenter"",""0"",""2494""
","
","
","""event"",""trial"",""time""
""fullscreenenter"",""0"",""2494""
","
","null","<div style=""font-size:60px;"">+</div>","","null","fixation","2021-06-28 17:38:36.857","","","","",""
"","mars-trial","66","308135","0.0-10.0-1.26","929","""event"",""trial"",""time""
""fullscreenenter"",""0"",""2494""
","
","
","""event"",""trial"",""time""
""fullscreenenter"",""0"",""2494""
","
","10054.40000000596","<img style='border: 4px solid darkgrey;' src='img/tf1_27_M_ss2.jpeg'></img>","3","","exp","","0","<img src='img/tf1_27_T1_ss2_md.jpeg'></img>","0","true",""
"","html-keyboard-response","67","308640","0.0-10.0-0.27","929","""event"",""trial"",""time""
""fullscreenenter"",""0"",""2494""
","
","
","""event"",""trial"",""time""
""fullscreenenter"",""0"",""2494""
","
","null","<div style=""font-size:60px;"">+</div>","","null","fixation","2021-06-28 17:38:48.027","","","","",""
"","mars-trial","68","320060","0.0-10.0-1.27","929","""event"",""trial"",""time""
""fullscreenenter"",""0"",""2494""
","
","
","""event"",""trial"",""time""
""fullscreenenter"",""0"",""2494""
","
","10812","<img style='border: 4px solid darkgrey;' src='img/tf1_28_M_ss3.jpeg'></img>","3","","exp","","0","<img src='img/tf1_28_T1_ss3_md.jpeg'></img>","0","true",""
"","html-keyboard-response","69","320563","0.0-10.0-0.28","929","""event"",""trial"",""time""
""fullscreenenter"",""0"",""2494""
","
","
","""event"",""trial"",""time""
""fullscreenenter"",""0"",""2494""
","
","null","<div style=""font-size:60px;"">+</div>","","null","fixation","2021-06-28 17:38:59.950","","","","",""
"","mars-trial","70","332471","0.0-10.0-1.28","929","""event"",""trial"",""time""
""fullscreenenter"",""0"",""2494""
","
","
","""event"",""trial"",""time""
""fullscreenenter"",""0"",""2494""
","
","11296.59999999404","<img style='border: 4px solid darkgrey;' src='img/tf1_29_M_ss1.jpeg'></img>","0","","exp","","0","<img src='img/tf1_29_T1_ss1_md.jpeg'></img>","0","true",""
"","html-keyboard-response","71","332972","0.0-10.0-0.29","929","""event"",""trial"",""time""
""fullscreenenter"",""0"",""2494""
","
","
","""event"",""trial"",""time""
""fullscreenenter"",""0"",""2494""
","
","null","<div style=""font-size:60px;"">+</div>","","null","fixation","2021-06-28 17:39:12.359","","","","",""
"","mars-trial","72","345281","0.0-10.0-1.29","929","""event"",""trial"",""time""
""fullscreenenter"",""0"",""2494""
","
","
","""event"",""trial"",""time""
""fullscreenenter"",""0"",""2494""
","
","11704.199999988079","<img style='border: 4px solid darkgrey;' src='img/tf1_30_M_ss2.jpeg'></img>","0","","exp","","0","<img src='img/tf1_30_T1_ss2_md.jpeg'></img>","0","true",""
"","html-keyboard-response","73","345786","0.0-10.0-0.30","929","""event"",""trial"",""time""
""fullscreenenter"",""0"",""2494""
","
","
","""event"",""trial"",""time""
""fullscreenenter"",""0"",""2494""
","
","null","<div style=""font-size:60px;"">+</div>","","null","fixation","2021-06-28 17:39:25.173","","","","",""
"","mars-trial","74","363521","0.0-10.0-1.30","929","""event"",""trial"",""time""
""fullscreenenter"",""0"",""2494""
","
","
","""event"",""trial"",""time""
""fullscreenenter"",""0"",""2494""
","
","17127.100000023842","<img style='border: 4px solid darkgrey;' src='img/tf1_31_M_ss3.jpeg'></img>","2","","exp","","0","<img src='img/tf1_31_T1_ss3_md.jpeg'></img>","0","true",""
"","html-keyboard-response","75","364026","0.0-10.0-0.31","929","""event"",""trial"",""time""
""fullscreenenter"",""0"",""2494""
","
","
","""event"",""trial"",""time""
""fullscreenenter"",""0"",""2494""
","
","null","<div style=""font-size:60px;"">+</div>","","null","fixation","2021-06-28 17:39:43.413","","","","",""
"","mars-trial","76","371956","0.0-10.0-1.31","929","""event"",""trial"",""time""
""fullscreenenter"",""0"",""2494""
","
","
","""event"",""trial"",""time""
""fullscreenenter"",""0"",""2494""
","
","7320.5","<img style='border: 4px solid darkgrey;' src='img/tf1_32_M_ss1.jpeg'></img>","0","","exp","","0","<img src='img/tf1_32_T1_ss1_md.jpeg'></img>","0","true",""
"","html-keyboard-response","77","372461","0.0-10.0-0.32","929","""event"",""trial"",""time""
""fullscreenenter"",""0"",""2494""
","
","
","""event"",""trial"",""time""
""fullscreenenter"",""0"",""2494""
","
","null","<div style=""font-size:60px;"">+</div>","","null","fixation","2021-06-28 17:39:51.848","","","","",""
"","mars-trial","78","379868","0.0-10.0-1.32","929","""event"",""trial"",""time""
""fullscreenenter"",""0"",""2494""
","
","
","""event"",""trial"",""time""
""fullscreenenter"",""0"",""2494""
","
","6794.399999976158","<img style='border: 4px solid darkgrey;' src='img/tf1_33_M_ss2.jpeg'></img>","3","","exp","","0","<img src='img/tf1_33_T1_ss2_md.jpeg'></img>","0","true",""
"","html-keyboard-response","79","380374","0.0-10.0-0.33","929","""event"",""trial"",""time""
""fullscreenenter"",""0"",""2494""
","
","
","""event"",""trial"",""time""
""fullscreenenter"",""0"",""2494""
","
","null","<div style=""font-size:60px;"">+</div>","","null","fixation","2021-06-28 17:39:59.761","","","","",""
"","mars-trial","80","388798","0.0-10.0-1.33","929","""event"",""trial"",""time""
""fullscreenenter"",""0"",""2494""
","
","
","""event"",""trial"",""time""
""fullscreenenter"",""0"",""2494""
","
","7817.199999988079","<img style='border: 4px solid darkgrey;' src='img/tf1_34_M_ss3.jpeg'></img>","2","","exp","","0","<img src='img/tf1_34_T1_ss3_md.jpeg'></img>","0","true",""
"","html-keyboard-response","81","389303","0.0-10.0-0.34","929","""event"",""trial"",""time""
""fullscreenenter"",""0"",""2494""
","
","
","""event"",""trial"",""time""
""fullscreenenter"",""0"",""2494""
","
","null","<div style=""font-size:60px;"">+</div>","","null","fixation","2021-06-28 17:40:08.690","","","","",""
"","mars-trial","82","396303","0.0-10.0-1.34","929","""event"",""trial"",""time""
""fullscreenenter"",""0"",""2494""
","
","
","""event"",""trial"",""time""
""fullscreenenter"",""0"",""2494""
","
","6387.899999976158","<img style='border: 4px solid darkgrey;' src='img/tf1_35_M_ss1.jpeg'></img>","3","","exp","","0","<img src='img/tf1_35_T1_ss1_md.jpeg'></img>","0","true",""
"","html-keyboard-response","83","396807","0.0-10.0-0.35","929","""event"",""trial"",""time""
""fullscreenenter"",""0"",""2494""
","
","
","""event"",""trial"",""time""
""fullscreenenter"",""0"",""2494""
","
","null","<div style=""font-size:60px;"">+</div>","","null","fixation","2021-06-28 17:40:16.194","","","","",""
"","mars-trial","84","410926","0.0-10.0-1.35","929","""event"",""trial"",""time""
""fullscreenenter"",""0"",""2494""
","
","
","""event"",""trial"",""time""
""fullscreenenter"",""0"",""2494""
","
","13509.199999988079","<img style='border: 4px solid darkgrey;' src='img/tf1_36_M_ss2.jpeg'></img>","3","","exp","","0","<img src='img/tf1_36_T1_ss2_md.jpeg'></img>","0","true",""
"","html-keyboard-response","85","411431","0.0-10.0-0.36","929","""event"",""trial"",""time""
""fullscreenenter"",""0"",""2494""
","
","
","""event"",""trial"",""time""
""fullscreenenter"",""0"",""2494""
","
","null","<div style=""font-size:60px;"">+</div>","","null","fixation","2021-06-28 17:40:30.818","","","","",""
"","mars-trial","86","432822","0.0-10.0-1.36","929","""event"",""trial"",""time""
""fullscreenenter"",""0"",""2494""
","
","
","""event"",""trial"",""time""
""fullscreenenter"",""0"",""2494""
","
","20778.40000000596","<img style='border: 4px solid darkgrey;' src='img/tf1_37_M_ss3.jpeg'></img>","2","","exp","","0","<img src='img/tf1_37_T1_ss3_md.jpeg'></img>","0","true",""
"","html-keyboard-response","87","433324","0.0-10.0-0.37","929","""event"",""trial"",""time""
""fullscreenenter"",""0"",""2494""
","
","
","""event"",""trial"",""time""
""fullscreenenter"",""0"",""2494""
","
","null","<div style=""font-size:60px;"">+</div>","","null","fixation","2021-06-28 17:40:52.711","","","","",""
"","mars-trial","88","436868","0.0-10.0-1.37","929","""event"",""trial"",""time""
""fullscreenenter"",""0"",""2494""
","
","
","""event"",""trial"",""time""
""fullscreenenter"",""0"",""2494""
","
","2937","<img style='border: 4px solid darkgrey;' src='img/tf1_38_M_ss1.jpeg'></img>","0","","exp","","0","<img src='img/tf1_38_T1_ss1_md.jpeg'></img>","0","true",""
"","html-keyboard-response","89","437374","0.0-10.0-0.38","929","""event"",""trial"",""time""
""fullscreenenter"",""0"",""2494""
","
","
","""event"",""trial"",""time""
""fullscreenenter"",""0"",""2494""
","
","null","<div style=""font-size:60px;"">+</div>","","null","fixation","2021-06-28 17:40:56.761","","","","",""
"","mars-trial","90","443655","0.0-10.0-1.38","929","""event"",""trial"",""time""
""fullscreenenter"",""0"",""2494""
","
","
","""event"",""trial"",""time""
""fullscreenenter"",""0"",""2494""
","
","5669.5","<img style='border: 4px solid darkgrey;' src='img/tf1_39_M_ss2.jpeg'></img>","1","","exp","","0","<img src='img/tf1_39_T1_ss2_md.jpeg'></img>","0","true",""
"","html-keyboard-response","91","444160","0.0-10.0-0.39","929","""event"",""trial"",""time""
""fullscreenenter"",""0"",""2494""
","
","
","""event"",""trial"",""time""
""fullscreenenter"",""0"",""2494""
","
","null","<div style=""font-size:60px;"">+</div>","","null","fixation","2021-06-28 17:41:03.547","","","","",""
"","mars-trial","92","454104","0.0-10.0-1.39","929","""event"",""trial"",""time""
""fullscreenenter"",""0"",""2494""
","
","
","""event"",""trial"",""time""
""fullscreenenter"",""0"",""2494""
","
","9334.90000000596","<img style='border: 4px solid darkgrey;' src='img/tf1_40_M_ss3.jpeg'></img>","3","","exp","","0","<img src='img/tf1_40_T1_ss3_md.jpeg'></img>","0","true",""
"","html-keyboard-response","93","454605","0.0-10.0-0.40","929","""event"",""trial"",""time""
""fullscreenenter"",""0"",""2494""
","
","
","""event"",""trial"",""time""
""fullscreenenter"",""0"",""2494""
","
","null","<div style=""font-size:60px;"">+</div>","","null","fixation","2021-06-28 17:41:13.992","","","","",""
"","mars-trial","94","458132","0.0-10.0-1.40","929","""event"",""trial"",""time""
""fullscreenenter"",""0"",""2494""
","
","
","""event"",""trial"",""time""
""fullscreenenter"",""0"",""2494""
","
","2918.600000023842","<img style='border: 4px solid darkgrey;' src='img/tf1_41_M_ss1.jpeg'></img>","1","","exp","","0","<img src='img/tf1_41_T1_ss1_md.jpeg'></img>","0","true",""
"","html-keyboard-response","95","458634","0.0-10.0-0.41","929","""event"",""trial"",""time""
""fullscreenenter"",""0"",""2494""
","
","
","""event"",""trial"",""time""
""fullscreenenter"",""0"",""2494""
","
","null","<div style=""font-size:60px;"">+</div>","","null","fixation","2021-06-28 17:41:18.021","","","","",""
"","mars-trial","96","469507","0.0-10.0-1.41","929","""event"",""trial"",""time""
""fullscreenenter"",""0"",""2494""
","
","
","""event"",""trial"",""time""
""fullscreenenter"",""0"",""2494""
","
","10263.5","<img style='border: 4px solid darkgrey;' src='img/tf1_42_M_ss2.jpeg'></img>","0","","exp","","0","<img src='img/tf1_42_T1_ss2_md.jpeg'></img>","0","true",""
"","html-keyboard-response","97","470008","0.0-10.0-0.42","929","""event"",""trial"",""time""
""fullscreenenter"",""0"",""2494""
","
","
","""event"",""trial"",""time""
""fullscreenenter"",""0"",""2494""
","
","null","<div style=""font-size:60px;"">+</div>","","null","fixation","2021-06-28 17:41:29.395","","","","",""
"","mars-trial","98","484762","0.0-10.0-1.42","929","""event"",""trial"",""time""
""fullscreenenter"",""0"",""2494""
","
","
","""event"",""trial"",""time""
""fullscreenenter"",""0"",""2494""
","
","14144.300000011921","<img style='border: 4px solid darkgrey;' src='img/tf1_43_M_ss3.jpeg'></img>","3","","exp","","0","<img src='img/tf1_43_T1_ss3_md.jpeg'></img>","0","true",""
"","html-keyboard-response","99","485262","0.0-10.0-0.43","929","""event"",""trial"",""time""
""fullscreenenter"",""0"",""2494""
","
","
","""event"",""trial"",""time""
""fullscreenenter"",""0"",""2494""
","
","null","<div style=""font-size:60px;"">+</div>","","null","fixation","2021-06-28 17:41:44.650","","","","",""
"","mars-trial","100","493005","0.0-10.0-1.43","929","""event"",""trial"",""time""
""fullscreenenter"",""0"",""2494""
","
","
","""event"",""trial"",""time""
""fullscreenenter"",""0"",""2494""
","
","7136.199999988079","<img style='border: 4px solid darkgrey;' src='img/tf1_44_M_ss1.jpeg'></img>","2","","exp","","0","<img src='img/tf1_44_T1_ss1_md.jpeg'></img>","0","true",""
"","html-keyboard-response","101","493509","0.0-10.0-0.44","929","""event"",""trial"",""time""
""fullscreenenter"",""0"",""2494""
","
","
","""event"",""trial"",""time""
""fullscreenenter"",""0"",""2494""
","
","null","<div style=""font-size:60px;"">+</div>","","null","fixation","2021-06-28 17:41:52.896","","","","",""
"","mars-trial","102","505889","0.0-10.0-1.44","929","""event"",""trial"",""time""
""fullscreenenter"",""0"",""2494""
","
","
","""event"",""trial"",""time""
""fullscreenenter"",""0"",""2494""
","
","11769.300000011921","<img style='border: 4px solid darkgrey;' src='img/tf1_45_M_ss2.jpeg'></img>","3","","exp","","0","<img src='img/tf1_45_T1_ss2_md.jpeg'></img>","0","true",""
"","html-keyboard-response","103","506393","0.0-10.0-0.45","929","""event"",""trial"",""time""
""fullscreenenter"",""0"",""2494""
","
","
","""event"",""trial"",""time""
""fullscreenenter"",""0"",""2494""
","
","null","<div style=""font-size:60px;"">+</div>","","null","fixation","2021-06-28 17:42:05.780","","","","",""
"","mars-trial","104","512144","0.0-10.0-1.45","929","""event"",""trial"",""time""
""fullscreenenter"",""0"",""2494""
","
","
","""event"",""trial"",""time""
""fullscreenenter"",""0"",""2494""
","
","","","","","exp","","","<img src='img/tf1_46_T1_ss3_md.jpeg'></img>","0","false",""
"","html-keyboard-response","105","512649","0.0-10.0-0.46","929","""event"",""trial"",""time""
""fullscreenenter"",""0"",""2494""
","
","
","""event"",""trial"",""time""
""fullscreenenter"",""0"",""2494""
","
","null","<div style=""font-size:60px;"">+</div>","","null","fixation","2021-06-28 17:42:12.036","","","","",""
"","audio-button-response","106","515341","0.0-11.0","929","""event"",""trial"",""time""
""fullscreenenter"",""0"",""2494""
","
","
","""event"",""trial"",""time""
""fullscreenenter"",""0"",""2494""
","
","2587.199999988079","audio/mars_instructions_slide5.wav","0","","","","","","","",""
