"success","trial_type","trial_index","time_elapsed","internal_node_id","subject_id","interactions","blur_events","focus_events","fullscreenenter_events","fullscreenexit_events","rt","stimulus","button_pressed","key_press","part","timestamp","unshuffled_button","correct_response","correct_button","correct","value"
"true","fullscreen","0","5395","0.0-0.0","894","""event"",""trial"",""time""
""fullscreenenter"",""0"",""4435""
","
","
","""event"",""trial"",""time""
""fullscreenenter"",""0"",""4435""
","
","","","","","","","","","","",""
"","pavlovia","1","5409","0.0-1.0","894","""event"",""trial"",""time""
""fullscreenenter"",""0"",""4435""
","
","
","""event"",""trial"",""time""
""fullscreenenter"",""0"",""4435""
","
","","","","","","","","","","",""
"","html-button-response","2","7588","0.0-2.0","894","""event"",""trial"",""time""
""fullscreenenter"",""0"",""4435""
","
","
","""event"",""trial"",""time""
""fullscreenenter"",""0"",""4435""
","
","2175.344999996014","<p>Welcome! Press START to begin.</p><br>","0","","","","","","","",""
"","audio-button-response","3","28617","0.0-3.0","894","""event"",""trial"",""time""
""fullscreenenter"",""0"",""4435""
","
","
","""event"",""trial"",""time""
""fullscreenenter"",""0"",""4435""
","
","21022.28500007186","audio/mars_instructions_slide2.wav","0","","","","","","","",""
"","audio-button-response","4","44705","0.0-4.0","894","""event"",""trial"",""time""
""fullscreenenter"",""0"",""4435""
","
","
","""event"",""trial"",""time""
""fullscreenenter"",""0"",""4435""
","
","16084.524999954738","audio/mars_instructions_slide3.wav","0","","","","","","","",""
"","html-keyboard-response","5","45210","0.0-5.0-0.0","894","""event"",""trial"",""time""
""fullscreenenter"",""0"",""4435""
","
","
","""event"",""trial"",""time""
""fullscreenenter"",""0"",""4435""
","
","null","<div style=""font-size:60px;"">+</div>","","null","fixation","2021-04-10 21:38:10.767","","","","",""
"","mars-trial","6","64061","0.0-5.0-1.0","894","""event"",""trial"",""time""
""fullscreenenter"",""0"",""4435""
","
","
","""event"",""trial"",""time""
""fullscreenenter"",""0"",""4435""
","
","16727.01000003144","<img style='border: 4px solid darkgrey;' src='practice/pt1_M1.png'></img>","3","","practice","","0","<img src='practice/pt1_T1.png'></img>","0","true",""
"","html-keyboard-response","7","64570","0.0-6.0-0.0","894","""event"",""trial"",""time""
""fullscreenenter"",""0"",""4435""
","
","
","""event"",""trial"",""time""
""fullscreenenter"",""0"",""4435""
","
","null","<div style=""font-size:60px;"">+</div>","","null","fixation","2021-04-10 21:38:30.127","","","","",""
"","mars-trial","8","70350","0.0-6.0-1.0","894","""event"",""trial"",""time""
""fullscreenenter"",""0"",""4435""
","
","
","""event"",""trial"",""time""
""fullscreenenter"",""0"",""4435""
","
","3661.8400000734255","<img style='border: 4px solid darkgrey;' src='practice/pt2_M1.png'></img>","1","","practice","","0","<img src='practice/pt2_T1.png'></img>","0","true",""
"","html-keyboard-response","9","70858","0.0-7.0-0.0","894","""event"",""trial"",""time""
""fullscreenenter"",""0"",""4435""
","
","
","""event"",""trial"",""time""
""fullscreenenter"",""0"",""4435""
","
","null","<div style=""font-size:60px;"">+</div>","","null","fixation","2021-04-10 21:38:36.414","","","","",""
"","mars-trial","10","75587","0.0-7.0-1.0","894","""event"",""trial"",""time""
""fullscreenenter"",""0"",""4435""
","
","
","""event"",""trial"",""time""
""fullscreenenter"",""0"",""4435""
","
","2613.010000088252","<img style='border: 4px solid darkgrey;' src='practice/pt3_M1.png'></img>","0","","practice","","0","<img src='practice/pt3_T1.png'></img>","0","true",""
"","audio-button-response","11","80387","0.0-8.0","894","""event"",""trial"",""time""
""fullscreenenter"",""0"",""4435""
","
","
","""event"",""trial"",""time""
""fullscreenenter"",""0"",""4435""
","
","4796.270000049844","audio/mars_instructions_slide4.wav","0","","","","","","","",""
"","call-function","12","80390","0.0-9.0","894","""event"",""trial"",""time""
""fullscreenenter"",""0"",""4435""
","
","
","""event"",""trial"",""time""
""fullscreenenter"",""0"",""4435""
","
","","","","","","","","","","",""
"","html-keyboard-response","13","80896","0.0-10.0-0.0","894","""event"",""trial"",""time""
""fullscreenenter"",""0"",""4435""
","
","
","""event"",""trial"",""time""
""fullscreenenter"",""0"",""4435""
","
","null","<div style=""font-size:60px;"">+</div>","","null","fixation","2021-04-10 21:38:46.452","","","","",""
"","mars-trial","14","83283","0.0-10.0-1.0","894","""event"",""trial"",""time""
""fullscreenenter"",""0"",""4435""
","
","
","""event"",""trial"",""time""
""fullscreenenter"",""0"",""4435""
","
","1763.4649999672547","<img style='border: 4px solid darkgrey;' src='img/tf1_1_M_ss3.jpeg'></img>","2","","exp","","0","<img src='img/tf1_1_T1_ss3_md.jpeg'></img>","0","true",""
"","html-keyboard-response","15","83788","0.0-10.0-0.1","894","""event"",""trial"",""time""
""fullscreenenter"",""0"",""4435""
","
","
","""event"",""trial"",""time""
""fullscreenenter"",""0"",""4435""
","
","null","<div style=""font-size:60px;"">+</div>","","null","fixation","2021-04-10 21:38:49.344","","","","",""
"","mars-trial","16","86828","0.0-10.0-1.1","894","""event"",""trial"",""time""
""fullscreenenter"",""0"",""4435""
","
","
","""event"",""trial"",""time""
""fullscreenenter"",""0"",""4435""
","
","2423.7349999602884","<img style='border: 4px solid darkgrey;' src='img/tf1_2_M_ss1.jpeg'></img>","3","","exp","","0","<img src='img/tf1_2_T1_ss1_md.jpeg'></img>","0","true",""
"","html-keyboard-response","17","87332","0.0-10.0-0.2","894","""event"",""trial"",""time""
""fullscreenenter"",""0"",""4435""
","
","
","""event"",""trial"",""time""
""fullscreenenter"",""0"",""4435""
","
","null","<div style=""font-size:60px;"">+</div>","","null","fixation","2021-04-10 21:38:52.888","","","","",""
"","mars-trial","18","91857","0.0-10.0-1.2","894","""event"",""trial"",""time""
""fullscreenenter"",""0"",""4435""
","
","
","""event"",""trial"",""time""
""fullscreenenter"",""0"",""4435""
","
","3906.985000008717","<img style='border: 4px solid darkgrey;' src='img/tf1_3_M_ss2.jpeg'></img>","0","","exp","","0","<img src='img/tf1_3_T1_ss2_md.jpeg'></img>","0","true",""
"","html-keyboard-response","19","92362","0.0-10.0-0.3","894","""event"",""trial"",""time""
""fullscreenenter"",""0"",""4435""
","
","
","""event"",""trial"",""time""
""fullscreenenter"",""0"",""4435""
","
","null","<div style=""font-size:60px;"">+</div>","","null","fixation","2021-04-10 21:38:57.918","","","","",""
"","mars-trial","20","96188","0.0-10.0-1.3","894","""event"",""trial"",""time""
""fullscreenenter"",""0"",""4435""
","
","
","""event"",""trial"",""time""
""fullscreenenter"",""0"",""4435""
","
","3207.7600000193343","<img style='border: 4px solid darkgrey;' src='img/tf1_4_M_ss3.jpeg'></img>","3","","exp","","0","<img src='img/tf1_4_T1_ss3_md.jpeg'></img>","0","true",""
"","html-keyboard-response","21","96692","0.0-10.0-0.4","894","""event"",""trial"",""time""
""fullscreenenter"",""0"",""4435""
","
","
","""event"",""trial"",""time""
""fullscreenenter"",""0"",""4435""
","
","null","<div style=""font-size:60px;"">+</div>","","null","fixation","2021-04-10 21:39:02.248","","","","",""
"","mars-trial","22","100144","0.0-10.0-1.4","894","""event"",""trial"",""time""
""fullscreenenter"",""0"",""4435""
","
","
","""event"",""trial"",""time""
""fullscreenenter"",""0"",""4435""
","
","2838.450000039302","<img style='border: 4px solid darkgrey;' src='img/tf1_5_M_ss1.jpeg'></img>","1","","exp","","0","<img src='img/tf1_5_T1_ss1_md.jpeg'></img>","0","true",""
"","html-keyboard-response","23","100649","0.0-10.0-0.5","894","""event"",""trial"",""time""
""fullscreenenter"",""0"",""4435""
","
","
","""event"",""trial"",""time""
""fullscreenenter"",""0"",""4435""
","
","null","<div style=""font-size:60px;"">+</div>","","null","fixation","2021-04-10 21:39:06.205","","","","",""
"","mars-trial","24","107572","0.0-10.0-1.5","894","""event"",""trial"",""time""
""fullscreenenter"",""0"",""4435""
","
","
","""event"",""trial"",""time""
""fullscreenenter"",""0"",""4435""
","
","6307.495000073686","<img style='border: 4px solid darkgrey;' src='img/tf1_6_M_ss2.jpeg'></img>","3","","exp","","3","<img src='img/tf1_6_T1_ss2_md.jpeg'></img>","0","false",""
"","html-keyboard-response","25","108076","0.0-10.0-0.6","894","""event"",""trial"",""time""
""fullscreenenter"",""0"",""4435""
","
","
","""event"",""trial"",""time""
""fullscreenenter"",""0"",""4435""
","
","null","<div style=""font-size:60px;"">+</div>","","null","fixation","2021-04-10 21:39:13.632","","","","",""
"","mars-trial","26","111726","0.0-10.0-1.6","894","""event"",""trial"",""time""
""fullscreenenter"",""0"",""4435""
","
","
","""event"",""trial"",""time""
""fullscreenenter"",""0"",""4435""
","
","3033.685000031255","<img style='border: 4px solid darkgrey;' src='img/tf1_7_M_ss3.jpeg'></img>","1","","exp","","0","<img src='img/tf1_7_T1_ss3_md.jpeg'></img>","0","true",""
"","html-keyboard-response","27","112231","0.0-10.0-0.7","894","""event"",""trial"",""time""
""fullscreenenter"",""0"",""4435""
","
","
","""event"",""trial"",""time""
""fullscreenenter"",""0"",""4435""
","
","null","<div style=""font-size:60px;"">+</div>","","null","fixation","2021-04-10 21:39:17.787","","","","",""
"","mars-trial","28","124689","0.0-10.0-1.7","894","""event"",""trial"",""time""
""fullscreenenter"",""0"",""4435""
","
","
","""event"",""trial"",""time""
""fullscreenenter"",""0"",""4435""
","
","11839.324999949895","<img style='border: 4px solid darkgrey;' src='img/tf1_8_M_ss1.jpeg'></img>","2","","exp","","3","<img src='img/tf1_8_T1_ss1_md.jpeg'></img>","0","false",""
"","html-keyboard-response","29","125193","0.0-10.0-0.8","894","""event"",""trial"",""time""
""fullscreenenter"",""0"",""4435""
","
","
","""event"",""trial"",""time""
""fullscreenenter"",""0"",""4435""
","
","null","<div style=""font-size:60px;"">+</div>","","null","fixation","2021-04-10 21:39:30.750","","","","",""
"","mars-trial","30","130561","0.0-10.0-1.8","894","""event"",""trial"",""time""
""fullscreenenter"",""0"",""4435""
","
","
","""event"",""trial"",""time""
""fullscreenenter"",""0"",""4435""
","
","4748.114999965765","<img style='border: 4px solid darkgrey;' src='img/tf1_9_M_ss2.jpeg'></img>","1","","exp","","2","<img src='img/tf1_9_T1_ss2_md.jpeg'></img>","0","false",""
"","html-keyboard-response","31","131065","0.0-10.0-0.9","894","""event"",""trial"",""time""
""fullscreenenter"",""0"",""4435""
","
","
","""event"",""trial"",""time""
""fullscreenenter"",""0"",""4435""
","
","null","<div style=""font-size:60px;"">+</div>","","null","fixation","2021-04-10 21:39:36.621","","","","",""
"","mars-trial","32","156271","0.0-10.0-1.9","894","""event"",""trial"",""time""
""fullscreenenter"",""0"",""4435""
","
","
","""event"",""trial"",""time""
""fullscreenenter"",""0"",""4435""
","
","24585.199999972247","<img style='border: 4px solid darkgrey;' src='img/tf1_10_M_ss3.jpeg'></img>","3","","exp","","0","<img src='img/tf1_10_T1_ss3_md.jpeg'></img>","0","true",""
"","html-keyboard-response","33","156775","0.0-10.0-0.10","894","""event"",""trial"",""time""
""fullscreenenter"",""0"",""4435""
","
","
","""event"",""trial"",""time""
""fullscreenenter"",""0"",""4435""
","
","null","<div style=""font-size:60px;"">+</div>","","null","fixation","2021-04-10 21:40:02.331","","","","",""
"","mars-trial","34","161470","0.0-10.0-1.10","894","""event"",""trial"",""time""
""fullscreenenter"",""0"",""4435""
","
","
","""event"",""trial"",""time""
""fullscreenenter"",""0"",""4435""
","
","4077.684999909252","<img style='border: 4px solid darkgrey;' src='img/tf1_11_M_ss1.jpeg'></img>","1","","exp","","3","<img src='img/tf1_11_T1_ss1_md.jpeg'></img>","0","false",""
"","html-keyboard-response","35","161975","0.0-10.0-0.11","894","""event"",""trial"",""time""
""fullscreenenter"",""0"",""4435""
","
","
","""event"",""trial"",""time""
""fullscreenenter"",""0"",""4435""
","
","null","<div style=""font-size:60px;"">+</div>","","null","fixation","2021-04-10 21:40:07.531","","","","",""
"","mars-trial","36","167496","0.0-10.0-1.11","894","""event"",""trial"",""time""
""fullscreenenter"",""0"",""4435""
","
","
","""event"",""trial"",""time""
""fullscreenenter"",""0"",""4435""
","
","4904.519999981858","<img style='border: 4px solid darkgrey;' src='img/tf1_12_M_ss2.jpeg'></img>","3","","exp","","3","<img src='img/tf1_12_T1_ss2_md.jpeg'></img>","0","false",""
"","html-keyboard-response","37","168001","0.0-10.0-0.12","894","""event"",""trial"",""time""
""fullscreenenter"",""0"",""4435""
","
","
","""event"",""trial"",""time""
""fullscreenenter"",""0"",""4435""
","
","null","<div style=""font-size:60px;"">+</div>","","null","fixation","2021-04-10 21:40:13.557","","","","",""
"","mars-trial","38","177100","0.0-10.0-1.12","894","""event"",""trial"",""time""
""fullscreenenter"",""0"",""4435""
","
","
","""event"",""trial"",""time""
""fullscreenenter"",""0"",""4435""
","
","8483.840000000782","<img style='border: 4px solid darkgrey;' src='img/tf1_13_M_ss3.jpeg'></img>","0","","exp","","0","<img src='img/tf1_13_T1_ss3_md.jpeg'></img>","0","true",""
"","html-keyboard-response","39","177605","0.0-10.0-0.13","894","""event"",""trial"",""time""
""fullscreenenter"",""0"",""4435""
","
","
","""event"",""trial"",""time""
""fullscreenenter"",""0"",""4435""
","
","null","<div style=""font-size:60px;"">+</div>","","null","fixation","2021-04-10 21:40:23.161","","","","",""
"","mars-trial","40","184055","0.0-10.0-1.13","894","""event"",""trial"",""time""
""fullscreenenter"",""0"",""4435""
","
","
","""event"",""trial"",""time""
""fullscreenenter"",""0"",""4435""
","
","5831.529999966733","<img style='border: 4px solid darkgrey;' src='img/tf1_14_M_ss1.jpeg'></img>","3","","exp","","1","<img src='img/tf1_14_T1_ss1_md.jpeg'></img>","0","false",""
"","html-keyboard-response","41","184559","0.0-10.0-0.14","894","""event"",""trial"",""time""
""fullscreenenter"",""0"",""4435""
","
","
","""event"",""trial"",""time""
""fullscreenenter"",""0"",""4435""
","
","null","<div style=""font-size:60px;"">+</div>","","null","fixation","2021-04-10 21:40:30.115","","","","",""
"","mars-trial","42","195045","0.0-10.0-1.14","894","""event"",""trial"",""time""
""fullscreenenter"",""0"",""4435""
","
","
","""event"",""trial"",""time""
""fullscreenenter"",""0"",""4435""
","
","9868.40499995742","<img style='border: 4px solid darkgrey;' src='img/tf1_15_M_ss2.jpeg'></img>","1","","exp","","1","<img src='img/tf1_15_T1_ss2_md.jpeg'></img>","0","false",""
"","html-keyboard-response","43","195550","0.0-10.0-0.15","894","""event"",""trial"",""time""
""fullscreenenter"",""0"",""4435""
","
","
","""event"",""trial"",""time""
""fullscreenenter"",""0"",""4435""
","
","null","<div style=""font-size:60px;"">+</div>","","null","fixation","2021-04-10 21:40:41.106","","","","",""
"","mars-trial","44","202812","0.0-10.0-1.15","894","""event"",""trial"",""time""
""fullscreenenter"",""0"",""4435""
","
","
","""event"",""trial"",""time""
""fullscreenenter"",""0"",""4435""
","
","6642.4150000093505","<img style='border: 4px solid darkgrey;' src='img/tf1_16_M_ss3.jpeg'></img>","1","","exp","","3","<img src='img/tf1_16_T1_ss3_md.jpeg'></img>","0","false",""
"","html-keyboard-response","45","203316","0.0-10.0-0.16","894","""event"",""trial"",""time""
""fullscreenenter"",""0"",""4435""
","
","
","""event"",""trial"",""time""
""fullscreenenter"",""0"",""4435""
","
","null","<div style=""font-size:60px;"">+</div>","","null","fixation","2021-04-10 21:40:48.872","","","","",""
"","mars-trial","46","207957","0.0-10.0-1.16","894","""event"",""trial"",""time""
""fullscreenenter"",""0"",""4435""
","
","
","""event"",""trial"",""time""
""fullscreenenter"",""0"",""4435""
","
","4022.9299999773502","<img style='border: 4px solid darkgrey;' src='img/tf1_17_M_ss1.jpeg'></img>","2","","exp","","0","<img src='img/tf1_17_T1_ss1_md.jpeg'></img>","0","true",""
"","html-keyboard-response","47","208461","0.0-10.0-0.17","894","""event"",""trial"",""time""
""fullscreenenter"",""0"",""4435""
","
","
","""event"",""trial"",""time""
""fullscreenenter"",""0"",""4435""
","
","null","<div style=""font-size:60px;"">+</div>","","null","fixation","2021-04-10 21:40:54.018","","","","",""
"","mars-trial","48","212792","0.0-10.0-1.17","894","""event"",""trial"",""time""
""fullscreenenter"",""0"",""4435""
","
","
","""event"",""trial"",""time""
""fullscreenenter"",""0"",""4435""
","
","3714.49499996379","<img style='border: 4px solid darkgrey;' src='img/tf1_18_M_ss2.jpeg'></img>","1","","exp","","0","<img src='img/tf1_18_T1_ss2_md.jpeg'></img>","0","true",""
"","html-keyboard-response","49","213296","0.0-10.0-0.18","894","""event"",""trial"",""time""
""fullscreenenter"",""0"",""4435""
","
","
","""event"",""trial"",""time""
""fullscreenenter"",""0"",""4435""
","
","null","<div style=""font-size:60px;"">+</div>","","null","fixation","2021-04-10 21:40:58.852","","","","",""
"","mars-trial","50","214853","0.0-10.0-1.18","894","""event"",""trial"",""time""
""fullscreenenter"",""0"",""4435""
","
","
","""event"",""trial"",""time""
""fullscreenenter"",""0"",""4435""
","
","943.8800000352785","<img style='border: 4px solid darkgrey;' src='img/tf1_19_M_ss3.jpeg'></img>","1","","exp","","3","<img src='img/tf1_19_T1_ss3_md.jpeg'></img>","0","false",""
"","html-keyboard-response","51","215357","0.0-10.0-0.19","894","""event"",""trial"",""time""
""fullscreenenter"",""0"",""4435""
","
","
","""event"",""trial"",""time""
""fullscreenenter"",""0"",""4435""
","
","null","<div style=""font-size:60px;"">+</div>","","null","fixation","2021-04-10 21:41:00.913","","","","",""
"","mars-trial","52","218003","0.0-10.0-1.19","894","""event"",""trial"",""time""
""fullscreenenter"",""0"",""4435""
","
","
","""event"",""trial"",""time""
""fullscreenenter"",""0"",""4435""
","
","2032.039999961853","<img style='border: 4px solid darkgrey;' src='img/tf1_20_M_ss1.jpeg'></img>","2","","exp","","0","<img src='img/tf1_20_T1_ss1_md.jpeg'></img>","0","true",""
"","html-keyboard-response","53","218507","0.0-10.0-0.20","894","""event"",""trial"",""time""
""fullscreenenter"",""0"",""4435""
","
","
","""event"",""trial"",""time""
""fullscreenenter"",""0"",""4435""
","
","null","<div style=""font-size:60px;"">+</div>","","null","fixation","2021-04-10 21:41:04.063","","","","",""
"","mars-trial","54","220770","0.0-10.0-1.20","894","""event"",""trial"",""time""
""fullscreenenter"",""0"",""4435""
","
","
","""event"",""trial"",""time""
""fullscreenenter"",""0"",""4435""
","
","1650.0999999698251","<img style='border: 4px solid darkgrey;' src='img/tf1_21_M_ss2.jpeg'></img>","2","","exp","","3","<img src='img/tf1_21_T1_ss2_md.jpeg'></img>","0","false",""
"","html-keyboard-response","55","221275","0.0-10.0-0.21","894","""event"",""trial"",""time""
""fullscreenenter"",""0"",""4435""
","
","
","""event"",""trial"",""time""
""fullscreenenter"",""0"",""4435""
","
","null","<div style=""font-size:60px;"">+</div>","","null","fixation","2021-04-10 21:41:06.831","","","","",""
"","mars-trial","56","227024","0.0-10.0-1.21","894","""event"",""trial"",""time""
""fullscreenenter"",""0"",""4435""
","
","
","""event"",""trial"",""time""
""fullscreenenter"",""0"",""4435""
","
","5131.189999985509","<img style='border: 4px solid darkgrey;' src='img/tf1_22_M_ss3.jpeg'></img>","3","","exp","","0","<img src='img/tf1_22_T1_ss3_md.jpeg'></img>","0","true",""
"","html-keyboard-response","57","227529","0.0-10.0-0.22","894","""event"",""trial"",""time""
""fullscreenenter"",""0"",""4435""
","
","
","""event"",""trial"",""time""
""fullscreenenter"",""0"",""4435""
","
","null","<div style=""font-size:60px;"">+</div>","","null","fixation","2021-04-10 21:41:13.085","","","","",""
"","mars-trial","58","229599","0.0-10.0-1.22","894","""event"",""trial"",""time""
""fullscreenenter"",""0"",""4435""
","
","
","""event"",""trial"",""time""
""fullscreenenter"",""0"",""4435""
","
","1450.4050000105053","<img style='border: 4px solid darkgrey;' src='img/tf1_23_M_ss1.jpeg'></img>","3","","exp","","2","<img src='img/tf1_23_T1_ss1_md.jpeg'></img>","0","false",""
"","html-keyboard-response","59","230104","0.0-10.0-0.23","894","""event"",""trial"",""time""
""fullscreenenter"",""0"",""4435""
","
","
","""event"",""trial"",""time""
""fullscreenenter"",""0"",""4435""
","
","null","<div style=""font-size:60px;"">+</div>","","null","fixation","2021-04-10 21:41:15.660","","","","",""
"","mars-trial","60","234311","0.0-10.0-1.23","894","""event"",""trial"",""time""
""fullscreenenter"",""0"",""4435""
","
","
","""event"",""trial"",""time""
""fullscreenenter"",""0"",""4435""
","
","3592.4550000345334","<img style='border: 4px solid darkgrey;' src='img/tf1_24_M_ss2.jpeg'></img>","0","","exp","","3","<img src='img/tf1_24_T1_ss2_md.jpeg'></img>","0","false",""
"","html-keyboard-response","61","234816","0.0-10.0-0.24","894","""event"",""trial"",""time""
""fullscreenenter"",""0"",""4435""
","
","
","""event"",""trial"",""time""
""fullscreenenter"",""0"",""4435""
","
","null","<div style=""font-size:60px;"">+</div>","","null","fixation","2021-04-10 21:41:20.372","","","","",""
"","mars-trial","62","236821","0.0-10.0-1.24","894","""event"",""trial"",""time""
""fullscreenenter"",""0"",""4435""
","
","
","""event"",""trial"",""time""
""fullscreenenter"",""0"",""4435""
","
","1383.659999934025","<img style='border: 4px solid darkgrey;' src='img/tf1_25_M_ss3.jpeg'></img>","1","","exp","","2","<img src='img/tf1_25_T1_ss3_md.jpeg'></img>","0","false",""
"","html-keyboard-response","63","237325","0.0-10.0-0.25","894","""event"",""trial"",""time""
""fullscreenenter"",""0"",""4435""
","
","
","""event"",""trial"",""time""
""fullscreenenter"",""0"",""4435""
","
","null","<div style=""font-size:60px;"">+</div>","","null","fixation","2021-04-10 21:41:22.882","","","","",""
"","mars-trial","64","241022","0.0-10.0-1.25","894","""event"",""trial"",""time""
""fullscreenenter"",""0"",""4435""
","
","
","""event"",""trial"",""time""
""fullscreenenter"",""0"",""4435""
","
","3084.3100000638515","<img style='border: 4px solid darkgrey;' src='img/tf1_26_M_ss1.jpeg'></img>","3","","exp","","2","<img src='img/tf1_26_T1_ss1_md.jpeg'></img>","0","false",""
"","html-keyboard-response","65","241526","0.0-10.0-0.26","894","""event"",""trial"",""time""
""fullscreenenter"",""0"",""4435""
","
","
","""event"",""trial"",""time""
""fullscreenenter"",""0"",""4435""
","
","null","<div style=""font-size:60px;"">+</div>","","null","fixation","2021-04-10 21:41:27.083","","","","",""
"","mars-trial","66","248397","0.0-10.0-1.26","894","""event"",""trial"",""time""
""fullscreenenter"",""0"",""4435""
","
","
","""event"",""trial"",""time""
""fullscreenenter"",""0"",""4435""
","
","6252.315000048839","<img style='border: 4px solid darkgrey;' src='img/tf1_27_M_ss2.jpeg'></img>","1","","exp","","1","<img src='img/tf1_27_T1_ss2_md.jpeg'></img>","0","false",""
"","html-keyboard-response","67","248901","0.0-10.0-0.27","894","""event"",""trial"",""time""
""fullscreenenter"",""0"",""4435""
","
","
","""event"",""trial"",""time""
""fullscreenenter"",""0"",""4435""
","
","null","<div style=""font-size:60px;"">+</div>","","null","fixation","2021-04-10 21:41:34.457","","","","",""
"","mars-trial","68","251313","0.0-10.0-1.27","894","""event"",""trial"",""time""
""fullscreenenter"",""0"",""4435""
","
","
","""event"",""trial"",""time""
""fullscreenenter"",""0"",""4435""
","
","1799.6450000209734","<img style='border: 4px solid darkgrey;' src='img/tf1_28_M_ss3.jpeg'></img>","2","","exp","","2","<img src='img/tf1_28_T1_ss3_md.jpeg'></img>","0","false",""
"","html-keyboard-response","69","251817","0.0-10.0-0.28","894","""event"",""trial"",""time""
""fullscreenenter"",""0"",""4435""
","
","
","""event"",""trial"",""time""
""fullscreenenter"",""0"",""4435""
","
","null","<div style=""font-size:60px;"">+</div>","","null","fixation","2021-04-10 21:41:37.373","","","","",""
"","mars-trial","70","255307","0.0-10.0-1.28","894","""event"",""trial"",""time""
""fullscreenenter"",""0"",""4435""
","
","
","""event"",""trial"",""time""
""fullscreenenter"",""0"",""4435""
","
","2873.1900000711903","<img style='border: 4px solid darkgrey;' src='img/tf1_29_M_ss1.jpeg'></img>","2","","exp","","1","<img src='img/tf1_29_T1_ss1_md.jpeg'></img>","0","false",""
"","html-keyboard-response","71","255811","0.0-10.0-0.29","894","""event"",""trial"",""time""
""fullscreenenter"",""0"",""4435""
","
","
","""event"",""trial"",""time""
""fullscreenenter"",""0"",""4435""
","
","null","<div style=""font-size:60px;"">+</div>","","null","fixation","2021-04-10 21:41:41.367","","","","",""
"","mars-trial","72","260283","0.0-10.0-1.29","894","""event"",""trial"",""time""
""fullscreenenter"",""0"",""4435""
","
","
","""event"",""trial"",""time""
""fullscreenenter"",""0"",""4435""
","
","3856.885000015609","<img style='border: 4px solid darkgrey;' src='img/tf1_30_M_ss2.jpeg'></img>","3","","exp","","2","<img src='img/tf1_30_T1_ss2_md.jpeg'></img>","0","false",""
"","html-keyboard-response","73","260787","0.0-10.0-0.30","894","""event"",""trial"",""time""
""fullscreenenter"",""0"",""4435""
""blur"",""74"",""266003""
""focus"",""74"",""266289""
""blur"",""74"",""268160""
""focus"",""74"",""269649""
""blur"",""74"",""269711""
""focus"",""74"",""269982""
","""event"",""trial"",""time""
""blur"",""74"",""266003""
""blur"",""74"",""268160""
""blur"",""74"",""269711""
","""event"",""trial"",""time""
""focus"",""74"",""266289""
""focus"",""74"",""269649""
""focus"",""74"",""269982""
","""event"",""trial"",""time""
""fullscreenenter"",""0"",""4435""
","
","null","<div style=""font-size:60px;"">+</div>","","null","fixation","2021-04-10 21:41:46.343","","","","",""
"","mars-trial","74","274965","0.0-10.0-1.30","894","""event"",""trial"",""time""
""fullscreenenter"",""0"",""4435""
""blur"",""74"",""266003""
""focus"",""74"",""266289""
""blur"",""74"",""268160""
""focus"",""74"",""269649""
""blur"",""74"",""269711""
""focus"",""74"",""269982""
","""event"",""trial"",""time""
""blur"",""74"",""266003""
""blur"",""74"",""268160""
""blur"",""74"",""269711""
","""event"",""trial"",""time""
""focus"",""74"",""266289""
""focus"",""74"",""269649""
""focus"",""74"",""269982""
","""event"",""trial"",""time""
""fullscreenenter"",""0"",""4435""
","
","13562.14000005275","<img style='border: 4px solid darkgrey;' src='img/tf1_31_M_ss3.jpeg'></img>","1","","exp","","2","<img src='img/tf1_31_T1_ss3_md.jpeg'></img>","0","false",""
"","html-keyboard-response","75","275469","0.0-10.0-0.31","894","""event"",""trial"",""time""
""fullscreenenter"",""0"",""4435""
""blur"",""74"",""266003""
""focus"",""74"",""266289""
""blur"",""74"",""268160""
""focus"",""74"",""269649""
""blur"",""74"",""269711""
""focus"",""74"",""269982""
","""event"",""trial"",""time""
""blur"",""74"",""266003""
""blur"",""74"",""268160""
""blur"",""74"",""269711""
","""event"",""trial"",""time""
""focus"",""74"",""266289""
""focus"",""74"",""269649""
""focus"",""74"",""269982""
","""event"",""trial"",""time""
""fullscreenenter"",""0"",""4435""
","
","null","<div style=""font-size:60px;"">+</div>","","null","fixation","2021-04-10 21:42:01.025","","","","",""
"","mars-trial","76","277952","0.0-10.0-1.31","894","""event"",""trial"",""time""
""fullscreenenter"",""0"",""4435""
""blur"",""74"",""266003""
""focus"",""74"",""266289""
""blur"",""74"",""268160""
""focus"",""74"",""269649""
""blur"",""74"",""269711""
""focus"",""74"",""269982""
","""event"",""trial"",""time""
""blur"",""74"",""266003""
""blur"",""74"",""268160""
""blur"",""74"",""269711""
","""event"",""trial"",""time""
""focus"",""74"",""266289""
""focus"",""74"",""269649""
""focus"",""74"",""269982""
","""event"",""trial"",""time""
""fullscreenenter"",""0"",""4435""
","
","1867.354999994859","<img style='border: 4px solid darkgrey;' src='img/tf1_32_M_ss1.jpeg'></img>","1","","exp","","2","<img src='img/tf1_32_T1_ss1_md.jpeg'></img>","0","false",""
"","html-keyboard-response","77","278455","0.0-10.0-0.32","894","""event"",""trial"",""time""
""fullscreenenter"",""0"",""4435""
""blur"",""74"",""266003""
""focus"",""74"",""266289""
""blur"",""74"",""268160""
""focus"",""74"",""269649""
""blur"",""74"",""269711""
""focus"",""74"",""269982""
","""event"",""trial"",""time""
""blur"",""74"",""266003""
""blur"",""74"",""268160""
""blur"",""74"",""269711""
","""event"",""trial"",""time""
""focus"",""74"",""266289""
""focus"",""74"",""269649""
""focus"",""74"",""269982""
","""event"",""trial"",""time""
""fullscreenenter"",""0"",""4435""
","
","null","<div style=""font-size:60px;"">+</div>","","null","fixation","2021-04-10 21:42:04.012","","","","",""
"","mars-trial","78","281451","0.0-10.0-1.32","894","""event"",""trial"",""time""
""fullscreenenter"",""0"",""4435""
""blur"",""74"",""266003""
""focus"",""74"",""266289""
""blur"",""74"",""268160""
""focus"",""74"",""269649""
""blur"",""74"",""269711""
""focus"",""74"",""269982""
","""event"",""trial"",""time""
""blur"",""74"",""266003""
""blur"",""74"",""268160""
""blur"",""74"",""269711""
","""event"",""trial"",""time""
""focus"",""74"",""266289""
""focus"",""74"",""269649""
""focus"",""74"",""269982""
","""event"",""trial"",""time""
""fullscreenenter"",""0"",""4435""
","
","2381.3300000038","<img style='border: 4px solid darkgrey;' src='img/tf1_33_M_ss2.jpeg'></img>","2","","exp","","3","<img src='img/tf1_33_T1_ss2_md.jpeg'></img>","0","false",""
"","html-keyboard-response","79","281955","0.0-10.0-0.33","894","""event"",""trial"",""time""
""fullscreenenter"",""0"",""4435""
""blur"",""74"",""266003""
""focus"",""74"",""266289""
""blur"",""74"",""268160""
""focus"",""74"",""269649""
""blur"",""74"",""269711""
""focus"",""74"",""269982""
","""event"",""trial"",""time""
""blur"",""74"",""266003""
""blur"",""74"",""268160""
""blur"",""74"",""269711""
","""event"",""trial"",""time""
""focus"",""74"",""266289""
""focus"",""74"",""269649""
""focus"",""74"",""269982""
","""event"",""trial"",""time""
""fullscreenenter"",""0"",""4435""
","
","null","<div style=""font-size:60px;"">+</div>","","null","fixation","2021-04-10 21:42:07.512","","","","",""
"","mars-trial","80","284611","0.0-10.0-1.33","894","""event"",""trial"",""time""
""fullscreenenter"",""0"",""4435""
""blur"",""74"",""266003""
""focus"",""74"",""266289""
""blur"",""74"",""268160""
""focus"",""74"",""269649""
""blur"",""74"",""269711""
""focus"",""74"",""269982""
","""event"",""trial"",""time""
""blur"",""74"",""266003""
""blur"",""74"",""268160""
""blur"",""74"",""269711""
","""event"",""trial"",""time""
""focus"",""74"",""266289""
""focus"",""74"",""269649""
""focus"",""74"",""269982""
","""event"",""trial"",""time""
""fullscreenenter"",""0"",""4435""
","
","2035.8750000596046","<img style='border: 4px solid darkgrey;' src='img/tf1_34_M_ss3.jpeg'></img>","2","","exp","","0","<img src='img/tf1_34_T1_ss3_md.jpeg'></img>","0","true",""
"","html-keyboard-response","81","285115","0.0-10.0-0.34","894","""event"",""trial"",""time""
""fullscreenenter"",""0"",""4435""
""blur"",""74"",""266003""
""focus"",""74"",""266289""
""blur"",""74"",""268160""
""focus"",""74"",""269649""
""blur"",""74"",""269711""
""focus"",""74"",""269982""
","""event"",""trial"",""time""
""blur"",""74"",""266003""
""blur"",""74"",""268160""
""blur"",""74"",""269711""
","""event"",""trial"",""time""
""focus"",""74"",""266289""
""focus"",""74"",""269649""
""focus"",""74"",""269982""
","""event"",""trial"",""time""
""fullscreenenter"",""0"",""4435""
","
","null","<div style=""font-size:60px;"">+</div>","","null","fixation","2021-04-10 21:42:10.671","","","","",""
"","mars-trial","82","286836","0.0-10.0-1.34","894","""event"",""trial"",""time""
""fullscreenenter"",""0"",""4435""
""blur"",""74"",""266003""
""focus"",""74"",""266289""
""blur"",""74"",""268160""
""focus"",""74"",""269649""
""blur"",""74"",""269711""
""focus"",""74"",""269982""
","""event"",""trial"",""time""
""blur"",""74"",""266003""
""blur"",""74"",""268160""
""blur"",""74"",""269711""
","""event"",""trial"",""time""
""focus"",""74"",""266289""
""focus"",""74"",""269649""
""focus"",""74"",""269982""
","""event"",""trial"",""time""
""fullscreenenter"",""0"",""4435""
","
","1101.0499999392778","<img style='border: 4px solid darkgrey;' src='img/tf1_35_M_ss1.jpeg'></img>","2","","exp","","1","<img src='img/tf1_35_T1_ss1_md.jpeg'></img>","0","false",""
"","html-keyboard-response","83","287340","0.0-10.0-0.35","894","""event"",""trial"",""time""
""fullscreenenter"",""0"",""4435""
""blur"",""74"",""266003""
""focus"",""74"",""266289""
""blur"",""74"",""268160""
""focus"",""74"",""269649""
""blur"",""74"",""269711""
""focus"",""74"",""269982""
","""event"",""trial"",""time""
""blur"",""74"",""266003""
""blur"",""74"",""268160""
""blur"",""74"",""269711""
","""event"",""trial"",""time""
""focus"",""74"",""266289""
""focus"",""74"",""269649""
""focus"",""74"",""269982""
","""event"",""trial"",""time""
""fullscreenenter"",""0"",""4435""
","
","null","<div style=""font-size:60px;"">+</div>","","null","fixation","2021-04-10 21:42:12.896","","","","",""
"","mars-trial","84","289860","0.0-10.0-1.35","894","""event"",""trial"",""time""
""fullscreenenter"",""0"",""4435""
""blur"",""74"",""266003""
""focus"",""74"",""266289""
""blur"",""74"",""268160""
""focus"",""74"",""269649""
""blur"",""74"",""269711""
""focus"",""74"",""269982""
","""event"",""trial"",""time""
""blur"",""74"",""266003""
""blur"",""74"",""268160""
""blur"",""74"",""269711""
","""event"",""trial"",""time""
""focus"",""74"",""266289""
""focus"",""74"",""269649""
""focus"",""74"",""269982""
","""event"",""trial"",""time""
""fullscreenenter"",""0"",""4435""
","
","1904.234999907203","<img style='border: 4px solid darkgrey;' src='img/tf1_36_M_ss2.jpeg'></img>","2","","exp","","2","<img src='img/tf1_36_T1_ss2_md.jpeg'></img>","0","false",""
"","html-keyboard-response","85","290365","0.0-10.0-0.36","894","""event"",""trial"",""time""
""fullscreenenter"",""0"",""4435""
""blur"",""74"",""266003""
""focus"",""74"",""266289""
""blur"",""74"",""268160""
""focus"",""74"",""269649""
""blur"",""74"",""269711""
""focus"",""74"",""269982""
","""event"",""trial"",""time""
""blur"",""74"",""266003""
""blur"",""74"",""268160""
""blur"",""74"",""269711""
","""event"",""trial"",""time""
""focus"",""74"",""266289""
""focus"",""74"",""269649""
""focus"",""74"",""269982""
","""event"",""trial"",""time""
""fullscreenenter"",""0"",""4435""
","
","null","<div style=""font-size:60px;"">+</div>","","null","fixation","2021-04-10 21:42:15.921","","","","",""
"","mars-trial","86","296028","0.0-10.0-1.36","894","""event"",""trial"",""time""
""fullscreenenter"",""0"",""4435""
""blur"",""74"",""266003""
""focus"",""74"",""266289""
""blur"",""74"",""268160""
""focus"",""74"",""269649""
""blur"",""74"",""269711""
""focus"",""74"",""269982""
","""event"",""trial"",""time""
""blur"",""74"",""266003""
""blur"",""74"",""268160""
""blur"",""74"",""269711""
","""event"",""trial"",""time""
""focus"",""74"",""266289""
""focus"",""74"",""269649""
""focus"",""74"",""269982""
","""event"",""trial"",""time""
""fullscreenenter"",""0"",""4435""
","
","5049.725000048056","<img style='border: 4px solid darkgrey;' src='img/tf1_37_M_ss3.jpeg'></img>","1","","exp","","3","<img src='img/tf1_37_T1_ss3_md.jpeg'></img>","0","false",""
"","html-keyboard-response","87","296533","0.0-10.0-0.37","894","""event"",""trial"",""time""
""fullscreenenter"",""0"",""4435""
""blur"",""74"",""266003""
""focus"",""74"",""266289""
""blur"",""74"",""268160""
""focus"",""74"",""269649""
""blur"",""74"",""269711""
""focus"",""74"",""269982""
","""event"",""trial"",""time""
""blur"",""74"",""266003""
""blur"",""74"",""268160""
""blur"",""74"",""269711""
","""event"",""trial"",""time""
""focus"",""74"",""266289""
""focus"",""74"",""269649""
""focus"",""74"",""269982""
","""event"",""trial"",""time""
""fullscreenenter"",""0"",""4435""
","
","null","<div style=""font-size:60px;"">+</div>","","null","fixation","2021-04-10 21:42:22.089","","","","",""
"","mars-trial","88","299238","0.0-10.0-1.37","894","""event"",""trial"",""time""
""fullscreenenter"",""0"",""4435""
""blur"",""74"",""266003""
""focus"",""74"",""266289""
""blur"",""74"",""268160""
""focus"",""74"",""269649""
""blur"",""74"",""269711""
""focus"",""74"",""269982""
","""event"",""trial"",""time""
""blur"",""74"",""266003""
""blur"",""74"",""268160""
""blur"",""74"",""269711""
","""event"",""trial"",""time""
""focus"",""74"",""266289""
""focus"",""74"",""269649""
""focus"",""74"",""269982""
","""event"",""trial"",""time""
""fullscreenenter"",""0"",""4435""
","
","2086.9100000709295","<img style='border: 4px solid darkgrey;' src='img/tf1_38_M_ss1.jpeg'></img>","1","","exp","","0","<img src='img/tf1_38_T1_ss1_md.jpeg'></img>","0","true",""
"","html-keyboard-response","89","299742","0.0-10.0-0.38","894","""event"",""trial"",""time""
""fullscreenenter"",""0"",""4435""
""blur"",""74"",""266003""
""focus"",""74"",""266289""
""blur"",""74"",""268160""
""focus"",""74"",""269649""
""blur"",""74"",""269711""
""focus"",""74"",""269982""
","""event"",""trial"",""time""
""blur"",""74"",""266003""
""blur"",""74"",""268160""
""blur"",""74"",""269711""
","""event"",""trial"",""time""
""focus"",""74"",""266289""
""focus"",""74"",""269649""
""focus"",""74"",""269982""
","""event"",""trial"",""time""
""fullscreenenter"",""0"",""4435""
","
","null","<div style=""font-size:60px;"">+</div>","","null","fixation","2021-04-10 21:42:25.298","","","","",""
"","mars-trial","90","301390","0.0-10.0-1.38","894","""event"",""trial"",""time""
""fullscreenenter"",""0"",""4435""
""blur"",""74"",""266003""
""focus"",""74"",""266289""
""blur"",""74"",""268160""
""focus"",""74"",""269649""
""blur"",""74"",""269711""
""focus"",""74"",""269982""
","""event"",""trial"",""time""
""blur"",""74"",""266003""
""blur"",""74"",""268160""
""blur"",""74"",""269711""
","""event"",""trial"",""time""
""focus"",""74"",""266289""
""focus"",""74"",""269649""
""focus"",""74"",""269982""
","""event"",""trial"",""time""
""fullscreenenter"",""0"",""4435""
","
","1031.7100000102073","<img style='border: 4px solid darkgrey;' src='img/tf1_39_M_ss2.jpeg'></img>","1","","exp","","0","<img src='img/tf1_39_T1_ss2_md.jpeg'></img>","0","true",""
"","html-keyboard-response","91","301895","0.0-10.0-0.39","894","""event"",""trial"",""time""
""fullscreenenter"",""0"",""4435""
""blur"",""74"",""266003""
""focus"",""74"",""266289""
""blur"",""74"",""268160""
""focus"",""74"",""269649""
""blur"",""74"",""269711""
""focus"",""74"",""269982""
","""event"",""trial"",""time""
""blur"",""74"",""266003""
""blur"",""74"",""268160""
""blur"",""74"",""269711""
","""event"",""trial"",""time""
""focus"",""74"",""266289""
""focus"",""74"",""269649""
""focus"",""74"",""269982""
","""event"",""trial"",""time""
""fullscreenenter"",""0"",""4435""
","
","null","<div style=""font-size:60px;"">+</div>","","null","fixation","2021-04-10 21:42:27.451","","","","",""
"","mars-trial","92","303745","0.0-10.0-1.39","894","""event"",""trial"",""time""
""fullscreenenter"",""0"",""4435""
""blur"",""74"",""266003""
""focus"",""74"",""266289""
""blur"",""74"",""268160""
""focus"",""74"",""269649""
""blur"",""74"",""269711""
""focus"",""74"",""269982""
","""event"",""trial"",""time""
""blur"",""74"",""266003""
""blur"",""74"",""268160""
""blur"",""74"",""269711""
","""event"",""trial"",""time""
""focus"",""74"",""266289""
""focus"",""74"",""269649""
""focus"",""74"",""269982""
","""event"",""trial"",""time""
""fullscreenenter"",""0"",""4435""
","
","1236.600000062026","<img style='border: 4px solid darkgrey;' src='img/tf1_40_M_ss3.jpeg'></img>","1","","exp","","3","<img src='img/tf1_40_T1_ss3_md.jpeg'></img>","0","false",""
"","html-keyboard-response","93","304255","0.0-10.0-0.40","894","""event"",""trial"",""time""
""fullscreenenter"",""0"",""4435""
""blur"",""74"",""266003""
""focus"",""74"",""266289""
""blur"",""74"",""268160""
""focus"",""74"",""269649""
""blur"",""74"",""269711""
""focus"",""74"",""269982""
","""event"",""trial"",""time""
""blur"",""74"",""266003""
""blur"",""74"",""268160""
""blur"",""74"",""269711""
","""event"",""trial"",""time""
""focus"",""74"",""266289""
""focus"",""74"",""269649""
""focus"",""74"",""269982""
","""event"",""trial"",""time""
""fullscreenenter"",""0"",""4435""
","
","null","<div style=""font-size:60px;"">+</div>","","null","fixation","2021-04-10 21:42:29.811","","","","",""
"","mars-trial","94","307366","0.0-10.0-1.40","894","""event"",""trial"",""time""
""fullscreenenter"",""0"",""4435""
""blur"",""74"",""266003""
""focus"",""74"",""266289""
""blur"",""74"",""268160""
""focus"",""74"",""269649""
""blur"",""74"",""269711""
""focus"",""74"",""269982""
","""event"",""trial"",""time""
""blur"",""74"",""266003""
""blur"",""74"",""268160""
""blur"",""74"",""269711""
","""event"",""trial"",""time""
""focus"",""74"",""266289""
""focus"",""74"",""269649""
""focus"",""74"",""269982""
","""event"",""trial"",""time""
""fullscreenenter"",""0"",""4435""
","
","2493.2499999413267","<img style='border: 4px solid darkgrey;' src='img/tf1_41_M_ss1.jpeg'></img>","2","","exp","","2","<img src='img/tf1_41_T1_ss1_md.jpeg'></img>","0","false",""
"","html-keyboard-response","95","307874","0.0-10.0-0.41","894","""event"",""trial"",""time""
""fullscreenenter"",""0"",""4435""
""blur"",""74"",""266003""
""focus"",""74"",""266289""
""blur"",""74"",""268160""
""focus"",""74"",""269649""
""blur"",""74"",""269711""
""focus"",""74"",""269982""
","""event"",""trial"",""time""
""blur"",""74"",""266003""
""blur"",""74"",""268160""
""blur"",""74"",""269711""
","""event"",""trial"",""time""
""focus"",""74"",""266289""
""focus"",""74"",""269649""
""focus"",""74"",""269982""
","""event"",""trial"",""time""
""fullscreenenter"",""0"",""4435""
","
","null","<div style=""font-size:60px;"">+</div>","","null","fixation","2021-04-10 21:42:33.431","","","","",""
"","mars-trial","96","310551","0.0-10.0-1.41","894","""event"",""trial"",""time""
""fullscreenenter"",""0"",""4435""
""blur"",""74"",""266003""
""focus"",""74"",""266289""
""blur"",""74"",""268160""
""focus"",""74"",""269649""
""blur"",""74"",""269711""
""focus"",""74"",""269982""
","""event"",""trial"",""time""
""blur"",""74"",""266003""
""blur"",""74"",""268160""
""blur"",""74"",""269711""
","""event"",""trial"",""time""
""focus"",""74"",""266289""
""focus"",""74"",""269649""
""focus"",""74"",""269982""
","""event"",""trial"",""time""
""fullscreenenter"",""0"",""4435""
","
","2060.094999964349","<img style='border: 4px solid darkgrey;' src='img/tf1_42_M_ss2.jpeg'></img>","2","","exp","","3","<img src='img/tf1_42_T1_ss2_md.jpeg'></img>","0","false",""
"","html-keyboard-response","97","311054","0.0-10.0-0.42","894","""event"",""trial"",""time""
""fullscreenenter"",""0"",""4435""
""blur"",""74"",""266003""
""focus"",""74"",""266289""
""blur"",""74"",""268160""
""focus"",""74"",""269649""
""blur"",""74"",""269711""
""focus"",""74"",""269982""
","""event"",""trial"",""time""
""blur"",""74"",""266003""
""blur"",""74"",""268160""
""blur"",""74"",""269711""
","""event"",""trial"",""time""
""focus"",""74"",""266289""
""focus"",""74"",""269649""
""focus"",""74"",""269982""
","""event"",""trial"",""time""
""fullscreenenter"",""0"",""4435""
","
","null","<div style=""font-size:60px;"">+</div>","","null","fixation","2021-04-10 21:42:36.611","","","","",""
"","mars-trial","98","313950","0.0-10.0-1.42","894","""event"",""trial"",""time""
""fullscreenenter"",""0"",""4435""
""blur"",""74"",""266003""
""focus"",""74"",""266289""
""blur"",""74"",""268160""
""focus"",""74"",""269649""
""blur"",""74"",""269711""
""focus"",""74"",""269982""
","""event"",""trial"",""time""
""blur"",""74"",""266003""
""blur"",""74"",""268160""
""blur"",""74"",""269711""
","""event"",""trial"",""time""
""focus"",""74"",""266289""
""focus"",""74"",""269649""
""focus"",""74"",""269982""
","""event"",""trial"",""time""
""fullscreenenter"",""0"",""4435""
","
","2279.660000000149","<img style='border: 4px solid darkgrey;' src='img/tf1_43_M_ss3.jpeg'></img>","3","","exp","","0","<img src='img/tf1_43_T1_ss3_md.jpeg'></img>","0","true",""
"","html-keyboard-response","99","314454","0.0-10.0-0.43","894","""event"",""trial"",""time""
""fullscreenenter"",""0"",""4435""
""blur"",""74"",""266003""
""focus"",""74"",""266289""
""blur"",""74"",""268160""
""focus"",""74"",""269649""
""blur"",""74"",""269711""
""focus"",""74"",""269982""
","""event"",""trial"",""time""
""blur"",""74"",""266003""
""blur"",""74"",""268160""
""blur"",""74"",""269711""
","""event"",""trial"",""time""
""focus"",""74"",""266289""
""focus"",""74"",""269649""
""focus"",""74"",""269982""
","""event"",""trial"",""time""
""fullscreenenter"",""0"",""4435""
","
","null","<div style=""font-size:60px;"">+</div>","","null","fixation","2021-04-10 21:42:40.011","","","","",""
"","mars-trial","100","316912","0.0-10.0-1.43","894","""event"",""trial"",""time""
""fullscreenenter"",""0"",""4435""
""blur"",""74"",""266003""
""focus"",""74"",""266289""
""blur"",""74"",""268160""
""focus"",""74"",""269649""
""blur"",""74"",""269711""
""focus"",""74"",""269982""
","""event"",""trial"",""time""
""blur"",""74"",""266003""
""blur"",""74"",""268160""
""blur"",""74"",""269711""
","""event"",""trial"",""time""
""focus"",""74"",""266289""
""focus"",""74"",""269649""
""focus"",""74"",""269982""
","""event"",""trial"",""time""
""fullscreenenter"",""0"",""4435""
","
","1842.3249999759719","<img style='border: 4px solid darkgrey;' src='img/tf1_44_M_ss1.jpeg'></img>","3","","exp","","2","<img src='img/tf1_44_T1_ss1_md.jpeg'></img>","0","false",""
"","html-keyboard-response","101","317422","0.0-10.0-0.44","894","""event"",""trial"",""time""
""fullscreenenter"",""0"",""4435""
""blur"",""74"",""266003""
""focus"",""74"",""266289""
""blur"",""74"",""268160""
""focus"",""74"",""269649""
""blur"",""74"",""269711""
""focus"",""74"",""269982""
","""event"",""trial"",""time""
""blur"",""74"",""266003""
""blur"",""74"",""268160""
""blur"",""74"",""269711""
","""event"",""trial"",""time""
""focus"",""74"",""266289""
""focus"",""74"",""269649""
""focus"",""74"",""269982""
","""event"",""trial"",""time""
""fullscreenenter"",""0"",""4435""
","
","null","<div style=""font-size:60px;"">+</div>","","null","fixation","2021-04-10 21:42:42.978","","","","",""
"","mars-trial","102","325833","0.0-10.0-1.44","894","""event"",""trial"",""time""
""fullscreenenter"",""0"",""4435""
""blur"",""74"",""266003""
""focus"",""74"",""266289""
""blur"",""74"",""268160""
""focus"",""74"",""269649""
""blur"",""74"",""269711""
""focus"",""74"",""269982""
","""event"",""trial"",""time""
""blur"",""74"",""266003""
""blur"",""74"",""268160""
""blur"",""74"",""269711""
","""event"",""trial"",""time""
""focus"",""74"",""266289""
""focus"",""74"",""269649""
""focus"",""74"",""269982""
","""event"",""trial"",""time""
""fullscreenenter"",""0"",""4435""
","
","7793.234999990091","<img style='border: 4px solid darkgrey;' src='img/tf1_45_M_ss2.jpeg'></img>","3","","exp","","2","<img src='img/tf1_45_T1_ss2_md.jpeg'></img>","0","false",""
"","html-keyboard-response","103","326340","0.0-10.0-0.45","894","""event"",""trial"",""time""
""fullscreenenter"",""0"",""4435""
""blur"",""74"",""266003""
""focus"",""74"",""266289""
""blur"",""74"",""268160""
""focus"",""74"",""269649""
""blur"",""74"",""269711""
""focus"",""74"",""269982""
","""event"",""trial"",""time""
""blur"",""74"",""266003""
""blur"",""74"",""268160""
""blur"",""74"",""269711""
","""event"",""trial"",""time""
""focus"",""74"",""266289""
""focus"",""74"",""269649""
""focus"",""74"",""269982""
","""event"",""trial"",""time""
""fullscreenenter"",""0"",""4435""
","
","null","<div style=""font-size:60px;"">+</div>","","null","fixation","2021-04-10 21:42:51.896","","","","",""
"","mars-trial","104","328244","0.0-10.0-1.45","894","""event"",""trial"",""time""
""fullscreenenter"",""0"",""4435""
""blur"",""74"",""266003""
""focus"",""74"",""266289""
""blur"",""74"",""268160""
""focus"",""74"",""269649""
""blur"",""74"",""269711""
""focus"",""74"",""269982""
","""event"",""trial"",""time""
""blur"",""74"",""266003""
""blur"",""74"",""268160""
""blur"",""74"",""269711""
","""event"",""trial"",""time""
""focus"",""74"",""266289""
""focus"",""74"",""269649""
""focus"",""74"",""269982""
","""event"",""trial"",""time""
""fullscreenenter"",""0"",""4435""
","
","1286.835000035353","<img style='border: 4px solid darkgrey;' src='img/tf1_46_M_ss3.jpeg'></img>","3","","exp","","2","<img src='img/tf1_46_T1_ss3_md.jpeg'></img>","0","false",""
"","html-keyboard-response","105","328749","0.0-10.0-0.46","894","""event"",""trial"",""time""
""fullscreenenter"",""0"",""4435""
""blur"",""74"",""266003""
""focus"",""74"",""266289""
""blur"",""74"",""268160""
""focus"",""74"",""269649""
""blur"",""74"",""269711""
""focus"",""74"",""269982""
","""event"",""trial"",""time""
""blur"",""74"",""266003""
""blur"",""74"",""268160""
""blur"",""74"",""269711""
","""event"",""trial"",""time""
""focus"",""74"",""266289""
""focus"",""74"",""269649""
""focus"",""74"",""269982""
","""event"",""trial"",""time""
""fullscreenenter"",""0"",""4435""
","
","null","<div style=""font-size:60px;"">+</div>","","null","fixation","2021-04-10 21:42:54.305","","","","",""
"","mars-trial","106","331268","0.0-10.0-1.46","894","""event"",""trial"",""time""
""fullscreenenter"",""0"",""4435""
""blur"",""74"",""266003""
""focus"",""74"",""266289""
""blur"",""74"",""268160""
""focus"",""74"",""269649""
""blur"",""74"",""269711""
""focus"",""74"",""269982""
","""event"",""trial"",""time""
""blur"",""74"",""266003""
""blur"",""74"",""268160""
""blur"",""74"",""269711""
","""event"",""trial"",""time""
""focus"",""74"",""266289""
""focus"",""74"",""269649""
""focus"",""74"",""269982""
","""event"",""trial"",""time""
""fullscreenenter"",""0"",""4435""
","
","1903.8650000002235","<img style='border: 4px solid darkgrey;' src='img/tf1_47_M_ss1.jpeg'></img>","2","","exp","","1","<img src='img/tf1_47_T1_ss1_md.jpeg'></img>","0","false",""
"","html-keyboard-response","107","331772","0.0-10.0-0.47","894","""event"",""trial"",""time""
""fullscreenenter"",""0"",""4435""
""blur"",""74"",""266003""
""focus"",""74"",""266289""
""blur"",""74"",""268160""
""focus"",""74"",""269649""
""blur"",""74"",""269711""
""focus"",""74"",""269982""
","""event"",""trial"",""time""
""blur"",""74"",""266003""
""blur"",""74"",""268160""
""blur"",""74"",""269711""
","""event"",""trial"",""time""
""focus"",""74"",""266289""
""focus"",""74"",""269649""
""focus"",""74"",""269982""
","""event"",""trial"",""time""
""fullscreenenter"",""0"",""4435""
","
","null","<div style=""font-size:60px;"">+</div>","","null","fixation","2021-04-10 21:42:57.328","","","","",""
"","mars-trial","108","335778","0.0-10.0-1.47","894","""event"",""trial"",""time""
""fullscreenenter"",""0"",""4435""
""blur"",""74"",""266003""
""focus"",""74"",""266289""
""blur"",""74"",""268160""
""focus"",""74"",""269649""
""blur"",""74"",""269711""
""focus"",""74"",""269982""
","""event"",""trial"",""time""
""blur"",""74"",""266003""
""blur"",""74"",""268160""
""blur"",""74"",""269711""
","""event"",""trial"",""time""
""focus"",""74"",""266289""
""focus"",""74"",""269649""
""focus"",""74"",""269982""
","""event"",""trial"",""time""
""fullscreenenter"",""0"",""4435""
","
","3390.1499999919906","<img style='border: 4px solid darkgrey;' src='img/tf1_48_M_ss2.jpeg'></img>","2","","exp","","0","<img src='img/tf1_48_T1_ss2_md.jpeg'></img>","0","true",""
"","html-keyboard-response","109","336282","0.0-10.0-0.48","894","""event"",""trial"",""time""
""fullscreenenter"",""0"",""4435""
""blur"",""74"",""266003""
""focus"",""74"",""266289""
""blur"",""74"",""268160""
""focus"",""74"",""269649""
""blur"",""74"",""269711""
""focus"",""74"",""269982""
","""event"",""trial"",""time""
""blur"",""74"",""266003""
""blur"",""74"",""268160""
""blur"",""74"",""269711""
","""event"",""trial"",""time""
""focus"",""74"",""266289""
""focus"",""74"",""269649""
""focus"",""74"",""269982""
","""event"",""trial"",""time""
""fullscreenenter"",""0"",""4435""
","
","null","<div style=""font-size:60px;"">+</div>","","null","fixation","2021-04-10 21:43:01.838","","","","",""
"","mars-trial","110","352453","0.0-10.0-1.48","894","""event"",""trial"",""time""
""fullscreenenter"",""0"",""4435""
""blur"",""74"",""266003""
""focus"",""74"",""266289""
""blur"",""74"",""268160""
""focus"",""74"",""269649""
""blur"",""74"",""269711""
""focus"",""74"",""269982""
","""event"",""trial"",""time""
""blur"",""74"",""266003""
""blur"",""74"",""268160""
""blur"",""74"",""269711""
","""event"",""trial"",""time""
""focus"",""74"",""266289""
""focus"",""74"",""269649""
""focus"",""74"",""269982""
","""event"",""trial"",""time""
""fullscreenenter"",""0"",""4435""
","
","15547.769999946468","<img style='border: 4px solid darkgrey;' src='img/tf1_49_M_ss3.jpeg'></img>","2","","exp","","0","<img src='img/tf1_49_T1_ss3_md.jpeg'></img>","0","true",""
"","html-keyboard-response","111","352957","0.0-10.0-0.49","894","""event"",""trial"",""time""
""fullscreenenter"",""0"",""4435""
""blur"",""74"",""266003""
""focus"",""74"",""266289""
""blur"",""74"",""268160""
""focus"",""74"",""269649""
""blur"",""74"",""269711""
""focus"",""74"",""269982""
","""event"",""trial"",""time""
""blur"",""74"",""266003""
""blur"",""74"",""268160""
""blur"",""74"",""269711""
","""event"",""trial"",""time""
""focus"",""74"",""266289""
""focus"",""74"",""269649""
""focus"",""74"",""269982""
","""event"",""trial"",""time""
""fullscreenenter"",""0"",""4435""
","
","null","<div style=""font-size:60px;"">+</div>","","null","fixation","2021-04-10 21:43:18.513","","","","",""
"","mars-trial","112","354892","0.0-10.0-1.49","894","""event"",""trial"",""time""
""fullscreenenter"",""0"",""4435""
""blur"",""74"",""266003""
""focus"",""74"",""266289""
""blur"",""74"",""268160""
""focus"",""74"",""269649""
""blur"",""74"",""269711""
""focus"",""74"",""269982""
","""event"",""trial"",""time""
""blur"",""74"",""266003""
""blur"",""74"",""268160""
""blur"",""74"",""269711""
","""event"",""trial"",""time""
""focus"",""74"",""266289""
""focus"",""74"",""269649""
""focus"",""74"",""269982""
","""event"",""trial"",""time""
""fullscreenenter"",""0"",""4435""
","
","1315.6599999638274","<img style='border: 4px solid darkgrey;' src='img/tf1_50_M_ss1.jpeg'></img>","2","","exp","","0","<img src='img/tf1_50_T1_ss1_md.jpeg'></img>","0","true",""
"","html-keyboard-response","113","355397","0.0-10.0-0.50","894","""event"",""trial"",""time""
""fullscreenenter"",""0"",""4435""
""blur"",""74"",""266003""
""focus"",""74"",""266289""
""blur"",""74"",""268160""
""focus"",""74"",""269649""
""blur"",""74"",""269711""
""focus"",""74"",""269982""
","""event"",""trial"",""time""
""blur"",""74"",""266003""
""blur"",""74"",""268160""
""blur"",""74"",""269711""
","""event"",""trial"",""time""
""focus"",""74"",""266289""
""focus"",""74"",""269649""
""focus"",""74"",""269982""
","""event"",""trial"",""time""
""fullscreenenter"",""0"",""4435""
","
","null","<div style=""font-size:60px;"">+</div>","","null","fixation","2021-04-10 21:43:20.953","","","","",""
"","mars-trial","114","358072","0.0-10.0-1.50","894","""event"",""trial"",""time""
""fullscreenenter"",""0"",""4435""
""blur"",""74"",""266003""
""focus"",""74"",""266289""
""blur"",""74"",""268160""
""focus"",""74"",""269649""
""blur"",""74"",""269711""
""focus"",""74"",""269982""
","""event"",""trial"",""time""
""blur"",""74"",""266003""
""blur"",""74"",""268160""
""blur"",""74"",""269711""
","""event"",""trial"",""time""
""focus"",""74"",""266289""
""focus"",""74"",""269649""
""focus"",""74"",""269982""
","""event"",""trial"",""time""
""fullscreenenter"",""0"",""4435""
","
","2059.8499999614432","<img style='border: 4px solid darkgrey;' src='img/tf1_51_M_ss2.jpeg'></img>","3","","exp","","2","<img src='img/tf1_51_T1_ss2_md.jpeg'></img>","0","false",""
"","html-keyboard-response","115","358576","0.0-10.0-0.51","894","""event"",""trial"",""time""
""fullscreenenter"",""0"",""4435""
""blur"",""74"",""266003""
""focus"",""74"",""266289""
""blur"",""74"",""268160""
""focus"",""74"",""269649""
""blur"",""74"",""269711""
""focus"",""74"",""269982""
","""event"",""trial"",""time""
""blur"",""74"",""266003""
""blur"",""74"",""268160""
""blur"",""74"",""269711""
","""event"",""trial"",""time""
""focus"",""74"",""266289""
""focus"",""74"",""269649""
""focus"",""74"",""269982""
","""event"",""trial"",""time""
""fullscreenenter"",""0"",""4435""
","
","null","<div style=""font-size:60px;"">+</div>","","null","fixation","2021-04-10 21:43:24.133","","","","",""
"","mars-trial","116","364350","0.0-10.0-1.51","894","""event"",""trial"",""time""
""fullscreenenter"",""0"",""4435""
""blur"",""74"",""266003""
""focus"",""74"",""266289""
""blur"",""74"",""268160""
""focus"",""74"",""269649""
""blur"",""74"",""269711""
""focus"",""74"",""269982""
","""event"",""trial"",""time""
""blur"",""74"",""266003""
""blur"",""74"",""268160""
""blur"",""74"",""269711""
","""event"",""trial"",""time""
""focus"",""74"",""266289""
""focus"",""74"",""269649""
""focus"",""74"",""269982""
","""event"",""trial"",""time""
""fullscreenenter"",""0"",""4435""
","
","5156.770000001416","<img style='border: 4px solid darkgrey;' src='img/tf1_52_M_ss3.jpeg'></img>","0","","exp","","2","<img src='img/tf1_52_T1_ss3_md.jpeg'></img>","0","false",""
"","html-keyboard-response","117","364854","0.0-10.0-0.52","894","""event"",""trial"",""time""
""fullscreenenter"",""0"",""4435""
""blur"",""74"",""266003""
""focus"",""74"",""266289""
""blur"",""74"",""268160""
""focus"",""74"",""269649""
""blur"",""74"",""269711""
""focus"",""74"",""269982""
","""event"",""trial"",""time""
""blur"",""74"",""266003""
""blur"",""74"",""268160""
""blur"",""74"",""269711""
","""event"",""trial"",""time""
""focus"",""74"",""266289""
""focus"",""74"",""269649""
""focus"",""74"",""269982""
","""event"",""trial"",""time""
""fullscreenenter"",""0"",""4435""
","
","null","<div style=""font-size:60px;"">+</div>","","null","fixation","2021-04-10 21:43:30.410","","","","",""
"","mars-trial","118","365962","0.0-10.0-1.52","894","""event"",""trial"",""time""
""fullscreenenter"",""0"",""4435""
""blur"",""74"",""266003""
""focus"",""74"",""266289""
""blur"",""74"",""268160""
""focus"",""74"",""269649""
""blur"",""74"",""269711""
""focus"",""74"",""269982""
","""event"",""trial"",""time""
""blur"",""74"",""266003""
""blur"",""74"",""268160""
""blur"",""74"",""269711""
","""event"",""trial"",""time""
""focus"",""74"",""266289""
""focus"",""74"",""269649""
""focus"",""74"",""269982""
","""event"",""trial"",""time""
""fullscreenenter"",""0"",""4435""
","
","491.14499997813255","<img style='border: 4px solid darkgrey;' src='img/tf1_53_M_ss1.jpeg'></img>","0","","exp","","1","<img src='img/tf1_53_T1_ss1_md.jpeg'></img>","0","false",""
"","html-keyboard-response","119","366467","0.0-10.0-0.53","894","""event"",""trial"",""time""
""fullscreenenter"",""0"",""4435""
""blur"",""74"",""266003""
""focus"",""74"",""266289""
""blur"",""74"",""268160""
""focus"",""74"",""269649""
""blur"",""74"",""269711""
""focus"",""74"",""269982""
","""event"",""trial"",""time""
""blur"",""74"",""266003""
""blur"",""74"",""268160""
""blur"",""74"",""269711""
","""event"",""trial"",""time""
""focus"",""74"",""266289""
""focus"",""74"",""269649""
""focus"",""74"",""269982""
","""event"",""trial"",""time""
""fullscreenenter"",""0"",""4435""
","
","null","<div style=""font-size:60px;"">+</div>","","null","fixation","2021-04-10 21:43:32.023","","","","",""
"","mars-trial","120","367978","0.0-10.0-1.53","894","""event"",""trial"",""time""
""fullscreenenter"",""0"",""4435""
""blur"",""74"",""266003""
""focus"",""74"",""266289""
""blur"",""74"",""268160""
""focus"",""74"",""269649""
""blur"",""74"",""269711""
""focus"",""74"",""269982""
","""event"",""trial"",""time""
""blur"",""74"",""266003""
""blur"",""74"",""268160""
""blur"",""74"",""269711""
","""event"",""trial"",""time""
""focus"",""74"",""266289""
""focus"",""74"",""269649""
""focus"",""74"",""269982""
","""event"",""trial"",""time""
""fullscreenenter"",""0"",""4435""
","
","892.0050000306219","<img style='border: 4px solid darkgrey;' src='img/tf1_54_M_ss2.jpeg'></img>","1","","exp","","1","<img src='img/tf1_54_T1_ss2_md.jpeg'></img>","0","false",""
"","html-keyboard-response","121","368481","0.0-10.0-0.54","894","""event"",""trial"",""time""
""fullscreenenter"",""0"",""4435""
""blur"",""74"",""266003""
""focus"",""74"",""266289""
""blur"",""74"",""268160""
""focus"",""74"",""269649""
""blur"",""74"",""269711""
""focus"",""74"",""269982""
","""event"",""trial"",""time""
""blur"",""74"",""266003""
""blur"",""74"",""268160""
""blur"",""74"",""269711""
","""event"",""trial"",""time""
""focus"",""74"",""266289""
""focus"",""74"",""269649""
""focus"",""74"",""269982""
","""event"",""trial"",""time""
""fullscreenenter"",""0"",""4435""
","
","null","<div style=""font-size:60px;"">+</div>","","null","fixation","2021-04-10 21:43:34.038","","","","",""
"","mars-trial","122","374163","0.0-10.0-1.54","894","""event"",""trial"",""time""
""fullscreenenter"",""0"",""4435""
""blur"",""74"",""266003""
""focus"",""74"",""266289""
""blur"",""74"",""268160""
""focus"",""74"",""269649""
""blur"",""74"",""269711""
""focus"",""74"",""269982""
","""event"",""trial"",""time""
""blur"",""74"",""266003""
""blur"",""74"",""268160""
""blur"",""74"",""269711""
","""event"",""trial"",""time""
""focus"",""74"",""266289""
""focus"",""74"",""269649""
""focus"",""74"",""269982""
","""event"",""trial"",""time""
""fullscreenenter"",""0"",""4435""
","
","5064.320000004955","<img style='border: 4px solid darkgrey;' src='img/tf1_55_M_ss3.jpeg'></img>","1","","exp","","1","<img src='img/tf1_55_T1_ss3_md.jpeg'></img>","0","false",""
"","html-keyboard-response","123","374666","0.0-10.0-0.55","894","""event"",""trial"",""time""
""fullscreenenter"",""0"",""4435""
""blur"",""74"",""266003""
""focus"",""74"",""266289""
""blur"",""74"",""268160""
""focus"",""74"",""269649""
""blur"",""74"",""269711""
""focus"",""74"",""269982""
","""event"",""trial"",""time""
""blur"",""74"",""266003""
""blur"",""74"",""268160""
""blur"",""74"",""269711""
","""event"",""trial"",""time""
""focus"",""74"",""266289""
""focus"",""74"",""269649""
""focus"",""74"",""269982""
","""event"",""trial"",""time""
""fullscreenenter"",""0"",""4435""
","
","null","<div style=""font-size:60px;"">+</div>","","null","fixation","2021-04-10 21:43:40.222","","","","",""
"","mars-trial","124","375587","0.0-10.0-1.55","894","""event"",""trial"",""time""
""fullscreenenter"",""0"",""4435""
""blur"",""74"",""266003""
""focus"",""74"",""266289""
""blur"",""74"",""268160""
""focus"",""74"",""269649""
""blur"",""74"",""269711""
""focus"",""74"",""269982""
","""event"",""trial"",""time""
""blur"",""74"",""266003""
""blur"",""74"",""268160""
""blur"",""74"",""269711""
","""event"",""trial"",""time""
""focus"",""74"",""266289""
""focus"",""74"",""269649""
""focus"",""74"",""269982""
","""event"",""trial"",""time""
""fullscreenenter"",""0"",""4435""
","
","304.02999999932945","<img style='border: 4px solid darkgrey;' src='img/tf1_56_M_ss1.jpeg'></img>","1","","exp","","3","<img src='img/tf1_56_T1_ss1_md.jpeg'></img>","0","false",""
"","html-keyboard-response","125","376093","0.0-10.0-0.56","894","""event"",""trial"",""time""
""fullscreenenter"",""0"",""4435""
""blur"",""74"",""266003""
""focus"",""74"",""266289""
""blur"",""74"",""268160""
""focus"",""74"",""269649""
""blur"",""74"",""269711""
""focus"",""74"",""269982""
","""event"",""trial"",""time""
""blur"",""74"",""266003""
""blur"",""74"",""268160""
""blur"",""74"",""269711""
","""event"",""trial"",""time""
""focus"",""74"",""266289""
""focus"",""74"",""269649""
""focus"",""74"",""269982""
","""event"",""trial"",""time""
""fullscreenenter"",""0"",""4435""
","
","null","<div style=""font-size:60px;"">+</div>","","null","fixation","2021-04-10 21:43:41.649","","","","",""
"","mars-trial","126","388335","0.0-10.0-1.56","894","""event"",""trial"",""time""
""fullscreenenter"",""0"",""4435""
""blur"",""74"",""266003""
""focus"",""74"",""266289""
""blur"",""74"",""268160""
""focus"",""74"",""269649""
""blur"",""74"",""269711""
""focus"",""74"",""269982""
","""event"",""trial"",""time""
""blur"",""74"",""266003""
""blur"",""74"",""268160""
""blur"",""74"",""269711""
","""event"",""trial"",""time""
""focus"",""74"",""266289""
""focus"",""74"",""269649""
""focus"",""74"",""269982""
","""event"",""trial"",""time""
""fullscreenenter"",""0"",""4435""
","
","11626.820000004955","<img style='border: 4px solid darkgrey;' src='img/tf1_57_M_ss2.jpeg'></img>","2","","exp","","3","<img src='img/tf1_57_T1_ss2_md.jpeg'></img>","0","false",""
"","html-keyboard-response","127","388840","0.0-10.0-0.57","894","""event"",""trial"",""time""
""fullscreenenter"",""0"",""4435""
""blur"",""74"",""266003""
""focus"",""74"",""266289""
""blur"",""74"",""268160""
""focus"",""74"",""269649""
""blur"",""74"",""269711""
""focus"",""74"",""269982""
","""event"",""trial"",""time""
""blur"",""74"",""266003""
""blur"",""74"",""268160""
""blur"",""74"",""269711""
","""event"",""trial"",""time""
""focus"",""74"",""266289""
""focus"",""74"",""269649""
""focus"",""74"",""269982""
","""event"",""trial"",""time""
""fullscreenenter"",""0"",""4435""
","
","null","<div style=""font-size:60px;"">+</div>","","null","fixation","2021-04-10 21:43:54.396","","","","",""
"","mars-trial","128","390790","0.0-10.0-1.57","894","""event"",""trial"",""time""
""fullscreenenter"",""0"",""4435""
""blur"",""74"",""266003""
""focus"",""74"",""266289""
""blur"",""74"",""268160""
""focus"",""74"",""269649""
""blur"",""74"",""269711""
""focus"",""74"",""269982""
","""event"",""trial"",""time""
""blur"",""74"",""266003""
""blur"",""74"",""268160""
""blur"",""74"",""269711""
","""event"",""trial"",""time""
""focus"",""74"",""266289""
""focus"",""74"",""269649""
""focus"",""74"",""269982""
","""event"",""trial"",""time""
""fullscreenenter"",""0"",""4435""
","
","1331.5350000048056","<img style='border: 4px solid darkgrey;' src='img/tf1_58_M_ss3.jpeg'></img>","2","","exp","","2","<img src='img/tf1_58_T1_ss3_md.jpeg'></img>","0","false",""
"","html-keyboard-response","129","391294","0.0-10.0-0.58","894","""event"",""trial"",""time""
""fullscreenenter"",""0"",""4435""
""blur"",""74"",""266003""
""focus"",""74"",""266289""
""blur"",""74"",""268160""
""focus"",""74"",""269649""
""blur"",""74"",""269711""
""focus"",""74"",""269982""
","""event"",""trial"",""time""
""blur"",""74"",""266003""
""blur"",""74"",""268160""
""blur"",""74"",""269711""
","""event"",""trial"",""time""
""focus"",""74"",""266289""
""focus"",""74"",""269649""
""focus"",""74"",""269982""
","""event"",""trial"",""time""
""fullscreenenter"",""0"",""4435""
","
","null","<div style=""font-size:60px;"">+</div>","","null","fixation","2021-04-10 21:43:56.850","","","","",""
"","mars-trial","130","392335","0.0-10.0-1.58","894","""event"",""trial"",""time""
""fullscreenenter"",""0"",""4435""
""blur"",""74"",""266003""
""focus"",""74"",""266289""
""blur"",""74"",""268160""
""focus"",""74"",""269649""
""blur"",""74"",""269711""
""focus"",""74"",""269982""
","""event"",""trial"",""time""
""blur"",""74"",""266003""
""blur"",""74"",""268160""
""blur"",""74"",""269711""
","""event"",""trial"",""time""
""focus"",""74"",""266289""
""focus"",""74"",""269649""
""focus"",""74"",""269982""
","""event"",""trial"",""time""
""fullscreenenter"",""0"",""4435""
","
","422.8800000855699","<img style='border: 4px solid darkgrey;' src='img/tf1_59_M_ss1.jpeg'></img>","2","","exp","","1","<img src='img/tf1_59_T1_ss1_md.jpeg'></img>","0","false",""
"","html-keyboard-response","131","392839","0.0-10.0-0.59","894","""event"",""trial"",""time""
""fullscreenenter"",""0"",""4435""
""blur"",""74"",""266003""
""focus"",""74"",""266289""
""blur"",""74"",""268160""
""focus"",""74"",""269649""
""blur"",""74"",""269711""
""focus"",""74"",""269982""
""blur"",""132"",""393278""
""focus"",""132"",""394303""
","""event"",""trial"",""time""
""blur"",""74"",""266003""
""blur"",""74"",""268160""
""blur"",""74"",""269711""
""blur"",""132"",""393278""
","""event"",""trial"",""time""
""focus"",""74"",""266289""
""focus"",""74"",""269649""
""focus"",""74"",""269982""
""focus"",""132"",""394303""
","""event"",""trial"",""time""
""fullscreenenter"",""0"",""4435""
","
","null","<div style=""font-size:60px;"">+</div>","","null","fixation","2021-04-10 21:43:58.396","","","","",""
"","mars-trial","132","397871","0.0-10.0-1.59","894","""event"",""trial"",""time""
""fullscreenenter"",""0"",""4435""
""blur"",""74"",""266003""
""focus"",""74"",""266289""
""blur"",""74"",""268160""
""focus"",""74"",""269649""
""blur"",""74"",""269711""
""focus"",""74"",""269982""
""blur"",""132"",""393278""
""focus"",""132"",""394303""
","""event"",""trial"",""time""
""blur"",""74"",""266003""
""blur"",""74"",""268160""
""blur"",""74"",""269711""
""blur"",""132"",""393278""
","""event"",""trial"",""time""
""focus"",""74"",""266289""
""focus"",""74"",""269649""
""focus"",""74"",""269982""
""focus"",""132"",""394303""
","""event"",""trial"",""time""
""fullscreenenter"",""0"",""4435""
","
","4415.960000013001","<img style='border: 4px solid darkgrey;' src='img/tf1_60_M_ss2.jpeg'></img>","2","","exp","","1","<img src='img/tf1_60_T1_ss2_md.jpeg'></img>","0","false",""
"","html-keyboard-response","133","398374","0.0-10.0-0.60","894","""event"",""trial"",""time""
""fullscreenenter"",""0"",""4435""
""blur"",""74"",""266003""
""focus"",""74"",""266289""
""blur"",""74"",""268160""
""focus"",""74"",""269649""
""blur"",""74"",""269711""
""focus"",""74"",""269982""
""blur"",""132"",""393278""
""focus"",""132"",""394303""
","""event"",""trial"",""time""
""blur"",""74"",""266003""
""blur"",""74"",""268160""
""blur"",""74"",""269711""
""blur"",""132"",""393278""
","""event"",""trial"",""time""
""focus"",""74"",""266289""
""focus"",""74"",""269649""
""focus"",""74"",""269982""
""focus"",""132"",""394303""
","""event"",""trial"",""time""
""fullscreenenter"",""0"",""4435""
","
","null","<div style=""font-size:60px;"">+</div>","","null","fixation","2021-04-10 21:44:03.930","","","","",""
"","mars-trial","134","399841","0.0-10.0-1.60","894","""event"",""trial"",""time""
""fullscreenenter"",""0"",""4435""
""blur"",""74"",""266003""
""focus"",""74"",""266289""
""blur"",""74"",""268160""
""focus"",""74"",""269649""
""blur"",""74"",""269711""
""focus"",""74"",""269982""
""blur"",""132"",""393278""
""focus"",""132"",""394303""
","""event"",""trial"",""time""
""blur"",""74"",""266003""
""blur"",""74"",""268160""
""blur"",""74"",""269711""
""blur"",""132"",""393278""
","""event"",""trial"",""time""
""focus"",""74"",""266289""
""focus"",""74"",""269649""
""focus"",""74"",""269982""
""focus"",""132"",""394303""
","""event"",""trial"",""time""
""fullscreenenter"",""0"",""4435""
","
","850.2449999796227","<img style='border: 4px solid darkgrey;' src='img/tf1_61_M_ss3.jpeg'></img>","3","","exp","","3","<img src='img/tf1_61_T1_ss3_md.jpeg'></img>","0","false",""
"","html-keyboard-response","135","400345","0.0-10.0-0.61","894","""event"",""trial"",""time""
""fullscreenenter"",""0"",""4435""
""blur"",""74"",""266003""
""focus"",""74"",""266289""
""blur"",""74"",""268160""
""focus"",""74"",""269649""
""blur"",""74"",""269711""
""focus"",""74"",""269982""
""blur"",""132"",""393278""
""focus"",""132"",""394303""
","""event"",""trial"",""time""
""blur"",""74"",""266003""
""blur"",""74"",""268160""
""blur"",""74"",""269711""
""blur"",""132"",""393278""
","""event"",""trial"",""time""
""focus"",""74"",""266289""
""focus"",""74"",""269649""
""focus"",""74"",""269982""
""focus"",""132"",""394303""
","""event"",""trial"",""time""
""fullscreenenter"",""0"",""4435""
","
","null","<div style=""font-size:60px;"">+</div>","","null","fixation","2021-04-10 21:44:05.902","","","","",""
"","mars-trial","136","407235","0.0-10.0-1.61","894","""event"",""trial"",""time""
""fullscreenenter"",""0"",""4435""
""blur"",""74"",""266003""
""focus"",""74"",""266289""
""blur"",""74"",""268160""
""focus"",""74"",""269649""
""blur"",""74"",""269711""
""focus"",""74"",""269982""
""blur"",""132"",""393278""
""focus"",""132"",""394303""
","""event"",""trial"",""time""
""blur"",""74"",""266003""
""blur"",""74"",""268160""
""blur"",""74"",""269711""
""blur"",""132"",""393278""
","""event"",""trial"",""time""
""focus"",""74"",""266289""
""focus"",""74"",""269649""
""focus"",""74"",""269982""
""focus"",""132"",""394303""
","""event"",""trial"",""time""
""fullscreenenter"",""0"",""4435""
","
","6278.7299999035895","<img style='border: 4px solid darkgrey;' src='img/tf1_62_M_ss1.jpeg'></img>","2","","exp","","1","<img src='img/tf1_62_T1_ss1_md.jpeg'></img>","0","false",""
"","html-keyboard-response","137","407740","0.0-10.0-0.62","894","""event"",""trial"",""time""
""fullscreenenter"",""0"",""4435""
""blur"",""74"",""266003""
""focus"",""74"",""266289""
""blur"",""74"",""268160""
""focus"",""74"",""269649""
""blur"",""74"",""269711""
""focus"",""74"",""269982""
""blur"",""132"",""393278""
""focus"",""132"",""394303""
","""event"",""trial"",""time""
""blur"",""74"",""266003""
""blur"",""74"",""268160""
""blur"",""74"",""269711""
""blur"",""132"",""393278""
","""event"",""trial"",""time""
""focus"",""74"",""266289""
""focus"",""74"",""269649""
""focus"",""74"",""269982""
""focus"",""132"",""394303""
","""event"",""trial"",""time""
""fullscreenenter"",""0"",""4435""
","
","null","<div style=""font-size:60px;"">+</div>","","null","fixation","2021-04-10 21:44:13.297","","","","",""
"","mars-trial","138","413193","0.0-10.0-1.62","894","""event"",""trial"",""time""
""fullscreenenter"",""0"",""4435""
""blur"",""74"",""266003""
""focus"",""74"",""266289""
""blur"",""74"",""268160""
""focus"",""74"",""269649""
""blur"",""74"",""269711""
""focus"",""74"",""269982""
""blur"",""132"",""393278""
""focus"",""132"",""394303""
","""event"",""trial"",""time""
""blur"",""74"",""266003""
""blur"",""74"",""268160""
""blur"",""74"",""269711""
""blur"",""132"",""393278""
","""event"",""trial"",""time""
""focus"",""74"",""266289""
""focus"",""74"",""269649""
""focus"",""74"",""269982""
""focus"",""132"",""394303""
","""event"",""trial"",""time""
""fullscreenenter"",""0"",""4435""
","
","4834.894999978133","<img style='border: 4px solid darkgrey;' src='img/tf1_63_M_ss2.jpeg'></img>","1","","exp","","1","<img src='img/tf1_63_T1_ss2_md.jpeg'></img>","0","false",""
"","html-keyboard-response","139","413697","0.0-10.0-0.63","894","""event"",""trial"",""time""
""fullscreenenter"",""0"",""4435""
""blur"",""74"",""266003""
""focus"",""74"",""266289""
""blur"",""74"",""268160""
""focus"",""74"",""269649""
""blur"",""74"",""269711""
""focus"",""74"",""269982""
""blur"",""132"",""393278""
""focus"",""132"",""394303""
","""event"",""trial"",""time""
""blur"",""74"",""266003""
""blur"",""74"",""268160""
""blur"",""74"",""269711""
""blur"",""132"",""393278""
","""event"",""trial"",""time""
""focus"",""74"",""266289""
""focus"",""74"",""269649""
""focus"",""74"",""269982""
""focus"",""132"",""394303""
","""event"",""trial"",""time""
""fullscreenenter"",""0"",""4435""
","
","null","<div style=""font-size:60px;"">+</div>","","null","fixation","2021-04-10 21:44:19.253","","","","",""
"","mars-trial","140","416873","0.0-10.0-1.63","894","""event"",""trial"",""time""
""fullscreenenter"",""0"",""4435""
""blur"",""74"",""266003""
""focus"",""74"",""266289""
""blur"",""74"",""268160""
""focus"",""74"",""269649""
""blur"",""74"",""269711""
""focus"",""74"",""269982""
""blur"",""132"",""393278""
""focus"",""132"",""394303""
","""event"",""trial"",""time""
""blur"",""74"",""266003""
""blur"",""74"",""268160""
""blur"",""74"",""269711""
""blur"",""132"",""393278""
","""event"",""trial"",""time""
""focus"",""74"",""266289""
""focus"",""74"",""269649""
""focus"",""74"",""269982""
""focus"",""132"",""394303""
","""event"",""trial"",""time""
""fullscreenenter"",""0"",""4435""
","
","2557.0600000210106","<img style='border: 4px solid darkgrey;' src='img/tf1_64_M_ss3.jpeg'></img>","2","","exp","","0","<img src='img/tf1_64_T1_ss3_md.jpeg'></img>","0","true",""
"","html-keyboard-response","141","417377","0.0-10.0-0.64","894","""event"",""trial"",""time""
""fullscreenenter"",""0"",""4435""
""blur"",""74"",""266003""
""focus"",""74"",""266289""
""blur"",""74"",""268160""
""focus"",""74"",""269649""
""blur"",""74"",""269711""
""focus"",""74"",""269982""
""blur"",""132"",""393278""
""focus"",""132"",""394303""
","""event"",""trial"",""time""
""blur"",""74"",""266003""
""blur"",""74"",""268160""
""blur"",""74"",""269711""
""blur"",""132"",""393278""
","""event"",""trial"",""time""
""focus"",""74"",""266289""
""focus"",""74"",""269649""
""focus"",""74"",""269982""
""focus"",""132"",""394303""
","""event"",""trial"",""time""
""fullscreenenter"",""0"",""4435""
","
","null","<div style=""font-size:60px;"">+</div>","","null","fixation","2021-04-10 21:44:22.933","","","","",""
"","mars-trial","142","419397","0.0-10.0-1.64","894","""event"",""trial"",""time""
""fullscreenenter"",""0"",""4435""
""blur"",""74"",""266003""
""focus"",""74"",""266289""
""blur"",""74"",""268160""
""focus"",""74"",""269649""
""blur"",""74"",""269711""
""focus"",""74"",""269982""
""blur"",""132"",""393278""
""focus"",""132"",""394303""
","""event"",""trial"",""time""
""blur"",""74"",""266003""
""blur"",""74"",""268160""
""blur"",""74"",""269711""
""blur"",""132"",""393278""
","""event"",""trial"",""time""
""focus"",""74"",""266289""
""focus"",""74"",""269649""
""focus"",""74"",""269982""
""focus"",""132"",""394303""
","""event"",""trial"",""time""
""fullscreenenter"",""0"",""4435""
","
","1401.300000026822","<img style='border: 4px solid darkgrey;' src='img/tf1_65_M_ss1.jpeg'></img>","2","","exp","","1","<img src='img/tf1_65_T1_ss1_md.jpeg'></img>","0","false",""
"","html-keyboard-response","143","419901","0.0-10.0-0.65","894","""event"",""trial"",""time""
""fullscreenenter"",""0"",""4435""
""blur"",""74"",""266003""
""focus"",""74"",""266289""
""blur"",""74"",""268160""
""focus"",""74"",""269649""
""blur"",""74"",""269711""
""focus"",""74"",""269982""
""blur"",""132"",""393278""
""focus"",""132"",""394303""
""blur"",""144"",""420576""
""focus"",""144"",""422145""
","""event"",""trial"",""time""
""blur"",""74"",""266003""
""blur"",""74"",""268160""
""blur"",""74"",""269711""
""blur"",""132"",""393278""
""blur"",""144"",""420576""
","""event"",""trial"",""time""
""focus"",""74"",""266289""
""focus"",""74"",""269649""
""focus"",""74"",""269982""
""focus"",""132"",""394303""
""focus"",""144"",""422145""
","""event"",""trial"",""time""
""fullscreenenter"",""0"",""4435""
","
","null","<div style=""font-size:60px;"">+</div>","","null","fixation","2021-04-10 21:44:25.458","","","","",""
"","mars-trial","144","422854","0.0-10.0-1.65","894","""event"",""trial"",""time""
""fullscreenenter"",""0"",""4435""
""blur"",""74"",""266003""
""focus"",""74"",""266289""
""blur"",""74"",""268160""
""focus"",""74"",""269649""
""blur"",""74"",""269711""
""focus"",""74"",""269982""
""blur"",""132"",""393278""
""focus"",""132"",""394303""
""blur"",""144"",""420576""
""focus"",""144"",""422145""
","""event"",""trial"",""time""
""blur"",""74"",""266003""
""blur"",""74"",""268160""
""blur"",""74"",""269711""
""blur"",""132"",""393278""
""blur"",""144"",""420576""
","""event"",""trial"",""time""
""focus"",""74"",""266289""
""focus"",""74"",""269649""
""focus"",""74"",""269982""
""focus"",""132"",""394303""
""focus"",""144"",""422145""
","""event"",""trial"",""time""
""fullscreenenter"",""0"",""4435""
","
","2332.7650000574067","<img style='border: 4px solid darkgrey;' src='img/tf1_66_M_ss2.jpeg'></img>","2","","exp","","2","<img src='img/tf1_66_T1_ss2_md.jpeg'></img>","0","false",""
"","html-keyboard-response","145","423358","0.0-10.0-0.66","894","""event"",""trial"",""time""
""fullscreenenter"",""0"",""4435""
""blur"",""74"",""266003""
""focus"",""74"",""266289""
""blur"",""74"",""268160""
""focus"",""74"",""269649""
""blur"",""74"",""269711""
""focus"",""74"",""269982""
""blur"",""132"",""393278""
""focus"",""132"",""394303""
""blur"",""144"",""420576""
""focus"",""144"",""422145""
","""event"",""trial"",""time""
""blur"",""74"",""266003""
""blur"",""74"",""268160""
""blur"",""74"",""269711""
""blur"",""132"",""393278""
""blur"",""144"",""420576""
","""event"",""trial"",""time""
""focus"",""74"",""266289""
""focus"",""74"",""269649""
""focus"",""74"",""269982""
""focus"",""132"",""394303""
""focus"",""144"",""422145""
","""event"",""trial"",""time""
""fullscreenenter"",""0"",""4435""
","
","null","<div style=""font-size:60px;"">+</div>","","null","fixation","2021-04-10 21:44:28.914","","","","",""
"","mars-trial","146","424803","0.0-10.0-1.66","894","""event"",""trial"",""time""
""fullscreenenter"",""0"",""4435""
""blur"",""74"",""266003""
""focus"",""74"",""266289""
""blur"",""74"",""268160""
""focus"",""74"",""269649""
""blur"",""74"",""269711""
""focus"",""74"",""269982""
""blur"",""132"",""393278""
""focus"",""132"",""394303""
""blur"",""144"",""420576""
""focus"",""144"",""422145""
","""event"",""trial"",""time""
""blur"",""74"",""266003""
""blur"",""74"",""268160""
""blur"",""74"",""269711""
""blur"",""132"",""393278""
""blur"",""144"",""420576""
","""event"",""trial"",""time""
""focus"",""74"",""266289""
""focus"",""74"",""269649""
""focus"",""74"",""269982""
""focus"",""132"",""394303""
""focus"",""144"",""422145""
","""event"",""trial"",""time""
""fullscreenenter"",""0"",""4435""
","
","826.560000074096","<img style='border: 4px solid darkgrey;' src='img/tf1_67_M_ss3.jpeg'></img>","2","","exp","","3","<img src='img/tf1_67_T1_ss3_md.jpeg'></img>","0","false",""
"","html-keyboard-response","147","425307","0.0-10.0-0.67","894","""event"",""trial"",""time""
""fullscreenenter"",""0"",""4435""
""blur"",""74"",""266003""
""focus"",""74"",""266289""
""blur"",""74"",""268160""
""focus"",""74"",""269649""
""blur"",""74"",""269711""
""focus"",""74"",""269982""
""blur"",""132"",""393278""
""focus"",""132"",""394303""
""blur"",""144"",""420576""
""focus"",""144"",""422145""
""blur"",""148"",""425734""
""focus"",""148"",""426152""
""blur"",""148"",""428445""
""focus"",""148"",""428558""
""blur"",""148"",""431096""
""focus"",""148"",""431301""
","""event"",""trial"",""time""
""blur"",""74"",""266003""
""blur"",""74"",""268160""
""blur"",""74"",""269711""
""blur"",""132"",""393278""
""blur"",""144"",""420576""
""blur"",""148"",""425734""
""blur"",""148"",""428445""
""blur"",""148"",""431096""
","""event"",""trial"",""time""
""focus"",""74"",""266289""
""focus"",""74"",""269649""
""focus"",""74"",""269982""
""focus"",""132"",""394303""
""focus"",""144"",""422145""
""focus"",""148"",""426152""
""focus"",""148"",""428558""
""focus"",""148"",""431301""
","""event"",""trial"",""time""
""fullscreenenter"",""0"",""4435""
","
","null","<div style=""font-size:60px;"">+</div>","","null","fixation","2021-04-10 21:44:30.864","","","","",""
"","mars-trial","148","433424","0.0-10.0-1.67","894","""event"",""trial"",""time""
""fullscreenenter"",""0"",""4435""
""blur"",""74"",""266003""
""focus"",""74"",""266289""
""blur"",""74"",""268160""
""focus"",""74"",""269649""
""blur"",""74"",""269711""
""focus"",""74"",""269982""
""blur"",""132"",""393278""
""focus"",""132"",""394303""
""blur"",""144"",""420576""
""focus"",""144"",""422145""
""blur"",""148"",""425734""
""focus"",""148"",""426152""
""blur"",""148"",""428445""
""focus"",""148"",""428558""
""blur"",""148"",""431096""
""focus"",""148"",""431301""
","""event"",""trial"",""time""
""blur"",""74"",""266003""
""blur"",""74"",""268160""
""blur"",""74"",""269711""
""blur"",""132"",""393278""
""blur"",""144"",""420576""
""blur"",""148"",""425734""
""blur"",""148"",""428445""
""blur"",""148"",""431096""
","""event"",""trial"",""time""
""focus"",""74"",""266289""
""focus"",""74"",""269649""
""focus"",""74"",""269982""
""focus"",""132"",""394303""
""focus"",""144"",""422145""
""focus"",""148"",""426152""
""focus"",""148"",""428558""
""focus"",""148"",""431301""
","""event"",""trial"",""time""
""fullscreenenter"",""0"",""4435""
","
","7502.025000052527","<img style='border: 4px solid darkgrey;' src='img/tf1_68_M_ss1.jpeg'></img>","3","","exp","","0","<img src='img/tf1_68_T1_ss1_md.jpeg'></img>","0","true",""
"","html-keyboard-response","149","433929","0.0-10.0-0.68","894","""event"",""trial"",""time""
""fullscreenenter"",""0"",""4435""
""blur"",""74"",""266003""
""focus"",""74"",""266289""
""blur"",""74"",""268160""
""focus"",""74"",""269649""
""blur"",""74"",""269711""
""focus"",""74"",""269982""
""blur"",""132"",""393278""
""focus"",""132"",""394303""
""blur"",""144"",""420576""
""focus"",""144"",""422145""
""blur"",""148"",""425734""
""focus"",""148"",""426152""
""blur"",""148"",""428445""
""focus"",""148"",""428558""
""blur"",""148"",""431096""
""focus"",""148"",""431301""
","""event"",""trial"",""time""
""blur"",""74"",""266003""
""blur"",""74"",""268160""
""blur"",""74"",""269711""
""blur"",""132"",""393278""
""blur"",""144"",""420576""
""blur"",""148"",""425734""
""blur"",""148"",""428445""
""blur"",""148"",""431096""
","""event"",""trial"",""time""
""focus"",""74"",""266289""
""focus"",""74"",""269649""
""focus"",""74"",""269982""
""focus"",""132"",""394303""
""focus"",""144"",""422145""
""focus"",""148"",""426152""
""focus"",""148"",""428558""
""focus"",""148"",""431301""
","""event"",""trial"",""time""
""fullscreenenter"",""0"",""4435""
","
","null","<div style=""font-size:60px;"">+</div>","","null","fixation","2021-04-10 21:44:39.485","","","","",""
"","mars-trial","150","442255","0.0-10.0-1.68","894","""event"",""trial"",""time""
""fullscreenenter"",""0"",""4435""
""blur"",""74"",""266003""
""focus"",""74"",""266289""
""blur"",""74"",""268160""
""focus"",""74"",""269649""
""blur"",""74"",""269711""
""focus"",""74"",""269982""
""blur"",""132"",""393278""
""focus"",""132"",""394303""
""blur"",""144"",""420576""
""focus"",""144"",""422145""
""blur"",""148"",""425734""
""focus"",""148"",""426152""
""blur"",""148"",""428445""
""focus"",""148"",""428558""
""blur"",""148"",""431096""
""focus"",""148"",""431301""
","""event"",""trial"",""time""
""blur"",""74"",""266003""
""blur"",""74"",""268160""
""blur"",""74"",""269711""
""blur"",""132"",""393278""
""blur"",""144"",""420576""
""blur"",""148"",""425734""
""blur"",""148"",""428445""
""blur"",""148"",""431096""
","""event"",""trial"",""time""
""focus"",""74"",""266289""
""focus"",""74"",""269649""
""focus"",""74"",""269982""
""focus"",""132"",""394303""
""focus"",""144"",""422145""
""focus"",""148"",""426152""
""focus"",""148"",""428558""
""focus"",""148"",""431301""
","""event"",""trial"",""time""
""fullscreenenter"",""0"",""4435""
","
","7704.890000051819","<img style='border: 4px solid darkgrey;' src='img/tf1_69_M_ss2.jpeg'></img>","2","","exp","","0","<img src='img/tf1_69_T1_ss2_md.jpeg'></img>","0","true",""
"","html-keyboard-response","151","442758","0.0-10.0-0.69","894","""event"",""trial"",""time""
""fullscreenenter"",""0"",""4435""
""blur"",""74"",""266003""
""focus"",""74"",""266289""
""blur"",""74"",""268160""
""focus"",""74"",""269649""
""blur"",""74"",""269711""
""focus"",""74"",""269982""
""blur"",""132"",""393278""
""focus"",""132"",""394303""
""blur"",""144"",""420576""
""focus"",""144"",""422145""
""blur"",""148"",""425734""
""focus"",""148"",""426152""
""blur"",""148"",""428445""
""focus"",""148"",""428558""
""blur"",""148"",""431096""
""focus"",""148"",""431301""
","""event"",""trial"",""time""
""blur"",""74"",""266003""
""blur"",""74"",""268160""
""blur"",""74"",""269711""
""blur"",""132"",""393278""
""blur"",""144"",""420576""
""blur"",""148"",""425734""
""blur"",""148"",""428445""
""blur"",""148"",""431096""
","""event"",""trial"",""time""
""focus"",""74"",""266289""
""focus"",""74"",""269649""
""focus"",""74"",""269982""
""focus"",""132"",""394303""
""focus"",""144"",""422145""
""focus"",""148"",""426152""
""focus"",""148"",""428558""
""focus"",""148"",""431301""
","""event"",""trial"",""time""
""fullscreenenter"",""0"",""4435""
","
","null","<div style=""font-size:60px;"">+</div>","","null","fixation","2021-04-10 21:44:48.315","","","","",""
"","mars-trial","152","447946","0.0-10.0-1.69","894","""event"",""trial"",""time""
""fullscreenenter"",""0"",""4435""
""blur"",""74"",""266003""
""focus"",""74"",""266289""
""blur"",""74"",""268160""
""focus"",""74"",""269649""
""blur"",""74"",""269711""
""focus"",""74"",""269982""
""blur"",""132"",""393278""
""focus"",""132"",""394303""
""blur"",""144"",""420576""
""focus"",""144"",""422145""
""blur"",""148"",""425734""
""focus"",""148"",""426152""
""blur"",""148"",""428445""
""focus"",""148"",""428558""
""blur"",""148"",""431096""
""focus"",""148"",""431301""
","""event"",""trial"",""time""
""blur"",""74"",""266003""
""blur"",""74"",""268160""
""blur"",""74"",""269711""
""blur"",""132"",""393278""
""blur"",""144"",""420576""
""blur"",""148"",""425734""
""blur"",""148"",""428445""
""blur"",""148"",""431096""
","""event"",""trial"",""time""
""focus"",""74"",""266289""
""focus"",""74"",""269649""
""focus"",""74"",""269982""
""focus"",""132"",""394303""
""focus"",""144"",""422145""
""focus"",""148"",""426152""
""focus"",""148"",""428558""
""focus"",""148"",""431301""
","""event"",""trial"",""time""
""fullscreenenter"",""0"",""4435""
","
","4571.775000076741","<img style='border: 4px solid darkgrey;' src='img/tf1_70_M_ss3.jpeg'></img>","2","","exp","","0","<img src='img/tf1_70_T1_ss3_md.jpeg'></img>","0","true",""
"","html-keyboard-response","153","448451","0.0-10.0-0.70","894","""event"",""trial"",""time""
""fullscreenenter"",""0"",""4435""
""blur"",""74"",""266003""
""focus"",""74"",""266289""
""blur"",""74"",""268160""
""focus"",""74"",""269649""
""blur"",""74"",""269711""
""focus"",""74"",""269982""
""blur"",""132"",""393278""
""focus"",""132"",""394303""
""blur"",""144"",""420576""
""focus"",""144"",""422145""
""blur"",""148"",""425734""
""focus"",""148"",""426152""
""blur"",""148"",""428445""
""focus"",""148"",""428558""
""blur"",""148"",""431096""
""focus"",""148"",""431301""
","""event"",""trial"",""time""
""blur"",""74"",""266003""
""blur"",""74"",""268160""
""blur"",""74"",""269711""
""blur"",""132"",""393278""
""blur"",""144"",""420576""
""blur"",""148"",""425734""
""blur"",""148"",""428445""
""blur"",""148"",""431096""
","""event"",""trial"",""time""
""focus"",""74"",""266289""
""focus"",""74"",""269649""
""focus"",""74"",""269982""
""focus"",""132"",""394303""
""focus"",""144"",""422145""
""focus"",""148"",""426152""
""focus"",""148"",""428558""
""focus"",""148"",""431301""
","""event"",""trial"",""time""
""fullscreenenter"",""0"",""4435""
","
","null","<div style=""font-size:60px;"">+</div>","","null","fixation","2021-04-10 21:44:54.007","","","","",""
"","mars-trial","154","451600","0.0-10.0-1.70","894","""event"",""trial"",""time""
""fullscreenenter"",""0"",""4435""
""blur"",""74"",""266003""
""focus"",""74"",""266289""
""blur"",""74"",""268160""
""focus"",""74"",""269649""
""blur"",""74"",""269711""
""focus"",""74"",""269982""
""blur"",""132"",""393278""
""focus"",""132"",""394303""
""blur"",""144"",""420576""
""focus"",""144"",""422145""
""blur"",""148"",""425734""
""focus"",""148"",""426152""
""blur"",""148"",""428445""
""focus"",""148"",""428558""
""blur"",""148"",""431096""
""focus"",""148"",""431301""
","""event"",""trial"",""time""
""blur"",""74"",""266003""
""blur"",""74"",""268160""
""blur"",""74"",""269711""
""blur"",""132"",""393278""
""blur"",""144"",""420576""
""blur"",""148"",""425734""
""blur"",""148"",""428445""
""blur"",""148"",""431096""
","""event"",""trial"",""time""
""focus"",""74"",""266289""
""focus"",""74"",""269649""
""focus"",""74"",""269982""
""focus"",""132"",""394303""
""focus"",""144"",""422145""
""focus"",""148"",""426152""
""focus"",""148"",""428558""
""focus"",""148"",""431301""
","""event"",""trial"",""time""
""fullscreenenter"",""0"",""4435""
","
","2533.1249999580905","<img style='border: 4px solid darkgrey;' src='img/tf1_71_M_ss1.jpeg'></img>","2","","exp","","2","<img src='img/tf1_71_T1_ss1_md.jpeg'></img>","0","false",""
"","html-keyboard-response","155","452105","0.0-10.0-0.71","894","""event"",""trial"",""time""
""fullscreenenter"",""0"",""4435""
""blur"",""74"",""266003""
""focus"",""74"",""266289""
""blur"",""74"",""268160""
""focus"",""74"",""269649""
""blur"",""74"",""269711""
""focus"",""74"",""269982""
""blur"",""132"",""393278""
""focus"",""132"",""394303""
""blur"",""144"",""420576""
""focus"",""144"",""422145""
""blur"",""148"",""425734""
""focus"",""148"",""426152""
""blur"",""148"",""428445""
""focus"",""148"",""428558""
""blur"",""148"",""431096""
""focus"",""148"",""431301""
","""event"",""trial"",""time""
""blur"",""74"",""266003""
""blur"",""74"",""268160""
""blur"",""74"",""269711""
""blur"",""132"",""393278""
""blur"",""144"",""420576""
""blur"",""148"",""425734""
""blur"",""148"",""428445""
""blur"",""148"",""431096""
","""event"",""trial"",""time""
""focus"",""74"",""266289""
""focus"",""74"",""269649""
""focus"",""74"",""269982""
""focus"",""132"",""394303""
""focus"",""144"",""422145""
""focus"",""148"",""426152""
""focus"",""148"",""428558""
""focus"",""148"",""431301""
","""event"",""trial"",""time""
""fullscreenenter"",""0"",""4435""
","
","null","<div style=""font-size:60px;"">+</div>","","null","fixation","2021-04-10 21:44:57.661","","","","",""
"","mars-trial","156","455590","0.0-10.0-1.71","894","""event"",""trial"",""time""
""fullscreenenter"",""0"",""4435""
""blur"",""74"",""266003""
""focus"",""74"",""266289""
""blur"",""74"",""268160""
""focus"",""74"",""269649""
""blur"",""74"",""269711""
""focus"",""74"",""269982""
""blur"",""132"",""393278""
""focus"",""132"",""394303""
""blur"",""144"",""420576""
""focus"",""144"",""422145""
""blur"",""148"",""425734""
""focus"",""148"",""426152""
""blur"",""148"",""428445""
""focus"",""148"",""428558""
""blur"",""148"",""431096""
""focus"",""148"",""431301""
","""event"",""trial"",""time""
""blur"",""74"",""266003""
""blur"",""74"",""268160""
""blur"",""74"",""269711""
""blur"",""132"",""393278""
""blur"",""144"",""420576""
""blur"",""148"",""425734""
""blur"",""148"",""428445""
""blur"",""148"",""431096""
","""event"",""trial"",""time""
""focus"",""74"",""266289""
""focus"",""74"",""269649""
""focus"",""74"",""269982""
""focus"",""132"",""394303""
""focus"",""144"",""422145""
""focus"",""148"",""426152""
""focus"",""148"",""428558""
""focus"",""148"",""431301""
","""event"",""trial"",""time""
""fullscreenenter"",""0"",""4435""
","
","2870.340000023134","<img style='border: 4px solid darkgrey;' src='img/tf1_72_M_ss2.jpeg'></img>","3","","exp","","3","<img src='img/tf1_72_T1_ss2_md.jpeg'></img>","0","false",""
"","html-keyboard-response","157","456093","0.0-10.0-0.72","894","""event"",""trial"",""time""
""fullscreenenter"",""0"",""4435""
""blur"",""74"",""266003""
""focus"",""74"",""266289""
""blur"",""74"",""268160""
""focus"",""74"",""269649""
""blur"",""74"",""269711""
""focus"",""74"",""269982""
""blur"",""132"",""393278""
""focus"",""132"",""394303""
""blur"",""144"",""420576""
""focus"",""144"",""422145""
""blur"",""148"",""425734""
""focus"",""148"",""426152""
""blur"",""148"",""428445""
""focus"",""148"",""428558""
""blur"",""148"",""431096""
""focus"",""148"",""431301""
","""event"",""trial"",""time""
""blur"",""74"",""266003""
""blur"",""74"",""268160""
""blur"",""74"",""269711""
""blur"",""132"",""393278""
""blur"",""144"",""420576""
""blur"",""148"",""425734""
""blur"",""148"",""428445""
""blur"",""148"",""431096""
","""event"",""trial"",""time""
""focus"",""74"",""266289""
""focus"",""74"",""269649""
""focus"",""74"",""269982""
""focus"",""132"",""394303""
""focus"",""144"",""422145""
""focus"",""148"",""426152""
""focus"",""148"",""428558""
""focus"",""148"",""431301""
","""event"",""trial"",""time""
""fullscreenenter"",""0"",""4435""
","
","null","<div style=""font-size:60px;"">+</div>","","null","fixation","2021-04-10 21:45:01.650","","","","",""
"","mars-trial","158","458859","0.0-10.0-1.72","894","""event"",""trial"",""time""
""fullscreenenter"",""0"",""4435""
""blur"",""74"",""266003""
""focus"",""74"",""266289""
""blur"",""74"",""268160""
""focus"",""74"",""269649""
""blur"",""74"",""269711""
""focus"",""74"",""269982""
""blur"",""132"",""393278""
""focus"",""132"",""394303""
""blur"",""144"",""420576""
""focus"",""144"",""422145""
""blur"",""148"",""425734""
""focus"",""148"",""426152""
""blur"",""148"",""428445""
""focus"",""148"",""428558""
""blur"",""148"",""431096""
""focus"",""148"",""431301""
","""event"",""trial"",""time""
""blur"",""74"",""266003""
""blur"",""74"",""268160""
""blur"",""74"",""269711""
""blur"",""132"",""393278""
""blur"",""144"",""420576""
""blur"",""148"",""425734""
""blur"",""148"",""428445""
""blur"",""148"",""431096""
","""event"",""trial"",""time""
""focus"",""74"",""266289""
""focus"",""74"",""269649""
""focus"",""74"",""269982""
""focus"",""132"",""394303""
""focus"",""144"",""422145""
""focus"",""148"",""426152""
""focus"",""148"",""428558""
""focus"",""148"",""431301""
","""event"",""trial"",""time""
""fullscreenenter"",""0"",""4435""
","
