"success","trial_type","trial_index","time_elapsed","internal_node_id","subject_id","interactions","blur_events","focus_events","fullscreenenter_events","fullscreenexit_events","rt","stimulus","button_pressed","key_press","part","timestamp","unshuffled_button","correct_response","correct_button","correct","value"
"true","fullscreen","0","5101","0.0-0.0","A1124","""event"",""trial"",""time""
""fullscreenenter"",""0"",""4125""
","
","
","""event"",""trial"",""time""
""fullscreenenter"",""0"",""4125""
","
","","","","","","","","","","",""
"","pavlovia","1","5105","0.0-1.0","A1124","""event"",""trial"",""time""
""fullscreenenter"",""0"",""4125""
","
","
","""event"",""trial"",""time""
""fullscreenenter"",""0"",""4125""
","
","","","","","","","","","","",""
"","html-button-response","2","6339","0.0-2.0","A1124","""event"",""trial"",""time""
""fullscreenenter"",""0"",""4125""
","
","
","""event"",""trial"",""time""
""fullscreenenter"",""0"",""4125""
","
","1233.1750000012107","<p>Welcome! Press START to begin.</p><br>","0","","","","","","","",""
"","audio-button-response","3","14930","0.0-3.0","A1124","""event"",""trial"",""time""
""fullscreenenter"",""0"",""4125""
","
","
","""event"",""trial"",""time""
""fullscreenenter"",""0"",""4125""
","
","8589.334999967832","audio/mars_instructions_slide2.wav","0","","","","","","","",""
"","audio-button-response","4","16172","0.0-4.0","A1124","""event"",""trial"",""time""
""fullscreenenter"",""0"",""4125""
","
","
","""event"",""trial"",""time""
""fullscreenenter"",""0"",""4125""
","
","1240.97000004258","audio/mars_instructions_slide3.wav","0","","","","","","","",""
"","html-keyboard-response","5","16676","0.0-5.0-0.0","A1124","""event"",""trial"",""time""
""fullscreenenter"",""0"",""4125""
","
","
","""event"",""trial"",""time""
""fullscreenenter"",""0"",""4125""
","
","null","<div style=""font-size:60px;"">+</div>","","null","fixation","2021-04-08 01:58:41.640","","","","",""
"","mars-trial","6","21442","0.0-5.0-1.0","A1124","""event"",""trial"",""time""
""fullscreenenter"",""0"",""4125""
","
","
","""event"",""trial"",""time""
""fullscreenenter"",""0"",""4125""
","
","2655.1800000015646","<img style='border: 4px solid darkgrey;' src='practice/pt1_M1.png'></img>","3","","practice","","0","<img src='practice/pt1_T1.png'></img>","0","true",""
"","html-keyboard-response","7","21947","0.0-6.0-0.0","A1124","""event"",""trial"",""time""
""fullscreenenter"",""0"",""4125""
","
","
","""event"",""trial"",""time""
""fullscreenenter"",""0"",""4125""
","
","null","<div style=""font-size:60px;"">+</div>","","null","fixation","2021-04-08 01:58:46.911","","","","",""
"","mars-trial","8","25982","0.0-6.0-1.0","A1124","""event"",""trial"",""time""
""fullscreenenter"",""0"",""4125""
","
","
","""event"",""trial"",""time""
""fullscreenenter"",""0"",""4125""
","
","1924.8299999744631","<img style='border: 4px solid darkgrey;' src='practice/pt2_M1.png'></img>","1","","practice","","0","<img src='practice/pt2_T1.png'></img>","0","true",""
"","html-keyboard-response","9","26487","0.0-7.0-0.0","A1124","""event"",""trial"",""time""
""fullscreenenter"",""0"",""4125""
","
","
","""event"",""trial"",""time""
""fullscreenenter"",""0"",""4125""
","
","null","<div style=""font-size:60px;"">+</div>","","null","fixation","2021-04-08 01:58:51.451","","","","",""
"","mars-trial","10","30248","0.0-7.0-1.0","A1124","""event"",""trial"",""time""
""fullscreenenter"",""0"",""4125""
","
","
","""event"",""trial"",""time""
""fullscreenenter"",""0"",""4125""
","
","1653.0149999889545","<img style='border: 4px solid darkgrey;' src='practice/pt3_M1.png'></img>","0","","practice","","0","<img src='practice/pt3_T1.png'></img>","0","true",""
"","audio-button-response","11","31747","0.0-8.0","A1124","""event"",""trial"",""time""
""fullscreenenter"",""0"",""4125""
","
","
","""event"",""trial"",""time""
""fullscreenenter"",""0"",""4125""
","
","1497.2199999610893","audio/mars_instructions_slide4.wav","0","","","","","","","",""
"","call-function","12","31748","0.0-9.0","A1124","""event"",""trial"",""time""
""fullscreenenter"",""0"",""4125""
","
","
","""event"",""trial"",""time""
""fullscreenenter"",""0"",""4125""
","
","","","","","","","","","","",""
"","html-keyboard-response","13","32251","0.0-10.0-0.0","A1124","""event"",""trial"",""time""
""fullscreenenter"",""0"",""4125""
","
","
","""event"",""trial"",""time""
""fullscreenenter"",""0"",""4125""
","
","null","<div style=""font-size:60px;"">+</div>","","null","fixation","2021-04-08 01:58:57.215","","","","",""
"","mars-trial","14","34684","0.0-10.0-1.0","A1124","""event"",""trial"",""time""
""fullscreenenter"",""0"",""4125""
","
","
","""event"",""trial"",""time""
""fullscreenenter"",""0"",""4125""
","
","1821.3950000354089","<img style='border: 4px solid darkgrey;' src='img/tf1_1_M_ss3.jpeg'></img>","2","","exp","","0","<img src='img/tf1_1_T1_ss3_md.jpeg'></img>","0","true",""
"","html-keyboard-response","15","35188","0.0-10.0-0.1","A1124","""event"",""trial"",""time""
""fullscreenenter"",""0"",""4125""
","
","
","""event"",""trial"",""time""
""fullscreenenter"",""0"",""4125""
","
","null","<div style=""font-size:60px;"">+</div>","","null","fixation","2021-04-08 01:59:00.153","","","","",""
"","mars-trial","16","37447","0.0-10.0-1.1","A1124","""event"",""trial"",""time""
""fullscreenenter"",""0"",""4125""
","
","
","""event"",""trial"",""time""
""fullscreenenter"",""0"",""4125""
","
","1649.3950000149198","<img style='border: 4px solid darkgrey;' src='img/tf1_2_M_ss1.jpeg'></img>","3","","exp","","0","<img src='img/tf1_2_T1_ss1_md.jpeg'></img>","0","true",""
"","html-keyboard-response","17","37949","0.0-10.0-0.2","A1124","""event"",""trial"",""time""
""fullscreenenter"",""0"",""4125""
","
","
","""event"",""trial"",""time""
""fullscreenenter"",""0"",""4125""
","
","null","<div style=""font-size:60px;"">+</div>","","null","fixation","2021-04-08 01:59:02.913","","","","",""
"","mars-trial","18","40297","0.0-10.0-1.2","A1124","""event"",""trial"",""time""
""fullscreenenter"",""0"",""4125""
","
","
","""event"",""trial"",""time""
""fullscreenenter"",""0"",""4125""
","
","1738.5450000292622","<img style='border: 4px solid darkgrey;' src='img/tf1_3_M_ss2.jpeg'></img>","2","","exp","","0","<img src='img/tf1_3_T1_ss2_md.jpeg'></img>","0","true",""
"","html-keyboard-response","19","40801","0.0-10.0-0.3","A1124","""event"",""trial"",""time""
""fullscreenenter"",""0"",""4125""
","
","
","""event"",""trial"",""time""
""fullscreenenter"",""0"",""4125""
","
","null","<div style=""font-size:60px;"">+</div>","","null","fixation","2021-04-08 01:59:05.766","","","","",""
"","mars-trial","20","44877","0.0-10.0-1.3","A1124","""event"",""trial"",""time""
""fullscreenenter"",""0"",""4125""
","
","
","""event"",""trial"",""time""
""fullscreenenter"",""0"",""4125""
","
","3468.1499999715015","<img style='border: 4px solid darkgrey;' src='img/tf1_4_M_ss3.jpeg'></img>","3","","exp","","0","<img src='img/tf1_4_T1_ss3_md.jpeg'></img>","0","true",""
"","html-keyboard-response","21","45382","0.0-10.0-0.4","A1124","""event"",""trial"",""time""
""fullscreenenter"",""0"",""4125""
","
","
","""event"",""trial"",""time""
""fullscreenenter"",""0"",""4125""
","
","null","<div style=""font-size:60px;"">+</div>","","null","fixation","2021-04-08 01:59:10.346","","","","",""
"","mars-trial","22","47748","0.0-10.0-1.4","A1124","""event"",""trial"",""time""
""fullscreenenter"",""0"",""4125""
","
","
","""event"",""trial"",""time""
""fullscreenenter"",""0"",""4125""
","
","1757.160000037402","<img style='border: 4px solid darkgrey;' src='img/tf1_5_M_ss1.jpeg'></img>","1","","exp","","0","<img src='img/tf1_5_T1_ss1_md.jpeg'></img>","0","true",""
"","html-keyboard-response","23","48250","0.0-10.0-0.5","A1124","""event"",""trial"",""time""
""fullscreenenter"",""0"",""4125""
","
","
","""event"",""trial"",""time""
""fullscreenenter"",""0"",""4125""
","
","null","<div style=""font-size:60px;"">+</div>","","null","fixation","2021-04-08 01:59:13.214","","","","",""
"","mars-trial","24","60273","0.0-10.0-1.5","A1124","""event"",""trial"",""time""
""fullscreenenter"",""0"",""4125""
","
","
","""event"",""trial"",""time""
""fullscreenenter"",""0"",""4125""
","
","11411.734999972396","<img style='border: 4px solid darkgrey;' src='img/tf1_6_M_ss2.jpeg'></img>","2","","exp","","1","<img src='img/tf1_6_T1_ss2_md.jpeg'></img>","0","false",""
"","html-keyboard-response","25","60776","0.0-10.0-0.6","A1124","""event"",""trial"",""time""
""fullscreenenter"",""0"",""4125""
","
","
","""event"",""trial"",""time""
""fullscreenenter"",""0"",""4125""
","
","null","<div style=""font-size:60px;"">+</div>","","null","fixation","2021-04-08 01:59:25.740","","","","",""
"","mars-trial","26","66419","0.0-10.0-1.6","A1124","""event"",""trial"",""time""
""fullscreenenter"",""0"",""4125""
","
","
","""event"",""trial"",""time""
""fullscreenenter"",""0"",""4125""
","
","5037.400000030175","<img style='border: 4px solid darkgrey;' src='img/tf1_7_M_ss3.jpeg'></img>","0","","exp","","0","<img src='img/tf1_7_T1_ss3_md.jpeg'></img>","0","true",""
"","html-keyboard-response","27","66925","0.0-10.0-0.7","A1124","""event"",""trial"",""time""
""fullscreenenter"",""0"",""4125""
","
","
","""event"",""trial"",""time""
""fullscreenenter"",""0"",""4125""
","
","null","<div style=""font-size:60px;"">+</div>","","null","fixation","2021-04-08 01:59:31.889","","","","",""
"","mars-trial","28","72211","0.0-10.0-1.7","A1124","""event"",""trial"",""time""
""fullscreenenter"",""0"",""4125""
","
","
","""event"",""trial"",""time""
""fullscreenenter"",""0"",""4125""
","
","4678.155000030529","<img style='border: 4px solid darkgrey;' src='img/tf1_8_M_ss1.jpeg'></img>","2","","exp","","0","<img src='img/tf1_8_T1_ss1_md.jpeg'></img>","0","true",""
"","html-keyboard-response","29","72714","0.0-10.0-0.8","A1124","""event"",""trial"",""time""
""fullscreenenter"",""0"",""4125""
","
","
","""event"",""trial"",""time""
""fullscreenenter"",""0"",""4125""
","
","null","<div style=""font-size:60px;"">+</div>","","null","fixation","2021-04-08 01:59:37.678","","","","",""
"","mars-trial","30","77735","0.0-10.0-1.8","A1124","""event"",""trial"",""time""
""fullscreenenter"",""0"",""4125""
","
","
","""event"",""trial"",""time""
""fullscreenenter"",""0"",""4125""
","
","4411.964999977499","<img style='border: 4px solid darkgrey;' src='img/tf1_9_M_ss2.jpeg'></img>","2","","exp","","0","<img src='img/tf1_9_T1_ss2_md.jpeg'></img>","0","true",""
"","html-keyboard-response","31","78240","0.0-10.0-0.9","A1124","""event"",""trial"",""time""
""fullscreenenter"",""0"",""4125""
","
","
","""event"",""trial"",""time""
""fullscreenenter"",""0"",""4125""
","
","null","<div style=""font-size:60px;"">+</div>","","null","fixation","2021-04-08 01:59:43.204","","","","",""
"","mars-trial","32","89026","0.0-10.0-1.9","A1124","""event"",""trial"",""time""
""fullscreenenter"",""0"",""4125""
","
","
","""event"",""trial"",""time""
""fullscreenenter"",""0"",""4125""
","
","10173.8249999471","<img style='border: 4px solid darkgrey;' src='img/tf1_10_M_ss3.jpeg'></img>","3","","exp","","0","<img src='img/tf1_10_T1_ss3_md.jpeg'></img>","0","true",""
"","html-keyboard-response","33","89528","0.0-10.0-0.10","A1124","""event"",""trial"",""time""
""fullscreenenter"",""0"",""4125""
","
","
","""event"",""trial"",""time""
""fullscreenenter"",""0"",""4125""
","
","null","<div style=""font-size:60px;"">+</div>","","null","fixation","2021-04-08 01:59:54.492","","","","",""
"","mars-trial","34","104740","0.0-10.0-1.10","A1124","""event"",""trial"",""time""
""fullscreenenter"",""0"",""4125""
","
","
","""event"",""trial"",""time""
""fullscreenenter"",""0"",""4125""
","
","14603.46999997273","<img style='border: 4px solid darkgrey;' src='img/tf1_11_M_ss1.jpeg'></img>","3","","exp","","1","<img src='img/tf1_11_T1_ss1_md.jpeg'></img>","0","false",""
"","html-keyboard-response","35","105244","0.0-10.0-0.11","A1124","""event"",""trial"",""time""
""fullscreenenter"",""0"",""4125""
","
","
","""event"",""trial"",""time""
""fullscreenenter"",""0"",""4125""
","
","null","<div style=""font-size:60px;"">+</div>","","null","fixation","2021-04-08 02:00:10.208","","","","",""
"","mars-trial","36","115413","0.0-10.0-1.11","A1124","""event"",""trial"",""time""
""fullscreenenter"",""0"",""4125""
","
","
","""event"",""trial"",""time""
""fullscreenenter"",""0"",""4125""
","
","9557.495000015479","<img style='border: 4px solid darkgrey;' src='img/tf1_12_M_ss2.jpeg'></img>","1","","exp","","3","<img src='img/tf1_12_T1_ss2_md.jpeg'></img>","0","false",""
"","html-keyboard-response","37","115919","0.0-10.0-0.12","A1124","""event"",""trial"",""time""
""fullscreenenter"",""0"",""4125""
","
","
","""event"",""trial"",""time""
""fullscreenenter"",""0"",""4125""
","
","null","<div style=""font-size:60px;"">+</div>","","null","fixation","2021-04-08 02:00:20.883","","","","",""
"","mars-trial","38","135971","0.0-10.0-1.12","A1124","""event"",""trial"",""time""
""fullscreenenter"",""0"",""4125""
","
","
","""event"",""trial"",""time""
""fullscreenenter"",""0"",""4125""
","
","19443.2149999775","<img style='border: 4px solid darkgrey;' src='img/tf1_13_M_ss3.jpeg'></img>","0","","exp","","0","<img src='img/tf1_13_T1_ss3_md.jpeg'></img>","0","true",""
"","html-keyboard-response","39","136474","0.0-10.0-0.13","A1124","""event"",""trial"",""time""
""fullscreenenter"",""0"",""4125""
","
","
","""event"",""trial"",""time""
""fullscreenenter"",""0"",""4125""
","
","null","<div style=""font-size:60px;"">+</div>","","null","fixation","2021-04-08 02:00:41.438","","","","",""
"","mars-trial","40","149982","0.0-10.0-1.13","A1124","""event"",""trial"",""time""
""fullscreenenter"",""0"",""4125""
","
","
","""event"",""trial"",""time""
""fullscreenenter"",""0"",""4125""
","
","12900.199999974575","<img style='border: 4px solid darkgrey;' src='img/tf1_14_M_ss1.jpeg'></img>","1","","exp","","0","<img src='img/tf1_14_T1_ss1_md.jpeg'></img>","0","true",""
"","html-keyboard-response","41","150483","0.0-10.0-0.14","A1124","""event"",""trial"",""time""
""fullscreenenter"",""0"",""4125""
","
","
","""event"",""trial"",""time""
""fullscreenenter"",""0"",""4125""
","
","null","<div style=""font-size:60px;"">+</div>","","null","fixation","2021-04-08 02:00:55.447","","","","",""
"","mars-trial","42","162374","0.0-10.0-1.14","A1124","""event"",""trial"",""time""
""fullscreenenter"",""0"",""4125""
","
","
","""event"",""trial"",""time""
""fullscreenenter"",""0"",""4125""
","
","11279.689999995753","<img style='border: 4px solid darkgrey;' src='img/tf1_15_M_ss2.jpeg'></img>","1","","exp","","1","<img src='img/tf1_15_T1_ss2_md.jpeg'></img>","0","false",""
"","html-keyboard-response","43","162879","0.0-10.0-0.15","A1124","""event"",""trial"",""time""
""fullscreenenter"",""0"",""4125""
","
","
","""event"",""trial"",""time""
""fullscreenenter"",""0"",""4125""
","
","null","<div style=""font-size:60px;"">+</div>","","null","fixation","2021-04-08 02:01:07.843","","","","",""
"","mars-trial","44","173339","0.0-10.0-1.15","A1124","""event"",""trial"",""time""
""fullscreenenter"",""0"",""4125""
","
","
","""event"",""trial"",""time""
""fullscreenenter"",""0"",""4125""
","
","9847.68999996595","<img style='border: 4px solid darkgrey;' src='img/tf1_16_M_ss3.jpeg'></img>","2","","exp","","0","<img src='img/tf1_16_T1_ss3_md.jpeg'></img>","0","true",""
"","html-keyboard-response","45","173842","0.0-10.0-0.16","A1124","""event"",""trial"",""time""
""fullscreenenter"",""0"",""4125""
","
","
","""event"",""trial"",""time""
""fullscreenenter"",""0"",""4125""
","
","null","<div style=""font-size:60px;"">+</div>","","null","fixation","2021-04-08 02:01:18.806","","","","",""
"","mars-trial","46","176782","0.0-10.0-1.16","A1124","""event"",""trial"",""time""
""fullscreenenter"",""0"",""4125""
","
","
","""event"",""trial"",""time""
""fullscreenenter"",""0"",""4125""
","
","2334.369999996852","<img style='border: 4px solid darkgrey;' src='img/tf1_17_M_ss1.jpeg'></img>","1","","exp","","3","<img src='img/tf1_17_T1_ss1_md.jpeg'></img>","0","false",""
"","html-keyboard-response","47","177286","0.0-10.0-0.17","A1124","""event"",""trial"",""time""
""fullscreenenter"",""0"",""4125""
","
","
","""event"",""trial"",""time""
""fullscreenenter"",""0"",""4125""
","
","null","<div style=""font-size:60px;"">+</div>","","null","fixation","2021-04-08 02:01:22.250","","","","",""
"","mars-trial","48","187425","0.0-10.0-1.17","A1124","""event"",""trial"",""time""
""fullscreenenter"",""0"",""4125""
","
","
","""event"",""trial"",""time""
""fullscreenenter"",""0"",""4125""
","
","9530.614999996033","<img style='border: 4px solid darkgrey;' src='img/tf1_18_M_ss2.jpeg'></img>","1","","exp","","0","<img src='img/tf1_18_T1_ss2_md.jpeg'></img>","0","true",""
"","html-keyboard-response","49","187927","0.0-10.0-0.18","A1124","""event"",""trial"",""time""
""fullscreenenter"",""0"",""4125""
","
","
","""event"",""trial"",""time""
""fullscreenenter"",""0"",""4125""
","
","null","<div style=""font-size:60px;"">+</div>","","null","fixation","2021-04-08 02:01:32.891","","","","",""
"","mars-trial","50","195055","0.0-10.0-1.18","A1124","""event"",""trial"",""time""
""fullscreenenter"",""0"",""4125""
","
","
","""event"",""trial"",""time""
""fullscreenenter"",""0"",""4125""
","
","6515.130000014324","<img style='border: 4px solid darkgrey;' src='img/tf1_19_M_ss3.jpeg'></img>","2","","exp","","0","<img src='img/tf1_19_T1_ss3_md.jpeg'></img>","0","true",""
"","html-keyboard-response","51","195558","0.0-10.0-0.19","A1124","""event"",""trial"",""time""
""fullscreenenter"",""0"",""4125""
","
","
","""event"",""trial"",""time""
""fullscreenenter"",""0"",""4125""
","
","null","<div style=""font-size:60px;"">+</div>","","null","fixation","2021-04-08 02:01:40.523","","","","",""
"","mars-trial","52","203507","0.0-10.0-1.19","A1124","""event"",""trial"",""time""
""fullscreenenter"",""0"",""4125""
","
","
","""event"",""trial"",""time""
""fullscreenenter"",""0"",""4125""
","
","7340.029999963008","<img style='border: 4px solid darkgrey;' src='img/tf1_20_M_ss1.jpeg'></img>","2","","exp","","0","<img src='img/tf1_20_T1_ss1_md.jpeg'></img>","0","true",""
"","html-keyboard-response","53","204009","0.0-10.0-0.20","A1124","""event"",""trial"",""time""
""fullscreenenter"",""0"",""4125""
","
","
","""event"",""trial"",""time""
""fullscreenenter"",""0"",""4125""
","
","null","<div style=""font-size:60px;"">+</div>","","null","fixation","2021-04-08 02:01:48.974","","","","",""
"","mars-trial","54","218229","0.0-10.0-1.20","A1124","""event"",""trial"",""time""
""fullscreenenter"",""0"",""4125""
","
","
","""event"",""trial"",""time""
""fullscreenenter"",""0"",""4125""
","
","13611.845000006724","<img style='border: 4px solid darkgrey;' src='img/tf1_21_M_ss2.jpeg'></img>","2","","exp","","2","<img src='img/tf1_21_T1_ss2_md.jpeg'></img>","0","false",""
"","html-keyboard-response","55","218730","0.0-10.0-0.21","A1124","""event"",""trial"",""time""
""fullscreenenter"",""0"",""4125""
","
","
","""event"",""trial"",""time""
""fullscreenenter"",""0"",""4125""
","
","null","<div style=""font-size:60px;"">+</div>","","null","fixation","2021-04-08 02:02:03.695","","","","",""
"","mars-trial","56","222903","0.0-10.0-1.21","A1124","""event"",""trial"",""time""
""fullscreenenter"",""0"",""4125""
","
","
","""event"",""trial"",""time""
""fullscreenenter"",""0"",""4125""
","
","3566.6649999911897","<img style='border: 4px solid darkgrey;' src='img/tf1_22_M_ss3.jpeg'></img>","3","","exp","","0","<img src='img/tf1_22_T1_ss3_md.jpeg'></img>","0","true",""
"","html-keyboard-response","57","223405","0.0-10.0-0.22","A1124","""event"",""trial"",""time""
""fullscreenenter"",""0"",""4125""
","
","
","""event"",""trial"",""time""
""fullscreenenter"",""0"",""4125""
","
","null","<div style=""font-size:60px;"">+</div>","","null","fixation","2021-04-08 02:02:08.369","","","","",""
"","mars-trial","58","237510","0.0-10.0-1.22","A1124","""event"",""trial"",""time""
""fullscreenenter"",""0"",""4125""
","
","
","""event"",""trial"",""time""
""fullscreenenter"",""0"",""4125""
","
","13493.34500002442","<img style='border: 4px solid darkgrey;' src='img/tf1_23_M_ss1.jpeg'></img>","1","","exp","","0","<img src='img/tf1_23_T1_ss1_md.jpeg'></img>","0","true",""
"","html-keyboard-response","59","238011","0.0-10.0-0.23","A1124","""event"",""trial"",""time""
""fullscreenenter"",""0"",""4125""
","
","
","""event"",""trial"",""time""
""fullscreenenter"",""0"",""4125""
","
","null","<div style=""font-size:60px;"">+</div>","","null","fixation","2021-04-08 02:02:22.975","","","","",""
"","mars-trial","60","252517","0.0-10.0-1.23","A1124","""event"",""trial"",""time""
""fullscreenenter"",""0"",""4125""
","
","
","""event"",""trial"",""time""
""fullscreenenter"",""0"",""4125""
","
","13893.830000015441","<img style='border: 4px solid darkgrey;' src='img/tf1_24_M_ss2.jpeg'></img>","1","","exp","","0","<img src='img/tf1_24_T1_ss2_md.jpeg'></img>","0","true",""
"","html-keyboard-response","61","253023","0.0-10.0-0.24","A1124","""event"",""trial"",""time""
""fullscreenenter"",""0"",""4125""
","
","
","""event"",""trial"",""time""
""fullscreenenter"",""0"",""4125""
","
","null","<div style=""font-size:60px;"">+</div>","","null","fixation","2021-04-08 02:02:37.987","","","","",""
"","mars-trial","62","257973","0.0-10.0-1.24","A1124","""event"",""trial"",""time""
""fullscreenenter"",""0"",""4125""
","
","
","""event"",""trial"",""time""
""fullscreenenter"",""0"",""4125""
","
","4344.154999998864","<img style='border: 4px solid darkgrey;' src='img/tf1_25_M_ss3.jpeg'></img>","2","","exp","","0","<img src='img/tf1_25_T1_ss3_md.jpeg'></img>","0","true",""
"","html-keyboard-response","63","258478","0.0-10.0-0.25","A1124","""event"",""trial"",""time""
""fullscreenenter"",""0"",""4125""
","
","
","""event"",""trial"",""time""
""fullscreenenter"",""0"",""4125""
","
","null","<div style=""font-size:60px;"">+</div>","","null","fixation","2021-04-08 02:02:43.442","","","","",""
"","mars-trial","64","279194","0.0-10.0-1.25","A1124","""event"",""trial"",""time""
""fullscreenenter"",""0"",""4125""
","
","
","""event"",""trial"",""time""
""fullscreenenter"",""0"",""4125""
","
","20109.07499998575","<img style='border: 4px solid darkgrey;' src='img/tf1_26_M_ss1.jpeg'></img>","3","","exp","","0","<img src='img/tf1_26_T1_ss1_md.jpeg'></img>","0","true",""
"","html-keyboard-response","65","279697","0.0-10.0-0.26","A1124","""event"",""trial"",""time""
""fullscreenenter"",""0"",""4125""
","
","
","""event"",""trial"",""time""
""fullscreenenter"",""0"",""4125""
","
","null","<div style=""font-size:60px;"">+</div>","","null","fixation","2021-04-08 02:03:04.661","","","","",""
"","mars-trial","66","292488","0.0-10.0-1.26","A1124","""event"",""trial"",""time""
""fullscreenenter"",""0"",""4125""
","
","
","""event"",""trial"",""time""
""fullscreenenter"",""0"",""4125""
","
","12181.924999982584","<img style='border: 4px solid darkgrey;' src='img/tf1_27_M_ss2.jpeg'></img>","1","","exp","","0","<img src='img/tf1_27_T1_ss2_md.jpeg'></img>","0","true",""
"","html-keyboard-response","67","292991","0.0-10.0-0.27","A1124","""event"",""trial"",""time""
""fullscreenenter"",""0"",""4125""
","
","
","""event"",""trial"",""time""
""fullscreenenter"",""0"",""4125""
","
","null","<div style=""font-size:60px;"">+</div>","","null","fixation","2021-04-08 02:03:17.955","","","","",""
"","mars-trial","68","295107","0.0-10.0-1.27","A1124","""event"",""trial"",""time""
""fullscreenenter"",""0"",""4125""
","
","
","""event"",""trial"",""time""
""fullscreenenter"",""0"",""4125""
","
","1505.730000033509","<img style='border: 4px solid darkgrey;' src='img/tf1_28_M_ss3.jpeg'></img>","1","","exp","","1","<img src='img/tf1_28_T1_ss3_md.jpeg'></img>","0","false",""
"","html-keyboard-response","69","295612","0.0-10.0-0.28","A1124","""event"",""trial"",""time""
""fullscreenenter"",""0"",""4125""
","
","
","""event"",""trial"",""time""
""fullscreenenter"",""0"",""4125""
","
","null","<div style=""font-size:60px;"">+</div>","","null","fixation","2021-04-08 02:03:20.576","","","","",""
"","mars-trial","70","305860","0.0-10.0-1.28","A1124","""event"",""trial"",""time""
""fullscreenenter"",""0"",""4125""
","
","
","""event"",""trial"",""time""
""fullscreenenter"",""0"",""4125""
","
","9641.77499996731","<img style='border: 4px solid darkgrey;' src='img/tf1_29_M_ss1.jpeg'></img>","2","","exp","","3","<img src='img/tf1_29_T1_ss1_md.jpeg'></img>","0","false",""
"","html-keyboard-response","71","306365","0.0-10.0-0.29","A1124","""event"",""trial"",""time""
""fullscreenenter"",""0"",""4125""
","
","
","""event"",""trial"",""time""
""fullscreenenter"",""0"",""4125""
","
","null","<div style=""font-size:60px;"">+</div>","","null","fixation","2021-04-08 02:03:31.329","","","","",""
"","mars-trial","72","307549","0.0-10.0-1.29","A1124","""event"",""trial"",""time""
""fullscreenenter"",""0"",""4125""
","
","
","""event"",""trial"",""time""
""fullscreenenter"",""0"",""4125""
","
","576.4099999796599","<img style='border: 4px solid darkgrey;' src='img/tf1_30_M_ss2.jpeg'></img>","2","","exp","","3","<img src='img/tf1_30_T1_ss2_md.jpeg'></img>","0","false",""
"","html-keyboard-response","73","308051","0.0-10.0-0.30","A1124","""event"",""trial"",""time""
""fullscreenenter"",""0"",""4125""
","
","
","""event"",""trial"",""time""
""fullscreenenter"",""0"",""4125""
","
","null","<div style=""font-size:60px;"">+</div>","","null","fixation","2021-04-08 02:03:33.015","","","","",""
"","mars-trial","74","321103","0.0-10.0-1.30","A1124","""event"",""trial"",""time""
""fullscreenenter"",""0"",""4125""
","
","
","""event"",""trial"",""time""
""fullscreenenter"",""0"",""4125""
","
","12440.954999998212","<img style='border: 4px solid darkgrey;' src='img/tf1_31_M_ss3.jpeg'></img>","0","","exp","","2","<img src='img/tf1_31_T1_ss3_md.jpeg'></img>","0","false",""
"","html-keyboard-response","75","321608","0.0-10.0-0.31","A1124","""event"",""trial"",""time""
""fullscreenenter"",""0"",""4125""
","
","
","""event"",""trial"",""time""
""fullscreenenter"",""0"",""4125""
","
","null","<div style=""font-size:60px;"">+</div>","","null","fixation","2021-04-08 02:03:46.572","","","","",""
"","mars-trial","76","329900","0.0-10.0-1.31","A1124","""event"",""trial"",""time""
""fullscreenenter"",""0"",""4125""
","
","
","""event"",""trial"",""time""
""fullscreenenter"",""0"",""4125""
","
","7683.000000019092","<img style='border: 4px solid darkgrey;' src='img/tf1_32_M_ss1.jpeg'></img>","2","","exp","","0","<img src='img/tf1_32_T1_ss1_md.jpeg'></img>","0","true",""
"","html-keyboard-response","77","330404","0.0-10.0-0.32","A1124","""event"",""trial"",""time""
""fullscreenenter"",""0"",""4125""
","
","
","""event"",""trial"",""time""
""fullscreenenter"",""0"",""4125""
","
","null","<div style=""font-size:60px;"">+</div>","","null","fixation","2021-04-08 02:03:55.368","","","","",""
"","mars-trial","78","335723","0.0-10.0-1.32","A1124","""event"",""trial"",""time""
""fullscreenenter"",""0"",""4125""
","
","
","""event"",""trial"",""time""
""fullscreenenter"",""0"",""4125""
","
","4711.909999954514","<img style='border: 4px solid darkgrey;' src='img/tf1_33_M_ss2.jpeg'></img>","2","","exp","","0","<img src='img/tf1_33_T1_ss2_md.jpeg'></img>","0","true",""
"","html-keyboard-response","79","336225","0.0-10.0-0.33","A1124","""event"",""trial"",""time""
""fullscreenenter"",""0"",""4125""
","
","
","""event"",""trial"",""time""
""fullscreenenter"",""0"",""4125""
","
","null","<div style=""font-size:60px;"">+</div>","","null","fixation","2021-04-08 02:04:01.189","","","","",""
"","mars-trial","80","345890","0.0-10.0-1.33","A1124","""event"",""trial"",""time""
""fullscreenenter"",""0"",""4125""
","
","
","""event"",""trial"",""time""
""fullscreenenter"",""0"",""4125""
","
","9050.274999986868","<img style='border: 4px solid darkgrey;' src='img/tf1_34_M_ss3.jpeg'></img>","1","","exp","","0","<img src='img/tf1_34_T1_ss3_md.jpeg'></img>","0","true",""
"","html-keyboard-response","81","346395","0.0-10.0-0.34","A1124","""event"",""trial"",""time""
""fullscreenenter"",""0"",""4125""
","
","
","""event"",""trial"",""time""
""fullscreenenter"",""0"",""4125""
","
","null","<div style=""font-size:60px;"">+</div>","","null","fixation","2021-04-08 02:04:11.359","","","","",""
"","mars-trial","82","353523","0.0-10.0-1.34","A1124","""event"",""trial"",""time""
""fullscreenenter"",""0"",""4125""
","
","
","""event"",""trial"",""time""
""fullscreenenter"",""0"",""4125""
","
","6515.545000031125","<img style='border: 4px solid darkgrey;' src='img/tf1_35_M_ss1.jpeg'></img>","0","","exp","","0","<img src='img/tf1_35_T1_ss1_md.jpeg'></img>","0","true",""
"","html-keyboard-response","83","354027","0.0-10.0-0.35","A1124","""event"",""trial"",""time""
""fullscreenenter"",""0"",""4125""
","
","
","""event"",""trial"",""time""
""fullscreenenter"",""0"",""4125""
","
","null","<div style=""font-size:60px;"">+</div>","","null","fixation","2021-04-08 02:04:18.991","","","","",""
"","mars-trial","84","367052","0.0-10.0-1.35","A1124","""event"",""trial"",""time""
""fullscreenenter"",""0"",""4125""
","
","
","""event"",""trial"",""time""
""fullscreenenter"",""0"",""4125""
","
","12415.930000017397","<img style='border: 4px solid darkgrey;' src='img/tf1_36_M_ss2.jpeg'></img>","2","","exp","","3","<img src='img/tf1_36_T1_ss2_md.jpeg'></img>","0","false",""
"","html-keyboard-response","85","367557","0.0-10.0-0.36","A1124","""event"",""trial"",""time""
""fullscreenenter"",""0"",""4125""
","
","
","""event"",""trial"",""time""
""fullscreenenter"",""0"",""4125""
","
","null","<div style=""font-size:60px;"">+</div>","","null","fixation","2021-04-08 02:04:32.521","","","","",""
"","mars-trial","86","371773","0.0-10.0-1.36","A1124","""event"",""trial"",""time""
""fullscreenenter"",""0"",""4125""
","
","
","""event"",""trial"",""time""
""fullscreenenter"",""0"",""4125""
","
","3603.995000012219","<img style='border: 4px solid darkgrey;' src='img/tf1_37_M_ss3.jpeg'></img>","3","","exp","","1","<img src='img/tf1_37_T1_ss3_md.jpeg'></img>","0","false",""
"","html-keyboard-response","87","372276","0.0-10.0-0.37","A1124","""event"",""trial"",""time""
""fullscreenenter"",""0"",""4125""
","
","
","""event"",""trial"",""time""
""fullscreenenter"",""0"",""4125""
","
","null","<div style=""font-size:60px;"">+</div>","","null","fixation","2021-04-08 02:04:37.241","","","","",""
"","mars-trial","88","379881","0.0-10.0-1.37","A1124","""event"",""trial"",""time""
""fullscreenenter"",""0"",""4125""
","
","
","""event"",""trial"",""time""
""fullscreenenter"",""0"",""4125""
","
","6994.575000018813","<img style='border: 4px solid darkgrey;' src='img/tf1_38_M_ss1.jpeg'></img>","1","","exp","","0","<img src='img/tf1_38_T1_ss1_md.jpeg'></img>","0","true",""
"","html-keyboard-response","89","380386","0.0-10.0-0.38","A1124","""event"",""trial"",""time""
""fullscreenenter"",""0"",""4125""
","
","
","""event"",""trial"",""time""
""fullscreenenter"",""0"",""4125""
","
","null","<div style=""font-size:60px;"">+</div>","","null","fixation","2021-04-08 02:04:45.350","","","","",""
"","mars-trial","90","383749","0.0-10.0-1.38","A1124","""event"",""trial"",""time""
""fullscreenenter"",""0"",""4125""
","
","
","""event"",""trial"",""time""
""fullscreenenter"",""0"",""4125""
","
","2753.8300000014715","<img style='border: 4px solid darkgrey;' src='img/tf1_39_M_ss2.jpeg'></img>","1","","exp","","2","<img src='img/tf1_39_T1_ss2_md.jpeg'></img>","0","false",""
"","html-keyboard-response","91","384254","0.0-10.0-0.39","A1124","""event"",""trial"",""time""
""fullscreenenter"",""0"",""4125""
","
","
","""event"",""trial"",""time""
""fullscreenenter"",""0"",""4125""
","
","null","<div style=""font-size:60px;"">+</div>","","null","fixation","2021-04-08 02:04:49.218","","","","",""
"","mars-trial","92","385843","0.0-10.0-1.39","A1124","""event"",""trial"",""time""
""fullscreenenter"",""0"",""4125""
","
","
","""event"",""trial"",""time""
""fullscreenenter"",""0"",""4125""
","
","976.7449999926612","<img style='border: 4px solid darkgrey;' src='img/tf1_40_M_ss3.jpeg'></img>","0","","exp","","1","<img src='img/tf1_40_T1_ss3_md.jpeg'></img>","0","false",""
"","html-keyboard-response","93","386348","0.0-10.0-0.40","A1124","""event"",""trial"",""time""
""fullscreenenter"",""0"",""4125""
","
","
","""event"",""trial"",""time""
""fullscreenenter"",""0"",""4125""
","
","null","<div style=""font-size:60px;"">+</div>","","null","fixation","2021-04-08 02:04:51.312","","","","",""
"","mars-trial","94","389404","0.0-10.0-1.40","A1124","""event"",""trial"",""time""
""fullscreenenter"",""0"",""4125""
","
","
","""event"",""trial"",""time""
""fullscreenenter"",""0"",""4125""
","
","2443.649999971967","<img style='border: 4px solid darkgrey;' src='img/tf1_41_M_ss1.jpeg'></img>","0","","exp","","0","<img src='img/tf1_41_T1_ss1_md.jpeg'></img>","0","true",""
"","html-keyboard-response","95","389908","0.0-10.0-0.41","A1124","""event"",""trial"",""time""
""fullscreenenter"",""0"",""4125""
","
","
","""event"",""trial"",""time""
""fullscreenenter"",""0"",""4125""
","
","null","<div style=""font-size:60px;"">+</div>","","null","fixation","2021-04-08 02:04:54.872","","","","",""
"","mars-trial","96","401210","0.0-10.0-1.41","A1124","""event"",""trial"",""time""
""fullscreenenter"",""0"",""4125""
","
","
","""event"",""trial"",""time""
""fullscreenenter"",""0"",""4125""
","
","10690.790000022389","<img style='border: 4px solid darkgrey;' src='img/tf1_42_M_ss2.jpeg'></img>","3","","exp","","0","<img src='img/tf1_42_T1_ss2_md.jpeg'></img>","0","true",""
"","html-keyboard-response","97","401715","0.0-10.0-0.42","A1124","""event"",""trial"",""time""
""fullscreenenter"",""0"",""4125""
","
","
","""event"",""trial"",""time""
""fullscreenenter"",""0"",""4125""
","
","null","<div style=""font-size:60px;"">+</div>","","null","fixation","2021-04-08 02:05:06.679","","","","",""
"","mars-trial","98","411154","0.0-10.0-1.42","A1124","""event"",""trial"",""time""
""fullscreenenter"",""0"",""4125""
","
","
","""event"",""trial"",""time""
""fullscreenenter"",""0"",""4125""
","
","8832.129999995232","<img style='border: 4px solid darkgrey;' src='img/tf1_43_M_ss3.jpeg'></img>","0","","exp","","0","<img src='img/tf1_43_T1_ss3_md.jpeg'></img>","0","true",""
"","html-keyboard-response","99","411658","0.0-10.0-0.43","A1124","""event"",""trial"",""time""
""fullscreenenter"",""0"",""4125""
","
","
","""event"",""trial"",""time""
""fullscreenenter"",""0"",""4125""
","
","null","<div style=""font-size:60px;"">+</div>","","null","fixation","2021-04-08 02:05:16.622","","","","",""
"","mars-trial","100","419722","0.0-10.0-1.43","A1124","""event"",""trial"",""time""
""fullscreenenter"",""0"",""4125""
","
","
","""event"",""trial"",""time""
""fullscreenenter"",""0"",""4125""
","
","7451.040000014473","<img style='border: 4px solid darkgrey;' src='img/tf1_44_M_ss1.jpeg'></img>","3","","exp","","3","<img src='img/tf1_44_T1_ss1_md.jpeg'></img>","0","false",""
"","html-keyboard-response","101","420226","0.0-10.0-0.44","A1124","""event"",""trial"",""time""
""fullscreenenter"",""0"",""4125""
","
","
","""event"",""trial"",""time""
""fullscreenenter"",""0"",""4125""
","
","null","<div style=""font-size:60px;"">+</div>","","null","fixation","2021-04-08 02:05:25.191","","","","",""
"","mars-trial","102","430520","0.0-10.0-1.44","A1124","""event"",""trial"",""time""
""fullscreenenter"",""0"",""4125""
","
","
","""event"",""trial"",""time""
""fullscreenenter"",""0"",""4125""
","
","9681.44499999471","<img style='border: 4px solid darkgrey;' src='img/tf1_45_M_ss2.jpeg'></img>","2","","exp","","0","<img src='img/tf1_45_T1_ss2_md.jpeg'></img>","0","true",""
"","html-keyboard-response","103","431025","0.0-10.0-0.45","A1124","""event"",""trial"",""time""
""fullscreenenter"",""0"",""4125""
","
","
","""event"",""trial"",""time""
""fullscreenenter"",""0"",""4125""
","
","null","<div style=""font-size:60px;"">+</div>","","null","fixation","2021-04-08 02:05:35.989","","","","",""
"","mars-trial","104","451435","0.0-10.0-1.45","A1124","""event"",""trial"",""time""
""fullscreenenter"",""0"",""4125""
","
","
","""event"",""trial"",""time""
""fullscreenenter"",""0"",""4125""
","
","19803.23000001954","<img style='border: 4px solid darkgrey;' src='img/tf1_46_M_ss3.jpeg'></img>","0","","exp","","0","<img src='img/tf1_46_T1_ss3_md.jpeg'></img>","0","true",""
"","html-keyboard-response","105","451936","0.0-10.0-0.46","A1124","""event"",""trial"",""time""
""fullscreenenter"",""0"",""4125""
","
","
","""event"",""trial"",""time""
""fullscreenenter"",""0"",""4125""
","
","null","<div style=""font-size:60px;"">+</div>","","null","fixation","2021-04-08 02:05:56.900","","","","",""
"","mars-trial","106","464159","0.0-10.0-1.46","A1124","""event"",""trial"",""time""
""fullscreenenter"",""0"",""4125""
","
","
","""event"",""trial"",""time""
""fullscreenenter"",""0"",""4125""
","
","11616.08000000706","<img style='border: 4px solid darkgrey;' src='img/tf1_47_M_ss1.jpeg'></img>","0","","exp","","0","<img src='img/tf1_47_T1_ss1_md.jpeg'></img>","0","true",""
"","html-keyboard-response","107","464662","0.0-10.0-0.47","A1124","""event"",""trial"",""time""
""fullscreenenter"",""0"",""4125""
","
","
","""event"",""trial"",""time""
""fullscreenenter"",""0"",""4125""
","
","null","<div style=""font-size:60px;"">+</div>","","null","fixation","2021-04-08 02:06:09.626","","","","",""
"","mars-trial","108","471894","0.0-10.0-1.47","A1124","""event"",""trial"",""time""
""fullscreenenter"",""0"",""4125""
","
","
","""event"",""trial"",""time""
""fullscreenenter"",""0"",""4125""
","
","6621.890000009444","<img style='border: 4px solid darkgrey;' src='img/tf1_48_M_ss2.jpeg'></img>","3","","exp","","0","<img src='img/tf1_48_T1_ss2_md.jpeg'></img>","0","true",""
"","html-keyboard-response","109","472398","0.0-10.0-0.48","A1124","""event"",""trial"",""time""
""fullscreenenter"",""0"",""4125""
","
","
","""event"",""trial"",""time""
""fullscreenenter"",""0"",""4125""
","
","null","<div style=""font-size:60px;"">+</div>","","null","fixation","2021-04-08 02:06:17.362","","","","",""
"","mars-trial","110","477533","0.0-10.0-1.48","A1124","""event"",""trial"",""time""
""fullscreenenter"",""0"",""4125""
","
","
","""event"",""trial"",""time""
""fullscreenenter"",""0"",""4125""
","
","4524.84500000719","<img style='border: 4px solid darkgrey;' src='img/tf1_49_M_ss3.jpeg'></img>","0","","exp","","0","<img src='img/tf1_49_T1_ss3_md.jpeg'></img>","0","true",""
"","html-keyboard-response","111","478036","0.0-10.0-0.49","A1124","""event"",""trial"",""time""
""fullscreenenter"",""0"",""4125""
","
","
","""event"",""trial"",""time""
""fullscreenenter"",""0"",""4125""
","
","null","<div style=""font-size:60px;"">+</div>","","null","fixation","2021-04-08 02:06:23.000","","","","",""
"","mars-trial","112","482823","0.0-10.0-1.49","A1124","""event"",""trial"",""time""
""fullscreenenter"",""0"",""4125""
","
","
","""event"",""trial"",""time""
""fullscreenenter"",""0"",""4125""
","
","4177.720000036061","<img style='border: 4px solid darkgrey;' src='img/tf1_50_M_ss1.jpeg'></img>","2","","exp","","0","<img src='img/tf1_50_T1_ss1_md.jpeg'></img>","0","true",""
"","html-keyboard-response","113","483329","0.0-10.0-0.50","A1124","""event"",""trial"",""time""
""fullscreenenter"",""0"",""4125""
","
","
","""event"",""trial"",""time""
""fullscreenenter"",""0"",""4125""
","
","null","<div style=""font-size:60px;"">+</div>","","null","fixation","2021-04-08 02:06:28.293","","","","",""
"","mars-trial","114","489674","0.0-10.0-1.50","A1124","""event"",""trial"",""time""
""fullscreenenter"",""0"",""4125""
","
","
","""event"",""trial"",""time""
""fullscreenenter"",""0"",""4125""
","
","5735.854999977164","<img style='border: 4px solid darkgrey;' src='img/tf1_51_M_ss2.jpeg'></img>","2","","exp","","0","<img src='img/tf1_51_T1_ss2_md.jpeg'></img>","0","true",""
"","html-keyboard-response","115","490179","0.0-10.0-0.51","A1124","""event"",""trial"",""time""
""fullscreenenter"",""0"",""4125""
","
","
","""event"",""trial"",""time""
""fullscreenenter"",""0"",""4125""
","
","null","<div style=""font-size:60px;"">+</div>","","null","fixation","2021-04-08 02:06:35.143","","","","",""
"","mars-trial","116","500193","0.0-10.0-1.51","A1124","""event"",""trial"",""time""
""fullscreenenter"",""0"",""4125""
","
","
","""event"",""trial"",""time""
""fullscreenenter"",""0"",""4125""
","
","9404.255000001285","<img style='border: 4px solid darkgrey;' src='img/tf1_52_M_ss3.jpeg'></img>","3","","exp","","1","<img src='img/tf1_52_T1_ss3_md.jpeg'></img>","0","false",""
"","html-keyboard-response","117","500698","0.0-10.0-0.52","A1124","""event"",""trial"",""time""
""fullscreenenter"",""0"",""4125""
","
","
","""event"",""trial"",""time""
""fullscreenenter"",""0"",""4125""
","
","null","<div style=""font-size:60px;"">+</div>","","null","fixation","2021-04-08 02:06:45.662","","","","",""
"","mars-trial","118","502620","0.0-10.0-1.52","A1124","""event"",""trial"",""time""
""fullscreenenter"",""0"",""4125""
","
","
","""event"",""trial"",""time""
""fullscreenenter"",""0"",""4125""
","
","1312.290000030771","<img style='border: 4px solid darkgrey;' src='img/tf1_53_M_ss1.jpeg'></img>","3","","exp","","3","<img src='img/tf1_53_T1_ss1_md.jpeg'></img>","0","false",""
"","html-keyboard-response","119","503124","0.0-10.0-0.53","A1124","""event"",""trial"",""time""
""fullscreenenter"",""0"",""4125""
","
","
","""event"",""trial"",""time""
""fullscreenenter"",""0"",""4125""
","
","null","<div style=""font-size:60px;"">+</div>","","null","fixation","2021-04-08 02:06:48.088","","","","",""
"","mars-trial","120","511765","0.0-10.0-1.53","A1124","""event"",""trial"",""time""
""fullscreenenter"",""0"",""4125""
","
","
","""event"",""trial"",""time""
""fullscreenenter"",""0"",""4125""
","
","","","","","exp","","","<img src='img/tf1_54_T1_ss2_md.jpeg'></img>","0","false",""
"","html-keyboard-response","121","512078","0.0-10.0-0.54","A1124","""event"",""trial"",""time""
""fullscreenenter"",""0"",""4125""
","
","
","""event"",""trial"",""time""
""fullscreenenter"",""0"",""4125""
","
","8346.894999966025","<img style='border: 4px solid darkgrey;' src='img/tf1_54_M_ss2.jpeg'></img>","1","","fixation","2021-04-08 02:06:57.042","3","","","",""
"","audio-button-response","122","513855","0.0-11.0","A1124","""event"",""trial"",""time""
""fullscreenenter"",""0"",""4125""
","
","
","""event"",""trial"",""time""
""fullscreenenter"",""0"",""4125""
","
","1675.2249999553896","audio/mars_instructions_slide5.wav","0","","","","","","","",""
