"success","trial_type","trial_index","time_elapsed","internal_node_id","subject_id","interactions","blur_events","focus_events","fullscreenenter_events","fullscreenexit_events","rt","stimulus","button_pressed","key_press","part","timestamp","unshuffled_button","correct_response","correct_button","correct","value"
"true","fullscreen","0","3039","0.0-0.0","947","""event"",""trial"",""time""
""fullscreenenter"",""0"",""2066""
","
","
","""event"",""trial"",""time""
""fullscreenenter"",""0"",""2066""
","
","","","","","","","","","","",""
"","pavlovia","1","3046","0.0-1.0","947","""event"",""trial"",""time""
""fullscreenenter"",""0"",""2066""
","
","
","""event"",""trial"",""time""
""fullscreenenter"",""0"",""2066""
","
","","","","","","","","","","",""
"","html-button-response","2","4557","0.0-2.0","947","""event"",""trial"",""time""
""fullscreenenter"",""0"",""2066""
","
","
","""event"",""trial"",""time""
""fullscreenenter"",""0"",""2066""
","
","1508.6749999900348","<p>Welcome! Press START to begin.</p><br>","0","","","","","","","",""
"","audio-button-response","3","14810","0.0-3.0","947","""event"",""trial"",""time""
""fullscreenenter"",""0"",""2066""
","
","
","""event"",""trial"",""time""
""fullscreenenter"",""0"",""2066""
","
","10248.940000019502","audio/mars_instructions_slide2.wav","0","","","","","","","",""
"","audio-button-response","4","16096","0.0-4.0","947","""event"",""trial"",""time""
""fullscreenenter"",""0"",""2066""
","
","
","""event"",""trial"",""time""
""fullscreenenter"",""0"",""2066""
","
","1284.5349999843165","audio/mars_instructions_slide3.wav","0","","","","","","","",""
"","html-keyboard-response","5","16600","0.0-5.0-0.0","947","""event"",""trial"",""time""
""fullscreenenter"",""0"",""2066""
","
","
","""event"",""trial"",""time""
""fullscreenenter"",""0"",""2066""
","
","null","<div style=""font-size:60px;"">+</div>","","null","fixation","2021-06-25 11:49:22.210","","","","",""
"","mars-trial","6","23880","0.0-5.0-1.0","947","""event"",""trial"",""time""
""fullscreenenter"",""0"",""2066""
","
","
","""event"",""trial"",""time""
""fullscreenenter"",""0"",""2066""
","
","5169.620000000577","<img style='border: 4px solid darkgrey;' src='practice/pt1_M1.png'></img>","2","","practice","","0","<img src='practice/pt1_T1.png'></img>","0","true",""
"","html-keyboard-response","7","24385","0.0-6.0-0.0","947","""event"",""trial"",""time""
""fullscreenenter"",""0"",""2066""
","
","
","""event"",""trial"",""time""
""fullscreenenter"",""0"",""2066""
","
","null","<div style=""font-size:60px;"">+</div>","","null","fixation","2021-06-25 11:49:29.995","","","","",""
"","mars-trial","8","29376","0.0-6.0-1.0","947","""event"",""trial"",""time""
""fullscreenenter"",""0"",""2066""
","
","
","""event"",""trial"",""time""
""fullscreenenter"",""0"",""2066""
","
","2884.9000000045635","<img style='border: 4px solid darkgrey;' src='practice/pt2_M1.png'></img>","3","","practice","","0","<img src='practice/pt2_T1.png'></img>","0","true",""
"","html-keyboard-response","9","29880","0.0-7.0-0.0","947","""event"",""trial"",""time""
""fullscreenenter"",""0"",""2066""
","
","
","""event"",""trial"",""time""
""fullscreenenter"",""0"",""2066""
","
","null","<div style=""font-size:60px;"">+</div>","","null","fixation","2021-06-25 11:49:35.490","","","","",""
"","mars-trial","10","34078","0.0-7.0-1.0","947","""event"",""trial"",""time""
""fullscreenenter"",""0"",""2066""
","
","
","""event"",""trial"",""time""
""fullscreenenter"",""0"",""2066""
","
","2087.1100000222214","<img style='border: 4px solid darkgrey;' src='practice/pt3_M1.png'></img>","0","","practice","","0","<img src='practice/pt3_T1.png'></img>","0","true",""
"","audio-button-response","11","35150","0.0-8.0","947","""event"",""trial"",""time""
""fullscreenenter"",""0"",""2066""
","
","
","""event"",""trial"",""time""
""fullscreenenter"",""0"",""2066""
","
","1069.3350000074133","audio/mars_instructions_slide4.wav","0","","","","","","","",""
"","call-function","12","35151","0.0-9.0","947","""event"",""trial"",""time""
""fullscreenenter"",""0"",""2066""
","
","
","""event"",""trial"",""time""
""fullscreenenter"",""0"",""2066""
","
","","","","","","","","","","",""
"","html-keyboard-response","13","35652","0.0-10.0-0.0","947","""event"",""trial"",""time""
""fullscreenenter"",""0"",""2066""
","
","
","""event"",""trial"",""time""
""fullscreenenter"",""0"",""2066""
","
","null","<div style=""font-size:60px;"">+</div>","","null","fixation","2021-06-25 11:49:41.263","","","","",""
"","mars-trial","14","38213","0.0-10.0-1.0","947","""event"",""trial"",""time""
""fullscreenenter"",""0"",""2066""
","
","
","""event"",""trial"",""time""
""fullscreenenter"",""0"",""2066""
","
","1954.5250000082888","<img style='border: 4px solid darkgrey;' src='img/tf1_1_M_ss3.jpeg'></img>","2","","exp","","0","<img src='img/tf1_1_T1_ss3_md.jpeg'></img>","0","true",""
"","html-keyboard-response","15","38718","0.0-10.0-0.1","947","""event"",""trial"",""time""
""fullscreenenter"",""0"",""2066""
","
","
","""event"",""trial"",""time""
""fullscreenenter"",""0"",""2066""
","
","null","<div style=""font-size:60px;"">+</div>","","null","fixation","2021-06-25 11:49:44.328","","","","",""
"","mars-trial","16","41709","0.0-10.0-1.1","947","""event"",""trial"",""time""
""fullscreenenter"",""0"",""2066""
","
","
","""event"",""trial"",""time""
""fullscreenenter"",""0"",""2066""
","
","2383.1350000109524","<img style='border: 4px solid darkgrey;' src='img/tf1_2_M_ss1.jpeg'></img>","1","","exp","","0","<img src='img/tf1_2_T1_ss1_md.jpeg'></img>","0","true",""
"","html-keyboard-response","17","42215","0.0-10.0-0.2","947","""event"",""trial"",""time""
""fullscreenenter"",""0"",""2066""
","
","
","""event"",""trial"",""time""
""fullscreenenter"",""0"",""2066""
","
","null","<div style=""font-size:60px;"">+</div>","","null","fixation","2021-06-25 11:49:47.825","","","","",""
"","mars-trial","18","45092","0.0-10.0-1.2","947","""event"",""trial"",""time""
""fullscreenenter"",""0"",""2066""
","
","
","""event"",""trial"",""time""
""fullscreenenter"",""0"",""2066""
","
","2265.6950000091456","<img style='border: 4px solid darkgrey;' src='img/tf1_3_M_ss2.jpeg'></img>","1","","exp","","0","<img src='img/tf1_3_T1_ss2_md.jpeg'></img>","0","true",""
"","html-keyboard-response","19","45594","0.0-10.0-0.3","947","""event"",""trial"",""time""
""fullscreenenter"",""0"",""2066""
","
","
","""event"",""trial"",""time""
""fullscreenenter"",""0"",""2066""
","
","null","<div style=""font-size:60px;"">+</div>","","null","fixation","2021-06-25 11:49:51.204","","","","",""
"","mars-trial","20","48622","0.0-10.0-1.3","947","""event"",""trial"",""time""
""fullscreenenter"",""0"",""2066""
","
","
","""event"",""trial"",""time""
""fullscreenenter"",""0"",""2066""
","
","2418.370000028517","<img style='border: 4px solid darkgrey;' src='img/tf1_4_M_ss3.jpeg'></img>","0","","exp","","0","<img src='img/tf1_4_T1_ss3_md.jpeg'></img>","0","true",""
"","html-keyboard-response","21","49126","0.0-10.0-0.4","947","""event"",""trial"",""time""
""fullscreenenter"",""0"",""2066""
","
","
","""event"",""trial"",""time""
""fullscreenenter"",""0"",""2066""
","
","null","<div style=""font-size:60px;"">+</div>","","null","fixation","2021-06-25 11:49:54.736","","","","",""
"","mars-trial","22","51553","0.0-10.0-1.4","947","""event"",""trial"",""time""
""fullscreenenter"",""0"",""2066""
","
","
","""event"",""trial"",""time""
""fullscreenenter"",""0"",""2066""
","
","1816.2449999945238","<img style='border: 4px solid darkgrey;' src='img/tf1_5_M_ss1.jpeg'></img>","0","","exp","","0","<img src='img/tf1_5_T1_ss1_md.jpeg'></img>","0","true",""
"","html-keyboard-response","23","52055","0.0-10.0-0.5","947","""event"",""trial"",""time""
""fullscreenenter"",""0"",""2066""
","
","
","""event"",""trial"",""time""
""fullscreenenter"",""0"",""2066""
","
","null","<div style=""font-size:60px;"">+</div>","","null","fixation","2021-06-25 11:49:57.666","","","","",""
"","mars-trial","24","58421","0.0-10.0-1.5","947","""event"",""trial"",""time""
""fullscreenenter"",""0"",""2066""
","
","
","""event"",""trial"",""time""
""fullscreenenter"",""0"",""2066""
","
","5758.39500001166","<img style='border: 4px solid darkgrey;' src='img/tf1_6_M_ss2.jpeg'></img>","1","","exp","","2","<img src='img/tf1_6_T1_ss2_md.jpeg'></img>","0","false",""
"","html-keyboard-response","25","58925","0.0-10.0-0.6","947","""event"",""trial"",""time""
""fullscreenenter"",""0"",""2066""
","
","
","""event"",""trial"",""time""
""fullscreenenter"",""0"",""2066""
","
","null","<div style=""font-size:60px;"">+</div>","","null","fixation","2021-06-25 11:50:04.535","","","","",""
"","mars-trial","26","62351","0.0-10.0-1.6","947","""event"",""trial"",""time""
""fullscreenenter"",""0"",""2066""
","
","
","""event"",""trial"",""time""
""fullscreenenter"",""0"",""2066""
","
","2815.47499995213","<img style='border: 4px solid darkgrey;' src='img/tf1_7_M_ss3.jpeg'></img>","0","","exp","","2","<img src='img/tf1_7_T1_ss3_md.jpeg'></img>","0","false",""
"","html-keyboard-response","27","62856","0.0-10.0-0.7","947","""event"",""trial"",""time""
""fullscreenenter"",""0"",""2066""
","
","
","""event"",""trial"",""time""
""fullscreenenter"",""0"",""2066""
","
","null","<div style=""font-size:60px;"">+</div>","","null","fixation","2021-06-25 11:50:08.466","","","","",""
"","mars-trial","28","67530","0.0-10.0-1.7","947","""event"",""trial"",""time""
""fullscreenenter"",""0"",""2066""
","
","
","""event"",""trial"",""time""
""fullscreenenter"",""0"",""2066""
","
","4064.7449999814853","<img style='border: 4px solid darkgrey;' src='img/tf1_8_M_ss1.jpeg'></img>","2","","exp","","2","<img src='img/tf1_8_T1_ss1_md.jpeg'></img>","0","false",""
"","html-keyboard-response","29","68033","0.0-10.0-0.8","947","""event"",""trial"",""time""
""fullscreenenter"",""0"",""2066""
","
","
","""event"",""trial"",""time""
""fullscreenenter"",""0"",""2066""
","
","null","<div style=""font-size:60px;"">+</div>","","null","fixation","2021-06-25 11:50:13.643","","","","",""
"","mars-trial","30","71152","0.0-10.0-1.8","947","""event"",""trial"",""time""
""fullscreenenter"",""0"",""2066""
","
","
","""event"",""trial"",""time""
""fullscreenenter"",""0"",""2066""
","
","2510.6099999975413","<img style='border: 4px solid darkgrey;' src='img/tf1_9_M_ss2.jpeg'></img>","2","","exp","","2","<img src='img/tf1_9_T1_ss2_md.jpeg'></img>","0","false",""
"","html-keyboard-response","31","71657","0.0-10.0-0.9","947","""event"",""trial"",""time""
""fullscreenenter"",""0"",""2066""
","
","
","""event"",""trial"",""time""
""fullscreenenter"",""0"",""2066""
","
","null","<div style=""font-size:60px;"">+</div>","","null","fixation","2021-06-25 11:50:17.268","","","","",""
"","mars-trial","32","75408","0.0-10.0-1.9","947","""event"",""trial"",""time""
""fullscreenenter"",""0"",""2066""
","
","
","""event"",""trial"",""time""
""fullscreenenter"",""0"",""2066""
","
","3135.8799999579787","<img style='border: 4px solid darkgrey;' src='img/tf1_10_M_ss3.jpeg'></img>","2","","exp","","0","<img src='img/tf1_10_T1_ss3_md.jpeg'></img>","0","true",""
"","html-keyboard-response","33","75913","0.0-10.0-0.10","947","""event"",""trial"",""time""
""fullscreenenter"",""0"",""2066""
","
","
","""event"",""trial"",""time""
""fullscreenenter"",""0"",""2066""
","
","null","<div style=""font-size:60px;"">+</div>","","null","fixation","2021-06-25 11:50:21.523","","","","",""
"","mars-trial","34","80913","0.0-10.0-1.10","947","""event"",""trial"",""time""
""fullscreenenter"",""0"",""2066""
","
","
","""event"",""trial"",""time""
""fullscreenenter"",""0"",""2066""
","
","4386.714999971446","<img style='border: 4px solid darkgrey;' src='img/tf1_11_M_ss1.jpeg'></img>","3","","exp","","0","<img src='img/tf1_11_T1_ss1_md.jpeg'></img>","0","true",""
"","html-keyboard-response","35","81415","0.0-10.0-0.11","947","""event"",""trial"",""time""
""fullscreenenter"",""0"",""2066""
","
","
","""event"",""trial"",""time""
""fullscreenenter"",""0"",""2066""
","
","null","<div style=""font-size:60px;"">+</div>","","null","fixation","2021-06-25 11:50:27.025","","","","",""
"","mars-trial","36","85967","0.0-10.0-1.11","947","""event"",""trial"",""time""
""fullscreenenter"",""0"",""2066""
","
","
","""event"",""trial"",""time""
""fullscreenenter"",""0"",""2066""
","
","3942.7099999738857","<img style='border: 4px solid darkgrey;' src='img/tf1_12_M_ss2.jpeg'></img>","0","","exp","","1","<img src='img/tf1_12_T1_ss2_md.jpeg'></img>","0","false",""
"","html-keyboard-response","37","86472","0.0-10.0-0.12","947","""event"",""trial"",""time""
""fullscreenenter"",""0"",""2066""
","
","
","""event"",""trial"",""time""
""fullscreenenter"",""0"",""2066""
","
","null","<div style=""font-size:60px;"">+</div>","","null","fixation","2021-06-25 11:50:32.082","","","","",""
"","mars-trial","38","91145","0.0-10.0-1.12","947","""event"",""trial"",""time""
""fullscreenenter"",""0"",""2066""
","
","
","""event"",""trial"",""time""
""fullscreenenter"",""0"",""2066""
","
","4059.229999955278","<img style='border: 4px solid darkgrey;' src='img/tf1_13_M_ss3.jpeg'></img>","0","","exp","","1","<img src='img/tf1_13_T1_ss3_md.jpeg'></img>","0","false",""
"","html-keyboard-response","39","91650","0.0-10.0-0.13","947","""event"",""trial"",""time""
""fullscreenenter"",""0"",""2066""
","
","
","""event"",""trial"",""time""
""fullscreenenter"",""0"",""2066""
","
","null","<div style=""font-size:60px;"">+</div>","","null","fixation","2021-06-25 11:50:37.261","","","","",""
"","mars-trial","40","94187","0.0-10.0-1.13","947","""event"",""trial"",""time""
""fullscreenenter"",""0"",""2066""
","
","
","""event"",""trial"",""time""
""fullscreenenter"",""0"",""2066""
","
","1927.2800000035204","<img style='border: 4px solid darkgrey;' src='img/tf1_14_M_ss1.jpeg'></img>","2","","exp","","0","<img src='img/tf1_14_T1_ss1_md.jpeg'></img>","0","true",""
"","html-keyboard-response","41","94692","0.0-10.0-0.14","947","""event"",""trial"",""time""
""fullscreenenter"",""0"",""2066""
","
","
","""event"",""trial"",""time""
""fullscreenenter"",""0"",""2066""
","
","null","<div style=""font-size:60px;"">+</div>","","null","fixation","2021-06-25 11:50:40.302","","","","",""
"","mars-trial","42","96746","0.0-10.0-1.14","947","""event"",""trial"",""time""
""fullscreenenter"",""0"",""2066""
","
","
","""event"",""trial"",""time""
""fullscreenenter"",""0"",""2066""
","
","1447.4499999778345","<img style='border: 4px solid darkgrey;' src='img/tf1_15_M_ss2.jpeg'></img>","3","","exp","","2","<img src='img/tf1_15_T1_ss2_md.jpeg'></img>","0","false",""
"","html-keyboard-response","43","97249","0.0-10.0-0.15","947","""event"",""trial"",""time""
""fullscreenenter"",""0"",""2066""
","
","
","""event"",""trial"",""time""
""fullscreenenter"",""0"",""2066""
","
","null","<div style=""font-size:60px;"">+</div>","","null","fixation","2021-06-25 11:50:42.859","","","","",""
"","mars-trial","44","98541","0.0-10.0-1.15","947","""event"",""trial"",""time""
""fullscreenenter"",""0"",""2066""
","
","
","""event"",""trial"",""time""
""fullscreenenter"",""0"",""2066""
","
","685.9800000092946","<img style='border: 4px solid darkgrey;' src='img/tf1_16_M_ss3.jpeg'></img>","1","","exp","","1","<img src='img/tf1_16_T1_ss3_md.jpeg'></img>","0","false",""
"","html-keyboard-response","45","99046","0.0-10.0-0.16","947","""event"",""trial"",""time""
""fullscreenenter"",""0"",""2066""
","
","
","""event"",""trial"",""time""
""fullscreenenter"",""0"",""2066""
","
","null","<div style=""font-size:60px;"">+</div>","","null","fixation","2021-06-25 11:50:44.656","","","","",""
"","mars-trial","46","99970","0.0-10.0-1.16","947","""event"",""trial"",""time""
""fullscreenenter"",""0"",""2066""
","
","
","""event"",""trial"",""time""
""fullscreenenter"",""0"",""2066""
","
","316.30999996559694","<img style='border: 4px solid darkgrey;' src='img/tf1_17_M_ss1.jpeg'></img>","0","","exp","","2","<img src='img/tf1_17_T1_ss1_md.jpeg'></img>","0","false",""
"","html-keyboard-response","47","100474","0.0-10.0-0.17","947","""event"",""trial"",""time""
""fullscreenenter"",""0"",""2066""
","
","
","""event"",""trial"",""time""
""fullscreenenter"",""0"",""2066""
","
","null","<div style=""font-size:60px;"">+</div>","","null","fixation","2021-06-25 11:50:46.085","","","","",""
"","mars-trial","48","103291","0.0-10.0-1.17","947","""event"",""trial"",""time""
""fullscreenenter"",""0"",""2066""
","
","
","""event"",""trial"",""time""
""fullscreenenter"",""0"",""2066""
","
","2206.624999991618","<img style='border: 4px solid darkgrey;' src='img/tf1_18_M_ss2.jpeg'></img>","3","","exp","","3","<img src='img/tf1_18_T1_ss2_md.jpeg'></img>","0","false",""
"","html-keyboard-response","49","103795","0.0-10.0-0.18","947","""event"",""trial"",""time""
""fullscreenenter"",""0"",""2066""
","
","
","""event"",""trial"",""time""
""fullscreenenter"",""0"",""2066""
","
","null","<div style=""font-size:60px;"">+</div>","","null","fixation","2021-06-25 11:50:49.405","","","","",""
"","mars-trial","50","107527","0.0-10.0-1.18","947","""event"",""trial"",""time""
""fullscreenenter"",""0"",""2066""
","
","
","""event"",""trial"",""time""
""fullscreenenter"",""0"",""2066""
","
","3123.135000001639","<img style='border: 4px solid darkgrey;' src='img/tf1_19_M_ss3.jpeg'></img>","3","","exp","","3","<img src='img/tf1_19_T1_ss3_md.jpeg'></img>","0","false",""
"","html-keyboard-response","51","108030","0.0-10.0-0.19","947","""event"",""trial"",""time""
""fullscreenenter"",""0"",""2066""
","
","
","""event"",""trial"",""time""
""fullscreenenter"",""0"",""2066""
","
","null","<div style=""font-size:60px;"">+</div>","","null","fixation","2021-06-25 11:50:53.640","","","","",""
"","mars-trial","52","113146","0.0-10.0-1.19","947","""event"",""trial"",""time""
""fullscreenenter"",""0"",""2066""
","
","
","""event"",""trial"",""time""
""fullscreenenter"",""0"",""2066""
","
","4501.26500002807","<img style='border: 4px solid darkgrey;' src='img/tf1_20_M_ss1.jpeg'></img>","0","","exp","","2","<img src='img/tf1_20_T1_ss1_md.jpeg'></img>","0","false",""
"","html-keyboard-response","53","113647","0.0-10.0-0.20","947","""event"",""trial"",""time""
""fullscreenenter"",""0"",""2066""
","
","
","""event"",""trial"",""time""
""fullscreenenter"",""0"",""2066""
","
","null","<div style=""font-size:60px;"">+</div>","","null","fixation","2021-06-25 11:50:59.257","","","","",""
"","mars-trial","54","128374","0.0-10.0-1.20","947","""event"",""trial"",""time""
""fullscreenenter"",""0"",""2066""
","
","
","""event"",""trial"",""time""
""fullscreenenter"",""0"",""2066""
","
","14114.765000005718","<img style='border: 4px solid darkgrey;' src='img/tf1_21_M_ss2.jpeg'></img>","2","","exp","","2","<img src='img/tf1_21_T1_ss2_md.jpeg'></img>","0","false",""
"","html-keyboard-response","55","128878","0.0-10.0-0.21","947","""event"",""trial"",""time""
""fullscreenenter"",""0"",""2066""
","
","
","""event"",""trial"",""time""
""fullscreenenter"",""0"",""2066""
","
","null","<div style=""font-size:60px;"">+</div>","","null","fixation","2021-06-25 11:51:14.489","","","","",""
"","mars-trial","56","133065","0.0-10.0-1.21","947","""event"",""trial"",""time""
""fullscreenenter"",""0"",""2066""
","
","
","""event"",""trial"",""time""
""fullscreenenter"",""0"",""2066""
","
","3571.62000000244","<img style='border: 4px solid darkgrey;' src='img/tf1_22_M_ss3.jpeg'></img>","0","","exp","","2","<img src='img/tf1_22_T1_ss3_md.jpeg'></img>","0","false",""
"","html-keyboard-response","57","133570","0.0-10.0-0.22","947","""event"",""trial"",""time""
""fullscreenenter"",""0"",""2066""
","
","
","""event"",""trial"",""time""
""fullscreenenter"",""0"",""2066""
","
","null","<div style=""font-size:60px;"">+</div>","","null","fixation","2021-06-25 11:51:19.180","","","","",""
"","mars-trial","58","136054","0.0-10.0-1.22","947","""event"",""trial"",""time""
""fullscreenenter"",""0"",""2066""
","
","
","""event"",""trial"",""time""
""fullscreenenter"",""0"",""2066""
","
","1875.464999990072","<img style='border: 4px solid darkgrey;' src='img/tf1_23_M_ss1.jpeg'></img>","1","","exp","","0","<img src='img/tf1_23_T1_ss1_md.jpeg'></img>","0","true",""
"","html-keyboard-response","59","136558","0.0-10.0-0.23","947","""event"",""trial"",""time""
""fullscreenenter"",""0"",""2066""
","
","
","""event"",""trial"",""time""
""fullscreenenter"",""0"",""2066""
","
","null","<div style=""font-size:60px;"">+</div>","","null","fixation","2021-06-25 11:51:22.168","","","","",""
"","mars-trial","60","139926","0.0-10.0-1.23","947","""event"",""trial"",""time""
""fullscreenenter"",""0"",""2066""
","
","
","""event"",""trial"",""time""
""fullscreenenter"",""0"",""2066""
","
","2757.6499999850057","<img style='border: 4px solid darkgrey;' src='img/tf1_24_M_ss2.jpeg'></img>","1","","exp","","0","<img src='img/tf1_24_T1_ss2_md.jpeg'></img>","0","true",""
"","html-keyboard-response","61","140430","0.0-10.0-0.24","947","""event"",""trial"",""time""
""fullscreenenter"",""0"",""2066""
","
","
","""event"",""trial"",""time""
""fullscreenenter"",""0"",""2066""
","
","null","<div style=""font-size:60px;"">+</div>","","null","fixation","2021-06-25 11:51:26.040","","","","",""
"","mars-trial","62","145122","0.0-10.0-1.24","947","""event"",""trial"",""time""
""fullscreenenter"",""0"",""2066""
","
","
","""event"",""trial"",""time""
""fullscreenenter"",""0"",""2066""
","
","4081.9949999568053","<img style='border: 4px solid darkgrey;' src='img/tf1_25_M_ss3.jpeg'></img>","2","","exp","","3","<img src='img/tf1_25_T1_ss3_md.jpeg'></img>","0","false",""
"","html-keyboard-response","63","145626","0.0-10.0-0.25","947","""event"",""trial"",""time""
""fullscreenenter"",""0"",""2066""
","
","
","""event"",""trial"",""time""
""fullscreenenter"",""0"",""2066""
","
","null","<div style=""font-size:60px;"">+</div>","","null","fixation","2021-06-25 11:51:31.236","","","","",""
"","mars-trial","64","148350","0.0-10.0-1.25","947","""event"",""trial"",""time""
""fullscreenenter"",""0"",""2066""
","
","
","""event"",""trial"",""time""
""fullscreenenter"",""0"",""2066""
","
","2110.9099999885075","<img style='border: 4px solid darkgrey;' src='img/tf1_26_M_ss1.jpeg'></img>","2","","exp","","3","<img src='img/tf1_26_T1_ss1_md.jpeg'></img>","0","false",""
"","html-keyboard-response","65","148854","0.0-10.0-0.26","947","""event"",""trial"",""time""
""fullscreenenter"",""0"",""2066""
","
","
","""event"",""trial"",""time""
""fullscreenenter"",""0"",""2066""
","
","null","<div style=""font-size:60px;"">+</div>","","null","fixation","2021-06-25 11:51:34.464","","","","",""
"","mars-trial","66","151316","0.0-10.0-1.26","947","""event"",""trial"",""time""
""fullscreenenter"",""0"",""2066""
","
","
","""event"",""trial"",""time""
""fullscreenenter"",""0"",""2066""
","
","1852.4849999812432","<img style='border: 4px solid darkgrey;' src='img/tf1_27_M_ss2.jpeg'></img>","1","","exp","","3","<img src='img/tf1_27_T1_ss2_md.jpeg'></img>","0","false",""
"","html-keyboard-response","67","151821","0.0-10.0-0.27","947","""event"",""trial"",""time""
""fullscreenenter"",""0"",""2066""
","
","
","""event"",""trial"",""time""
""fullscreenenter"",""0"",""2066""
","
","null","<div style=""font-size:60px;"">+</div>","","null","fixation","2021-06-25 11:51:37.431","","","","",""
"","mars-trial","68","166410","0.0-10.0-1.27","947","""event"",""trial"",""time""
""fullscreenenter"",""0"",""2066""
","
","
","""event"",""trial"",""time""
""fullscreenenter"",""0"",""2066""
","
","13979.59499998251","<img style='border: 4px solid darkgrey;' src='img/tf1_28_M_ss3.jpeg'></img>","2","","exp","","0","<img src='img/tf1_28_T1_ss3_md.jpeg'></img>","0","true",""
"","html-keyboard-response","69","166914","0.0-10.0-0.28","947","""event"",""trial"",""time""
""fullscreenenter"",""0"",""2066""
","
","
","""event"",""trial"",""time""
""fullscreenenter"",""0"",""2066""
","
","null","<div style=""font-size:60px;"">+</div>","","null","fixation","2021-06-25 11:51:52.525","","","","",""
"","mars-trial","70","173892","0.0-10.0-1.28","947","""event"",""trial"",""time""
""fullscreenenter"",""0"",""2066""
","
","
","""event"",""trial"",""time""
""fullscreenenter"",""0"",""2066""
","
","6364.919999963604","<img style='border: 4px solid darkgrey;' src='img/tf1_29_M_ss1.jpeg'></img>","1","","exp","","0","<img src='img/tf1_29_T1_ss1_md.jpeg'></img>","0","true",""
"","html-keyboard-response","71","174397","0.0-10.0-0.29","947","""event"",""trial"",""time""
""fullscreenenter"",""0"",""2066""
","
","
","""event"",""trial"",""time""
""fullscreenenter"",""0"",""2066""
","
","null","<div style=""font-size:60px;"">+</div>","","null","fixation","2021-06-25 11:52:00.007","","","","",""
"","mars-trial","72","179024","0.0-10.0-1.29","947","""event"",""trial"",""time""
""fullscreenenter"",""0"",""2066""
","
","
","""event"",""trial"",""time""
""fullscreenenter"",""0"",""2066""
","
","4017.3549999599345","<img style='border: 4px solid darkgrey;' src='img/tf1_30_M_ss2.jpeg'></img>","3","","exp","","0","<img src='img/tf1_30_T1_ss2_md.jpeg'></img>","0","true",""
"","html-keyboard-response","73","179529","0.0-10.0-0.30","947","""event"",""trial"",""time""
""fullscreenenter"",""0"",""2066""
","
","
","""event"",""trial"",""time""
""fullscreenenter"",""0"",""2066""
","
","null","<div style=""font-size:60px;"">+</div>","","null","fixation","2021-06-25 11:52:05.139","","","","",""
"","mars-trial","74","182124","0.0-10.0-1.30","947","""event"",""trial"",""time""
""fullscreenenter"",""0"",""2066""
","
","
","""event"",""trial"",""time""
""fullscreenenter"",""0"",""2066""
","
","1980.039999994915","<img style='border: 4px solid darkgrey;' src='img/tf1_31_M_ss3.jpeg'></img>","1","","exp","","0","<img src='img/tf1_31_T1_ss3_md.jpeg'></img>","0","true",""
"","html-keyboard-response","75","182629","0.0-10.0-0.31","947","""event"",""trial"",""time""
""fullscreenenter"",""0"",""2066""
","
","
","""event"",""trial"",""time""
""fullscreenenter"",""0"",""2066""
","
","null","<div style=""font-size:60px;"">+</div>","","null","fixation","2021-06-25 11:52:08.239","","","","",""
"","mars-trial","76","184427","0.0-10.0-1.31","947","""event"",""trial"",""time""
""fullscreenenter"",""0"",""2066""
","
","
","""event"",""trial"",""time""
""fullscreenenter"",""0"",""2066""
","
","1184.6800000057556","<img style='border: 4px solid darkgrey;' src='img/tf1_32_M_ss1.jpeg'></img>","0","","exp","","0","<img src='img/tf1_32_T1_ss1_md.jpeg'></img>","0","true",""
"","html-keyboard-response","77","184933","0.0-10.0-0.32","947","""event"",""trial"",""time""
""fullscreenenter"",""0"",""2066""
","
","
","""event"",""trial"",""time""
""fullscreenenter"",""0"",""2066""
","
","null","<div style=""font-size:60px;"">+</div>","","null","fixation","2021-06-25 11:52:10.543","","","","",""
"","mars-trial","78","186948","0.0-10.0-1.32","947","""event"",""trial"",""time""
""fullscreenenter"",""0"",""2066""
","
","
","""event"",""trial"",""time""
""fullscreenenter"",""0"",""2066""
","
","1405.1000000326894","<img style='border: 4px solid darkgrey;' src='img/tf1_33_M_ss2.jpeg'></img>","2","","exp","","0","<img src='img/tf1_33_T1_ss2_md.jpeg'></img>","0","true",""
"","html-keyboard-response","79","187453","0.0-10.0-0.33","947","""event"",""trial"",""time""
""fullscreenenter"",""0"",""2066""
","
","
","""event"",""trial"",""time""
""fullscreenenter"",""0"",""2066""
","
","null","<div style=""font-size:60px;"">+</div>","","null","fixation","2021-06-25 11:52:13.063","","","","",""
"","mars-trial","80","189517","0.0-10.0-1.33","947","""event"",""trial"",""time""
""fullscreenenter"",""0"",""2066""
","
","
","""event"",""trial"",""time""
""fullscreenenter"",""0"",""2066""
","
","1455.3149999701418","<img style='border: 4px solid darkgrey;' src='img/tf1_34_M_ss3.jpeg'></img>","1","","exp","","3","<img src='img/tf1_34_T1_ss3_md.jpeg'></img>","0","false",""
"","html-keyboard-response","81","190019","0.0-10.0-0.34","947","""event"",""trial"",""time""
""fullscreenenter"",""0"",""2066""
","
","
","""event"",""trial"",""time""
""fullscreenenter"",""0"",""2066""
","
","null","<div style=""font-size:60px;"">+</div>","","null","fixation","2021-06-25 11:52:15.629","","","","",""
"","mars-trial","82","191354","0.0-10.0-1.34","947","""event"",""trial"",""time""
""fullscreenenter"",""0"",""2066""
","
","
","""event"",""trial"",""time""
""fullscreenenter"",""0"",""2066""
","
","724.4899999932386","<img style='border: 4px solid darkgrey;' src='img/tf1_35_M_ss1.jpeg'></img>","3","","exp","","0","<img src='img/tf1_35_T1_ss1_md.jpeg'></img>","0","true",""
"","html-keyboard-response","83","191856","0.0-10.0-0.35","947","""event"",""trial"",""time""
""fullscreenenter"",""0"",""2066""
","
","
","""event"",""trial"",""time""
""fullscreenenter"",""0"",""2066""
","
","null","<div style=""font-size:60px;"">+</div>","","null","fixation","2021-06-25 11:52:17.466","","","","",""
"","mars-trial","84","194242","0.0-10.0-1.35","947","""event"",""trial"",""time""
""fullscreenenter"",""0"",""2066""
","
","
","""event"",""trial"",""time""
""fullscreenenter"",""0"",""2066""
","
","1779.3150000507012","<img style='border: 4px solid darkgrey;' src='img/tf1_36_M_ss2.jpeg'></img>","0","","exp","","0","<img src='img/tf1_36_T1_ss2_md.jpeg'></img>","0","true",""
"","html-keyboard-response","85","194744","0.0-10.0-0.36","947","""event"",""trial"",""time""
""fullscreenenter"",""0"",""2066""
","
","
","""event"",""trial"",""time""
""fullscreenenter"",""0"",""2066""
","
","null","<div style=""font-size:60px;"">+</div>","","null","fixation","2021-06-25 11:52:20.354","","","","",""
"","mars-trial","86","196150","0.0-10.0-1.36","947","""event"",""trial"",""time""
""fullscreenenter"",""0"",""2066""
","
","
","""event"",""trial"",""time""
""fullscreenenter"",""0"",""2066""
","
","799.3249999708496","<img style='border: 4px solid darkgrey;' src='img/tf1_37_M_ss3.jpeg'></img>","2","","exp","","1","<img src='img/tf1_37_T1_ss3_md.jpeg'></img>","0","false",""
"","html-keyboard-response","87","196653","0.0-10.0-0.37","947","""event"",""trial"",""time""
""fullscreenenter"",""0"",""2066""
","
","
","""event"",""trial"",""time""
""fullscreenenter"",""0"",""2066""
","
","null","<div style=""font-size:60px;"">+</div>","","null","fixation","2021-06-25 11:52:22.264","","","","",""
"","mars-trial","88","197745","0.0-10.0-1.37","947","""event"",""trial"",""time""
""fullscreenenter"",""0"",""2066""
","
","
","""event"",""trial"",""time""
""fullscreenenter"",""0"",""2066""
","
","485.56500003905967","<img style='border: 4px solid darkgrey;' src='img/tf1_38_M_ss1.jpeg'></img>","1","","exp","","2","<img src='img/tf1_38_T1_ss1_md.jpeg'></img>","0","false",""
"","html-keyboard-response","89","198246","0.0-10.0-0.38","947","""event"",""trial"",""time""
""fullscreenenter"",""0"",""2066""
","
","
","""event"",""trial"",""time""
""fullscreenenter"",""0"",""2066""
","
","null","<div style=""font-size:60px;"">+</div>","","null","fixation","2021-06-25 11:52:23.856","","","","",""
"","mars-trial","90","199400","0.0-10.0-1.38","947","""event"",""trial"",""time""
""fullscreenenter"",""0"",""2066""
","
","
","""event"",""trial"",""time""
""fullscreenenter"",""0"",""2066""
","
","546.6000000014901","<img style='border: 4px solid darkgrey;' src='img/tf1_39_M_ss2.jpeg'></img>","0","","exp","","1","<img src='img/tf1_39_T1_ss2_md.jpeg'></img>","0","false",""
"","html-keyboard-response","91","199903","0.0-10.0-0.39","947","""event"",""trial"",""time""
""fullscreenenter"",""0"",""2066""
","
","
","""event"",""trial"",""time""
""fullscreenenter"",""0"",""2066""
","
","null","<div style=""font-size:60px;"">+</div>","","null","fixation","2021-06-25 11:52:25.513","","","","",""
"","mars-trial","92","200898","0.0-10.0-1.39","947","""event"",""trial"",""time""
""fullscreenenter"",""0"",""2066""
","
","
","""event"",""trial"",""time""
""fullscreenenter"",""0"",""2066""
","
","389.4549999968149","<img style='border: 4px solid darkgrey;' src='img/tf1_40_M_ss3.jpeg'></img>","3","","exp","","2","<img src='img/tf1_40_T1_ss3_md.jpeg'></img>","0","false",""
"","html-keyboard-response","93","201401","0.0-10.0-0.40","947","""event"",""trial"",""time""
""fullscreenenter"",""0"",""2066""
","
","
","""event"",""trial"",""time""
""fullscreenenter"",""0"",""2066""
","
","null","<div style=""font-size:60px;"">+</div>","","null","fixation","2021-06-25 11:52:27.011","","","","",""
"","mars-trial","94","204166","0.0-10.0-1.40","947","""event"",""trial"",""time""
""fullscreenenter"",""0"",""2066""
","
","
","""event"",""trial"",""time""
""fullscreenenter"",""0"",""2066""
","
","2157.3199999984354","<img style='border: 4px solid darkgrey;' src='img/tf1_41_M_ss1.jpeg'></img>","3","","exp","","2","<img src='img/tf1_41_T1_ss1_md.jpeg'></img>","0","false",""
"","html-keyboard-response","95","204671","0.0-10.0-0.41","947","""event"",""trial"",""time""
""fullscreenenter"",""0"",""2066""
","
","
","""event"",""trial"",""time""
""fullscreenenter"",""0"",""2066""
","
","null","<div style=""font-size:60px;"">+</div>","","null","fixation","2021-06-25 11:52:30.281","","","","",""
"","mars-trial","96","206529","0.0-10.0-1.41","947","""event"",""trial"",""time""
""fullscreenenter"",""0"",""2066""
","
","
","""event"",""trial"",""time""
""fullscreenenter"",""0"",""2066""
","
","1248.1299999635667","<img style='border: 4px solid darkgrey;' src='img/tf1_42_M_ss2.jpeg'></img>","2","","exp","","1","<img src='img/tf1_42_T1_ss2_md.jpeg'></img>","0","false",""
"","html-keyboard-response","97","207033","0.0-10.0-0.42","947","""event"",""trial"",""time""
""fullscreenenter"",""0"",""2066""
","
","
","""event"",""trial"",""time""
""fullscreenenter"",""0"",""2066""
","
","null","<div style=""font-size:60px;"">+</div>","","null","fixation","2021-06-25 11:52:32.643","","","","",""
"","mars-trial","98","211790","0.0-10.0-1.42","947","""event"",""trial"",""time""
""fullscreenenter"",""0"",""2066""
","
","
","""event"",""trial"",""time""
""fullscreenenter"",""0"",""2066""
","
","4145.94500005478","<img style='border: 4px solid darkgrey;' src='img/tf1_43_M_ss3.jpeg'></img>","1","","exp","","0","<img src='img/tf1_43_T1_ss3_md.jpeg'></img>","0","true",""
"","html-keyboard-response","99","212293","0.0-10.0-0.43","947","""event"",""trial"",""time""
""fullscreenenter"",""0"",""2066""
","
","
","""event"",""trial"",""time""
""fullscreenenter"",""0"",""2066""
","
","null","<div style=""font-size:60px;"">+</div>","","null","fixation","2021-06-25 11:52:37.904","","","","",""
"","mars-trial","100","220026","0.0-10.0-1.43","947","""event"",""trial"",""time""
""fullscreenenter"",""0"",""2066""
","
","
","""event"",""trial"",""time""
""fullscreenenter"",""0"",""2066""
","
","7122.154999990016","<img style='border: 4px solid darkgrey;' src='img/tf1_44_M_ss1.jpeg'></img>","3","","exp","","0","<img src='img/tf1_44_T1_ss1_md.jpeg'></img>","0","true",""
"","html-keyboard-response","101","220531","0.0-10.0-0.44","947","""event"",""trial"",""time""
""fullscreenenter"",""0"",""2066""
","
","
","""event"",""trial"",""time""
""fullscreenenter"",""0"",""2066""
","
","null","<div style=""font-size:60px;"">+</div>","","null","fixation","2021-06-25 11:52:46.141","","","","",""
"","mars-trial","102","225764","0.0-10.0-1.44","947","""event"",""trial"",""time""
""fullscreenenter"",""0"",""2066""
","
","
","""event"",""trial"",""time""
""fullscreenenter"",""0"",""2066""
","
","4620.829999970738","<img style='border: 4px solid darkgrey;' src='img/tf1_45_M_ss2.jpeg'></img>","3","","exp","","0","<img src='img/tf1_45_T1_ss2_md.jpeg'></img>","0","true",""
"","html-keyboard-response","103","226266","0.0-10.0-0.45","947","""event"",""trial"",""time""
""fullscreenenter"",""0"",""2066""
","
","
","""event"",""trial"",""time""
""fullscreenenter"",""0"",""2066""
","
","null","<div style=""font-size:60px;"">+</div>","","null","fixation","2021-06-25 11:52:51.877","","","","",""
"","mars-trial","104","228716","0.0-10.0-1.45","947","""event"",""trial"",""time""
""fullscreenenter"",""0"",""2066""
","
","
","""event"",""trial"",""time""
""fullscreenenter"",""0"",""2066""
","
","1837.6850000349805","<img style='border: 4px solid darkgrey;' src='img/tf1_46_M_ss3.jpeg'></img>","3","","exp","","3","<img src='img/tf1_46_T1_ss3_md.jpeg'></img>","0","false",""
"","html-keyboard-response","105","229221","0.0-10.0-0.46","947","""event"",""trial"",""time""
""fullscreenenter"",""0"",""2066""
","
","
","""event"",""trial"",""time""
""fullscreenenter"",""0"",""2066""
","
","null","<div style=""font-size:60px;"">+</div>","","null","fixation","2021-06-25 11:52:54.831","","","","",""
"","mars-trial","106","232855","0.0-10.0-1.46","947","""event"",""trial"",""time""
""fullscreenenter"",""0"",""2066""
","
","
","""event"",""trial"",""time""
""fullscreenenter"",""0"",""2066""
","
","3022.40499999607","<img style='border: 4px solid darkgrey;' src='img/tf1_47_M_ss1.jpeg'></img>","1","","exp","","1","<img src='img/tf1_47_T1_ss1_md.jpeg'></img>","0","false",""
"","html-keyboard-response","107","233360","0.0-10.0-0.47","947","""event"",""trial"",""time""
""fullscreenenter"",""0"",""2066""
","
","
","""event"",""trial"",""time""
""fullscreenenter"",""0"",""2066""
","
","null","<div style=""font-size:60px;"">+</div>","","null","fixation","2021-06-25 11:52:58.970","","","","",""
"","mars-trial","108","235177","0.0-10.0-1.47","947","""event"",""trial"",""time""
""fullscreenenter"",""0"",""2066""
","
","
","""event"",""trial"",""time""
""fullscreenenter"",""0"",""2066""
","
","1203.304999973625","<img style='border: 4px solid darkgrey;' src='img/tf1_48_M_ss2.jpeg'></img>","2","","exp","","2","<img src='img/tf1_48_T1_ss2_md.jpeg'></img>","0","false",""
"","html-keyboard-response","109","235679","0.0-10.0-0.48","947","""event"",""trial"",""time""
""fullscreenenter"",""0"",""2066""
","
","
","""event"",""trial"",""time""
""fullscreenenter"",""0"",""2066""
","
","null","<div style=""font-size:60px;"">+</div>","","null","fixation","2021-06-25 11:53:01.289","","","","",""
"","mars-trial","110","236989","0.0-10.0-1.48","947","""event"",""trial"",""time""
""fullscreenenter"",""0"",""2066""
","
","
","""event"",""trial"",""time""
""fullscreenenter"",""0"",""2066""
","
","699.4350000168197","<img style='border: 4px solid darkgrey;' src='img/tf1_49_M_ss3.jpeg'></img>","0","","exp","","3","<img src='img/tf1_49_T1_ss3_md.jpeg'></img>","0","false",""
"","html-keyboard-response","111","237490","0.0-10.0-0.49","947","""event"",""trial"",""time""
""fullscreenenter"",""0"",""2066""
","
","
","""event"",""trial"",""time""
""fullscreenenter"",""0"",""2066""
","
","null","<div style=""font-size:60px;"">+</div>","","null","fixation","2021-06-25 11:53:03.100","","","","",""
"","mars-trial","112","238487","0.0-10.0-1.49","947","""event"",""trial"",""time""
""fullscreenenter"",""0"",""2066""
","
","
","""event"",""trial"",""time""
""fullscreenenter"",""0"",""2066""
","
","391.2349999882281","<img style='border: 4px solid darkgrey;' src='img/tf1_50_M_ss1.jpeg'></img>","3","","exp","","1","<img src='img/tf1_50_T1_ss1_md.jpeg'></img>","0","false",""
"","html-keyboard-response","113","238991","0.0-10.0-0.50","947","""event"",""trial"",""time""
""fullscreenenter"",""0"",""2066""
","
","
","""event"",""trial"",""time""
""fullscreenenter"",""0"",""2066""
","
","null","<div style=""font-size:60px;"">+</div>","","null","fixation","2021-06-25 11:53:04.601","","","","",""
"","mars-trial","114","239971","0.0-10.0-1.50","947","""event"",""trial"",""time""
""fullscreenenter"",""0"",""2066""
","
","
","""event"",""trial"",""time""
""fullscreenenter"",""0"",""2066""
","
","373.4650000114925","<img style='border: 4px solid darkgrey;' src='img/tf1_51_M_ss2.jpeg'></img>","1","","exp","","2","<img src='img/tf1_51_T1_ss2_md.jpeg'></img>","0","false",""
"","html-keyboard-response","115","240476","0.0-10.0-0.51","947","""event"",""trial"",""time""
""fullscreenenter"",""0"",""2066""
","
","
","""event"",""trial"",""time""
""fullscreenenter"",""0"",""2066""
","
","null","<div style=""font-size:60px;"">+</div>","","null","fixation","2021-06-25 11:53:06.087","","","","",""
"","mars-trial","116","241470","0.0-10.0-1.51","947","""event"",""trial"",""time""
""fullscreenenter"",""0"",""2066""
","
","
","""event"",""trial"",""time""
""fullscreenenter"",""0"",""2066""
","
","381.96999998763204","<img style='border: 4px solid darkgrey;' src='img/tf1_52_M_ss3.jpeg'></img>","2","","exp","","3","<img src='img/tf1_52_T1_ss3_md.jpeg'></img>","0","false",""
"","html-keyboard-response","117","241972","0.0-10.0-0.52","947","""event"",""trial"",""time""
""fullscreenenter"",""0"",""2066""
","
","
","""event"",""trial"",""time""
""fullscreenenter"",""0"",""2066""
","
","null","<div style=""font-size:60px;"">+</div>","","null","fixation","2021-06-25 11:53:07.582","","","","",""
"","mars-trial","118","243264","0.0-10.0-1.52","947","""event"",""trial"",""time""
""fullscreenenter"",""0"",""2066""
","
","
","""event"",""trial"",""time""
""fullscreenenter"",""0"",""2066""
","
","681.0650000115857","<img style='border: 4px solid darkgrey;' src='img/tf1_53_M_ss1.jpeg'></img>","0","","exp","","1","<img src='img/tf1_53_T1_ss1_md.jpeg'></img>","0","false",""
"","html-keyboard-response","119","243769","0.0-10.0-0.53","947","""event"",""trial"",""time""
""fullscreenenter"",""0"",""2066""
","
","
","""event"",""trial"",""time""
""fullscreenenter"",""0"",""2066""
","
","null","<div style=""font-size:60px;"">+</div>","","null","fixation","2021-06-25 11:53:09.379","","","","",""
"","mars-trial","120","244767","0.0-10.0-1.53","947","""event"",""trial"",""time""
""fullscreenenter"",""0"",""2066""
","
","
","""event"",""trial"",""time""
""fullscreenenter"",""0"",""2066""
","
","392.4150000093505","<img style='border: 4px solid darkgrey;' src='img/tf1_54_M_ss2.jpeg'></img>","3","","exp","","1","<img src='img/tf1_54_T1_ss2_md.jpeg'></img>","0","false",""
"","html-keyboard-response","121","245269","0.0-10.0-0.54","947","""event"",""trial"",""time""
""fullscreenenter"",""0"",""2066""
","
","
","""event"",""trial"",""time""
""fullscreenenter"",""0"",""2066""
","
","null","<div style=""font-size:60px;"">+</div>","","null","fixation","2021-06-25 11:53:10.879","","","","",""
"","mars-trial","122","246075","0.0-10.0-1.54","947","""event"",""trial"",""time""
""fullscreenenter"",""0"",""2066""
","
","
","""event"",""trial"",""time""
""fullscreenenter"",""0"",""2066""
","
","198.73000000370666","<img style='border: 4px solid darkgrey;' src='img/tf1_55_M_ss3.jpeg'></img>","2","","exp","","3","<img src='img/tf1_55_T1_ss3_md.jpeg'></img>","0","false",""
"","html-keyboard-response","123","246579","0.0-10.0-0.55","947","""event"",""trial"",""time""
""fullscreenenter"",""0"",""2066""
","
","
","""event"",""trial"",""time""
""fullscreenenter"",""0"",""2066""
","
","null","<div style=""font-size:60px;"">+</div>","","null","fixation","2021-06-25 11:53:12.189","","","","",""
"","mars-trial","124","247320","0.0-10.0-1.55","947","""event"",""trial"",""time""
""fullscreenenter"",""0"",""2066""
","
","
","""event"",""trial"",""time""
""fullscreenenter"",""0"",""2066""
","
","134.79500001994893","<img style='border: 4px solid darkgrey;' src='img/tf1_56_M_ss1.jpeg'></img>","1","","exp","","3","<img src='img/tf1_56_T1_ss1_md.jpeg'></img>","0","false",""
"","html-keyboard-response","125","247823","0.0-10.0-0.56","947","""event"",""trial"",""time""
""fullscreenenter"",""0"",""2066""
","
","
","""event"",""trial"",""time""
""fullscreenenter"",""0"",""2066""
","
","null","<div style=""font-size:60px;"">+</div>","","null","fixation","2021-06-25 11:53:13.433","","","","",""
"","mars-trial","126","251908","0.0-10.0-1.56","947","""event"",""trial"",""time""
""fullscreenenter"",""0"",""2066""
","
","
","""event"",""trial"",""time""
""fullscreenenter"",""0"",""2066""
","
","3477.8900000383146","<img style='border: 4px solid darkgrey;' src='img/tf1_57_M_ss2.jpeg'></img>","3","","exp","","1","<img src='img/tf1_57_T1_ss2_md.jpeg'></img>","0","false",""
"","html-keyboard-response","127","252413","0.0-10.0-0.57","947","""event"",""trial"",""time""
""fullscreenenter"",""0"",""2066""
","
","
","""event"",""trial"",""time""
""fullscreenenter"",""0"",""2066""
","
","null","<div style=""font-size:60px;"">+</div>","","null","fixation","2021-06-25 11:53:18.023","","","","",""
"","mars-trial","128","254700","0.0-10.0-1.57","947","""event"",""trial"",""time""
""fullscreenenter"",""0"",""2066""
","
","
","""event"",""trial"",""time""
""fullscreenenter"",""0"",""2066""
","
","1677.2049999563023","<img style='border: 4px solid darkgrey;' src='img/tf1_58_M_ss3.jpeg'></img>","2","","exp","","0","<img src='img/tf1_58_T1_ss3_md.jpeg'></img>","0","true",""
"","html-keyboard-response","129","255205","0.0-10.0-0.58","947","""event"",""trial"",""time""
""fullscreenenter"",""0"",""2066""
","
","
","""event"",""trial"",""time""
""fullscreenenter"",""0"",""2066""
","
","null","<div style=""font-size:60px;"">+</div>","","null","fixation","2021-06-25 11:53:20.815","","","","",""
"","mars-trial","130","257629","0.0-10.0-1.58","947","""event"",""trial"",""time""
""fullscreenenter"",""0"",""2066""
","
","
","""event"",""trial"",""time""
""fullscreenenter"",""0"",""2066""
","
","1812.4200000311248","<img style='border: 4px solid darkgrey;' src='img/tf1_59_M_ss1.jpeg'></img>","2","","exp","","3","<img src='img/tf1_59_T1_ss1_md.jpeg'></img>","0","false",""
"","html-keyboard-response","131","258131","0.0-10.0-0.59","947","""event"",""trial"",""time""
""fullscreenenter"",""0"",""2066""
","
","
","""event"",""trial"",""time""
""fullscreenenter"",""0"",""2066""
","
","null","<div style=""font-size:60px;"">+</div>","","null","fixation","2021-06-25 11:53:23.741","","","","",""
"","mars-trial","132","259414","0.0-10.0-1.59","947","""event"",""trial"",""time""
""fullscreenenter"",""0"",""2066""
","
","
","""event"",""trial"",""time""
""fullscreenenter"",""0"",""2066""
","
","673.8350000232458","<img style='border: 4px solid darkgrey;' src='img/tf1_60_M_ss2.jpeg'></img>","1","","exp","","2","<img src='img/tf1_60_T1_ss2_md.jpeg'></img>","0","false",""
"","html-keyboard-response","133","259915","0.0-10.0-0.60","947","""event"",""trial"",""time""
""fullscreenenter"",""0"",""2066""
","
","
","""event"",""trial"",""time""
""fullscreenenter"",""0"",""2066""
","
","null","<div style=""font-size:60px;"">+</div>","","null","fixation","2021-06-25 11:53:25.525","","","","",""
"","mars-trial","134","261030","0.0-10.0-1.60","947","""event"",""trial"",""time""
""fullscreenenter"",""0"",""2066""
","
","
","""event"",""trial"",""time""
""fullscreenenter"",""0"",""2066""
","
","506.7700000363402","<img style='border: 4px solid darkgrey;' src='img/tf1_61_M_ss3.jpeg'></img>","0","","exp","","3","<img src='img/tf1_61_T1_ss3_md.jpeg'></img>","0","false",""
"","html-keyboard-response","135","261532","0.0-10.0-0.61","947","""event"",""trial"",""time""
""fullscreenenter"",""0"",""2066""
","
","
","""event"",""trial"",""time""
""fullscreenenter"",""0"",""2066""
","
","null","<div style=""font-size:60px;"">+</div>","","null","fixation","2021-06-25 11:53:27.142","","","","",""
"","mars-trial","136","262949","0.0-10.0-1.61","947","""event"",""trial"",""time""
""fullscreenenter"",""0"",""2066""
","
","
","""event"",""trial"",""time""
""fullscreenenter"",""0"",""2066""
","
","807.9499999876134","<img style='border: 4px solid darkgrey;' src='img/tf1_62_M_ss1.jpeg'></img>","3","","exp","","2","<img src='img/tf1_62_T1_ss1_md.jpeg'></img>","0","false",""
"","html-keyboard-response","137","263454","0.0-10.0-0.62","947","""event"",""trial"",""time""
""fullscreenenter"",""0"",""2066""
","
","
","""event"",""trial"",""time""
""fullscreenenter"",""0"",""2066""
","
","null","<div style=""font-size:60px;"">+</div>","","null","fixation","2021-06-25 11:53:29.064","","","","",""
"","mars-trial","138","270287","0.0-10.0-1.62","947","""event"",""trial"",""time""
""fullscreenenter"",""0"",""2066""
","
","
","""event"",""trial"",""time""
""fullscreenenter"",""0"",""2066""
","
","6221.499999985099","<img style='border: 4px solid darkgrey;' src='img/tf1_63_M_ss2.jpeg'></img>","0","","exp","","2","<img src='img/tf1_63_T1_ss2_md.jpeg'></img>","0","false",""
"","html-keyboard-response","139","270792","0.0-10.0-0.63","947","""event"",""trial"",""time""
""fullscreenenter"",""0"",""2066""
","
","
","""event"",""trial"",""time""
""fullscreenenter"",""0"",""2066""
","
","null","<div style=""font-size:60px;"">+</div>","","null","fixation","2021-06-25 11:53:36.402","","","","",""
"","mars-trial","140","275692","0.0-10.0-1.63","947","""event"",""trial"",""time""
""fullscreenenter"",""0"",""2066""
","
","
","""event"",""trial"",""time""
""fullscreenenter"",""0"",""2066""
","
","4289.944999967702","<img style='border: 4px solid darkgrey;' src='img/tf1_64_M_ss3.jpeg'></img>","0","","exp","","1","<img src='img/tf1_64_T1_ss3_md.jpeg'></img>","0","false",""
"","html-keyboard-response","141","276196","0.0-10.0-0.64","947","""event"",""trial"",""time""
""fullscreenenter"",""0"",""2066""
","
","
","""event"",""trial"",""time""
""fullscreenenter"",""0"",""2066""
","
","null","<div style=""font-size:60px;"">+</div>","","null","fixation","2021-06-25 11:53:41.806","","","","",""
"","mars-trial","142","283476","0.0-10.0-1.64","947","""event"",""trial"",""time""
""fullscreenenter"",""0"",""2066""
","
","
","""event"",""trial"",""time""
""fullscreenenter"",""0"",""2066""
","
","6668.024999962654","<img style='border: 4px solid darkgrey;' src='img/tf1_65_M_ss1.jpeg'></img>","0","","exp","","0","<img src='img/tf1_65_T1_ss1_md.jpeg'></img>","0","true",""
"","html-keyboard-response","143","283981","0.0-10.0-0.65","947","""event"",""trial"",""time""
""fullscreenenter"",""0"",""2066""
","
","
","""event"",""trial"",""time""
""fullscreenenter"",""0"",""2066""
","
","null","<div style=""font-size:60px;"">+</div>","","null","fixation","2021-06-25 11:53:49.591","","","","",""
"","mars-trial","144","286779","0.0-10.0-1.65","947","""event"",""trial"",""time""
""fullscreenenter"",""0"",""2066""
","
","
","""event"",""trial"",""time""
""fullscreenenter"",""0"",""2066""
","
","2186.214999994263","<img style='border: 4px solid darkgrey;' src='img/tf1_66_M_ss2.jpeg'></img>","3","","exp","","3","<img src='img/tf1_66_T1_ss2_md.jpeg'></img>","0","false",""
"","html-keyboard-response","145","287282","0.0-10.0-0.66","947","""event"",""trial"",""time""
""fullscreenenter"",""0"",""2066""
","
","
","""event"",""trial"",""time""
""fullscreenenter"",""0"",""2066""
","
","null","<div style=""font-size:60px;"">+</div>","","null","fixation","2021-06-25 11:53:52.892","","","","",""
"","mars-trial","146","289552","0.0-10.0-1.66","947","""event"",""trial"",""time""
""fullscreenenter"",""0"",""2066""
","
","
","""event"",""trial"",""time""
""fullscreenenter"",""0"",""2066""
","
","1662.0699999621138","<img style='border: 4px solid darkgrey;' src='img/tf1_67_M_ss3.jpeg'></img>","2","","exp","","0","<img src='img/tf1_67_T1_ss3_md.jpeg'></img>","0","true",""
"","html-keyboard-response","147","290059","0.0-10.0-0.67","947","""event"",""trial"",""time""
""fullscreenenter"",""0"",""2066""
","
","
","""event"",""trial"",""time""
""fullscreenenter"",""0"",""2066""
","
","null","<div style=""font-size:60px;"">+</div>","","null","fixation","2021-06-25 11:53:55.671","","","","",""
"","mars-trial","148","294372","0.0-10.0-1.67","947","""event"",""trial"",""time""
""fullscreenenter"",""0"",""2066""
","
","
","""event"",""trial"",""time""
""fullscreenenter"",""0"",""2066""
","
","3703.635000041686","<img style='border: 4px solid darkgrey;' src='img/tf1_68_M_ss1.jpeg'></img>","0","","exp","","0","<img src='img/tf1_68_T1_ss1_md.jpeg'></img>","0","true",""
"","html-keyboard-response","149","294878","0.0-10.0-0.68","947","""event"",""trial"",""time""
""fullscreenenter"",""0"",""2066""
","
","
","""event"",""trial"",""time""
""fullscreenenter"",""0"",""2066""
","
","null","<div style=""font-size:60px;"">+</div>","","null","fixation","2021-06-25 11:54:00.489","","","","",""
"","mars-trial","150","297719","0.0-10.0-1.68","947","""event"",""trial"",""time""
""fullscreenenter"",""0"",""2066""
","
","
","""event"",""trial"",""time""
""fullscreenenter"",""0"",""2066""
","
","2231.224999995902","<img style='border: 4px solid darkgrey;' src='img/tf1_69_M_ss2.jpeg'></img>","1","","exp","","2","<img src='img/tf1_69_T1_ss2_md.jpeg'></img>","0","false",""
"","html-keyboard-response","151","298221","0.0-10.0-0.69","947","""event"",""trial"",""time""
""fullscreenenter"",""0"",""2066""
","
","
","""event"",""trial"",""time""
""fullscreenenter"",""0"",""2066""
","
","null","<div style=""font-size:60px;"">+</div>","","null","fixation","2021-06-25 11:54:03.831","","","","",""
"","mars-trial","152","301301","0.0-10.0-1.69","947","""event"",""trial"",""time""
""fullscreenenter"",""0"",""2066""
","
","
","""event"",""trial"",""time""
""fullscreenenter"",""0"",""2066""
","
","2464.78500001831","<img style='border: 4px solid darkgrey;' src='img/tf1_70_M_ss3.jpeg'></img>","2","","exp","","3","<img src='img/tf1_70_T1_ss3_md.jpeg'></img>","0","false",""
"","html-keyboard-response","153","301803","0.0-10.0-0.70","947","""event"",""trial"",""time""
""fullscreenenter"",""0"",""2066""
","
","
","""event"",""trial"",""time""
""fullscreenenter"",""0"",""2066""
","
","null","<div style=""font-size:60px;"">+</div>","","null","fixation","2021-06-25 11:54:07.413","","","","",""
"","mars-trial","154","306546","0.0-10.0-1.70","947","""event"",""trial"",""time""
""fullscreenenter"",""0"",""2066""
","
","
","""event"",""trial"",""time""
""fullscreenenter"",""0"",""2066""
","
","4133.209999999963","<img style='border: 4px solid darkgrey;' src='img/tf1_71_M_ss1.jpeg'></img>","3","","exp","","0","<img src='img/tf1_71_T1_ss1_md.jpeg'></img>","0","true",""
"","html-keyboard-response","155","307051","0.0-10.0-0.71","947","""event"",""trial"",""time""
""fullscreenenter"",""0"",""2066""
","
","
","""event"",""trial"",""time""
""fullscreenenter"",""0"",""2066""
","
","null","<div style=""font-size:60px;"">+</div>","","null","fixation","2021-06-25 11:54:12.661","","","","",""
"","mars-trial","156","321669","0.0-10.0-1.71","947","""event"",""trial"",""time""
""fullscreenenter"",""0"",""2066""
","
","
","""event"",""trial"",""time""
""fullscreenenter"",""0"",""2066""
","
","14002.985000028275","<img style='border: 4px solid darkgrey;' src='img/tf1_72_M_ss2.jpeg'></img>","2","","exp","","3","<img src='img/tf1_72_T1_ss2_md.jpeg'></img>","0","false",""
"","html-keyboard-response","157","322173","0.0-10.0-0.72","947","""event"",""trial"",""time""
""fullscreenenter"",""0"",""2066""
","
","
","""event"",""trial"",""time""
""fullscreenenter"",""0"",""2066""
","
","null","<div style=""font-size:60px;"">+</div>","","null","fixation","2021-06-25 11:54:27.783","","","","",""
"","mars-trial","158","326551","0.0-10.0-1.72","947","""event"",""trial"",""time""
""fullscreenenter"",""0"",""2066""
","
","
","""event"",""trial"",""time""
""fullscreenenter"",""0"",""2066""
","
","3766.185000014957","<img style='border: 4px solid darkgrey;' src='img/tf1_73_M_ss3.jpeg'></img>","2","","exp","","0","<img src='img/tf1_73_T1_ss3_md.jpeg'></img>","0","true",""
"","html-keyboard-response","159","327056","0.0-10.0-0.73","947","""event"",""trial"",""time""
""fullscreenenter"",""0"",""2066""
","
","
","""event"",""trial"",""time""
""fullscreenenter"",""0"",""2066""
","
","null","<div style=""font-size:60px;"">+</div>","","null","fixation","2021-06-25 11:54:32.666","","","","",""
"","mars-trial","160","334817","0.0-10.0-1.73","947","""event"",""trial"",""time""
""fullscreenenter"",""0"",""2066""
","
","
","""event"",""trial"",""time""
""fullscreenenter"",""0"",""2066""
","
","7150.885000010021","<img style='border: 4px solid darkgrey;' src='img/tf1_74_M_ss1.jpeg'></img>","2","","exp","","1","<img src='img/tf1_74_T1_ss1_md.jpeg'></img>","0","false",""
"","html-keyboard-response","161","335322","0.0-10.0-0.74","947","""event"",""trial"",""time""
""fullscreenenter"",""0"",""2066""
","
","
","""event"",""trial"",""time""
""fullscreenenter"",""0"",""2066""
","
","null","<div style=""font-size:60px;"">+</div>","","null","fixation","2021-06-25 11:54:40.932","","","","",""
"","mars-trial","162","338033","0.0-10.0-1.74","947","""event"",""trial"",""time""
""fullscreenenter"",""0"",""2066""
","
","
","""event"",""trial"",""time""
""fullscreenenter"",""0"",""2066""
","
","2096.900000004098","<img style='border: 4px solid darkgrey;' src='img/tf1_75_M_ss2.jpeg'></img>","3","","exp","","1","<img src='img/tf1_75_T1_ss2_md.jpeg'></img>","0","false",""
"","html-keyboard-response","163","338535","0.0-10.0-0.75","947","""event"",""trial"",""time""
""fullscreenenter"",""0"",""2066""
","
","
","""event"",""trial"",""time""
""fullscreenenter"",""0"",""2066""
","
","null","<div style=""font-size:60px;"">+</div>","","null","fixation","2021-06-25 11:54:44.145","","","","",""
"","mars-trial","164","343380","0.0-10.0-1.75","947","""event"",""trial"",""time""
""fullscreenenter"",""0"",""2066""
","
","
","""event"",""trial"",""time""
""fullscreenenter"",""0"",""2066""
","
","4238.269999972545","<img style='border: 4px solid darkgrey;' src='img/tf1_76_M_ss3.jpeg'></img>","1","","exp","","0","<img src='img/tf1_76_T1_ss3_md.jpeg'></img>","0","true",""
"","html-keyboard-response","165","343885","0.0-10.0-0.76","947","""event"",""trial"",""time""
""fullscreenenter"",""0"",""2066""
","
","
","""event"",""trial"",""time""
""fullscreenenter"",""0"",""2066""
","
","null","<div style=""font-size:60px;"">+</div>","","null","fixation","2021-06-25 11:54:49.495","","","","",""
"","mars-trial","166","345789","0.0-10.0-1.76","947","""event"",""trial"",""time""
""fullscreenenter"",""0"",""2066""
","
","
","""event"",""trial"",""time""
""fullscreenenter"",""0"",""2066""
","
","1295.0100000016391","<img style='border: 4px solid darkgrey;' src='img/tf1_77_M_ss1.jpeg'></img>","0","","exp","","1","<img src='img/tf1_77_T1_ss1_md.jpeg'></img>","0","false",""
"","html-keyboard-response","167","346294","0.0-10.0-0.77","947","""event"",""trial"",""time""
""fullscreenenter"",""0"",""2066""
","
","
","""event"",""trial"",""time""
""fullscreenenter"",""0"",""2066""
","
","null","<div style=""font-size:60px;"">+</div>","","null","fixation","2021-06-25 11:54:51.904","","","","",""
"","mars-trial","168","349673","0.0-10.0-1.77","947","""event"",""trial"",""time""
""fullscreenenter"",""0"",""2066""
","
","
","""event"",""trial"",""time""
""fullscreenenter"",""0"",""2066""
","
","2765.730000042822","<img style='border: 4px solid darkgrey;' src='img/tf1_78_M_ss2.jpeg'></img>","2","","exp","","3","<img src='img/tf1_78_T1_ss2_md.jpeg'></img>","0","false",""
"","html-keyboard-response","169","350178","0.0-10.0-0.78","947","""event"",""trial"",""time""
""fullscreenenter"",""0"",""2066""
","
","
","""event"",""trial"",""time""
""fullscreenenter"",""0"",""2066""
","
","null","<div style=""font-size:60px;"">+</div>","","null","fixation","2021-06-25 11:54:55.788","","","","",""
"","mars-trial","170","355426","0.0-10.0-1.78","947","""event"",""trial"",""time""
""fullscreenenter"",""0"",""2066""
","
","
","""event"",""trial"",""time""
""fullscreenenter"",""0"",""2066""
","
","4640.439999988303","<img style='border: 4px solid darkgrey;' src='img/tf1_79_M_ss3.jpeg'></img>","3","","exp","","0","<img src='img/tf1_79_T1_ss3_md.jpeg'></img>","0","true",""
"","html-keyboard-response","171","355930","0.0-10.0-0.79","947","""event"",""trial"",""time""
""fullscreenenter"",""0"",""2066""
","
","
","""event"",""trial"",""time""
""fullscreenenter"",""0"",""2066""
","
","null","<div style=""font-size:60px;"">+</div>","","null","fixation","2021-06-25 11:55:01.540","","","","",""
"","mars-trial","172","359447","0.0-10.0-1.79","947","""event"",""trial"",""time""
""fullscreenenter"",""0"",""2066""
","
","
","""event"",""trial"",""time""
""fullscreenenter"",""0"",""2066""
","
","2908.1050000386313","<img style='border: 4px solid darkgrey;' src='img/tf1_80_M_ss1.jpeg'></img>","1","","exp","","1","<img src='img/tf1_80_T1_ss1_md.jpeg'></img>","0","false",""
"","audio-button-response","173","363888","0.0-11.0","947","""event"",""trial"",""time""
""fullscreenenter"",""0"",""2066""
","
","
","""event"",""trial"",""time""
""fullscreenenter"",""0"",""2066""
","
","4436.924999987241","audio/mars_instructions_slide5.wav","0","","","","","","","",""
