"success","trial_type","trial_index","time_elapsed","internal_node_id","subject_id","interactions","blur_events","focus_events","fullscreenenter_events","fullscreenexit_events","rt","stimulus","button_pressed","key_press","part","timestamp","unshuffled_button","correct_response","correct_button","correct","value"
"true","fullscreen","0","6820","0.0-0.0","527","""event"",""trial"",""time""
""focus"",""0"",""0""
""fullscreenenter"",""0"",""6020""
","
","""event"",""trial"",""time""
""focus"",""0"",""0""
","""event"",""trial"",""time""
""fullscreenenter"",""0"",""6020""
","
","","","","","","","","","","",""
"","pavlovia","1","6826","0.0-1.0","527","""event"",""trial"",""time""
""focus"",""0"",""0""
""fullscreenenter"",""0"",""6020""
","
","""event"",""trial"",""time""
""focus"",""0"",""0""
","""event"",""trial"",""time""
""fullscreenenter"",""0"",""6020""
","
","","","","","","","","","","",""
"","html-button-response","2","7826","0.0-2.0","527","""event"",""trial"",""time""
""focus"",""0"",""0""
""fullscreenenter"",""0"",""6020""
","
","""event"",""trial"",""time""
""focus"",""0"",""0""
","""event"",""trial"",""time""
""fullscreenenter"",""0"",""6020""
","
","1000","<p>Welcome! Press START to begin.</p><br>","0","","","","","","","",""
"","audio-button-response","3","16905","0.0-3.0","527","""event"",""trial"",""time""
""focus"",""0"",""0""
""fullscreenenter"",""0"",""6020""
","
","""event"",""trial"",""time""
""focus"",""0"",""0""
","""event"",""trial"",""time""
""fullscreenenter"",""0"",""6020""
","
","9075","audio/mars_instructions_slide2.wav","0","","","","","","","",""
"","audio-button-response","4","18402","0.0-4.0","527","""event"",""trial"",""time""
""focus"",""0"",""0""
""fullscreenenter"",""0"",""6020""
","
","""event"",""trial"",""time""
""focus"",""0"",""0""
","""event"",""trial"",""time""
""fullscreenenter"",""0"",""6020""
","
","1496","audio/mars_instructions_slide3.wav","0","","","","","","","",""
"","html-keyboard-response","5","18915","0.0-5.0-0.0","527","""event"",""trial"",""time""
""focus"",""0"",""0""
""fullscreenenter"",""0"",""6020""
","
","""event"",""trial"",""time""
""focus"",""0"",""0""
","""event"",""trial"",""time""
""fullscreenenter"",""0"",""6020""
","
","null","<div style=""font-size:60px;"">+</div>","","null","fixation","2021-08-14 22:53:13.098","","","","",""
"","mars-trial","6","27479","0.0-5.0-1.0","527","""event"",""trial"",""time""
""focus"",""0"",""0""
""fullscreenenter"",""0"",""6020""
","
","""event"",""trial"",""time""
""focus"",""0"",""0""
","""event"",""trial"",""time""
""fullscreenenter"",""0"",""6020""
","
","6442","<img style='border: 4px solid darkgrey;' src='practice/pt1_M1.png'></img>","3","","practice","","0","<img src='practice/pt1_T1.png'></img>","0","true",""
"","html-keyboard-response","7","27989","0.0-6.0-0.0","527","""event"",""trial"",""time""
""focus"",""0"",""0""
""fullscreenenter"",""0"",""6020""
","
","""event"",""trial"",""time""
""focus"",""0"",""0""
","""event"",""trial"",""time""
""fullscreenenter"",""0"",""6020""
","
","null","<div style=""font-size:60px;"">+</div>","","null","fixation","2021-08-14 22:53:22.171","","","","",""
"","mars-trial","8","33320","0.0-6.0-1.0","527","""event"",""trial"",""time""
""focus"",""0"",""0""
""fullscreenenter"",""0"",""6020""
","
","""event"",""trial"",""time""
""focus"",""0"",""0""
","""event"",""trial"",""time""
""fullscreenenter"",""0"",""6020""
","
","3208","<img style='border: 4px solid darkgrey;' src='practice/pt2_M1.png'></img>","1","","practice","","0","<img src='practice/pt2_T1.png'></img>","0","true",""
"","html-keyboard-response","9","33829","0.0-7.0-0.0","527","""event"",""trial"",""time""
""focus"",""0"",""0""
""fullscreenenter"",""0"",""6020""
","
","""event"",""trial"",""time""
""focus"",""0"",""0""
","""event"",""trial"",""time""
""fullscreenenter"",""0"",""6020""
","
","null","<div style=""font-size:60px;"">+</div>","","null","fixation","2021-08-14 22:53:28.011","","","","",""
"","mars-trial","10","38130","0.0-7.0-1.0","527","""event"",""trial"",""time""
""focus"",""0"",""0""
""fullscreenenter"",""0"",""6020""
","
","""event"",""trial"",""time""
""focus"",""0"",""0""
","""event"",""trial"",""time""
""fullscreenenter"",""0"",""6020""
","
","2189","<img style='border: 4px solid darkgrey;' src='practice/pt3_M1.png'></img>","3","","practice","","0","<img src='practice/pt3_T1.png'></img>","0","true",""
"","audio-button-response","11","44537","0.0-8.0","527","""event"",""trial"",""time""
""focus"",""0"",""0""
""fullscreenenter"",""0"",""6020""
","
","""event"",""trial"",""time""
""focus"",""0"",""0""
","""event"",""trial"",""time""
""fullscreenenter"",""0"",""6020""
","
","6404","audio/mars_instructions_slide4.wav","0","","","","","","","",""
"","call-function","12","44538","0.0-9.0","527","""event"",""trial"",""time""
""focus"",""0"",""0""
""fullscreenenter"",""0"",""6020""
","
","""event"",""trial"",""time""
""focus"",""0"",""0""
","""event"",""trial"",""time""
""fullscreenenter"",""0"",""6020""
","
","","","","","","","","","","",""
"","html-keyboard-response","13","45050","0.0-10.0-0.0","527","""event"",""trial"",""time""
""focus"",""0"",""0""
""fullscreenenter"",""0"",""6020""
","
","""event"",""trial"",""time""
""focus"",""0"",""0""
","""event"",""trial"",""time""
""fullscreenenter"",""0"",""6020""
","
","null","<div style=""font-size:60px;"">+</div>","","null","fixation","2021-08-14 22:53:39.232","","","","",""
"","mars-trial","14","47239","0.0-10.0-1.0","527","""event"",""trial"",""time""
""focus"",""0"",""0""
""fullscreenenter"",""0"",""6020""
","
","""event"",""trial"",""time""
""focus"",""0"",""0""
","""event"",""trial"",""time""
""fullscreenenter"",""0"",""6020""
","
","1572","<img style='border: 4px solid darkgrey;' src='img/tf1_1_M_ss3.jpeg'></img>","2","","exp","","0","<img src='img/tf1_1_T1_ss3_md.jpeg'></img>","0","true",""
"","html-keyboard-response","15","47745","0.0-10.0-0.1","527","""event"",""trial"",""time""
""focus"",""0"",""0""
""fullscreenenter"",""0"",""6020""
","
","""event"",""trial"",""time""
""focus"",""0"",""0""
","""event"",""trial"",""time""
""fullscreenenter"",""0"",""6020""
","
","null","<div style=""font-size:60px;"">+</div>","","null","fixation","2021-08-14 22:53:41.927","","","","",""
"","mars-trial","16","50562","0.0-10.0-1.1","527","""event"",""trial"",""time""
""focus"",""0"",""0""
""fullscreenenter"",""0"",""6020""
","
","""event"",""trial"",""time""
""focus"",""0"",""0""
","""event"",""trial"",""time""
""fullscreenenter"",""0"",""6020""
","
","2193","<img style='border: 4px solid darkgrey;' src='img/tf1_2_M_ss1.jpeg'></img>","0","","exp","","0","<img src='img/tf1_2_T1_ss1_md.jpeg'></img>","0","true",""
"","html-keyboard-response","17","51065","0.0-10.0-0.2","527","""event"",""trial"",""time""
""focus"",""0"",""0""
""fullscreenenter"",""0"",""6020""
","
","""event"",""trial"",""time""
""focus"",""0"",""0""
","""event"",""trial"",""time""
""fullscreenenter"",""0"",""6020""
","
","null","<div style=""font-size:60px;"">+</div>","","null","fixation","2021-08-14 22:53:45.247","","","","",""
"","mars-trial","18","54851","0.0-10.0-1.2","527","""event"",""trial"",""time""
""focus"",""0"",""0""
""fullscreenenter"",""0"",""6020""
","
","""event"",""trial"",""time""
""focus"",""0"",""0""
","""event"",""trial"",""time""
""fullscreenenter"",""0"",""6020""
","
","3165","<img style='border: 4px solid darkgrey;' src='img/tf1_3_M_ss2.jpeg'></img>","0","","exp","","0","<img src='img/tf1_3_T1_ss2_md.jpeg'></img>","0","true",""
"","html-keyboard-response","19","55354","0.0-10.0-0.3","527","""event"",""trial"",""time""
""focus"",""0"",""0""
""fullscreenenter"",""0"",""6020""
","
","""event"",""trial"",""time""
""focus"",""0"",""0""
","""event"",""trial"",""time""
""fullscreenenter"",""0"",""6020""
","
","null","<div style=""font-size:60px;"">+</div>","","null","fixation","2021-08-14 22:53:49.536","","","","",""
"","mars-trial","20","59379","0.0-10.0-1.3","527","""event"",""trial"",""time""
""focus"",""0"",""0""
""fullscreenenter"",""0"",""6020""
","
","""event"",""trial"",""time""
""focus"",""0"",""0""
","""event"",""trial"",""time""
""fullscreenenter"",""0"",""6020""
","
","3416","<img style='border: 4px solid darkgrey;' src='img/tf1_4_M_ss3.jpeg'></img>","2","","exp","","0","<img src='img/tf1_4_T1_ss3_md.jpeg'></img>","0","true",""
"","html-keyboard-response","21","59895","0.0-10.0-0.4","527","""event"",""trial"",""time""
""focus"",""0"",""0""
""fullscreenenter"",""0"",""6020""
","
","""event"",""trial"",""time""
""focus"",""0"",""0""
","""event"",""trial"",""time""
""fullscreenenter"",""0"",""6020""
","
","null","<div style=""font-size:60px;"">+</div>","","null","fixation","2021-08-14 22:53:54.077","","","","",""
"","mars-trial","22","62664","0.0-10.0-1.4","527","""event"",""trial"",""time""
""focus"",""0"",""0""
""fullscreenenter"",""0"",""6020""
","
","""event"",""trial"",""time""
""focus"",""0"",""0""
","""event"",""trial"",""time""
""fullscreenenter"",""0"",""6020""
","
","2149","<img style='border: 4px solid darkgrey;' src='img/tf1_5_M_ss1.jpeg'></img>","2","","exp","","0","<img src='img/tf1_5_T1_ss1_md.jpeg'></img>","0","true",""
"","html-keyboard-response","23","63183","0.0-10.0-0.5","527","""event"",""trial"",""time""
""focus"",""0"",""0""
""fullscreenenter"",""0"",""6020""
","
","""event"",""trial"",""time""
""focus"",""0"",""0""
","""event"",""trial"",""time""
""fullscreenenter"",""0"",""6020""
","
","null","<div style=""font-size:60px;"">+</div>","","null","fixation","2021-08-14 22:53:57.365","","","","",""
"","mars-trial","24","68007","0.0-10.0-1.5","527","""event"",""trial"",""time""
""focus"",""0"",""0""
""fullscreenenter"",""0"",""6020""
","
","""event"",""trial"",""time""
""focus"",""0"",""0""
","""event"",""trial"",""time""
""fullscreenenter"",""0"",""6020""
","
","4200","<img style='border: 4px solid darkgrey;' src='img/tf1_6_M_ss2.jpeg'></img>","1","","exp","","1","<img src='img/tf1_6_T1_ss2_md.jpeg'></img>","0","false",""
"","html-keyboard-response","25","68522","0.0-10.0-0.6","527","""event"",""trial"",""time""
""focus"",""0"",""0""
""fullscreenenter"",""0"",""6020""
","
","""event"",""trial"",""time""
""focus"",""0"",""0""
","""event"",""trial"",""time""
""fullscreenenter"",""0"",""6020""
","
","null","<div style=""font-size:60px;"">+</div>","","null","fixation","2021-08-14 22:54:02.704","","","","",""
"","mars-trial","26","77621","0.0-10.0-1.6","527","""event"",""trial"",""time""
""focus"",""0"",""0""
""fullscreenenter"",""0"",""6020""
","
","""event"",""trial"",""time""
""focus"",""0"",""0""
","""event"",""trial"",""time""
""fullscreenenter"",""0"",""6020""
","
","8481","<img style='border: 4px solid darkgrey;' src='img/tf1_7_M_ss3.jpeg'></img>","3","","exp","","0","<img src='img/tf1_7_T1_ss3_md.jpeg'></img>","0","true",""
"","html-keyboard-response","27","78138","0.0-10.0-0.7","527","""event"",""trial"",""time""
""focus"",""0"",""0""
""fullscreenenter"",""0"",""6020""
","
","""event"",""trial"",""time""
""focus"",""0"",""0""
","""event"",""trial"",""time""
""fullscreenenter"",""0"",""6020""
","
","null","<div style=""font-size:60px;"">+</div>","","null","fixation","2021-08-14 22:54:12.321","","","","",""
"","mars-trial","28","85235","0.0-10.0-1.7","527","""event"",""trial"",""time""
""focus"",""0"",""0""
""fullscreenenter"",""0"",""6020""
","
","""event"",""trial"",""time""
""focus"",""0"",""0""
","""event"",""trial"",""time""
""fullscreenenter"",""0"",""6020""
","
","6480","<img style='border: 4px solid darkgrey;' src='img/tf1_8_M_ss1.jpeg'></img>","1","","exp","","0","<img src='img/tf1_8_T1_ss1_md.jpeg'></img>","0","true",""
"","html-keyboard-response","29","85739","0.0-10.0-0.8","527","""event"",""trial"",""time""
""focus"",""0"",""0""
""fullscreenenter"",""0"",""6020""
","
","""event"",""trial"",""time""
""focus"",""0"",""0""
","""event"",""trial"",""time""
""fullscreenenter"",""0"",""6020""
","
","null","<div style=""font-size:60px;"">+</div>","","null","fixation","2021-08-14 22:54:19.921","","","","",""
"","mars-trial","30","98679","0.0-10.0-1.8","527","""event"",""trial"",""time""
""focus"",""0"",""0""
""fullscreenenter"",""0"",""6020""
","
","""event"",""trial"",""time""
""focus"",""0"",""0""
","""event"",""trial"",""time""
""fullscreenenter"",""0"",""6020""
","
","12322","<img style='border: 4px solid darkgrey;' src='img/tf1_9_M_ss2.jpeg'></img>","0","","exp","","0","<img src='img/tf1_9_T1_ss2_md.jpeg'></img>","0","true",""
"","html-keyboard-response","31","99189","0.0-10.0-0.9","527","""event"",""trial"",""time""
""focus"",""0"",""0""
""fullscreenenter"",""0"",""6020""
","
","""event"",""trial"",""time""
""focus"",""0"",""0""
","""event"",""trial"",""time""
""fullscreenenter"",""0"",""6020""
","
","null","<div style=""font-size:60px;"">+</div>","","null","fixation","2021-08-14 22:54:33.371","","","","",""
"","mars-trial","32","108964","0.0-10.0-1.9","527","""event"",""trial"",""time""
""focus"",""0"",""0""
""fullscreenenter"",""0"",""6020""
","
","""event"",""trial"",""time""
""focus"",""0"",""0""
","""event"",""trial"",""time""
""fullscreenenter"",""0"",""6020""
","
","9167","<img style='border: 4px solid darkgrey;' src='img/tf1_10_M_ss3.jpeg'></img>","3","","exp","","0","<img src='img/tf1_10_T1_ss3_md.jpeg'></img>","0","true",""
"","html-keyboard-response","33","109476","0.0-10.0-0.10","527","""event"",""trial"",""time""
""focus"",""0"",""0""
""fullscreenenter"",""0"",""6020""
","
","""event"",""trial"",""time""
""focus"",""0"",""0""
","""event"",""trial"",""time""
""fullscreenenter"",""0"",""6020""
","
","null","<div style=""font-size:60px;"">+</div>","","null","fixation","2021-08-14 22:54:43.658","","","","",""
"","mars-trial","34","113204","0.0-10.0-1.10","527","""event"",""trial"",""time""
""focus"",""0"",""0""
""fullscreenenter"",""0"",""6020""
","
","""event"",""trial"",""time""
""focus"",""0"",""0""
","""event"",""trial"",""time""
""fullscreenenter"",""0"",""6020""
","
","3119","<img style='border: 4px solid darkgrey;' src='img/tf1_11_M_ss1.jpeg'></img>","2","","exp","","2","<img src='img/tf1_11_T1_ss1_md.jpeg'></img>","0","false",""
"","html-keyboard-response","35","113719","0.0-10.0-0.11","527","""event"",""trial"",""time""
""focus"",""0"",""0""
""fullscreenenter"",""0"",""6020""
","
","""event"",""trial"",""time""
""focus"",""0"",""0""
","""event"",""trial"",""time""
""fullscreenenter"",""0"",""6020""
","
","null","<div style=""font-size:60px;"">+</div>","","null","fixation","2021-08-14 22:54:47.901","","","","",""
"","mars-trial","36","132533","0.0-10.0-1.11","527","""event"",""trial"",""time""
""focus"",""0"",""0""
""fullscreenenter"",""0"",""6020""
","
","""event"",""trial"",""time""
""focus"",""0"",""0""
","""event"",""trial"",""time""
""fullscreenenter"",""0"",""6020""
","
","18194","<img style='border: 4px solid darkgrey;' src='img/tf1_12_M_ss2.jpeg'></img>","1","","exp","","1","<img src='img/tf1_12_T1_ss2_md.jpeg'></img>","0","false",""
"","html-keyboard-response","37","133049","0.0-10.0-0.12","527","""event"",""trial"",""time""
""focus"",""0"",""0""
""fullscreenenter"",""0"",""6020""
","
","""event"",""trial"",""time""
""focus"",""0"",""0""
","""event"",""trial"",""time""
""fullscreenenter"",""0"",""6020""
","
","null","<div style=""font-size:60px;"">+</div>","","null","fixation","2021-08-14 22:55:07.231","","","","",""
"","mars-trial","38","142660","0.0-10.0-1.12","527","""event"",""trial"",""time""
""focus"",""0"",""0""
""fullscreenenter"",""0"",""6020""
","
","""event"",""trial"",""time""
""focus"",""0"",""0""
","""event"",""trial"",""time""
""fullscreenenter"",""0"",""6020""
","
","9005","<img style='border: 4px solid darkgrey;' src='img/tf1_13_M_ss3.jpeg'></img>","1","","exp","","1","<img src='img/tf1_13_T1_ss3_md.jpeg'></img>","0","false",""
"","html-keyboard-response","39","143173","0.0-10.0-0.13","527","""event"",""trial"",""time""
""focus"",""0"",""0""
""fullscreenenter"",""0"",""6020""
","
","""event"",""trial"",""time""
""focus"",""0"",""0""
","""event"",""trial"",""time""
""fullscreenenter"",""0"",""6020""
","
","null","<div style=""font-size:60px;"">+</div>","","null","fixation","2021-08-14 22:55:17.355","","","","",""
"","mars-trial","40","162559","0.0-10.0-1.13","527","""event"",""trial"",""time""
""focus"",""0"",""0""
""fullscreenenter"",""0"",""6020""
","
","""event"",""trial"",""time""
""focus"",""0"",""0""
","""event"",""trial"",""time""
""fullscreenenter"",""0"",""6020""
","
","18761","<img style='border: 4px solid darkgrey;' src='img/tf1_14_M_ss1.jpeg'></img>","0","","exp","","1","<img src='img/tf1_14_T1_ss1_md.jpeg'></img>","0","false",""
"","html-keyboard-response","41","163075","0.0-10.0-0.14","527","""event"",""trial"",""time""
""focus"",""0"",""0""
""fullscreenenter"",""0"",""6020""
","
","""event"",""trial"",""time""
""focus"",""0"",""0""
","""event"",""trial"",""time""
""fullscreenenter"",""0"",""6020""
","
","null","<div style=""font-size:60px;"">+</div>","","null","fixation","2021-08-14 22:55:37.258","","","","",""
"","mars-trial","42","193066","0.0-10.0-1.14","527","""event"",""trial"",""time""
""focus"",""0"",""0""
""fullscreenenter"",""0"",""6020""
","
","""event"",""trial"",""time""
""focus"",""0"",""0""
","""event"",""trial"",""time""
""fullscreenenter"",""0"",""6020""
","
","29372","<img style='border: 4px solid darkgrey;' src='img/tf1_15_M_ss2.jpeg'></img>","1","","exp","","0","<img src='img/tf1_15_T1_ss2_md.jpeg'></img>","0","true",""
"","html-keyboard-response","43","193575","0.0-10.0-0.15","527","""event"",""trial"",""time""
""focus"",""0"",""0""
""fullscreenenter"",""0"",""6020""
","
","""event"",""trial"",""time""
""focus"",""0"",""0""
","""event"",""trial"",""time""
""fullscreenenter"",""0"",""6020""
","
","null","<div style=""font-size:60px;"">+</div>","","null","fixation","2021-08-14 22:56:07.758","","","","",""
"","mars-trial","44","196621","0.0-10.0-1.15","527","""event"",""trial"",""time""
""focus"",""0"",""0""
""fullscreenenter"",""0"",""6020""
","
","""event"",""trial"",""time""
""focus"",""0"",""0""
","""event"",""trial"",""time""
""fullscreenenter"",""0"",""6020""
","
","2421","<img style='border: 4px solid darkgrey;' src='img/tf1_16_M_ss3.jpeg'></img>","2","","exp","","1","<img src='img/tf1_16_T1_ss3_md.jpeg'></img>","0","false",""
"","html-keyboard-response","45","197134","0.0-10.0-0.16","527","""event"",""trial"",""time""
""focus"",""0"",""0""
""fullscreenenter"",""0"",""6020""
","
","""event"",""trial"",""time""
""focus"",""0"",""0""
","""event"",""trial"",""time""
""fullscreenenter"",""0"",""6020""
","
","null","<div style=""font-size:60px;"">+</div>","","null","fixation","2021-08-14 22:56:11.316","","","","",""
"","mars-trial","46","202350","0.0-10.0-1.16","527","""event"",""trial"",""time""
""focus"",""0"",""0""
""fullscreenenter"",""0"",""6020""
","
","""event"",""trial"",""time""
""focus"",""0"",""0""
","""event"",""trial"",""time""
""fullscreenenter"",""0"",""6020""
","
","4586","<img style='border: 4px solid darkgrey;' src='img/tf1_17_M_ss1.jpeg'></img>","1","","exp","","2","<img src='img/tf1_17_T1_ss1_md.jpeg'></img>","0","false",""
"","html-keyboard-response","47","202859","0.0-10.0-0.17","527","""event"",""trial"",""time""
""focus"",""0"",""0""
""fullscreenenter"",""0"",""6020""
","
","""event"",""trial"",""time""
""focus"",""0"",""0""
","""event"",""trial"",""time""
""fullscreenenter"",""0"",""6020""
","
","null","<div style=""font-size:60px;"">+</div>","","null","fixation","2021-08-14 22:56:17.041","","","","",""
"","mars-trial","48","212403","0.0-10.0-1.17","527","""event"",""trial"",""time""
""focus"",""0"",""0""
""fullscreenenter"",""0"",""6020""
","
","""event"",""trial"",""time""
""focus"",""0"",""0""
","""event"",""trial"",""time""
""fullscreenenter"",""0"",""6020""
","
","8921","<img style='border: 4px solid darkgrey;' src='img/tf1_18_M_ss2.jpeg'></img>","2","","exp","","1","<img src='img/tf1_18_T1_ss2_md.jpeg'></img>","0","false",""
"","html-keyboard-response","49","212913","0.0-10.0-0.18","527","""event"",""trial"",""time""
""focus"",""0"",""0""
""fullscreenenter"",""0"",""6020""
","
","""event"",""trial"",""time""
""focus"",""0"",""0""
","""event"",""trial"",""time""
""fullscreenenter"",""0"",""6020""
","
","null","<div style=""font-size:60px;"">+</div>","","null","fixation","2021-08-14 22:56:27.095","","","","",""
"","mars-trial","50","230302","0.0-10.0-1.18","527","""event"",""trial"",""time""
""focus"",""0"",""0""
""fullscreenenter"",""0"",""6020""
","
","""event"",""trial"",""time""
""focus"",""0"",""0""
","""event"",""trial"",""time""
""fullscreenenter"",""0"",""6020""
","
","16776","<img style='border: 4px solid darkgrey;' src='img/tf1_19_M_ss3.jpeg'></img>","0","","exp","","0","<img src='img/tf1_19_T1_ss3_md.jpeg'></img>","0","true",""
"","html-keyboard-response","51","230809","0.0-10.0-0.19","527","""event"",""trial"",""time""
""focus"",""0"",""0""
""fullscreenenter"",""0"",""6020""
","
","""event"",""trial"",""time""
""focus"",""0"",""0""
","""event"",""trial"",""time""
""fullscreenenter"",""0"",""6020""
","
","null","<div style=""font-size:60px;"">+</div>","","null","fixation","2021-08-14 22:56:44.991","","","","",""
"","mars-trial","52","240605","0.0-10.0-1.19","527","""event"",""trial"",""time""
""focus"",""0"",""0""
""fullscreenenter"",""0"",""6020""
","
","""event"",""trial"",""time""
""focus"",""0"",""0""
","""event"",""trial"",""time""
""fullscreenenter"",""0"",""6020""
","
","9184","<img style='border: 4px solid darkgrey;' src='img/tf1_20_M_ss1.jpeg'></img>","0","","exp","","0","<img src='img/tf1_20_T1_ss1_md.jpeg'></img>","0","true",""
"","html-keyboard-response","53","241118","0.0-10.0-0.20","527","""event"",""trial"",""time""
""focus"",""0"",""0""
""fullscreenenter"",""0"",""6020""
","
","""event"",""trial"",""time""
""focus"",""0"",""0""
","""event"",""trial"",""time""
""fullscreenenter"",""0"",""6020""
","
","null","<div style=""font-size:60px;"">+</div>","","null","fixation","2021-08-14 22:56:55.300","","","","",""
"","mars-trial","54","270566","0.0-10.0-1.20","527","""event"",""trial"",""time""
""focus"",""0"",""0""
""fullscreenenter"",""0"",""6020""
","
","""event"",""trial"",""time""
""focus"",""0"",""0""
","""event"",""trial"",""time""
""fullscreenenter"",""0"",""6020""
","
","28838","<img style='border: 4px solid darkgrey;' src='img/tf1_21_M_ss2.jpeg'></img>","3","","exp","","2","<img src='img/tf1_21_T1_ss2_md.jpeg'></img>","0","false",""
"","html-keyboard-response","55","271081","0.0-10.0-0.21","527","""event"",""trial"",""time""
""focus"",""0"",""0""
""fullscreenenter"",""0"",""6020""
","
","""event"",""trial"",""time""
""focus"",""0"",""0""
","""event"",""trial"",""time""
""fullscreenenter"",""0"",""6020""
","
","null","<div style=""font-size:60px;"">+</div>","","null","fixation","2021-08-14 22:57:25.264","","","","",""
"","mars-trial","56","278310","0.0-10.0-1.21","527","""event"",""trial"",""time""
""focus"",""0"",""0""
""fullscreenenter"",""0"",""6020""
","
","""event"",""trial"",""time""
""focus"",""0"",""0""
","""event"",""trial"",""time""
""fullscreenenter"",""0"",""6020""
","
","6607","<img style='border: 4px solid darkgrey;' src='img/tf1_22_M_ss3.jpeg'></img>","0","","exp","","0","<img src='img/tf1_22_T1_ss3_md.jpeg'></img>","0","true",""
"","html-keyboard-response","57","278817","0.0-10.0-0.22","527","""event"",""trial"",""time""
""focus"",""0"",""0""
""fullscreenenter"",""0"",""6020""
","
","""event"",""trial"",""time""
""focus"",""0"",""0""
","""event"",""trial"",""time""
""fullscreenenter"",""0"",""6020""
","
","null","<div style=""font-size:60px;"">+</div>","","null","fixation","2021-08-14 22:57:32.999","","","","",""
"","mars-trial","58","285313","0.0-10.0-1.22","527","""event"",""trial"",""time""
""focus"",""0"",""0""
""fullscreenenter"",""0"",""6020""
","
","""event"",""trial"",""time""
""focus"",""0"",""0""
","""event"",""trial"",""time""
""fullscreenenter"",""0"",""6020""
","
","5894","<img style='border: 4px solid darkgrey;' src='img/tf1_23_M_ss1.jpeg'></img>","3","","exp","","3","<img src='img/tf1_23_T1_ss1_md.jpeg'></img>","0","false",""
"","html-keyboard-response","59","285819","0.0-10.0-0.23","527","""event"",""trial"",""time""
""focus"",""0"",""0""
""fullscreenenter"",""0"",""6020""
","
","""event"",""trial"",""time""
""focus"",""0"",""0""
","""event"",""trial"",""time""
""fullscreenenter"",""0"",""6020""
","
","null","<div style=""font-size:60px;"">+</div>","","null","fixation","2021-08-14 22:57:40.002","","","","",""
"","mars-trial","60","296505","0.0-10.0-1.23","527","""event"",""trial"",""time""
""focus"",""0"",""0""
""fullscreenenter"",""0"",""6020""
","
","""event"",""trial"",""time""
""focus"",""0"",""0""
","""event"",""trial"",""time""
""fullscreenenter"",""0"",""6020""
","
","10067","<img style='border: 4px solid darkgrey;' src='img/tf1_24_M_ss2.jpeg'></img>","0","","exp","","1","<img src='img/tf1_24_T1_ss2_md.jpeg'></img>","0","false",""
"","html-keyboard-response","61","297017","0.0-10.0-0.24","527","""event"",""trial"",""time""
""focus"",""0"",""0""
""fullscreenenter"",""0"",""6020""
","
","""event"",""trial"",""time""
""focus"",""0"",""0""
","""event"",""trial"",""time""
""fullscreenenter"",""0"",""6020""
","
","null","<div style=""font-size:60px;"">+</div>","","null","fixation","2021-08-14 22:57:51.199","","","","",""
"","mars-trial","62","321942","0.0-10.0-1.24","527","""event"",""trial"",""time""
""focus"",""0"",""0""
""fullscreenenter"",""0"",""6020""
","
","""event"",""trial"",""time""
""focus"",""0"",""0""
","""event"",""trial"",""time""
""fullscreenenter"",""0"",""6020""
","
","24301","<img style='border: 4px solid darkgrey;' src='img/tf1_25_M_ss3.jpeg'></img>","1","","exp","","0","<img src='img/tf1_25_T1_ss3_md.jpeg'></img>","0","true",""
"","html-keyboard-response","63","322453","0.0-10.0-0.25","527","""event"",""trial"",""time""
""focus"",""0"",""0""
""fullscreenenter"",""0"",""6020""
","
","""event"",""trial"",""time""
""focus"",""0"",""0""
","""event"",""trial"",""time""
""fullscreenenter"",""0"",""6020""
","
","null","<div style=""font-size:60px;"">+</div>","","null","fixation","2021-08-14 22:58:16.635","","","","",""
"","mars-trial","64","325993","0.0-10.0-1.25","527","""event"",""trial"",""time""
""focus"",""0"",""0""
""fullscreenenter"",""0"",""6020""
","
","""event"",""trial"",""time""
""focus"",""0"",""0""
","""event"",""trial"",""time""
""fullscreenenter"",""0"",""6020""
","
","2926","<img style='border: 4px solid darkgrey;' src='img/tf1_26_M_ss1.jpeg'></img>","0","","exp","","2","<img src='img/tf1_26_T1_ss1_md.jpeg'></img>","0","false",""
"","html-keyboard-response","65","326509","0.0-10.0-0.26","527","""event"",""trial"",""time""
""focus"",""0"",""0""
""fullscreenenter"",""0"",""6020""
","
","""event"",""trial"",""time""
""focus"",""0"",""0""
","""event"",""trial"",""time""
""fullscreenenter"",""0"",""6020""
","
","null","<div style=""font-size:60px;"">+</div>","","null","fixation","2021-08-14 22:58:20.691","","","","",""
"","mars-trial","66","331837","0.0-10.0-1.26","527","""event"",""trial"",""time""
""focus"",""0"",""0""
""fullscreenenter"",""0"",""6020""
","
","""event"",""trial"",""time""
""focus"",""0"",""0""
","""event"",""trial"",""time""
""fullscreenenter"",""0"",""6020""
","
","4710","<img style='border: 4px solid darkgrey;' src='img/tf1_27_M_ss2.jpeg'></img>","2","","exp","","2","<img src='img/tf1_27_T1_ss2_md.jpeg'></img>","0","false",""
"","html-keyboard-response","67","332349","0.0-10.0-0.27","527","""event"",""trial"",""time""
""focus"",""0"",""0""
""fullscreenenter"",""0"",""6020""
","
","""event"",""trial"",""time""
""focus"",""0"",""0""
","""event"",""trial"",""time""
""fullscreenenter"",""0"",""6020""
","
","null","<div style=""font-size:60px;"">+</div>","","null","fixation","2021-08-14 22:58:26.531","","","","",""
"","mars-trial","68","339663","0.0-10.0-1.27","527","""event"",""trial"",""time""
""focus"",""0"",""0""
""fullscreenenter"",""0"",""6020""
","
","""event"",""trial"",""time""
""focus"",""0"",""0""
","""event"",""trial"",""time""
""fullscreenenter"",""0"",""6020""
","
","6691","<img style='border: 4px solid darkgrey;' src='img/tf1_28_M_ss3.jpeg'></img>","1","","exp","","1","<img src='img/tf1_28_T1_ss3_md.jpeg'></img>","0","false",""
"","html-keyboard-response","69","340179","0.0-10.0-0.28","527","""event"",""trial"",""time""
""focus"",""0"",""0""
""fullscreenenter"",""0"",""6020""
","
","""event"",""trial"",""time""
""focus"",""0"",""0""
","""event"",""trial"",""time""
""fullscreenenter"",""0"",""6020""
","
","null","<div style=""font-size:60px;"">+</div>","","null","fixation","2021-08-14 22:58:34.361","","","","",""
"","mars-trial","70","342553","0.0-10.0-1.28","527","""event"",""trial"",""time""
""focus"",""0"",""0""
""fullscreenenter"",""0"",""6020""
","
","""event"",""trial"",""time""
""focus"",""0"",""0""
","""event"",""trial"",""time""
""fullscreenenter"",""0"",""6020""
","
","1759","<img style='border: 4px solid darkgrey;' src='img/tf1_29_M_ss1.jpeg'></img>","0","","exp","","2","<img src='img/tf1_29_T1_ss1_md.jpeg'></img>","0","false",""
"","html-keyboard-response","71","343068","0.0-10.0-0.29","527","""event"",""trial"",""time""
""focus"",""0"",""0""
""fullscreenenter"",""0"",""6020""
","
","""event"",""trial"",""time""
""focus"",""0"",""0""
","""event"",""trial"",""time""
""fullscreenenter"",""0"",""6020""
","
","null","<div style=""font-size:60px;"">+</div>","","null","fixation","2021-08-14 22:58:37.250","","","","",""
"","mars-trial","72","350849","0.0-10.0-1.29","527","""event"",""trial"",""time""
""focus"",""0"",""0""
""fullscreenenter"",""0"",""6020""
","
","""event"",""trial"",""time""
""focus"",""0"",""0""
","""event"",""trial"",""time""
""fullscreenenter"",""0"",""6020""
","
","7162","<img style='border: 4px solid darkgrey;' src='img/tf1_30_M_ss2.jpeg'></img>","1","","exp","","2","<img src='img/tf1_30_T1_ss2_md.jpeg'></img>","0","false",""
"","html-keyboard-response","73","351354","0.0-10.0-0.30","527","""event"",""trial"",""time""
""focus"",""0"",""0""
""fullscreenenter"",""0"",""6020""
","
","""event"",""trial"",""time""
""focus"",""0"",""0""
","""event"",""trial"",""time""
""fullscreenenter"",""0"",""6020""
","
","null","<div style=""font-size:60px;"">+</div>","","null","fixation","2021-08-14 22:58:45.536","","","","",""
"","mars-trial","74","366895","0.0-10.0-1.30","527","""event"",""trial"",""time""
""focus"",""0"",""0""
""fullscreenenter"",""0"",""6020""
","
","""event"",""trial"",""time""
""focus"",""0"",""0""
","""event"",""trial"",""time""
""fullscreenenter"",""0"",""6020""
","
","14923","<img style='border: 4px solid darkgrey;' src='img/tf1_31_M_ss3.jpeg'></img>","1","","exp","","3","<img src='img/tf1_31_T1_ss3_md.jpeg'></img>","0","false",""
"","html-keyboard-response","75","367408","0.0-10.0-0.31","527","""event"",""trial"",""time""
""focus"",""0"",""0""
""fullscreenenter"",""0"",""6020""
","
","""event"",""trial"",""time""
""focus"",""0"",""0""
","""event"",""trial"",""time""
""fullscreenenter"",""0"",""6020""
","
","null","<div style=""font-size:60px;"">+</div>","","null","fixation","2021-08-14 22:59:01.590","","","","",""
"","mars-trial","76","375834","0.0-10.0-1.31","527","""event"",""trial"",""time""
""focus"",""0"",""0""
""fullscreenenter"",""0"",""6020""
","
","""event"",""trial"",""time""
""focus"",""0"",""0""
","""event"",""trial"",""time""
""fullscreenenter"",""0"",""6020""
","
","7796","<img style='border: 4px solid darkgrey;' src='img/tf1_32_M_ss1.jpeg'></img>","2","","exp","","1","<img src='img/tf1_32_T1_ss1_md.jpeg'></img>","0","false",""
"","html-keyboard-response","77","376343","0.0-10.0-0.32","527","""event"",""trial"",""time""
""focus"",""0"",""0""
""fullscreenenter"",""0"",""6020""
","
","""event"",""trial"",""time""
""focus"",""0"",""0""
","""event"",""trial"",""time""
""fullscreenenter"",""0"",""6020""
","
","null","<div style=""font-size:60px;"">+</div>","","null","fixation","2021-08-14 22:59:10.525","","","","",""
"","mars-trial","78","386734","0.0-10.0-1.32","527","""event"",""trial"",""time""
""focus"",""0"",""0""
""fullscreenenter"",""0"",""6020""
","
","""event"",""trial"",""time""
""focus"",""0"",""0""
","""event"",""trial"",""time""
""fullscreenenter"",""0"",""6020""
","
","9774","<img style='border: 4px solid darkgrey;' src='img/tf1_33_M_ss2.jpeg'></img>","1","","exp","","0","<img src='img/tf1_33_T1_ss2_md.jpeg'></img>","0","true",""
"","html-keyboard-response","79","387239","0.0-10.0-0.33","527","""event"",""trial"",""time""
""focus"",""0"",""0""
""fullscreenenter"",""0"",""6020""
","
","""event"",""trial"",""time""
""focus"",""0"",""0""
","""event"",""trial"",""time""
""fullscreenenter"",""0"",""6020""
","
","null","<div style=""font-size:60px;"">+</div>","","null","fixation","2021-08-14 22:59:21.421","","","","",""
"","mars-trial","80","402694","0.0-10.0-1.33","527","""event"",""trial"",""time""
""focus"",""0"",""0""
""fullscreenenter"",""0"",""6020""
","
","""event"",""trial"",""time""
""focus"",""0"",""0""
","""event"",""trial"",""time""
""fullscreenenter"",""0"",""6020""
","
","14840","<img style='border: 4px solid darkgrey;' src='img/tf1_34_M_ss3.jpeg'></img>","0","","exp","","0","<img src='img/tf1_34_T1_ss3_md.jpeg'></img>","0","true",""
"","html-keyboard-response","81","403204","0.0-10.0-0.34","527","""event"",""trial"",""time""
""focus"",""0"",""0""
""fullscreenenter"",""0"",""6020""
","
","""event"",""trial"",""time""
""focus"",""0"",""0""
","""event"",""trial"",""time""
""fullscreenenter"",""0"",""6020""
","
","null","<div style=""font-size:60px;"">+</div>","","null","fixation","2021-08-14 22:59:37.386","","","","",""
"","mars-trial","82","416782","0.0-10.0-1.34","527","""event"",""trial"",""time""
""focus"",""0"",""0""
""fullscreenenter"",""0"",""6020""
","
","""event"",""trial"",""time""
""focus"",""0"",""0""
","""event"",""trial"",""time""
""fullscreenenter"",""0"",""6020""
","
","12950","<img style='border: 4px solid darkgrey;' src='img/tf1_35_M_ss1.jpeg'></img>","2","","exp","","3","<img src='img/tf1_35_T1_ss1_md.jpeg'></img>","0","false",""
"","html-keyboard-response","83","417288","0.0-10.0-0.35","527","""event"",""trial"",""time""
""focus"",""0"",""0""
""fullscreenenter"",""0"",""6020""
","
","""event"",""trial"",""time""
""focus"",""0"",""0""
","""event"",""trial"",""time""
""fullscreenenter"",""0"",""6020""
","
","null","<div style=""font-size:60px;"">+</div>","","null","fixation","2021-08-14 22:59:51.470","","","","",""
"","mars-trial","84","432468","0.0-10.0-1.35","527","""event"",""trial"",""time""
""focus"",""0"",""0""
""fullscreenenter"",""0"",""6020""
","
","""event"",""trial"",""time""
""focus"",""0"",""0""
","""event"",""trial"",""time""
""fullscreenenter"",""0"",""6020""
","
","14553","<img style='border: 4px solid darkgrey;' src='img/tf1_36_M_ss2.jpeg'></img>","1","","exp","","1","<img src='img/tf1_36_T1_ss2_md.jpeg'></img>","0","false",""
"","html-keyboard-response","85","432974","0.0-10.0-0.36","527","""event"",""trial"",""time""
""focus"",""0"",""0""
""fullscreenenter"",""0"",""6020""
","
","""event"",""trial"",""time""
""focus"",""0"",""0""
","""event"",""trial"",""time""
""fullscreenenter"",""0"",""6020""
","
","null","<div style=""font-size:60px;"">+</div>","","null","fixation","2021-08-14 23:00:07.156","","","","",""
"","mars-trial","86","436128","0.0-10.0-1.36","527","""event"",""trial"",""time""
""focus"",""0"",""0""
""fullscreenenter"",""0"",""6020""
","
","""event"",""trial"",""time""
""focus"",""0"",""0""
","""event"",""trial"",""time""
""fullscreenenter"",""0"",""6020""
","
","2536","<img style='border: 4px solid darkgrey;' src='img/tf1_37_M_ss3.jpeg'></img>","0","","exp","","1","<img src='img/tf1_37_T1_ss3_md.jpeg'></img>","0","false",""
"","html-keyboard-response","87","436634","0.0-10.0-0.37","527","""event"",""trial"",""time""
""focus"",""0"",""0""
""fullscreenenter"",""0"",""6020""
","
","""event"",""trial"",""time""
""focus"",""0"",""0""
","""event"",""trial"",""time""
""fullscreenenter"",""0"",""6020""
","
","null","<div style=""font-size:60px;"">+</div>","","null","fixation","2021-08-14 23:00:10.816","","","","",""
"","mars-trial","88","446472","0.0-10.0-1.37","527","""event"",""trial"",""time""
""focus"",""0"",""0""
""fullscreenenter"",""0"",""6020""
","
","""event"",""trial"",""time""
""focus"",""0"",""0""
","""event"",""trial"",""time""
""fullscreenenter"",""0"",""6020""
","
","9216","<img style='border: 4px solid darkgrey;' src='img/tf1_38_M_ss1.jpeg'></img>","3","","exp","","0","<img src='img/tf1_38_T1_ss1_md.jpeg'></img>","0","true",""
"","html-keyboard-response","89","446984","0.0-10.0-0.38","527","""event"",""trial"",""time""
""focus"",""0"",""0""
""fullscreenenter"",""0"",""6020""
","
","""event"",""trial"",""time""
""focus"",""0"",""0""
","""event"",""trial"",""time""
""fullscreenenter"",""0"",""6020""
","
","null","<div style=""font-size:60px;"">+</div>","","null","fixation","2021-08-14 23:00:21.167","","","","",""
"","mars-trial","90","449778","0.0-10.0-1.38","527","""event"",""trial"",""time""
""focus"",""0"",""0""
""fullscreenenter"",""0"",""6020""
","
","""event"",""trial"",""time""
""focus"",""0"",""0""
","""event"",""trial"",""time""
""fullscreenenter"",""0"",""6020""
","
","2181","<img style='border: 4px solid darkgrey;' src='img/tf1_39_M_ss2.jpeg'></img>","3","","exp","","1","<img src='img/tf1_39_T1_ss2_md.jpeg'></img>","0","false",""
"","html-keyboard-response","91","450293","0.0-10.0-0.39","527","""event"",""trial"",""time""
""focus"",""0"",""0""
""fullscreenenter"",""0"",""6020""
","
","""event"",""trial"",""time""
""focus"",""0"",""0""
","""event"",""trial"",""time""
""fullscreenenter"",""0"",""6020""
","
","null","<div style=""font-size:60px;"">+</div>","","null","fixation","2021-08-14 23:00:24.475","","","","",""
"","mars-trial","92","452683","0.0-10.0-1.39","527","""event"",""trial"",""time""
""focus"",""0"",""0""
""fullscreenenter"",""0"",""6020""
","
","""event"",""trial"",""time""
""focus"",""0"",""0""
","""event"",""trial"",""time""
""fullscreenenter"",""0"",""6020""
","
","1769","<img style='border: 4px solid darkgrey;' src='img/tf1_40_M_ss3.jpeg'></img>","0","","exp","","0","<img src='img/tf1_40_T1_ss3_md.jpeg'></img>","0","true",""
"","html-keyboard-response","93","453192","0.0-10.0-0.40","527","""event"",""trial"",""time""
""focus"",""0"",""0""
""fullscreenenter"",""0"",""6020""
","
","""event"",""trial"",""time""
""focus"",""0"",""0""
","""event"",""trial"",""time""
""fullscreenenter"",""0"",""6020""
","
","null","<div style=""font-size:60px;"">+</div>","","null","fixation","2021-08-14 23:00:27.374","","","","",""
"","mars-trial","94","456844","0.0-10.0-1.40","527","""event"",""trial"",""time""
""focus"",""0"",""0""
""fullscreenenter"",""0"",""6020""
","
","""event"",""trial"",""time""
""focus"",""0"",""0""
","""event"",""trial"",""time""
""fullscreenenter"",""0"",""6020""
","
","3035","<img style='border: 4px solid darkgrey;' src='img/tf1_41_M_ss1.jpeg'></img>","0","","exp","","0","<img src='img/tf1_41_T1_ss1_md.jpeg'></img>","0","true",""
"","html-keyboard-response","95","457352","0.0-10.0-0.41","527","""event"",""trial"",""time""
""focus"",""0"",""0""
""fullscreenenter"",""0"",""6020""
","
","""event"",""trial"",""time""
""focus"",""0"",""0""
","""event"",""trial"",""time""
""fullscreenenter"",""0"",""6020""
","
","null","<div style=""font-size:60px;"">+</div>","","null","fixation","2021-08-14 23:00:31.535","","","","",""
"","mars-trial","96","466263","0.0-10.0-1.41","527","""event"",""trial"",""time""
""focus"",""0"",""0""
""fullscreenenter"",""0"",""6020""
","
","""event"",""trial"",""time""
""focus"",""0"",""0""
","""event"",""trial"",""time""
""fullscreenenter"",""0"",""6020""
","
","8282","<img style='border: 4px solid darkgrey;' src='img/tf1_42_M_ss2.jpeg'></img>","1","","exp","","3","<img src='img/tf1_42_T1_ss2_md.jpeg'></img>","0","false",""
"","html-keyboard-response","97","466767","0.0-10.0-0.42","527","""event"",""trial"",""time""
""focus"",""0"",""0""
""fullscreenenter"",""0"",""6020""
","
","""event"",""trial"",""time""
""focus"",""0"",""0""
","""event"",""trial"",""time""
""fullscreenenter"",""0"",""6020""
","
","null","<div style=""font-size:60px;"">+</div>","","null","fixation","2021-08-14 23:00:40.949","","","","",""
"","mars-trial","98","468957","0.0-10.0-1.42","527","""event"",""trial"",""time""
""focus"",""0"",""0""
""fullscreenenter"",""0"",""6020""
","
","""event"",""trial"",""time""
""focus"",""0"",""0""
","""event"",""trial"",""time""
""fullscreenenter"",""0"",""6020""
","
","1565","<img style='border: 4px solid darkgrey;' src='img/tf1_43_M_ss3.jpeg'></img>","1","","exp","","1","<img src='img/tf1_43_T1_ss3_md.jpeg'></img>","0","false",""
"","html-keyboard-response","99","469471","0.0-10.0-0.43","527","""event"",""trial"",""time""
""focus"",""0"",""0""
""fullscreenenter"",""0"",""6020""
","
","""event"",""trial"",""time""
""focus"",""0"",""0""
","""event"",""trial"",""time""
""fullscreenenter"",""0"",""6020""
","
","null","<div style=""font-size:60px;"">+</div>","","null","fixation","2021-08-14 23:00:43.653","","","","",""
"","mars-trial","100","470477","0.0-10.0-1.43","527","""event"",""trial"",""time""
""focus"",""0"",""0""
""fullscreenenter"",""0"",""6020""
","
","""event"",""trial"",""time""
""focus"",""0"",""0""
","""event"",""trial"",""time""
""fullscreenenter"",""0"",""6020""
","
","382","<img style='border: 4px solid darkgrey;' src='img/tf1_44_M_ss1.jpeg'></img>","1","","exp","","2","<img src='img/tf1_44_T1_ss1_md.jpeg'></img>","0","false",""
"","html-keyboard-response","101","470980","0.0-10.0-0.44","527","""event"",""trial"",""time""
""focus"",""0"",""0""
""fullscreenenter"",""0"",""6020""
","
","""event"",""trial"",""time""
""focus"",""0"",""0""
","""event"",""trial"",""time""
""fullscreenenter"",""0"",""6020""
","
","null","<div style=""font-size:60px;"">+</div>","","null","fixation","2021-08-14 23:00:45.162","","","","",""
"","mars-trial","102","474510","0.0-10.0-1.44","527","""event"",""trial"",""time""
""focus"",""0"",""0""
""fullscreenenter"",""0"",""6020""
","
","""event"",""trial"",""time""
""focus"",""0"",""0""
","""event"",""trial"",""time""
""fullscreenenter"",""0"",""6020""
","
","2911","<img style='border: 4px solid darkgrey;' src='img/tf1_45_M_ss2.jpeg'></img>","2","","exp","","2","<img src='img/tf1_45_T1_ss2_md.jpeg'></img>","0","false",""
"","html-keyboard-response","103","475014","0.0-10.0-0.45","527","""event"",""trial"",""time""
""focus"",""0"",""0""
""fullscreenenter"",""0"",""6020""
","
","""event"",""trial"",""time""
""focus"",""0"",""0""
","""event"",""trial"",""time""
""fullscreenenter"",""0"",""6020""
","
","null","<div style=""font-size:60px;"">+</div>","","null","fixation","2021-08-14 23:00:49.196","","","","",""
"","mars-trial","104","477542","0.0-10.0-1.45","527","""event"",""trial"",""time""
""focus"",""0"",""0""
""fullscreenenter"",""0"",""6020""
","
","""event"",""trial"",""time""
""focus"",""0"",""0""
","""event"",""trial"",""time""
""fullscreenenter"",""0"",""6020""
","
","1903","<img style='border: 4px solid darkgrey;' src='img/tf1_46_M_ss3.jpeg'></img>","0","","exp","","3","<img src='img/tf1_46_T1_ss3_md.jpeg'></img>","0","false",""
"","html-keyboard-response","105","478058","0.0-10.0-0.46","527","""event"",""trial"",""time""
""focus"",""0"",""0""
""fullscreenenter"",""0"",""6020""
","
","""event"",""trial"",""time""
""focus"",""0"",""0""
","""event"",""trial"",""time""
""fullscreenenter"",""0"",""6020""
","
","null","<div style=""font-size:60px;"">+</div>","","null","fixation","2021-08-14 23:00:52.241","","","","",""
"","mars-trial","106","479844","0.0-10.0-1.46","527","""event"",""trial"",""time""
""focus"",""0"",""0""
""fullscreenenter"",""0"",""6020""
","
","""event"",""trial"",""time""
""focus"",""0"",""0""
","""event"",""trial"",""time""
""fullscreenenter"",""0"",""6020""
","
","1173","<img style='border: 4px solid darkgrey;' src='img/tf1_47_M_ss1.jpeg'></img>","1","","exp","","2","<img src='img/tf1_47_T1_ss1_md.jpeg'></img>","0","false",""
"","html-keyboard-response","107","480356","0.0-10.0-0.47","527","""event"",""trial"",""time""
""focus"",""0"",""0""
""fullscreenenter"",""0"",""6020""
","
","""event"",""trial"",""time""
""focus"",""0"",""0""
","""event"",""trial"",""time""
""fullscreenenter"",""0"",""6020""
","
","null","<div style=""font-size:60px;"">+</div>","","null","fixation","2021-08-14 23:00:54.539","","","","",""
"","mars-trial","108","489513","0.0-10.0-1.47","527","""event"",""trial"",""time""
""focus"",""0"",""0""
""fullscreenenter"",""0"",""6020""
","
","""event"",""trial"",""time""
""focus"",""0"",""0""
","""event"",""trial"",""time""
""fullscreenenter"",""0"",""6020""
","
","8535","<img style='border: 4px solid darkgrey;' src='img/tf1_48_M_ss2.jpeg'></img>","3","","exp","","2","<img src='img/tf1_48_T1_ss2_md.jpeg'></img>","0","false",""
"","html-keyboard-response","109","490024","0.0-10.0-0.48","527","""event"",""trial"",""time""
""focus"",""0"",""0""
""fullscreenenter"",""0"",""6020""
","
","""event"",""trial"",""time""
""focus"",""0"",""0""
","""event"",""trial"",""time""
""fullscreenenter"",""0"",""6020""
","
","null","<div style=""font-size:60px;"">+</div>","","null","fixation","2021-08-14 23:01:04.207","","","","",""
"","mars-trial","110","506222","0.0-10.0-1.48","527","""event"",""trial"",""time""
""focus"",""0"",""0""
""fullscreenenter"",""0"",""6020""
","
","""event"",""trial"",""time""
""focus"",""0"",""0""
","""event"",""trial"",""time""
""fullscreenenter"",""0"",""6020""
","
","15587","<img style='border: 4px solid darkgrey;' src='img/tf1_49_M_ss3.jpeg'></img>","2","","exp","","0","<img src='img/tf1_49_T1_ss3_md.jpeg'></img>","0","true",""
"","html-keyboard-response","111","506733","0.0-10.0-0.49","527","""event"",""trial"",""time""
""focus"",""0"",""0""
""fullscreenenter"",""0"",""6020""
","
","""event"",""trial"",""time""
""focus"",""0"",""0""
","""event"",""trial"",""time""
""fullscreenenter"",""0"",""6020""
","
","null","<div style=""font-size:60px;"">+</div>","","null","fixation","2021-08-14 23:01:20.915","","","","",""
"","mars-trial","112","519284","0.0-10.0-1.49","527","""event"",""trial"",""time""
""focus"",""0"",""0""
""fullscreenenter"",""0"",""6020""
","
","""event"",""trial"",""time""
""focus"",""0"",""0""
","""event"",""trial"",""time""
""fullscreenenter"",""0"",""6020""
","
","11932","<img style='border: 4px solid darkgrey;' src='img/tf1_50_M_ss1.jpeg'></img>","0","","exp","","2","<img src='img/tf1_50_T1_ss1_md.jpeg'></img>","0","false",""
"","html-keyboard-response","113","519798","0.0-10.0-0.50","527","""event"",""trial"",""time""
""focus"",""0"",""0""
""fullscreenenter"",""0"",""6020""
","
","""event"",""trial"",""time""
""focus"",""0"",""0""
","""event"",""trial"",""time""
""fullscreenenter"",""0"",""6020""
","
","null","<div style=""font-size:60px;"">+</div>","","null","fixation","2021-08-14 23:01:33.980","","","","",""
"","mars-trial","114","521518","0.0-10.0-1.50","527","""event"",""trial"",""time""
""focus"",""0"",""0""
""fullscreenenter"",""0"",""6020""
","
","""event"",""trial"",""time""
""focus"",""0"",""0""
","""event"",""trial"",""time""
""fullscreenenter"",""0"",""6020""
","
","1102","<img style='border: 4px solid darkgrey;' src='img/tf1_51_M_ss2.jpeg'></img>","2","","exp","","0","<img src='img/tf1_51_T1_ss2_md.jpeg'></img>","0","true",""
"","html-keyboard-response","115","522023","0.0-10.0-0.51","527","""event"",""trial"",""time""
""focus"",""0"",""0""
""fullscreenenter"",""0"",""6020""
","
","""event"",""trial"",""time""
""focus"",""0"",""0""
","""event"",""trial"",""time""
""fullscreenenter"",""0"",""6020""
","
","null","<div style=""font-size:60px;"">+</div>","","null","fixation","2021-08-14 23:01:36.205","","","","",""
"","mars-trial","116","522979","0.0-10.0-1.51","527","""event"",""trial"",""time""
""focus"",""0"",""0""
""fullscreenenter"",""0"",""6020""
","
","""event"",""trial"",""time""
""focus"",""0"",""0""
","""event"",""trial"",""time""
""fullscreenenter"",""0"",""6020""
","
","326","<img style='border: 4px solid darkgrey;' src='img/tf1_52_M_ss3.jpeg'></img>","2","","exp","","1","<img src='img/tf1_52_T1_ss3_md.jpeg'></img>","0","false",""
"","html-keyboard-response","117","523493","0.0-10.0-0.52","527","""event"",""trial"",""time""
""focus"",""0"",""0""
""fullscreenenter"",""0"",""6020""
","
","""event"",""trial"",""time""
""focus"",""0"",""0""
","""event"",""trial"",""time""
""fullscreenenter"",""0"",""6020""
","
","null","<div style=""font-size:60px;"">+</div>","","null","fixation","2021-08-14 23:01:37.675","","","","",""
"","mars-trial","118","524468","0.0-10.0-1.52","527","""event"",""trial"",""time""
""focus"",""0"",""0""
""fullscreenenter"",""0"",""6020""
","
","""event"",""trial"",""time""
""focus"",""0"",""0""
","""event"",""trial"",""time""
""fullscreenenter"",""0"",""6020""
","
","348","<img style='border: 4px solid darkgrey;' src='img/tf1_53_M_ss1.jpeg'></img>","1","","exp","","1","<img src='img/tf1_53_T1_ss1_md.jpeg'></img>","0","false",""
"","html-keyboard-response","119","524551","0.0-10.0-0.53","527","""event"",""trial"",""time""
""focus"",""0"",""0""
""fullscreenenter"",""0"",""6020""
","
","""event"",""trial"",""time""
""focus"",""0"",""0""
","""event"",""trial"",""time""
""fullscreenenter"",""0"",""6020""
","
","","","","","fixation","2021-08-14 23:01:38.733","","","","",""
"","audio-button-response","120","524979","0.0-11.0","527","""event"",""trial"",""time""
""focus"",""0"",""0""
""fullscreenenter"",""0"",""6020""
","
","""event"",""trial"",""time""
""focus"",""0"",""0""
","""event"",""trial"",""time""
""fullscreenenter"",""0"",""6020""
","
","null","<div style=""font-size:60px;"">+</div>","","null","","","","","","",""
