"success","trial_type","trial_index","time_elapsed","internal_node_id","subject_id","interactions","blur_events","focus_events","fullscreenenter_events","fullscreenexit_events","rt","stimulus","button_pressed","key_press","part","timestamp","unshuffled_button","correct_response","correct_button","correct","value"
"true","fullscreen","0","3997","0.0-0.0","814","""event"",""trial"",""time""
""fullscreenenter"",""0"",""3018""
","
","
","""event"",""trial"",""time""
""fullscreenenter"",""0"",""3018""
","
","","","","","","","","","","",""
"","pavlovia","1","4001","0.0-1.0","814","""event"",""trial"",""time""
""fullscreenenter"",""0"",""3018""
","
","
","""event"",""trial"",""time""
""fullscreenenter"",""0"",""3018""
","
","","","","","","","","","","",""
"","html-button-response","2","6509","0.0-2.0","814","""event"",""trial"",""time""
""fullscreenenter"",""0"",""3018""
","
","
","""event"",""trial"",""time""
""fullscreenenter"",""0"",""3018""
","
","2506.7000000476837","<p>Welcome! Press START to begin.</p><br>","0","","","","","","","",""
"","audio-button-response","3","10506","0.0-3.0","814","""event"",""trial"",""time""
""fullscreenenter"",""0"",""3018""
","
","
","""event"",""trial"",""time""
""fullscreenenter"",""0"",""3018""
","
","3995.400000035763","audio/mars_instructions_slide2.wav","0","","","","","","","",""
"","audio-button-response","4","12313","0.0-4.0","814","""event"",""trial"",""time""
""fullscreenenter"",""0"",""3018""
","
","
","""event"",""trial"",""time""
""fullscreenenter"",""0"",""3018""
","
","1806.5","audio/mars_instructions_slide3.wav","0","","","","","","","",""
"","html-keyboard-response","5","12817","0.0-5.0-0.0","814","""event"",""trial"",""time""
""fullscreenenter"",""0"",""3018""
","
","
","""event"",""trial"",""time""
""fullscreenenter"",""0"",""3018""
","
","null","<div style=""font-size:60px;"">+</div>","","null","fixation","2021-07-07 00:35:30.441","","","","",""
"","mars-trial","6","19061","0.0-5.0-1.0","814","""event"",""trial"",""time""
""fullscreenenter"",""0"",""3018""
","
","
","""event"",""trial"",""time""
""fullscreenenter"",""0"",""3018""
","
","4137.100000023842","<img style='border: 4px solid darkgrey;' src='practice/pt1_M1.png'></img>","2","","practice","","1","<img src='practice/pt1_T1.png'></img>","0","false",""
"","html-keyboard-response","7","19565","0.0-5.1-0.1","814","""event"",""trial"",""time""
""fullscreenenter"",""0"",""3018""
","
","
","""event"",""trial"",""time""
""fullscreenenter"",""0"",""3018""
","
","null","<div style=""font-size:60px;"">+</div>","","null","fixation","2021-07-07 00:35:37.189","","","","",""
"","mars-trial","8","22783","0.0-5.1-1.1","814","""event"",""trial"",""time""
""fullscreenenter"",""0"",""3018""
","
","
","""event"",""trial"",""time""
""fullscreenenter"",""0"",""3018""
","
","1112.6000000238419","<img style='border: 4px solid darkgrey;' src='practice/pt1_M1.png'></img>","3","","practice","","3","<img src='practice/pt1_T1.png'></img>","0","false",""
"","html-keyboard-response","9","23286","0.0-5.2-0.2","814","""event"",""trial"",""time""
""fullscreenenter"",""0"",""3018""
","
","
","""event"",""trial"",""time""
""fullscreenenter"",""0"",""3018""
","
","null","<div style=""font-size:60px;"">+</div>","","null","fixation","2021-07-07 00:35:40.910","","","","",""
"","mars-trial","10","26109","0.0-5.2-1.2","814","""event"",""trial"",""time""
""fullscreenenter"",""0"",""3018""
","
","
","""event"",""trial"",""time""
""fullscreenenter"",""0"",""3018""
","
","718","<img style='border: 4px solid darkgrey;' src='practice/pt1_M1.png'></img>","1","","practice","","3","<img src='practice/pt1_T1.png'></img>","0","false",""
"","html-keyboard-response","11","26610","0.0-5.3-0.3","814","""event"",""trial"",""time""
""fullscreenenter"",""0"",""3018""
","
","
","""event"",""trial"",""time""
""fullscreenenter"",""0"",""3018""
","
","null","<div style=""font-size:60px;"">+</div>","","null","fixation","2021-07-07 00:35:44.234","","","","",""
"","mars-trial","12","29505","0.0-5.3-1.3","814","""event"",""trial"",""time""
""fullscreenenter"",""0"",""3018""
","
","
","""event"",""trial"",""time""
""fullscreenenter"",""0"",""3018""
","
","785.1999999880791","<img style='border: 4px solid darkgrey;' src='practice/pt1_M1.png'></img>","0","","practice","","0","<img src='practice/pt1_T1.png'></img>","0","true",""
"","html-keyboard-response","13","30006","0.0-6.0-0.0","814","""event"",""trial"",""time""
""fullscreenenter"",""0"",""3018""
","
","
","""event"",""trial"",""time""
""fullscreenenter"",""0"",""3018""
","
","null","<div style=""font-size:60px;"">+</div>","","null","fixation","2021-07-07 00:35:47.630","","","","",""
"","mars-trial","14","33829","0.0-6.0-1.0","814","""event"",""trial"",""time""
""fullscreenenter"",""0"",""3018""
","
","
","""event"",""trial"",""time""
""fullscreenenter"",""0"",""3018""
","
","1714.699999988079","<img style='border: 4px solid darkgrey;' src='practice/pt2_M1.png'></img>","1","","practice","","0","<img src='practice/pt2_T1.png'></img>","0","true",""
"","html-keyboard-response","15","34334","0.0-7.0-0.0","814","""event"",""trial"",""time""
""fullscreenenter"",""0"",""3018""
","
","
","""event"",""trial"",""time""
""fullscreenenter"",""0"",""3018""
","
","null","<div style=""font-size:60px;"">+</div>","","null","fixation","2021-07-07 00:35:51.958","","","","",""
"","mars-trial","16","37677","0.0-7.0-1.0","814","""event"",""trial"",""time""
""fullscreenenter"",""0"",""3018""
","
","
","""event"",""trial"",""time""
""fullscreenenter"",""0"",""3018""
","
","1234.300000011921","<img style='border: 4px solid darkgrey;' src='practice/pt3_M1.png'></img>","1","","practice","","0","<img src='practice/pt3_T1.png'></img>","0","true",""
"","audio-button-response","17","39757","0.0-8.0","814","""event"",""trial"",""time""
""fullscreenenter"",""0"",""3018""
","
","
","""event"",""trial"",""time""
""fullscreenenter"",""0"",""3018""
","
","2078","audio/mars_instructions_slide4.wav","0","","","","","","","",""
"","call-function","18","39758","0.0-9.0","814","""event"",""trial"",""time""
""fullscreenenter"",""0"",""3018""
","
","
","""event"",""trial"",""time""
""fullscreenenter"",""0"",""3018""
","
","","","","","","","","","","",""
"","html-keyboard-response","19","40259","0.0-10.0-0.0","814","""event"",""trial"",""time""
""fullscreenenter"",""0"",""3018""
","
","
","""event"",""trial"",""time""
""fullscreenenter"",""0"",""3018""
","
","null","<div style=""font-size:60px;"">+</div>","","null","fixation","2021-07-07 00:35:57.883","","","","",""
"","mars-trial","20","42090","0.0-10.0-1.0","814","""event"",""trial"",""time""
""fullscreenenter"",""0"",""3018""
","
","
","""event"",""trial"",""time""
""fullscreenenter"",""0"",""3018""
","
","1221.699999988079","<img style='border: 4px solid darkgrey;' src='img/tf1_1_M_ss3.jpeg'></img>","1","","exp","","0","<img src='img/tf1_1_T1_ss3_md.jpeg'></img>","0","true",""
"","html-keyboard-response","21","42594","0.0-10.0-0.1","814","""event"",""trial"",""time""
""fullscreenenter"",""0"",""3018""
","
","
","""event"",""trial"",""time""
""fullscreenenter"",""0"",""3018""
","
","null","<div style=""font-size:60px;"">+</div>","","null","fixation","2021-07-07 00:36:00.218","","","","",""
"","mars-trial","22","45149","0.0-10.0-1.1","814","""event"",""trial"",""time""
""fullscreenenter"",""0"",""3018""
","
","
","""event"",""trial"",""time""
""fullscreenenter"",""0"",""3018""
","
","1944.8999999761581","<img style='border: 4px solid darkgrey;' src='img/tf1_2_M_ss1.jpeg'></img>","3","","exp","","0","<img src='img/tf1_2_T1_ss1_md.jpeg'></img>","0","true",""
"","html-keyboard-response","23","45654","0.0-10.0-0.2","814","""event"",""trial"",""time""
""fullscreenenter"",""0"",""3018""
","
","
","""event"",""trial"",""time""
""fullscreenenter"",""0"",""3018""
","
","null","<div style=""font-size:60px;"">+</div>","","null","fixation","2021-07-07 00:36:03.278","","","","",""
"","mars-trial","24","49439","0.0-10.0-1.2","814","""event"",""trial"",""time""
""fullscreenenter"",""0"",""3018""
","
","
","""event"",""trial"",""time""
""fullscreenenter"",""0"",""3018""
","
","3177","<img style='border: 4px solid darkgrey;' src='img/tf1_3_M_ss2.jpeg'></img>","2","","exp","","0","<img src='img/tf1_3_T1_ss2_md.jpeg'></img>","0","true",""
"","html-keyboard-response","25","49944","0.0-10.0-0.3","814","""event"",""trial"",""time""
""fullscreenenter"",""0"",""3018""
","
","
","""event"",""trial"",""time""
""fullscreenenter"",""0"",""3018""
","
","null","<div style=""font-size:60px;"">+</div>","","null","fixation","2021-07-07 00:36:07.568","","","","",""
"","mars-trial","26","53383","0.0-10.0-1.3","814","""event"",""trial"",""time""
""fullscreenenter"",""0"",""3018""
","
","
","""event"",""trial"",""time""
""fullscreenenter"",""0"",""3018""
","
","2828.800000011921","<img style='border: 4px solid darkgrey;' src='img/tf1_4_M_ss3.jpeg'></img>","1","","exp","","0","<img src='img/tf1_4_T1_ss3_md.jpeg'></img>","0","true",""
"","html-keyboard-response","27","53888","0.0-10.0-0.4","814","""event"",""trial"",""time""
""fullscreenenter"",""0"",""3018""
","
","
","""event"",""trial"",""time""
""fullscreenenter"",""0"",""3018""
","
","null","<div style=""font-size:60px;"">+</div>","","null","fixation","2021-07-07 00:36:11.512","","","","",""
"","mars-trial","28","56625","0.0-10.0-1.4","814","""event"",""trial"",""time""
""fullscreenenter"",""0"",""3018""
","
","
","""event"",""trial"",""time""
""fullscreenenter"",""0"",""3018""
","
","2131.599999964237","<img style='border: 4px solid darkgrey;' src='img/tf1_5_M_ss1.jpeg'></img>","0","","exp","","0","<img src='img/tf1_5_T1_ss1_md.jpeg'></img>","0","true",""
"","html-keyboard-response","29","57131","0.0-10.0-0.5","814","""event"",""trial"",""time""
""fullscreenenter"",""0"",""3018""
","
","
","""event"",""trial"",""time""
""fullscreenenter"",""0"",""3018""
","
","null","<div style=""font-size:60px;"">+</div>","","null","fixation","2021-07-07 00:36:14.755","","","","",""
"","mars-trial","30","63745","0.0-10.0-1.5","814","""event"",""trial"",""time""
""fullscreenenter"",""0"",""3018""
","
","
","""event"",""trial"",""time""
""fullscreenenter"",""0"",""3018""
","
","6009.300000011921","<img style='border: 4px solid darkgrey;' src='img/tf1_6_M_ss2.jpeg'></img>","1","","exp","","0","<img src='img/tf1_6_T1_ss2_md.jpeg'></img>","0","true",""
"","html-keyboard-response","31","64248","0.0-10.0-0.6","814","""event"",""trial"",""time""
""fullscreenenter"",""0"",""3018""
","
","
","""event"",""trial"",""time""
""fullscreenenter"",""0"",""3018""
","
","null","<div style=""font-size:60px;"">+</div>","","null","fixation","2021-07-07 00:36:21.872","","","","",""
"","mars-trial","32","67487","0.0-10.0-1.6","814","""event"",""trial"",""time""
""fullscreenenter"",""0"",""3018""
","
","
","""event"",""trial"",""time""
""fullscreenenter"",""0"",""3018""
","
","2630.100000023842","<img style='border: 4px solid darkgrey;' src='img/tf1_7_M_ss3.jpeg'></img>","1","","exp","","0","<img src='img/tf1_7_T1_ss3_md.jpeg'></img>","0","true",""
"","html-keyboard-response","33","67988","0.0-10.0-0.7","814","""event"",""trial"",""time""
""fullscreenenter"",""0"",""3018""
","
","
","""event"",""trial"",""time""
""fullscreenenter"",""0"",""3018""
","
","null","<div style=""font-size:60px;"">+</div>","","null","fixation","2021-07-07 00:36:25.612","","","","",""
"","mars-trial","34","74189","0.0-10.0-1.7","814","""event"",""trial"",""time""
""fullscreenenter"",""0"",""3018""
","
","
","""event"",""trial"",""time""
""fullscreenenter"",""0"",""3018""
","
","5593.800000011921","<img style='border: 4px solid darkgrey;' src='img/tf1_8_M_ss1.jpeg'></img>","1","","exp","","3","<img src='img/tf1_8_T1_ss1_md.jpeg'></img>","0","false",""
"","html-keyboard-response","35","74694","0.0-10.0-0.8","814","""event"",""trial"",""time""
""fullscreenenter"",""0"",""3018""
","
","
","""event"",""trial"",""time""
""fullscreenenter"",""0"",""3018""
","
","null","<div style=""font-size:60px;"">+</div>","","null","fixation","2021-07-07 00:36:32.318","","","","",""
"","mars-trial","36","79524","0.0-10.0-1.8","814","""event"",""trial"",""time""
""fullscreenenter"",""0"",""3018""
","
","
","""event"",""trial"",""time""
""fullscreenenter"",""0"",""3018""
","
","4218.800000011921","<img style='border: 4px solid darkgrey;' src='img/tf1_9_M_ss2.jpeg'></img>","1","","exp","","2","<img src='img/tf1_9_T1_ss2_md.jpeg'></img>","0","false",""
"","html-keyboard-response","37","80026","0.0-10.0-0.9","814","""event"",""trial"",""time""
""fullscreenenter"",""0"",""3018""
","
","
","""event"",""trial"",""time""
""fullscreenenter"",""0"",""3018""
","
","null","<div style=""font-size:60px;"">+</div>","","null","fixation","2021-07-07 00:36:37.650","","","","",""
"","mars-trial","38","81289","0.0-10.0-1.9","814","""event"",""trial"",""time""
""fullscreenenter"",""0"",""3018""
","
","
","""event"",""trial"",""time""
""fullscreenenter"",""0"",""3018""
","
","653.6999999880791","<img style='border: 4px solid darkgrey;' src='img/tf1_10_M_ss3.jpeg'></img>","2","","exp","","0","<img src='img/tf1_10_T1_ss3_md.jpeg'></img>","0","true",""
"","html-keyboard-response","39","81794","0.0-10.0-0.10","814","""event"",""trial"",""time""
""fullscreenenter"",""0"",""3018""
","
","
","""event"",""trial"",""time""
""fullscreenenter"",""0"",""3018""
","
","null","<div style=""font-size:60px;"">+</div>","","null","fixation","2021-07-07 00:36:39.418","","","","",""
"","mars-trial","40","82468","0.0-10.0-1.10","814","""event"",""trial"",""time""
""fullscreenenter"",""0"",""3018""
","
","
","""event"",""trial"",""time""
""fullscreenenter"",""0"",""3018""
","
","65.59999996423721","<img style='border: 4px solid darkgrey;' src='img/tf1_11_M_ss1.jpeg'></img>","2","","exp","","3","<img src='img/tf1_11_T1_ss1_md.jpeg'></img>","0","false",""
"","html-keyboard-response","41","82969","0.0-10.0-0.11","814","""event"",""trial"",""time""
""fullscreenenter"",""0"",""3018""
","
","
","""event"",""trial"",""time""
""fullscreenenter"",""0"",""3018""
","
","null","<div style=""font-size:60px;"">+</div>","","null","fixation","2021-07-07 00:36:40.593","","","","",""
"","mars-trial","42","83716","0.0-10.0-1.11","814","""event"",""trial"",""time""
""fullscreenenter"",""0"",""3018""
","
","
","""event"",""trial"",""time""
""fullscreenenter"",""0"",""3018""
","
","139.60000002384186","<img style='border: 4px solid darkgrey;' src='img/tf1_12_M_ss2.jpeg'></img>","2","","exp","","2","<img src='img/tf1_12_T1_ss2_md.jpeg'></img>","0","false",""
"","html-keyboard-response","43","84220","0.0-10.0-0.12","814","""event"",""trial"",""time""
""fullscreenenter"",""0"",""3018""
","
","
","""event"",""trial"",""time""
""fullscreenenter"",""0"",""3018""
","
","null","<div style=""font-size:60px;"">+</div>","","null","fixation","2021-07-07 00:36:41.844","","","","",""
"","mars-trial","44","85099","0.0-10.0-1.12","814","""event"",""trial"",""time""
""fullscreenenter"",""0"",""3018""
","
","
","""event"",""trial"",""time""
""fullscreenenter"",""0"",""3018""
","
","266.5","<img style='border: 4px solid darkgrey;' src='img/tf1_13_M_ss3.jpeg'></img>","2","","exp","","2","<img src='img/tf1_13_T1_ss3_md.jpeg'></img>","0","false",""
"","html-keyboard-response","45","85602","0.0-10.0-0.13","814","""event"",""trial"",""time""
""fullscreenenter"",""0"",""3018""
","
","
","""event"",""trial"",""time""
""fullscreenenter"",""0"",""3018""
","
","null","<div style=""font-size:60px;"">+</div>","","null","fixation","2021-07-07 00:36:43.226","","","","",""
"","mars-trial","46","86229","0.0-10.0-1.13","814","""event"",""trial"",""time""
""fullscreenenter"",""0"",""3018""
","
","
","""event"",""trial"",""time""
""fullscreenenter"",""0"",""3018""
","
","17","<img style='border: 4px solid darkgrey;' src='img/tf1_14_M_ss1.jpeg'></img>","2","","exp","","0","<img src='img/tf1_14_T1_ss1_md.jpeg'></img>","0","true",""
"","html-keyboard-response","47","86734","0.0-10.0-0.14","814","""event"",""trial"",""time""
""fullscreenenter"",""0"",""3018""
","
","
","""event"",""trial"",""time""
""fullscreenenter"",""0"",""3018""
","
","null","<div style=""font-size:60px;"">+</div>","","null","fixation","2021-07-07 00:36:44.358","","","","",""
"","mars-trial","48","87375","0.0-10.0-1.14","814","""event"",""trial"",""time""
""fullscreenenter"",""0"",""3018""
","
","
","""event"",""trial"",""time""
""fullscreenenter"",""0"",""3018""
","
","36.700000047683716","<img style='border: 4px solid darkgrey;' src='img/tf1_15_M_ss2.jpeg'></img>","2","","exp","","2","<img src='img/tf1_15_T1_ss2_md.jpeg'></img>","0","false",""
"","html-keyboard-response","49","87877","0.0-10.0-0.15","814","""event"",""trial"",""time""
""fullscreenenter"",""0"",""3018""
","
","
","""event"",""trial"",""time""
""fullscreenenter"",""0"",""3018""
","
","null","<div style=""font-size:60px;"">+</div>","","null","fixation","2021-07-07 00:36:45.501","","","","",""
"","mars-trial","50","88753","0.0-10.0-1.15","814","""event"",""trial"",""time""
""fullscreenenter"",""0"",""3018""
","
","
","""event"",""trial"",""time""
""fullscreenenter"",""0"",""3018""
","
","266.9000000357628","<img style='border: 4px solid darkgrey;' src='img/tf1_16_M_ss3.jpeg'></img>","2","","exp","","0","<img src='img/tf1_16_T1_ss3_md.jpeg'></img>","0","true",""
"","html-keyboard-response","51","89259","0.0-10.0-0.16","814","""event"",""trial"",""time""
""fullscreenenter"",""0"",""3018""
","
","
","""event"",""trial"",""time""
""fullscreenenter"",""0"",""3018""
","
","null","<div style=""font-size:60px;"">+</div>","","null","fixation","2021-07-07 00:36:46.883","","","","",""
"","mars-trial","52","90075","0.0-10.0-1.16","814","""event"",""trial"",""time""
""fullscreenenter"",""0"",""3018""
","
","
","""event"",""trial"",""time""
""fullscreenenter"",""0"",""3018""
","
","206.10000002384186","<img style='border: 4px solid darkgrey;' src='img/tf1_17_M_ss1.jpeg'></img>","2","","exp","","2","<img src='img/tf1_17_T1_ss1_md.jpeg'></img>","0","false",""
"","html-keyboard-response","53","90579","0.0-10.0-0.17","814","""event"",""trial"",""time""
""fullscreenenter"",""0"",""3018""
","
","
","""event"",""trial"",""time""
""fullscreenenter"",""0"",""3018""
","
","null","<div style=""font-size:60px;"">+</div>","","null","fixation","2021-07-07 00:36:48.204","","","","",""
"","mars-trial","54","91238","0.0-10.0-1.17","814","""event"",""trial"",""time""
""fullscreenenter"",""0"",""3018""
","
","
","""event"",""trial"",""time""
""fullscreenenter"",""0"",""3018""
","
","48.19999998807907","<img style='border: 4px solid darkgrey;' src='img/tf1_18_M_ss2.jpeg'></img>","2","","exp","","1","<img src='img/tf1_18_T1_ss2_md.jpeg'></img>","0","false",""
"","html-keyboard-response","55","91740","0.0-10.0-0.18","814","""event"",""trial"",""time""
""fullscreenenter"",""0"",""3018""
","
","
","""event"",""trial"",""time""
""fullscreenenter"",""0"",""3018""
","
","null","<div style=""font-size:60px;"">+</div>","","null","fixation","2021-07-07 00:36:49.364","","","","",""
"","mars-trial","56","94410","0.0-10.0-1.18","814","""event"",""trial"",""time""
""fullscreenenter"",""0"",""3018""
","
","
","""event"",""trial"",""time""
""fullscreenenter"",""0"",""3018""
","
","2062.599999964237","<img style='border: 4px solid darkgrey;' src='img/tf1_19_M_ss3.jpeg'></img>","3","","exp","","3","<img src='img/tf1_19_T1_ss3_md.jpeg'></img>","0","false",""
"","html-keyboard-response","57","94916","0.0-10.0-0.19","814","""event"",""trial"",""time""
""fullscreenenter"",""0"",""3018""
","
","
","""event"",""trial"",""time""
""fullscreenenter"",""0"",""3018""
","
","null","<div style=""font-size:60px;"">+</div>","","null","fixation","2021-07-07 00:36:52.540","","","","",""
"","mars-trial","58","99545","0.0-10.0-1.19","814","""event"",""trial"",""time""
""fullscreenenter"",""0"",""3018""
","
","
","""event"",""trial"",""time""
""fullscreenenter"",""0"",""3018""
","
","4018.599999964237","<img style='border: 4px solid darkgrey;' src='img/tf1_20_M_ss1.jpeg'></img>","1","","exp","","3","<img src='img/tf1_20_T1_ss1_md.jpeg'></img>","0","false",""
"","html-keyboard-response","59","100050","0.0-10.0-0.20","814","""event"",""trial"",""time""
""fullscreenenter"",""0"",""3018""
","
","
","""event"",""trial"",""time""
""fullscreenenter"",""0"",""3018""
","
","null","<div style=""font-size:60px;"">+</div>","","null","fixation","2021-07-07 00:36:57.674","","","","",""
"","mars-trial","60","104237","0.0-10.0-1.20","814","""event"",""trial"",""time""
""fullscreenenter"",""0"",""3018""
","
","
","""event"",""trial"",""time""
""fullscreenenter"",""0"",""3018""
","
","3578.900000035763","<img style='border: 4px solid darkgrey;' src='img/tf1_21_M_ss2.jpeg'></img>","1","","exp","","1","<img src='img/tf1_21_T1_ss2_md.jpeg'></img>","0","false",""
"","html-keyboard-response","61","104739","0.0-10.0-0.21","814","""event"",""trial"",""time""
""fullscreenenter"",""0"",""3018""
","
","
","""event"",""trial"",""time""
""fullscreenenter"",""0"",""3018""
","
","null","<div style=""font-size:60px;"">+</div>","","null","fixation","2021-07-07 00:37:02.363","","","","",""
"","mars-trial","62","107388","0.0-10.0-1.21","814","""event"",""trial"",""time""
""fullscreenenter"",""0"",""3018""
","
","
","""event"",""trial"",""time""
""fullscreenenter"",""0"",""3018""
","
","2038.300000011921","<img style='border: 4px solid darkgrey;' src='img/tf1_22_M_ss3.jpeg'></img>","2","","exp","","1","<img src='img/tf1_22_T1_ss3_md.jpeg'></img>","0","false",""
"","html-keyboard-response","63","107893","0.0-10.0-0.22","814","""event"",""trial"",""time""
""fullscreenenter"",""0"",""3018""
","
","
","""event"",""trial"",""time""
""fullscreenenter"",""0"",""3018""
","
","null","<div style=""font-size:60px;"">+</div>","","null","fixation","2021-07-07 00:37:05.517","","","","",""
"","mars-trial","64","110177","0.0-10.0-1.22","814","""event"",""trial"",""time""
""fullscreenenter"",""0"",""3018""
","
","
","""event"",""trial"",""time""
""fullscreenenter"",""0"",""3018""
","
","1677.1000000238419","<img style='border: 4px solid darkgrey;' src='img/tf1_23_M_ss1.jpeg'></img>","3","","exp","","2","<img src='img/tf1_23_T1_ss1_md.jpeg'></img>","0","false",""
"","html-keyboard-response","65","110682","0.0-10.0-0.23","814","""event"",""trial"",""time""
""fullscreenenter"",""0"",""3018""
","
","
","""event"",""trial"",""time""
""fullscreenenter"",""0"",""3018""
","
","null","<div style=""font-size:60px;"">+</div>","","null","fixation","2021-07-07 00:37:08.306","","","","",""
"","mars-trial","66","113303","0.0-10.0-1.23","814","""event"",""trial"",""time""
""fullscreenenter"",""0"",""3018""
","
","
","""event"",""trial"",""time""
""fullscreenenter"",""0"",""3018""
","
","2013.699999988079","<img style='border: 4px solid darkgrey;' src='img/tf1_24_M_ss2.jpeg'></img>","3","","exp","","3","<img src='img/tf1_24_T1_ss2_md.jpeg'></img>","0","false",""
"","html-keyboard-response","67","113805","0.0-10.0-0.24","814","""event"",""trial"",""time""
""fullscreenenter"",""0"",""3018""
","
","
","""event"",""trial"",""time""
""fullscreenenter"",""0"",""3018""
","
","null","<div style=""font-size:60px;"">+</div>","","null","fixation","2021-07-07 00:37:11.429","","","","",""
"","mars-trial","68","114842","0.0-10.0-1.24","814","""event"",""trial"",""time""
""fullscreenenter"",""0"",""3018""
","
","
","""event"",""trial"",""time""
""fullscreenenter"",""0"",""3018""
","
","429","<img style='border: 4px solid darkgrey;' src='img/tf1_25_M_ss3.jpeg'></img>","3","","exp","","0","<img src='img/tf1_25_T1_ss3_md.jpeg'></img>","0","true",""
"","html-keyboard-response","69","115346","0.0-10.0-0.25","814","""event"",""trial"",""time""
""fullscreenenter"",""0"",""3018""
","
","
","""event"",""trial"",""time""
""fullscreenenter"",""0"",""3018""
","
","null","<div style=""font-size:60px;"">+</div>","","null","fixation","2021-07-07 00:37:12.970","","","","",""
"","mars-trial","70","117457","0.0-10.0-1.25","814","""event"",""trial"",""time""
""fullscreenenter"",""0"",""3018""
","
","
","""event"",""trial"",""time""
""fullscreenenter"",""0"",""3018""
","
","1502.300000011921","<img style='border: 4px solid darkgrey;' src='img/tf1_26_M_ss1.jpeg'></img>","3","","exp","","0","<img src='img/tf1_26_T1_ss1_md.jpeg'></img>","0","true",""
"","html-keyboard-response","71","117959","0.0-10.0-0.26","814","""event"",""trial"",""time""
""fullscreenenter"",""0"",""3018""
","
","
","""event"",""trial"",""time""
""fullscreenenter"",""0"",""3018""
","
","null","<div style=""font-size:60px;"">+</div>","","null","fixation","2021-07-07 00:37:15.583","","","","",""
"","mars-trial","72","119182","0.0-10.0-1.26","814","""event"",""trial"",""time""
""fullscreenenter"",""0"",""3018""
","
","
","""event"",""trial"",""time""
""fullscreenenter"",""0"",""3018""
","
","614.6000000238419","<img style='border: 4px solid darkgrey;' src='img/tf1_27_M_ss2.jpeg'></img>","3","","exp","","2","<img src='img/tf1_27_T1_ss2_md.jpeg'></img>","0","false",""
"","html-keyboard-response","73","119685","0.0-10.0-0.27","814","""event"",""trial"",""time""
""fullscreenenter"",""0"",""3018""
","
","
","""event"",""trial"",""time""
""fullscreenenter"",""0"",""3018""
","
","null","<div style=""font-size:60px;"">+</div>","","null","fixation","2021-07-07 00:37:17.309","","","","",""
"","mars-trial","74","121152","0.0-10.0-1.27","814","""event"",""trial"",""time""
""fullscreenenter"",""0"",""3018""
","
","
","""event"",""trial"",""time""
""fullscreenenter"",""0"",""3018""
","
","854.3000000119209","<img style='border: 4px solid darkgrey;' src='img/tf1_28_M_ss3.jpeg'></img>","3","","exp","","1","<img src='img/tf1_28_T1_ss3_md.jpeg'></img>","0","false",""
"","html-keyboard-response","75","121657","0.0-10.0-0.28","814","""event"",""trial"",""time""
""fullscreenenter"",""0"",""3018""
","
","
","""event"",""trial"",""time""
""fullscreenenter"",""0"",""3018""
","
","null","<div style=""font-size:60px;"">+</div>","","null","fixation","2021-07-07 00:37:19.281","","","","",""
"","mars-trial","76","123091","0.0-10.0-1.28","814","""event"",""trial"",""time""
""fullscreenenter"",""0"",""3018""
","
","
","""event"",""trial"",""time""
""fullscreenenter"",""0"",""3018""
","
","822.4000000357628","<img style='border: 4px solid darkgrey;' src='img/tf1_29_M_ss1.jpeg'></img>","3","","exp","","2","<img src='img/tf1_29_T1_ss1_md.jpeg'></img>","0","false",""
"","html-keyboard-response","77","123592","0.0-10.0-0.29","814","""event"",""trial"",""time""
""fullscreenenter"",""0"",""3018""
","
","
","""event"",""trial"",""time""
""fullscreenenter"",""0"",""3018""
","
","null","<div style=""font-size:60px;"">+</div>","","null","fixation","2021-07-07 00:37:21.216","","","","",""
"","mars-trial","78","124617","0.0-10.0-1.29","814","""event"",""trial"",""time""
""fullscreenenter"",""0"",""3018""
","
","
","""event"",""trial"",""time""
""fullscreenenter"",""0"",""3018""
","
","416.69999998807907","<img style='border: 4px solid darkgrey;' src='img/tf1_30_M_ss2.jpeg'></img>","2","","exp","","0","<img src='img/tf1_30_T1_ss2_md.jpeg'></img>","0","true",""
"","html-keyboard-response","79","125119","0.0-10.0-0.30","814","""event"",""trial"",""time""
""fullscreenenter"",""0"",""3018""
","
","
","""event"",""trial"",""time""
""fullscreenenter"",""0"",""3018""
","
","null","<div style=""font-size:60px;"">+</div>","","null","fixation","2021-07-07 00:37:22.743","","","","",""
"","mars-trial","80","126390","0.0-10.0-1.30","814","""event"",""trial"",""time""
""fullscreenenter"",""0"",""3018""
","
","
","""event"",""trial"",""time""
""fullscreenenter"",""0"",""3018""
","
","661.5999999642372","<img style='border: 4px solid darkgrey;' src='img/tf1_31_M_ss3.jpeg'></img>","2","","exp","","2","<img src='img/tf1_31_T1_ss3_md.jpeg'></img>","0","false",""
"","html-keyboard-response","81","126895","0.0-10.0-0.31","814","""event"",""trial"",""time""
""fullscreenenter"",""0"",""3018""
","
","
","""event"",""trial"",""time""
""fullscreenenter"",""0"",""3018""
","
","null","<div style=""font-size:60px;"">+</div>","","null","fixation","2021-07-07 00:37:24.519","","","","",""
"","mars-trial","82","130228","0.0-10.0-1.31","814","""event"",""trial"",""time""
""fullscreenenter"",""0"",""3018""
","
","
","""event"",""trial"",""time""
""fullscreenenter"",""0"",""3018""
","
","2722.399999976158","<img style='border: 4px solid darkgrey;' src='img/tf1_32_M_ss1.jpeg'></img>","1","","exp","","3","<img src='img/tf1_32_T1_ss1_md.jpeg'></img>","0","false",""
"","html-keyboard-response","83","130732","0.0-10.0-0.32","814","""event"",""trial"",""time""
""fullscreenenter"",""0"",""3018""
","
","
","""event"",""trial"",""time""
""fullscreenenter"",""0"",""3018""
","
","null","<div style=""font-size:60px;"">+</div>","","null","fixation","2021-07-07 00:37:28.357","","","","",""
"","mars-trial","84","132408","0.0-10.0-1.32","814","""event"",""trial"",""time""
""fullscreenenter"",""0"",""3018""
","
","
","""event"",""trial"",""time""
""fullscreenenter"",""0"",""3018""
","
","1064.0999999642372","<img style='border: 4px solid darkgrey;' src='img/tf1_33_M_ss2.jpeg'></img>","1","","exp","","3","<img src='img/tf1_33_T1_ss2_md.jpeg'></img>","0","false",""
"","html-keyboard-response","85","132909","0.0-10.0-0.33","814","""event"",""trial"",""time""
""fullscreenenter"",""0"",""3018""
","
","
","""event"",""trial"",""time""
""fullscreenenter"",""0"",""3018""
","
","null","<div style=""font-size:60px;"">+</div>","","null","fixation","2021-07-07 00:37:30.533","","","","",""
"","mars-trial","86","134727","0.0-10.0-1.33","814","""event"",""trial"",""time""
""fullscreenenter"",""0"",""3018""
","
","
","""event"",""trial"",""time""
""fullscreenenter"",""0"",""3018""
","
","1205.800000011921","<img style='border: 4px solid darkgrey;' src='img/tf1_34_M_ss3.jpeg'></img>","2","","exp","","1","<img src='img/tf1_34_T1_ss3_md.jpeg'></img>","0","false",""
"","html-keyboard-response","87","135231","0.0-10.0-0.34","814","""event"",""trial"",""time""
""fullscreenenter"",""0"",""3018""
","
","
","""event"",""trial"",""time""
""fullscreenenter"",""0"",""3018""
","
","null","<div style=""font-size:60px;"">+</div>","","null","fixation","2021-07-07 00:37:32.855","","","","",""
"","mars-trial","88","136445","0.0-10.0-1.34","814","""event"",""trial"",""time""
""fullscreenenter"",""0"",""3018""
","
","
","""event"",""trial"",""time""
""fullscreenenter"",""0"",""3018""
","
","605.8999999761581","<img style='border: 4px solid darkgrey;' src='img/tf1_35_M_ss1.jpeg'></img>","2","","exp","","2","<img src='img/tf1_35_T1_ss1_md.jpeg'></img>","0","false",""
"","html-keyboard-response","89","136947","0.0-10.0-0.35","814","""event"",""trial"",""time""
""fullscreenenter"",""0"",""3018""
","
","
","""event"",""trial"",""time""
""fullscreenenter"",""0"",""3018""
","
","null","<div style=""font-size:60px;"">+</div>","","null","fixation","2021-07-07 00:37:34.571","","","","",""
"","mars-trial","90","137750","0.0-10.0-1.35","814","""event"",""trial"",""time""
""fullscreenenter"",""0"",""3018""
","
","
","""event"",""trial"",""time""
""fullscreenenter"",""0"",""3018""
","
","197.19999998807907","<img style='border: 4px solid darkgrey;' src='img/tf1_36_M_ss2.jpeg'></img>","2","","exp","","1","<img src='img/tf1_36_T1_ss2_md.jpeg'></img>","0","false",""
"","html-keyboard-response","91","138256","0.0-10.0-0.36","814","""event"",""trial"",""time""
""fullscreenenter"",""0"",""3018""
","
","
","""event"",""trial"",""time""
""fullscreenenter"",""0"",""3018""
","
","null","<div style=""font-size:60px;"">+</div>","","null","fixation","2021-07-07 00:37:35.880","","","","",""
"","mars-trial","92","139690","0.0-10.0-1.36","814","""event"",""trial"",""time""
""fullscreenenter"",""0"",""3018""
","
","
","""event"",""trial"",""time""
""fullscreenenter"",""0"",""3018""
","
","825","<img style='border: 4px solid darkgrey;' src='img/tf1_37_M_ss3.jpeg'></img>","2","","exp","","3","<img src='img/tf1_37_T1_ss3_md.jpeg'></img>","0","false",""
"","html-keyboard-response","93","140192","0.0-10.0-0.37","814","""event"",""trial"",""time""
""fullscreenenter"",""0"",""3018""
","
","
","""event"",""trial"",""time""
""fullscreenenter"",""0"",""3018""
","
","null","<div style=""font-size:60px;"">+</div>","","null","fixation","2021-07-07 00:37:37.816","","","","",""
"","mars-trial","94","141504","0.0-10.0-1.37","814","""event"",""trial"",""time""
""fullscreenenter"",""0"",""3018""
","
","
","""event"",""trial"",""time""
""fullscreenenter"",""0"",""3018""
","
","704.3000000119209","<img style='border: 4px solid darkgrey;' src='img/tf1_38_M_ss1.jpeg'></img>","2","","exp","","0","<img src='img/tf1_38_T1_ss1_md.jpeg'></img>","0","true",""
"","html-keyboard-response","95","142009","0.0-10.0-0.38","814","""event"",""trial"",""time""
""fullscreenenter"",""0"",""3018""
","
","
","""event"",""trial"",""time""
""fullscreenenter"",""0"",""3018""
","
","null","<div style=""font-size:60px;"">+</div>","","null","fixation","2021-07-07 00:37:39.633","","","","",""
"","mars-trial","96","143646","0.0-10.0-1.38","814","""event"",""trial"",""time""
""fullscreenenter"",""0"",""3018""
","
","
","""event"",""trial"",""time""
""fullscreenenter"",""0"",""3018""
","
","1026.699999988079","<img style='border: 4px solid darkgrey;' src='img/tf1_39_M_ss2.jpeg'></img>","2","","exp","","2","<img src='img/tf1_39_T1_ss2_md.jpeg'></img>","0","false",""
"","html-keyboard-response","97","144151","0.0-10.0-0.39","814","""event"",""trial"",""time""
""fullscreenenter"",""0"",""3018""
","
","
","""event"",""trial"",""time""
""fullscreenenter"",""0"",""3018""
","
","null","<div style=""font-size:60px;"">+</div>","","null","fixation","2021-07-07 00:37:41.775","","","","",""
"","mars-trial","98","145669","0.0-10.0-1.39","814","""event"",""trial"",""time""
""fullscreenenter"",""0"",""3018""
","
","
","""event"",""trial"",""time""
""fullscreenenter"",""0"",""3018""
","
","909.1999999880791","<img style='border: 4px solid darkgrey;' src='img/tf1_40_M_ss3.jpeg'></img>","1","","exp","","2","<img src='img/tf1_40_T1_ss3_md.jpeg'></img>","0","false",""
"","html-keyboard-response","99","146171","0.0-10.0-0.40","814","""event"",""trial"",""time""
""fullscreenenter"",""0"",""3018""
","
","
","""event"",""trial"",""time""
""fullscreenenter"",""0"",""3018""
","
","null","<div style=""font-size:60px;"">+</div>","","null","fixation","2021-07-07 00:37:43.795","","","","",""
"","mars-trial","100","148862","0.0-10.0-1.40","814","""event"",""trial"",""time""
""fullscreenenter"",""0"",""3018""
","
","
","""event"",""trial"",""time""
""fullscreenenter"",""0"",""3018""
","
","2080.899999976158","<img style='border: 4px solid darkgrey;' src='img/tf1_41_M_ss1.jpeg'></img>","1","","exp","","2","<img src='img/tf1_41_T1_ss1_md.jpeg'></img>","0","false",""
"","html-keyboard-response","101","149367","0.0-10.0-0.41","814","""event"",""trial"",""time""
""fullscreenenter"",""0"",""3018""
","
","
","""event"",""trial"",""time""
""fullscreenenter"",""0"",""3018""
","
","null","<div style=""font-size:60px;"">+</div>","","null","fixation","2021-07-07 00:37:46.991","","","","",""
"","mars-trial","102","151422","0.0-10.0-1.41","814","""event"",""trial"",""time""
""fullscreenenter"",""0"",""3018""
","
","
","""event"",""trial"",""time""
""fullscreenenter"",""0"",""3018""
","
","1443.3999999761581","<img style='border: 4px solid darkgrey;' src='img/tf1_42_M_ss2.jpeg'></img>","1","","exp","","0","<img src='img/tf1_42_T1_ss2_md.jpeg'></img>","0","true",""
"","html-keyboard-response","103","151927","0.0-10.0-0.42","814","""event"",""trial"",""time""
""fullscreenenter"",""0"",""3018""
","
","
","""event"",""trial"",""time""
""fullscreenenter"",""0"",""3018""
","
","null","<div style=""font-size:60px;"">+</div>","","null","fixation","2021-07-07 00:37:49.551","","","","",""
"","mars-trial","104","153262","0.0-10.0-1.42","814","""event"",""trial"",""time""
""fullscreenenter"",""0"",""3018""
","
","
","""event"",""trial"",""time""
""fullscreenenter"",""0"",""3018""
","
","723.8999999761581","<img style='border: 4px solid darkgrey;' src='img/tf1_43_M_ss3.jpeg'></img>","1","","exp","","3","<img src='img/tf1_43_T1_ss3_md.jpeg'></img>","0","false",""
"","html-keyboard-response","105","153767","0.0-10.0-0.43","814","""event"",""trial"",""time""
""fullscreenenter"",""0"",""3018""
","
","
","""event"",""trial"",""time""
""fullscreenenter"",""0"",""3018""
","
","null","<div style=""font-size:60px;"">+</div>","","null","fixation","2021-07-07 00:37:51.391","","","","",""
"","mars-trial","106","155154","0.0-10.0-1.43","814","""event"",""trial"",""time""
""fullscreenenter"",""0"",""3018""
","
","
","""event"",""trial"",""time""
""fullscreenenter"",""0"",""3018""
","
","778.2000000476837","<img style='border: 4px solid darkgrey;' src='img/tf1_44_M_ss1.jpeg'></img>","1","","exp","","3","<img src='img/tf1_44_T1_ss1_md.jpeg'></img>","0","false",""
"","html-keyboard-response","107","155657","0.0-10.0-0.44","814","""event"",""trial"",""time""
""fullscreenenter"",""0"",""3018""
","
","
","""event"",""trial"",""time""
""fullscreenenter"",""0"",""3018""
","
","null","<div style=""font-size:60px;"">+</div>","","null","fixation","2021-07-07 00:37:53.281","","","","",""
"","mars-trial","108","156863","0.0-10.0-1.44","814","""event"",""trial"",""time""
""fullscreenenter"",""0"",""3018""
","
","
","""event"",""trial"",""time""
""fullscreenenter"",""0"",""3018""
","
","596.6999999880791","<img style='border: 4px solid darkgrey;' src='img/tf1_45_M_ss2.jpeg'></img>","1","","exp","","0","<img src='img/tf1_45_T1_ss2_md.jpeg'></img>","0","true",""
"","html-keyboard-response","109","157369","0.0-10.0-0.45","814","""event"",""trial"",""time""
""fullscreenenter"",""0"",""3018""
","
","
","""event"",""trial"",""time""
""fullscreenenter"",""0"",""3018""
","
","null","<div style=""font-size:60px;"">+</div>","","null","fixation","2021-07-07 00:37:54.993","","","","",""
"","mars-trial","110","159314","0.0-10.0-1.45","814","""event"",""trial"",""time""
""fullscreenenter"",""0"",""3018""
","
","
","""event"",""trial"",""time""
""fullscreenenter"",""0"",""3018""
","
","1335.5","<img style='border: 4px solid darkgrey;' src='img/tf1_46_M_ss3.jpeg'></img>","1","","exp","","1","<img src='img/tf1_46_T1_ss3_md.jpeg'></img>","0","false",""
"","html-keyboard-response","111","159816","0.0-10.0-0.46","814","""event"",""trial"",""time""
""fullscreenenter"",""0"",""3018""
","
","
","""event"",""trial"",""time""
""fullscreenenter"",""0"",""3018""
","
","null","<div style=""font-size:60px;"">+</div>","","null","fixation","2021-07-07 00:37:57.440","","","","",""
"","mars-trial","112","162422","0.0-10.0-1.46","814","""event"",""trial"",""time""
""fullscreenenter"",""0"",""3018""
","
","
","""event"",""trial"",""time""
""fullscreenenter"",""0"",""3018""
","
","1997.5","<img style='border: 4px solid darkgrey;' src='img/tf1_47_M_ss1.jpeg'></img>","1","","exp","","0","<img src='img/tf1_47_T1_ss1_md.jpeg'></img>","0","true",""
"","html-keyboard-response","113","162924","0.0-10.0-0.47","814","""event"",""trial"",""time""
""fullscreenenter"",""0"",""3018""
","
","
","""event"",""trial"",""time""
""fullscreenenter"",""0"",""3018""
","
","null","<div style=""font-size:60px;"">+</div>","","null","fixation","2021-07-07 00:38:00.548","","","","",""
"","mars-trial","114","167864","0.0-10.0-1.47","814","""event"",""trial"",""time""
""fullscreenenter"",""0"",""3018""
","
","
","""event"",""trial"",""time""
""fullscreenenter"",""0"",""3018""
","
","4330.400000035763","<img style='border: 4px solid darkgrey;' src='img/tf1_48_M_ss2.jpeg'></img>","1","","exp","","0","<img src='img/tf1_48_T1_ss2_md.jpeg'></img>","0","true",""
"","html-keyboard-response","115","168367","0.0-10.0-0.48","814","""event"",""trial"",""time""
""fullscreenenter"",""0"",""3018""
","
","
","""event"",""trial"",""time""
""fullscreenenter"",""0"",""3018""
","
","null","<div style=""font-size:60px;"">+</div>","","null","fixation","2021-07-07 00:38:05.991","","","","",""
"","mars-trial","116","170125","0.0-10.0-1.48","814","""event"",""trial"",""time""
""fullscreenenter"",""0"",""3018""
","
","
","""event"",""trial"",""time""
""fullscreenenter"",""0"",""3018""
","
","1151.6000000238419","<img style='border: 4px solid darkgrey;' src='img/tf1_49_M_ss3.jpeg'></img>","1","","exp","","3","<img src='img/tf1_49_T1_ss3_md.jpeg'></img>","0","false",""
"","html-keyboard-response","117","170628","0.0-10.0-0.49","814","""event"",""trial"",""time""
""fullscreenenter"",""0"",""3018""
","
","
","""event"",""trial"",""time""
""fullscreenenter"",""0"",""3018""
","
","null","<div style=""font-size:60px;"">+</div>","","null","fixation","2021-07-07 00:38:08.252","","","","",""
"","mars-trial","118","171891","0.0-10.0-1.49","814","""event"",""trial"",""time""
""fullscreenenter"",""0"",""3018""
","
","
","""event"",""trial"",""time""
""fullscreenenter"",""0"",""3018""
","
","658.6999999880791","<img style='border: 4px solid darkgrey;' src='img/tf1_50_M_ss1.jpeg'></img>","2","","exp","","2","<img src='img/tf1_50_T1_ss1_md.jpeg'></img>","0","false",""
"","html-keyboard-response","119","172395","0.0-10.0-0.50","814","""event"",""trial"",""time""
""fullscreenenter"",""0"",""3018""
","
","
","""event"",""trial"",""time""
""fullscreenenter"",""0"",""3018""
","
","null","<div style=""font-size:60px;"">+</div>","","null","fixation","2021-07-07 00:38:10.019","","","","",""
"","mars-trial","120","173632","0.0-10.0-1.50","814","""event"",""trial"",""time""
""fullscreenenter"",""0"",""3018""
","
","
","""event"",""trial"",""time""
""fullscreenenter"",""0"",""3018""
","
","627.6999999880791","<img style='border: 4px solid darkgrey;' src='img/tf1_51_M_ss2.jpeg'></img>","2","","exp","","0","<img src='img/tf1_51_T1_ss2_md.jpeg'></img>","0","true",""
"","html-keyboard-response","121","174134","0.0-10.0-0.51","814","""event"",""trial"",""time""
""fullscreenenter"",""0"",""3018""
","
","
","""event"",""trial"",""time""
""fullscreenenter"",""0"",""3018""
","
","null","<div style=""font-size:60px;"">+</div>","","null","fixation","2021-07-07 00:38:11.758","","","","",""
"","mars-trial","122","175414","0.0-10.0-1.51","814","""event"",""trial"",""time""
""fullscreenenter"",""0"",""3018""
","
","
","""event"",""trial"",""time""
""fullscreenenter"",""0"",""3018""
","
","672","<img style='border: 4px solid darkgrey;' src='img/tf1_52_M_ss3.jpeg'></img>","2","","exp","","1","<img src='img/tf1_52_T1_ss3_md.jpeg'></img>","0","false",""
"","html-keyboard-response","123","175916","0.0-10.0-0.52","814","""event"",""trial"",""time""
""fullscreenenter"",""0"",""3018""
","
","
","""event"",""trial"",""time""
""fullscreenenter"",""0"",""3018""
","
","null","<div style=""font-size:60px;"">+</div>","","null","fixation","2021-07-07 00:38:13.540","","","","",""
"","mars-trial","124","177561","0.0-10.0-1.52","814","""event"",""trial"",""time""
""fullscreenenter"",""0"",""3018""
","
","
","""event"",""trial"",""time""
""fullscreenenter"",""0"",""3018""
","
","1039.1000000238419","<img style='border: 4px solid darkgrey;' src='img/tf1_53_M_ss1.jpeg'></img>","2","","exp","","0","<img src='img/tf1_53_T1_ss1_md.jpeg'></img>","0","true",""
"","html-keyboard-response","125","178064","0.0-10.0-0.53","814","""event"",""trial"",""time""
""fullscreenenter"",""0"",""3018""
","
","
","""event"",""trial"",""time""
""fullscreenenter"",""0"",""3018""
","
","null","<div style=""font-size:60px;"">+</div>","","null","fixation","2021-07-07 00:38:15.688","","","","",""
"","mars-trial","126","180391","0.0-10.0-1.53","814","""event"",""trial"",""time""
""fullscreenenter"",""0"",""3018""
","
","
","""event"",""trial"",""time""
""fullscreenenter"",""0"",""3018""
","
","1718.199999988079","<img style='border: 4px solid darkgrey;' src='img/tf1_54_M_ss2.jpeg'></img>","2","","exp","","0","<img src='img/tf1_54_T1_ss2_md.jpeg'></img>","0","true",""
"","html-keyboard-response","127","180894","0.0-10.0-0.54","814","""event"",""trial"",""time""
""fullscreenenter"",""0"",""3018""
","
","
","""event"",""trial"",""time""
""fullscreenenter"",""0"",""3018""
","
","null","<div style=""font-size:60px;"">+</div>","","null","fixation","2021-07-07 00:38:18.518","","","","",""
"","mars-trial","128","182818","0.0-10.0-1.54","814","""event"",""trial"",""time""
""fullscreenenter"",""0"",""3018""
","
","
","""event"",""trial"",""time""
""fullscreenenter"",""0"",""3018""
","
","1313.8999999761581","<img style='border: 4px solid darkgrey;' src='img/tf1_55_M_ss3.jpeg'></img>","2","","exp","","1","<img src='img/tf1_55_T1_ss3_md.jpeg'></img>","0","false",""
"","html-keyboard-response","129","183320","0.0-10.0-0.55","814","""event"",""trial"",""time""
""fullscreenenter"",""0"",""3018""
","
","
","""event"",""trial"",""time""
""fullscreenenter"",""0"",""3018""
","
","null","<div style=""font-size:60px;"">+</div>","","null","fixation","2021-07-07 00:38:20.944","","","","",""
"","mars-trial","130","184545","0.0-10.0-1.55","814","""event"",""trial"",""time""
""fullscreenenter"",""0"",""3018""
","
","
","""event"",""trial"",""time""
""fullscreenenter"",""0"",""3018""
","
","619","<img style='border: 4px solid darkgrey;' src='img/tf1_56_M_ss1.jpeg'></img>","2","","exp","","2","<img src='img/tf1_56_T1_ss1_md.jpeg'></img>","0","false",""
"","html-keyboard-response","131","185050","0.0-10.0-0.56","814","""event"",""trial"",""time""
""fullscreenenter"",""0"",""3018""
","
","
","""event"",""trial"",""time""
""fullscreenenter"",""0"",""3018""
","
","null","<div style=""font-size:60px;"">+</div>","","null","fixation","2021-07-07 00:38:22.674","","","","",""
"","mars-trial","132","186296","0.0-10.0-1.56","814","""event"",""trial"",""time""
""fullscreenenter"",""0"",""3018""
","
","
","""event"",""trial"",""time""
""fullscreenenter"",""0"",""3018""
","
","637.6999999880791","<img style='border: 4px solid darkgrey;' src='img/tf1_57_M_ss2.jpeg'></img>","2","","exp","","2","<img src='img/tf1_57_T1_ss2_md.jpeg'></img>","0","false",""
"","html-keyboard-response","133","186801","0.0-10.0-0.57","814","""event"",""trial"",""time""
""fullscreenenter"",""0"",""3018""
","
","
","""event"",""trial"",""time""
""fullscreenenter"",""0"",""3018""
","
","null","<div style=""font-size:60px;"">+</div>","","null","fixation","2021-07-07 00:38:24.425","","","","",""
"","mars-trial","134","187620","0.0-10.0-1.57","814","""event"",""trial"",""time""
""fullscreenenter"",""0"",""3018""
","
","
","""event"",""trial"",""time""
""fullscreenenter"",""0"",""3018""
","
","213.80000001192093","<img style='border: 4px solid darkgrey;' src='img/tf1_58_M_ss3.jpeg'></img>","2","","exp","","0","<img src='img/tf1_58_T1_ss3_md.jpeg'></img>","0","true",""
"","html-keyboard-response","135","188124","0.0-10.0-0.58","814","""event"",""trial"",""time""
""fullscreenenter"",""0"",""3018""
","
","
","""event"",""trial"",""time""
""fullscreenenter"",""0"",""3018""
","
","null","<div style=""font-size:60px;"">+</div>","","null","fixation","2021-07-07 00:38:25.749","","","","",""
"","mars-trial","136","189105","0.0-10.0-1.58","814","""event"",""trial"",""time""
""fullscreenenter"",""0"",""3018""
","
","
","""event"",""trial"",""time""
""fullscreenenter"",""0"",""3018""
","
","375","<img style='border: 4px solid darkgrey;' src='img/tf1_59_M_ss1.jpeg'></img>","2","","exp","","0","<img src='img/tf1_59_T1_ss1_md.jpeg'></img>","0","true",""
"","html-keyboard-response","137","189610","0.0-10.0-0.59","814","""event"",""trial"",""time""
""fullscreenenter"",""0"",""3018""
","
","
","""event"",""trial"",""time""
""fullscreenenter"",""0"",""3018""
","
","null","<div style=""font-size:60px;"">+</div>","","null","fixation","2021-07-07 00:38:27.234","","","","",""
"","mars-trial","138","190542","0.0-10.0-1.59","814","""event"",""trial"",""time""
""fullscreenenter"",""0"",""3018""
","
","
","""event"",""trial"",""time""
""fullscreenenter"",""0"",""3018""
","
","322.2999999523163","<img style='border: 4px solid darkgrey;' src='img/tf1_60_M_ss2.jpeg'></img>","2","","exp","","2","<img src='img/tf1_60_T1_ss2_md.jpeg'></img>","0","false",""
"","html-keyboard-response","139","191044","0.0-10.0-0.60","814","""event"",""trial"",""time""
""fullscreenenter"",""0"",""3018""
","
","
","""event"",""trial"",""time""
""fullscreenenter"",""0"",""3018""
","
","null","<div style=""font-size:60px;"">+</div>","","null","fixation","2021-07-07 00:38:28.668","","","","",""
"","mars-trial","140","192068","0.0-10.0-1.60","814","""event"",""trial"",""time""
""fullscreenenter"",""0"",""3018""
","
","
","""event"",""trial"",""time""
""fullscreenenter"",""0"",""3018""
","
","417.80000001192093","<img style='border: 4px solid darkgrey;' src='img/tf1_61_M_ss3.jpeg'></img>","2","","exp","","3","<img src='img/tf1_61_T1_ss3_md.jpeg'></img>","0","false",""
"","html-keyboard-response","141","192574","0.0-10.0-0.61","814","""event"",""trial"",""time""
""fullscreenenter"",""0"",""3018""
","
","
","""event"",""trial"",""time""
""fullscreenenter"",""0"",""3018""
","
","null","<div style=""font-size:60px;"">+</div>","","null","fixation","2021-07-07 00:38:30.198","","","","",""
"","mars-trial","142","193802","0.0-10.0-1.61","814","""event"",""trial"",""time""
""fullscreenenter"",""0"",""3018""
","
","
","""event"",""trial"",""time""
""fullscreenenter"",""0"",""3018""
","
","618.8000000119209","<img style='border: 4px solid darkgrey;' src='img/tf1_62_M_ss1.jpeg'></img>","2","","exp","","2","<img src='img/tf1_62_T1_ss1_md.jpeg'></img>","0","false",""
"","html-keyboard-response","143","194303","0.0-10.0-0.62","814","""event"",""trial"",""time""
""fullscreenenter"",""0"",""3018""
","
","
","""event"",""trial"",""time""
""fullscreenenter"",""0"",""3018""
","
","null","<div style=""font-size:60px;"">+</div>","","null","fixation","2021-07-07 00:38:31.927","","","","",""
"","mars-trial","144","195394","0.0-10.0-1.62","814","""event"",""trial"",""time""
""fullscreenenter"",""0"",""3018""
","
","
","""event"",""trial"",""time""
""fullscreenenter"",""0"",""3018""
","
","481.69999998807907","<img style='border: 4px solid darkgrey;' src='img/tf1_63_M_ss2.jpeg'></img>","2","","exp","","2","<img src='img/tf1_63_T1_ss2_md.jpeg'></img>","0","false",""
"","html-keyboard-response","145","195900","0.0-10.0-0.63","814","""event"",""trial"",""time""
""fullscreenenter"",""0"",""3018""
","
","
","""event"",""trial"",""time""
""fullscreenenter"",""0"",""3018""
","
","null","<div style=""font-size:60px;"">+</div>","","null","fixation","2021-07-07 00:38:33.524","","","","",""
"","mars-trial","146","196954","0.0-10.0-1.63","814","""event"",""trial"",""time""
""fullscreenenter"",""0"",""3018""
","
","
","""event"",""trial"",""time""
""fullscreenenter"",""0"",""3018""
","
","444.69999998807907","<img style='border: 4px solid darkgrey;' src='img/tf1_64_M_ss3.jpeg'></img>","2","","exp","","1","<img src='img/tf1_64_T1_ss3_md.jpeg'></img>","0","false",""
"","html-keyboard-response","147","197456","0.0-10.0-0.64","814","""event"",""trial"",""time""
""fullscreenenter"",""0"",""3018""
","
","
","""event"",""trial"",""time""
""fullscreenenter"",""0"",""3018""
","
","null","<div style=""font-size:60px;"">+</div>","","null","fixation","2021-07-07 00:38:35.080","","","","",""
"","mars-trial","148","198510","0.0-10.0-1.64","814","""event"",""trial"",""time""
""fullscreenenter"",""0"",""3018""
","
","
","""event"",""trial"",""time""
""fullscreenenter"",""0"",""3018""
","
","445.60000002384186","<img style='border: 4px solid darkgrey;' src='img/tf1_65_M_ss1.jpeg'></img>","2","","exp","","0","<img src='img/tf1_65_T1_ss1_md.jpeg'></img>","0","true",""
"","html-keyboard-response","149","199014","0.0-10.0-0.65","814","""event"",""trial"",""time""
""fullscreenenter"",""0"",""3018""
","
","
","""event"",""trial"",""time""
""fullscreenenter"",""0"",""3018""
","
","null","<div style=""font-size:60px;"">+</div>","","null","fixation","2021-07-07 00:38:36.639","","","","",""
"","mars-trial","150","200082","0.0-10.0-1.65","814","""event"",""trial"",""time""
""fullscreenenter"",""0"",""3018""
","
","
","""event"",""trial"",""time""
""fullscreenenter"",""0"",""3018""
","
","457.80000001192093","<img style='border: 4px solid darkgrey;' src='img/tf1_66_M_ss2.jpeg'></img>","2","","exp","","3","<img src='img/tf1_66_T1_ss2_md.jpeg'></img>","0","false",""
"","html-keyboard-response","151","200585","0.0-10.0-0.66","814","""event"",""trial"",""time""
""fullscreenenter"",""0"",""3018""
","
","
","""event"",""trial"",""time""
""fullscreenenter"",""0"",""3018""
","
","null","<div style=""font-size:60px;"">+</div>","","null","fixation","2021-07-07 00:38:38.209","","","","",""
"","mars-trial","152","201615","0.0-10.0-1.66","814","""event"",""trial"",""time""
""fullscreenenter"",""0"",""3018""
","
","
","""event"",""trial"",""time""
""fullscreenenter"",""0"",""3018""
","
","422.7999999523163","<img style='border: 4px solid darkgrey;' src='img/tf1_67_M_ss3.jpeg'></img>","2","","exp","","3","<img src='img/tf1_67_T1_ss3_md.jpeg'></img>","0","false",""
"","html-keyboard-response","153","202120","0.0-10.0-0.67","814","""event"",""trial"",""time""
""fullscreenenter"",""0"",""3018""
","
","
","""event"",""trial"",""time""
""fullscreenenter"",""0"",""3018""
","
","null","<div style=""font-size:60px;"">+</div>","","null","fixation","2021-07-07 00:38:39.744","","","","",""
"","mars-trial","154","203234","0.0-10.0-1.67","814","""event"",""trial"",""time""
""fullscreenenter"",""0"",""3018""
","
","
","""event"",""trial"",""time""
""fullscreenenter"",""0"",""3018""
","
","503.89999997615814","<img style='border: 4px solid darkgrey;' src='img/tf1_68_M_ss1.jpeg'></img>","2","","exp","","1","<img src='img/tf1_68_T1_ss1_md.jpeg'></img>","0","false",""
"","html-keyboard-response","155","203737","0.0-10.0-0.68","814","""event"",""trial"",""time""
""fullscreenenter"",""0"",""3018""
","
","
","""event"",""trial"",""time""
""fullscreenenter"",""0"",""3018""
","
","null","<div style=""font-size:60px;"">+</div>","","null","fixation","2021-07-07 00:38:41.361","","","","",""
"","mars-trial","156","205322","0.0-10.0-1.68","814","""event"",""trial"",""time""
""fullscreenenter"",""0"",""3018""
","
","
","""event"",""trial"",""time""
""fullscreenenter"",""0"",""3018""
","
","976.3000000119209","<img style='border: 4px solid darkgrey;' src='img/tf1_69_M_ss2.jpeg'></img>","2","","exp","","1","<img src='img/tf1_69_T1_ss2_md.jpeg'></img>","0","false",""
"","html-keyboard-response","157","205824","0.0-10.0-0.69","814","""event"",""trial"",""time""
""fullscreenenter"",""0"",""3018""
","
","
","""event"",""trial"",""time""
""fullscreenenter"",""0"",""3018""
","
","null","<div style=""font-size:60px;"">+</div>","","null","fixation","2021-07-07 00:38:43.448","","","","",""
"","mars-trial","158","207210","0.0-10.0-1.69","814","""event"",""trial"",""time""
""fullscreenenter"",""0"",""3018""
","
","
","""event"",""trial"",""time""
""fullscreenenter"",""0"",""3018""
","
","777.3999999761581","<img style='border: 4px solid darkgrey;' src='img/tf1_70_M_ss3.jpeg'></img>","2","","exp","","1","<img src='img/tf1_70_T1_ss3_md.jpeg'></img>","0","false",""
"","html-keyboard-response","159","207713","0.0-10.0-0.70","814","""event"",""trial"",""time""
""fullscreenenter"",""0"",""3018""
","
","
","""event"",""trial"",""time""
""fullscreenenter"",""0"",""3018""
","
","null","<div style=""font-size:60px;"">+</div>","","null","fixation","2021-07-07 00:38:45.337","","","","",""
"","mars-trial","160","209312","0.0-10.0-1.70","814","""event"",""trial"",""time""
""fullscreenenter"",""0"",""3018""
","
","
","""event"",""trial"",""time""
""fullscreenenter"",""0"",""3018""
","
","987.5999999642372","<img style='border: 4px solid darkgrey;' src='img/tf1_71_M_ss1.jpeg'></img>","2","","exp","","0","<img src='img/tf1_71_T1_ss1_md.jpeg'></img>","0","true",""
"","html-keyboard-response","161","209817","0.0-10.0-0.71","814","""event"",""trial"",""time""
""fullscreenenter"",""0"",""3018""
","
","
","""event"",""trial"",""time""
""fullscreenenter"",""0"",""3018""
","
","null","<div style=""font-size:60px;"">+</div>","","null","fixation","2021-07-07 00:38:47.441","","","","",""
"","mars-trial","162","211007","0.0-10.0-1.71","814","""event"",""trial"",""time""
""fullscreenenter"",""0"",""3018""
","
","
","""event"",""trial"",""time""
""fullscreenenter"",""0"",""3018""
","
","580.8000000119209","<img style='border: 4px solid darkgrey;' src='img/tf1_72_M_ss2.jpeg'></img>","2","","exp","","0","<img src='img/tf1_72_T1_ss2_md.jpeg'></img>","0","true",""
"","html-keyboard-response","163","211513","0.0-10.0-0.72","814","""event"",""trial"",""time""
""fullscreenenter"",""0"",""3018""
","
","
","""event"",""trial"",""time""
""fullscreenenter"",""0"",""3018""
","
","null","<div style=""font-size:60px;"">+</div>","","null","fixation","2021-07-07 00:38:49.137","","","","",""
"","mars-trial","164","212996","0.0-10.0-1.72","814","""event"",""trial"",""time""
""fullscreenenter"",""0"",""3018""
","
","
","""event"",""trial"",""time""
""fullscreenenter"",""0"",""3018""
","
","873.9000000357628","<img style='border: 4px solid darkgrey;' src='img/tf1_73_M_ss3.jpeg'></img>","1","","exp","","3","<img src='img/tf1_73_T1_ss3_md.jpeg'></img>","0","false",""
"","html-keyboard-response","165","213498","0.0-10.0-0.73","814","""event"",""trial"",""time""
""fullscreenenter"",""0"",""3018""
","
","
","""event"",""trial"",""time""
""fullscreenenter"",""0"",""3018""
","
","null","<div style=""font-size:60px;"">+</div>","","null","fixation","2021-07-07 00:38:51.122","","","","",""
"","mars-trial","166","214793","0.0-10.0-1.73","814","""event"",""trial"",""time""
""fullscreenenter"",""0"",""3018""
","
","
","""event"",""trial"",""time""
""fullscreenenter"",""0"",""3018""
","
","686.5999999642372","<img style='border: 4px solid darkgrey;' src='img/tf1_74_M_ss1.jpeg'></img>","2","","exp","","0","<img src='img/tf1_74_T1_ss1_md.jpeg'></img>","0","true",""
"","html-keyboard-response","167","215298","0.0-10.0-0.74","814","""event"",""trial"",""time""
""fullscreenenter"",""0"",""3018""
","
","
","""event"",""trial"",""time""
""fullscreenenter"",""0"",""3018""
","
","null","<div style=""font-size:60px;"">+</div>","","null","fixation","2021-07-07 00:38:52.922","","","","",""
"","mars-trial","168","216562","0.0-10.0-1.74","814","""event"",""trial"",""time""
""fullscreenenter"",""0"",""3018""
","
","
","""event"",""trial"",""time""
""fullscreenenter"",""0"",""3018""
","
","654.8000000119209","<img style='border: 4px solid darkgrey;' src='img/tf1_75_M_ss2.jpeg'></img>","2","","exp","","0","<img src='img/tf1_75_T1_ss2_md.jpeg'></img>","0","true",""
"","html-keyboard-response","169","217065","0.0-10.0-0.75","814","""event"",""trial"",""time""
""fullscreenenter"",""0"",""3018""
","
","
","""event"",""trial"",""time""
""fullscreenenter"",""0"",""3018""
","
","null","<div style=""font-size:60px;"">+</div>","","null","fixation","2021-07-07 00:38:54.689","","","","",""
"","mars-trial","170","217733","0.0-10.0-1.75","814","""event"",""trial"",""time""
""fullscreenenter"",""0"",""3018""
","
","
","""event"",""trial"",""time""
""fullscreenenter"",""0"",""3018""
","
","61.700000047683716","<img style='border: 4px solid darkgrey;' src='img/tf1_76_M_ss3.jpeg'></img>","2","","exp","","0","<img src='img/tf1_76_T1_ss3_md.jpeg'></img>","0","true",""
"","html-keyboard-response","171","218238","0.0-10.0-0.76","814","""event"",""trial"",""time""
""fullscreenenter"",""0"",""3018""
","
","
","""event"",""trial"",""time""
""fullscreenenter"",""0"",""3018""
","
","null","<div style=""font-size:60px;"">+</div>","","null","fixation","2021-07-07 00:38:55.862","","","","",""
"","mars-trial","172","219161","0.0-10.0-1.76","814","""event"",""trial"",""time""
""fullscreenenter"",""0"",""3018""
","
","
","""event"",""trial"",""time""
""fullscreenenter"",""0"",""3018""
","
","314.30000001192093","<img style='border: 4px solid darkgrey;' src='img/tf1_77_M_ss1.jpeg'></img>","2","","exp","","2","<img src='img/tf1_77_T1_ss1_md.jpeg'></img>","0","false",""
"","html-keyboard-response","173","219666","0.0-10.0-0.77","814","""event"",""trial"",""time""
""fullscreenenter"",""0"",""3018""
","
","
","""event"",""trial"",""time""
""fullscreenenter"",""0"",""3018""
","
","null","<div style=""font-size:60px;"">+</div>","","null","fixation","2021-07-07 00:38:57.290","","","","",""
"","mars-trial","174","220662","0.0-10.0-1.77","814","""event"",""trial"",""time""
""fullscreenenter"",""0"",""3018""
","
","
","""event"",""trial"",""time""
""fullscreenenter"",""0"",""3018""
","
","386.80000001192093","<img style='border: 4px solid darkgrey;' src='img/tf1_78_M_ss2.jpeg'></img>","2","","exp","","3","<img src='img/tf1_78_T1_ss2_md.jpeg'></img>","0","false",""
"","html-keyboard-response","175","221163","0.0-10.0-0.78","814","""event"",""trial"",""time""
""fullscreenenter"",""0"",""3018""
","
","
","""event"",""trial"",""time""
""fullscreenenter"",""0"",""3018""
","
","null","<div style=""font-size:60px;"">+</div>","","null","fixation","2021-07-07 00:38:58.787","","","","",""
"","mars-trial","176","221826","0.0-10.0-1.78","814","""event"",""trial"",""time""
""fullscreenenter"",""0"",""3018""
","
","
","""event"",""trial"",""time""
""fullscreenenter"",""0"",""3018""
","
","54","<img style='border: 4px solid darkgrey;' src='img/tf1_79_M_ss3.jpeg'></img>","2","","exp","","2","<img src='img/tf1_79_T1_ss3_md.jpeg'></img>","0","false",""
"","html-keyboard-response","177","222327","0.0-10.0-0.79","814","""event"",""trial"",""time""
""fullscreenenter"",""0"",""3018""
","
","
","""event"",""trial"",""time""
""fullscreenenter"",""0"",""3018""
","
","null","<div style=""font-size:60px;"">+</div>","","null","fixation","2021-07-07 00:38:59.951","","","","",""
"","mars-trial","178","223097","0.0-10.0-1.79","814","""event"",""trial"",""time""
""fullscreenenter"",""0"",""3018""
","
","
","""event"",""trial"",""time""
""fullscreenenter"",""0"",""3018""
","
","160.60000002384186","<img style='border: 4px solid darkgrey;' src='img/tf1_80_M_ss1.jpeg'></img>","3","","exp","","1","<img src='img/tf1_80_T1_ss1_md.jpeg'></img>","0","false",""
"","audio-button-response","179","226572","0.0-11.0","814","""event"",""trial"",""time""
""fullscreenenter"",""0"",""3018""
","
","
","""event"",""trial"",""time""
""fullscreenenter"",""0"",""3018""
","
","3472.199999988079","audio/mars_instructions_slide5.wav","0","","","","","","","",""
