"success","trial_type","trial_index","time_elapsed","internal_node_id","subject_id","interactions","blur_events","focus_events","fullscreenenter_events","fullscreenexit_events","rt","stimulus","button_pressed","key_press","part","timestamp","unshuffled_button","correct_response","correct_button","correct","value"
"true","fullscreen","0","3429","0.0-0.0","924","""event"",""trial"",""time""
""fullscreenenter"",""0"",""2434""
","
","
","""event"",""trial"",""time""
""fullscreenenter"",""0"",""2434""
","
","","","","","","","","","","",""
"","pavlovia","1","3435","0.0-1.0","924","""event"",""trial"",""time""
""fullscreenenter"",""0"",""2434""
","
","
","""event"",""trial"",""time""
""fullscreenenter"",""0"",""2434""
","
","","","","","","","","","","",""
"","html-button-response","2","4872","0.0-2.0","924","""event"",""trial"",""time""
""fullscreenenter"",""0"",""2434""
","
","
","""event"",""trial"",""time""
""fullscreenenter"",""0"",""2434""
","
","1435.699999988079","<p>Welcome! Press START to begin.</p><br>","0","","","","","","","",""
"","audio-button-response","3","29072","0.0-3.0","924","""event"",""trial"",""time""
""fullscreenenter"",""0"",""2434""
","
","
","""event"",""trial"",""time""
""fullscreenenter"",""0"",""2434""
","
","24195.900000035763","audio/mars_instructions_slide2.wav","0","","","","","","","",""
"","audio-button-response","4","35490","0.0-4.0","924","""event"",""trial"",""time""
""fullscreenenter"",""0"",""2434""
","
","
","""event"",""trial"",""time""
""fullscreenenter"",""0"",""2434""
","
","6416.699999988079","audio/mars_instructions_slide3.wav","0","","","","","","","",""
"","html-keyboard-response","5","36002","0.0-5.0-0.0","924","""event"",""trial"",""time""
""fullscreenenter"",""0"",""2434""
","
","
","""event"",""trial"",""time""
""fullscreenenter"",""0"",""2434""
","
","null","<div style=""font-size:60px;"">+</div>","","null","fixation","2021-06-17 20:52:26.578","","","","",""
"","mars-trial","6","41836","0.0-5.0-1.0","924","""event"",""trial"",""time""
""fullscreenenter"",""0"",""2434""
","
","
","""event"",""trial"",""time""
""fullscreenenter"",""0"",""2434""
","
","3715.399999976158","<img style='border: 4px solid darkgrey;' src='practice/pt1_M1.png'></img>","0","","practice","","2","<img src='practice/pt1_T1.png'></img>","0","false",""
"","html-keyboard-response","7","42341","0.0-5.1-0.1","924","""event"",""trial"",""time""
""fullscreenenter"",""0"",""2434""
","
","
","""event"",""trial"",""time""
""fullscreenenter"",""0"",""2434""
","
","null","<div style=""font-size:60px;"">+</div>","","null","fixation","2021-06-17 20:52:32.917","","","","",""
"","mars-trial","8","47786","0.0-5.1-1.1","924","""event"",""trial"",""time""
""fullscreenenter"",""0"",""2434""
","
","
","""event"",""trial"",""time""
""fullscreenenter"",""0"",""2434""
","
","3334.2999999523163","<img style='border: 4px solid darkgrey;' src='practice/pt1_M1.png'></img>","3","","practice","","0","<img src='practice/pt1_T1.png'></img>","0","true",""
"","html-keyboard-response","9","48291","0.0-6.0-0.0","924","""event"",""trial"",""time""
""fullscreenenter"",""0"",""2434""
","
","
","""event"",""trial"",""time""
""fullscreenenter"",""0"",""2434""
","
","null","<div style=""font-size:60px;"">+</div>","","null","fixation","2021-06-17 20:52:38.867","","","","",""
"","mars-trial","10","53905","0.0-6.0-1.0","924","""event"",""trial"",""time""
""fullscreenenter"",""0"",""2434""
","
","
","""event"",""trial"",""time""
""fullscreenenter"",""0"",""2434""
","
","3501.199999988079","<img style='border: 4px solid darkgrey;' src='practice/pt2_M1.png'></img>","0","","practice","","0","<img src='practice/pt2_T1.png'></img>","0","true",""
"","html-keyboard-response","11","54410","0.0-7.0-0.0","924","""event"",""trial"",""time""
""fullscreenenter"",""0"",""2434""
","
","
","""event"",""trial"",""time""
""fullscreenenter"",""0"",""2434""
","
","null","<div style=""font-size:60px;"">+</div>","","null","fixation","2021-06-17 20:52:44.986","","","","",""
"","mars-trial","12","58456","0.0-7.0-1.0","924","""event"",""trial"",""time""
""fullscreenenter"",""0"",""2434""
","
","
","""event"",""trial"",""time""
""fullscreenenter"",""0"",""2434""
","
","1935.199999988079","<img style='border: 4px solid darkgrey;' src='practice/pt3_M1.png'></img>","1","","practice","","0","<img src='practice/pt3_T1.png'></img>","0","true",""
"","audio-button-response","13","60834","0.0-8.0","924","""event"",""trial"",""time""
""fullscreenenter"",""0"",""2434""
","
","
","""event"",""trial"",""time""
""fullscreenenter"",""0"",""2434""
","
","2376.399999976158","audio/mars_instructions_slide4.wav","0","","","","","","","",""
"","call-function","14","60835","0.0-9.0","924","""event"",""trial"",""time""
""fullscreenenter"",""0"",""2434""
","
","
","""event"",""trial"",""time""
""fullscreenenter"",""0"",""2434""
","
","","","","","","","","","","",""
"","html-keyboard-response","15","61336","0.0-10.0-0.0","924","""event"",""trial"",""time""
""fullscreenenter"",""0"",""2434""
","
","
","""event"",""trial"",""time""
""fullscreenenter"",""0"",""2434""
","
","null","<div style=""font-size:60px;"">+</div>","","null","fixation","2021-06-17 20:52:51.912","","","","",""
"","mars-trial","16","64383","0.0-10.0-1.0","924","""event"",""trial"",""time""
""fullscreenenter"",""0"",""2434""
","
","
","""event"",""trial"",""time""
""fullscreenenter"",""0"",""2434""
","
","2436.399999976158","<img style='border: 4px solid darkgrey;' src='img/tf1_1_M_ss3.jpeg'></img>","1","","exp","","0","<img src='img/tf1_1_T1_ss3_md.jpeg'></img>","0","true",""
"","html-keyboard-response","17","64888","0.0-10.0-0.1","924","""event"",""trial"",""time""
""fullscreenenter"",""0"",""2434""
","
","
","""event"",""trial"",""time""
""fullscreenenter"",""0"",""2434""
","
","null","<div style=""font-size:60px;"">+</div>","","null","fixation","2021-06-17 20:52:55.464","","","","",""
"","mars-trial","18","68195","0.0-10.0-1.1","924","""event"",""trial"",""time""
""fullscreenenter"",""0"",""2434""
","
","
","""event"",""trial"",""time""
""fullscreenenter"",""0"",""2434""
","
","2700.600000023842","<img style='border: 4px solid darkgrey;' src='img/tf1_2_M_ss1.jpeg'></img>","0","","exp","","0","<img src='img/tf1_2_T1_ss1_md.jpeg'></img>","0","true",""
"","html-keyboard-response","19","68697","0.0-10.0-0.2","924","""event"",""trial"",""time""
""fullscreenenter"",""0"",""2434""
","
","
","""event"",""trial"",""time""
""fullscreenenter"",""0"",""2434""
","
","null","<div style=""font-size:60px;"">+</div>","","null","fixation","2021-06-17 20:52:59.273","","","","",""
"","mars-trial","20","72238","0.0-10.0-1.2","924","""event"",""trial"",""time""
""fullscreenenter"",""0"",""2434""
","
","
","""event"",""trial"",""time""
""fullscreenenter"",""0"",""2434""
","
","2929.899999976158","<img style='border: 4px solid darkgrey;' src='img/tf1_3_M_ss2.jpeg'></img>","2","","exp","","0","<img src='img/tf1_3_T1_ss2_md.jpeg'></img>","0","true",""
"","html-keyboard-response","21","72740","0.0-10.0-0.3","924","""event"",""trial"",""time""
""fullscreenenter"",""0"",""2434""
","
","
","""event"",""trial"",""time""
""fullscreenenter"",""0"",""2434""
","
","null","<div style=""font-size:60px;"">+</div>","","null","fixation","2021-06-17 20:53:03.316","","","","",""
"","mars-trial","22","76545","0.0-10.0-1.3","924","""event"",""trial"",""time""
""fullscreenenter"",""0"",""2434""
","
","
","""event"",""trial"",""time""
""fullscreenenter"",""0"",""2434""
","
","3196","<img style='border: 4px solid darkgrey;' src='img/tf1_4_M_ss3.jpeg'></img>","1","","exp","","0","<img src='img/tf1_4_T1_ss3_md.jpeg'></img>","0","true",""
"","html-keyboard-response","23","77049","0.0-10.0-0.4","924","""event"",""trial"",""time""
""fullscreenenter"",""0"",""2434""
","
","
","""event"",""trial"",""time""
""fullscreenenter"",""0"",""2434""
","
","null","<div style=""font-size:60px;"">+</div>","","null","fixation","2021-06-17 20:53:07.625","","","","",""
"","mars-trial","24","79988","0.0-10.0-1.4","924","""event"",""trial"",""time""
""fullscreenenter"",""0"",""2434""
","
","
","""event"",""trial"",""time""
""fullscreenenter"",""0"",""2434""
","
","2325.300000011921","<img style='border: 4px solid darkgrey;' src='img/tf1_5_M_ss1.jpeg'></img>","2","","exp","","0","<img src='img/tf1_5_T1_ss1_md.jpeg'></img>","0","true",""
"","html-keyboard-response","25","80492","0.0-10.0-0.5","924","""event"",""trial"",""time""
""fullscreenenter"",""0"",""2434""
","
","
","""event"",""trial"",""time""
""fullscreenenter"",""0"",""2434""
","
","null","<div style=""font-size:60px;"">+</div>","","null","fixation","2021-06-17 20:53:11.069","","","","",""
"","mars-trial","26","86338","0.0-10.0-1.5","924","""event"",""trial"",""time""
""fullscreenenter"",""0"",""2434""
","
","
","""event"",""trial"",""time""
""fullscreenenter"",""0"",""2434""
","
","5232.300000011921","<img style='border: 4px solid darkgrey;' src='img/tf1_6_M_ss2.jpeg'></img>","2","","exp","","0","<img src='img/tf1_6_T1_ss2_md.jpeg'></img>","0","true",""
"","html-keyboard-response","27","86843","0.0-10.0-0.6","924","""event"",""trial"",""time""
""fullscreenenter"",""0"",""2434""
","
","
","""event"",""trial"",""time""
""fullscreenenter"",""0"",""2434""
","
","null","<div style=""font-size:60px;"">+</div>","","null","fixation","2021-06-17 20:53:17.419","","","","",""
"","mars-trial","28","89747","0.0-10.0-1.6","924","""event"",""trial"",""time""
""fullscreenenter"",""0"",""2434""
","
","
","""event"",""trial"",""time""
""fullscreenenter"",""0"",""2434""
","
","2294.800000011921","<img style='border: 4px solid darkgrey;' src='img/tf1_7_M_ss3.jpeg'></img>","2","","exp","","2","<img src='img/tf1_7_T1_ss3_md.jpeg'></img>","0","false",""
"","html-keyboard-response","29","90251","0.0-10.0-0.7","924","""event"",""trial"",""time""
""fullscreenenter"",""0"",""2434""
","
","
","""event"",""trial"",""time""
""fullscreenenter"",""0"",""2434""
","
","null","<div style=""font-size:60px;"">+</div>","","null","fixation","2021-06-17 20:53:20.827","","","","",""
"","mars-trial","30","95687","0.0-10.0-1.7","924","""event"",""trial"",""time""
""fullscreenenter"",""0"",""2434""
","
","
","""event"",""trial"",""time""
""fullscreenenter"",""0"",""2434""
","
","4825.099999964237","<img style='border: 4px solid darkgrey;' src='img/tf1_8_M_ss1.jpeg'></img>","1","","exp","","2","<img src='img/tf1_8_T1_ss1_md.jpeg'></img>","0","false",""
"","html-keyboard-response","31","96192","0.0-10.0-0.8","924","""event"",""trial"",""time""
""fullscreenenter"",""0"",""2434""
","
","
","""event"",""trial"",""time""
""fullscreenenter"",""0"",""2434""
","
","null","<div style=""font-size:60px;"">+</div>","","null","fixation","2021-06-17 20:53:26.768","","","","",""
"","mars-trial","32","102070","0.0-10.0-1.8","924","""event"",""trial"",""time""
""fullscreenenter"",""0"",""2434""
","
","
","""event"",""trial"",""time""
""fullscreenenter"",""0"",""2434""
","
","5265.900000035763","<img style='border: 4px solid darkgrey;' src='img/tf1_9_M_ss2.jpeg'></img>","3","","exp","","0","<img src='img/tf1_9_T1_ss2_md.jpeg'></img>","0","true",""
"","html-keyboard-response","33","102575","0.0-10.0-0.9","924","""event"",""trial"",""time""
""fullscreenenter"",""0"",""2434""
","
","
","""event"",""trial"",""time""
""fullscreenenter"",""0"",""2434""
","
","null","<div style=""font-size:60px;"">+</div>","","null","fixation","2021-06-17 20:53:33.151","","","","",""
"","mars-trial","34","111250","0.0-10.0-1.9","924","""event"",""trial"",""time""
""fullscreenenter"",""0"",""2434""
","
","
","""event"",""trial"",""time""
""fullscreenenter"",""0"",""2434""
","
","8064.300000011921","<img style='border: 4px solid darkgrey;' src='img/tf1_10_M_ss3.jpeg'></img>","0","","exp","","1","<img src='img/tf1_10_T1_ss3_md.jpeg'></img>","0","false",""
"","html-keyboard-response","35","111755","0.0-10.0-0.10","924","""event"",""trial"",""time""
""fullscreenenter"",""0"",""2434""
","
","
","""event"",""trial"",""time""
""fullscreenenter"",""0"",""2434""
","
","null","<div style=""font-size:60px;"">+</div>","","null","fixation","2021-06-17 20:53:42.332","","","","",""
"","mars-trial","36","116154","0.0-10.0-1.10","924","""event"",""trial"",""time""
""fullscreenenter"",""0"",""2434""
","
","
","""event"",""trial"",""time""
""fullscreenenter"",""0"",""2434""
","
","3784.899999976158","<img style='border: 4px solid darkgrey;' src='img/tf1_11_M_ss1.jpeg'></img>","1","","exp","","2","<img src='img/tf1_11_T1_ss1_md.jpeg'></img>","0","false",""
"","html-keyboard-response","37","116659","0.0-10.0-0.11","924","""event"",""trial"",""time""
""fullscreenenter"",""0"",""2434""
","
","
","""event"",""trial"",""time""
""fullscreenenter"",""0"",""2434""
","
","null","<div style=""font-size:60px;"">+</div>","","null","fixation","2021-06-17 20:53:47.235","","","","",""
"","mars-trial","38","119981","0.0-10.0-1.11","924","""event"",""trial"",""time""
""fullscreenenter"",""0"",""2434""
","
","
","""event"",""trial"",""time""
""fullscreenenter"",""0"",""2434""
","
","2710.100000023842","<img style='border: 4px solid darkgrey;' src='img/tf1_12_M_ss2.jpeg'></img>","2","","exp","","3","<img src='img/tf1_12_T1_ss2_md.jpeg'></img>","0","false",""
"","html-keyboard-response","39","120487","0.0-10.0-0.12","924","""event"",""trial"",""time""
""fullscreenenter"",""0"",""2434""
","
","
","""event"",""trial"",""time""
""fullscreenenter"",""0"",""2434""
","
","null","<div style=""font-size:60px;"">+</div>","","null","fixation","2021-06-17 20:53:51.063","","","","",""
"","mars-trial","40","124445","0.0-10.0-1.12","924","""event"",""trial"",""time""
""fullscreenenter"",""0"",""2434""
","
","
","""event"",""trial"",""time""
""fullscreenenter"",""0"",""2434""
","
","3349.800000011921","<img style='border: 4px solid darkgrey;' src='img/tf1_13_M_ss3.jpeg'></img>","0","","exp","","1","<img src='img/tf1_13_T1_ss3_md.jpeg'></img>","0","false",""
"","html-keyboard-response","41","124949","0.0-10.0-0.13","924","""event"",""trial"",""time""
""fullscreenenter"",""0"",""2434""
","
","
","""event"",""trial"",""time""
""fullscreenenter"",""0"",""2434""
","
","null","<div style=""font-size:60px;"">+</div>","","null","fixation","2021-06-17 20:53:55.525","","","","",""
"","mars-trial","42","129645","0.0-10.0-1.13","924","""event"",""trial"",""time""
""fullscreenenter"",""0"",""2434""
","
","
","""event"",""trial"",""time""
""fullscreenenter"",""0"",""2434""
","
","4084.599999964237","<img style='border: 4px solid darkgrey;' src='img/tf1_14_M_ss1.jpeg'></img>","1","","exp","","1","<img src='img/tf1_14_T1_ss1_md.jpeg'></img>","0","false",""
"","html-keyboard-response","43","130150","0.0-10.0-0.14","924","""event"",""trial"",""time""
""fullscreenenter"",""0"",""2434""
","
","
","""event"",""trial"",""time""
""fullscreenenter"",""0"",""2434""
","
","null","<div style=""font-size:60px;"">+</div>","","null","fixation","2021-06-17 20:54:00.726","","","","",""
"","mars-trial","44","134637","0.0-10.0-1.14","924","""event"",""trial"",""time""
""fullscreenenter"",""0"",""2434""
","
","
","""event"",""trial"",""time""
""fullscreenenter"",""0"",""2434""
","
","3878.199999988079","<img style='border: 4px solid darkgrey;' src='img/tf1_15_M_ss2.jpeg'></img>","2","","exp","","3","<img src='img/tf1_15_T1_ss2_md.jpeg'></img>","0","false",""
"","html-keyboard-response","45","135141","0.0-10.0-0.15","924","""event"",""trial"",""time""
""fullscreenenter"",""0"",""2434""
","
","
","""event"",""trial"",""time""
""fullscreenenter"",""0"",""2434""
","
","null","<div style=""font-size:60px;"">+</div>","","null","fixation","2021-06-17 20:54:05.718","","","","",""
"","mars-trial","46","143040","0.0-10.0-1.15","924","""event"",""trial"",""time""
""fullscreenenter"",""0"",""2434""
","
","
","""event"",""trial"",""time""
""fullscreenenter"",""0"",""2434""
","
","7283.399999976158","<img style='border: 4px solid darkgrey;' src='img/tf1_16_M_ss3.jpeg'></img>","3","","exp","","0","<img src='img/tf1_16_T1_ss3_md.jpeg'></img>","0","true",""
"","html-keyboard-response","47","143544","0.0-10.0-0.16","924","""event"",""trial"",""time""
""fullscreenenter"",""0"",""2434""
","
","
","""event"",""trial"",""time""
""fullscreenenter"",""0"",""2434""
","
","null","<div style=""font-size:60px;"">+</div>","","null","fixation","2021-06-17 20:54:14.120","","","","",""
"","mars-trial","48","149309","0.0-10.0-1.16","924","""event"",""trial"",""time""
""fullscreenenter"",""0"",""2434""
","
","
","""event"",""trial"",""time""
""fullscreenenter"",""0"",""2434""
","
","5153.400000035763","<img style='border: 4px solid darkgrey;' src='img/tf1_17_M_ss1.jpeg'></img>","2","","exp","","1","<img src='img/tf1_17_T1_ss1_md.jpeg'></img>","0","false",""
"","html-keyboard-response","49","149812","0.0-10.0-0.17","924","""event"",""trial"",""time""
""fullscreenenter"",""0"",""2434""
","
","
","""event"",""trial"",""time""
""fullscreenenter"",""0"",""2434""
","
","null","<div style=""font-size:60px;"">+</div>","","null","fixation","2021-06-17 20:54:20.388","","","","",""
"","mars-trial","50","153477","0.0-10.0-1.17","924","""event"",""trial"",""time""
""fullscreenenter"",""0"",""2434""
","
","
","""event"",""trial"",""time""
""fullscreenenter"",""0"",""2434""
","
","3056.199999988079","<img style='border: 4px solid darkgrey;' src='img/tf1_18_M_ss2.jpeg'></img>","2","","exp","","2","<img src='img/tf1_18_T1_ss2_md.jpeg'></img>","0","false",""
"","html-keyboard-response","51","153978","0.0-10.0-0.18","924","""event"",""trial"",""time""
""fullscreenenter"",""0"",""2434""
","
","
","""event"",""trial"",""time""
""fullscreenenter"",""0"",""2434""
","
","null","<div style=""font-size:60px;"">+</div>","","null","fixation","2021-06-17 20:54:24.555","","","","",""
"","mars-trial","52","157109","0.0-10.0-1.18","924","""event"",""trial"",""time""
""fullscreenenter"",""0"",""2434""
","
","
","""event"",""trial"",""time""
""fullscreenenter"",""0"",""2434""
","
","2522.599999964237","<img style='border: 4px solid darkgrey;' src='img/tf1_19_M_ss3.jpeg'></img>","0","","exp","","3","<img src='img/tf1_19_T1_ss3_md.jpeg'></img>","0","false",""
"","html-keyboard-response","53","157610","0.0-10.0-0.19","924","""event"",""trial"",""time""
""fullscreenenter"",""0"",""2434""
","
","
","""event"",""trial"",""time""
""fullscreenenter"",""0"",""2434""
","
","null","<div style=""font-size:60px;"">+</div>","","null","fixation","2021-06-17 20:54:28.186","","","","",""
"","mars-trial","54","163497","0.0-10.0-1.19","924","""event"",""trial"",""time""
""fullscreenenter"",""0"",""2434""
","
","
","""event"",""trial"",""time""
""fullscreenenter"",""0"",""2434""
","
","5276.399999976158","<img style='border: 4px solid darkgrey;' src='img/tf1_20_M_ss1.jpeg'></img>","2","","exp","","1","<img src='img/tf1_20_T1_ss1_md.jpeg'></img>","0","false",""
"","html-keyboard-response","55","164002","0.0-10.0-0.20","924","""event"",""trial"",""time""
""fullscreenenter"",""0"",""2434""
","
","
","""event"",""trial"",""time""
""fullscreenenter"",""0"",""2434""
","
","null","<div style=""font-size:60px;"">+</div>","","null","fixation","2021-06-17 20:54:34.578","","","","",""
"","mars-trial","56","170641","0.0-10.0-1.20","924","""event"",""trial"",""time""
""fullscreenenter"",""0"",""2434""
","
","
","""event"",""trial"",""time""
""fullscreenenter"",""0"",""2434""
","
","6026.699999988079","<img style='border: 4px solid darkgrey;' src='img/tf1_21_M_ss2.jpeg'></img>","3","","exp","","1","<img src='img/tf1_21_T1_ss2_md.jpeg'></img>","0","false",""
"","html-keyboard-response","57","171143","0.0-10.0-0.21","924","""event"",""trial"",""time""
""fullscreenenter"",""0"",""2434""
","
","
","""event"",""trial"",""time""
""fullscreenenter"",""0"",""2434""
","
","null","<div style=""font-size:60px;"">+</div>","","null","fixation","2021-06-17 20:54:41.719","","","","",""
"","mars-trial","58","175444","0.0-10.0-1.21","924","""event"",""trial"",""time""
""fullscreenenter"",""0"",""2434""
","
","
","""event"",""trial"",""time""
""fullscreenenter"",""0"",""2434""
","
","3691","<img style='border: 4px solid darkgrey;' src='img/tf1_22_M_ss3.jpeg'></img>","1","","exp","","0","<img src='img/tf1_22_T1_ss3_md.jpeg'></img>","0","true",""
"","html-keyboard-response","59","175949","0.0-10.0-0.22","924","""event"",""trial"",""time""
""fullscreenenter"",""0"",""2434""
","
","
","""event"",""trial"",""time""
""fullscreenenter"",""0"",""2434""
","
","null","<div style=""font-size:60px;"">+</div>","","null","fixation","2021-06-17 20:54:46.525","","","","",""
"","mars-trial","60","180045","0.0-10.0-1.22","924","""event"",""trial"",""time""
""fullscreenenter"",""0"",""2434""
","
","
","""event"",""trial"",""time""
""fullscreenenter"",""0"",""2434""
","
","3483","<img style='border: 4px solid darkgrey;' src='img/tf1_23_M_ss1.jpeg'></img>","3","","exp","","1","<img src='img/tf1_23_T1_ss1_md.jpeg'></img>","0","false",""
"","html-keyboard-response","61","180550","0.0-10.0-0.23","924","""event"",""trial"",""time""
""fullscreenenter"",""0"",""2434""
","
","
","""event"",""trial"",""time""
""fullscreenenter"",""0"",""2434""
","
","null","<div style=""font-size:60px;"">+</div>","","null","fixation","2021-06-17 20:54:51.126","","","","",""
"","mars-trial","62","186454","0.0-10.0-1.23","924","""event"",""trial"",""time""
""fullscreenenter"",""0"",""2434""
","
","
","""event"",""trial"",""time""
""fullscreenenter"",""0"",""2434""
","
","5291.099999964237","<img style='border: 4px solid darkgrey;' src='img/tf1_24_M_ss2.jpeg'></img>","2","","exp","","2","<img src='img/tf1_24_T1_ss2_md.jpeg'></img>","0","false",""
"","html-keyboard-response","63","186958","0.0-10.0-0.24","924","""event"",""trial"",""time""
""fullscreenenter"",""0"",""2434""
","
","
","""event"",""trial"",""time""
""fullscreenenter"",""0"",""2434""
","
","null","<div style=""font-size:60px;"">+</div>","","null","fixation","2021-06-17 20:54:57.534","","","","",""
"","mars-trial","64","190473","0.0-10.0-1.24","924","""event"",""trial"",""time""
""fullscreenenter"",""0"",""2434""
","
","
","""event"",""trial"",""time""
""fullscreenenter"",""0"",""2434""
","
","2901.899999976158","<img style='border: 4px solid darkgrey;' src='img/tf1_25_M_ss3.jpeg'></img>","1","","exp","","2","<img src='img/tf1_25_T1_ss3_md.jpeg'></img>","0","false",""
"","html-keyboard-response","65","190978","0.0-10.0-0.25","924","""event"",""trial"",""time""
""fullscreenenter"",""0"",""2434""
","
","
","""event"",""trial"",""time""
""fullscreenenter"",""0"",""2434""
","
","null","<div style=""font-size:60px;"">+</div>","","null","fixation","2021-06-17 20:55:01.554","","","","",""
"","mars-trial","66","199086","0.0-10.0-1.25","924","""event"",""trial"",""time""
""fullscreenenter"",""0"",""2434""
","
","
","""event"",""trial"",""time""
""fullscreenenter"",""0"",""2434""
","
","7493.5","<img style='border: 4px solid darkgrey;' src='img/tf1_26_M_ss1.jpeg'></img>","3","","exp","","1","<img src='img/tf1_26_T1_ss1_md.jpeg'></img>","0","false",""
"","html-keyboard-response","67","199591","0.0-10.0-0.26","924","""event"",""trial"",""time""
""fullscreenenter"",""0"",""2434""
","
","
","""event"",""trial"",""time""
""fullscreenenter"",""0"",""2434""
","
","null","<div style=""font-size:60px;"">+</div>","","null","fixation","2021-06-17 20:55:10.167","","","","",""
"","mars-trial","68","205147","0.0-10.0-1.26","924","""event"",""trial"",""time""
""fullscreenenter"",""0"",""2434""
","
","
","""event"",""trial"",""time""
""fullscreenenter"",""0"",""2434""
","
","4946.300000011921","<img style='border: 4px solid darkgrey;' src='img/tf1_27_M_ss2.jpeg'></img>","1","","exp","","2","<img src='img/tf1_27_T1_ss2_md.jpeg'></img>","0","false",""
"","html-keyboard-response","69","205651","0.0-10.0-0.27","924","""event"",""trial"",""time""
""fullscreenenter"",""0"",""2434""
","
","
","""event"",""trial"",""time""
""fullscreenenter"",""0"",""2434""
","
","null","<div style=""font-size:60px;"">+</div>","","null","fixation","2021-06-17 20:55:16.227","","","","",""
"","mars-trial","70","211923","0.0-10.0-1.27","924","""event"",""trial"",""time""
""fullscreenenter"",""0"",""2434""
","
","
","""event"",""trial"",""time""
""fullscreenenter"",""0"",""2434""
","
","5659.899999976158","<img style='border: 4px solid darkgrey;' src='img/tf1_28_M_ss3.jpeg'></img>","0","","exp","","0","<img src='img/tf1_28_T1_ss3_md.jpeg'></img>","0","true",""
"","html-keyboard-response","71","212428","0.0-10.0-0.28","924","""event"",""trial"",""time""
""fullscreenenter"",""0"",""2434""
","
","
","""event"",""trial"",""time""
""fullscreenenter"",""0"",""2434""
","
","null","<div style=""font-size:60px;"">+</div>","","null","fixation","2021-06-17 20:55:23.004","","","","",""
"","mars-trial","72","217931","0.0-10.0-1.28","924","""event"",""trial"",""time""
""fullscreenenter"",""0"",""2434""
","
","
","""event"",""trial"",""time""
""fullscreenenter"",""0"",""2434""
","
","4892.300000011921","<img style='border: 4px solid darkgrey;' src='img/tf1_29_M_ss1.jpeg'></img>","1","","exp","","1","<img src='img/tf1_29_T1_ss1_md.jpeg'></img>","0","false",""
"","html-keyboard-response","73","218436","0.0-10.0-0.29","924","""event"",""trial"",""time""
""fullscreenenter"",""0"",""2434""
","
","
","""event"",""trial"",""time""
""fullscreenenter"",""0"",""2434""
","
","null","<div style=""font-size:60px;"">+</div>","","null","fixation","2021-06-17 20:55:29.012","","","","",""
"","mars-trial","74","224642","0.0-10.0-1.29","924","""event"",""trial"",""time""
""fullscreenenter"",""0"",""2434""
","
","
","""event"",""trial"",""time""
""fullscreenenter"",""0"",""2434""
","
","5593.400000035763","<img style='border: 4px solid darkgrey;' src='img/tf1_30_M_ss2.jpeg'></img>","1","","exp","","1","<img src='img/tf1_30_T1_ss2_md.jpeg'></img>","0","false",""
"","html-keyboard-response","75","225145","0.0-10.0-0.30","924","""event"",""trial"",""time""
""fullscreenenter"",""0"",""2434""
","
","
","""event"",""trial"",""time""
""fullscreenenter"",""0"",""2434""
","
","null","<div style=""font-size:60px;"">+</div>","","null","fixation","2021-06-17 20:55:35.721","","","","",""
"","mars-trial","76","227339","0.0-10.0-1.30","924","""event"",""trial"",""time""
""fullscreenenter"",""0"",""2434""
","
","
","""event"",""trial"",""time""
""fullscreenenter"",""0"",""2434""
","
","1581.5","<img style='border: 4px solid darkgrey;' src='img/tf1_31_M_ss3.jpeg'></img>","2","","exp","","2","<img src='img/tf1_31_T1_ss3_md.jpeg'></img>","0","false",""
"","html-keyboard-response","77","227844","0.0-10.0-0.31","924","""event"",""trial"",""time""
""fullscreenenter"",""0"",""2434""
","
","
","""event"",""trial"",""time""
""fullscreenenter"",""0"",""2434""
","
","null","<div style=""font-size:60px;"">+</div>","","null","fixation","2021-06-17 20:55:38.420","","","","",""
"","mars-trial","78","229498","0.0-10.0-1.31","924","""event"",""trial"",""time""
""fullscreenenter"",""0"",""2434""
","
","
","""event"",""trial"",""time""
""fullscreenenter"",""0"",""2434""
","
","1040.300000011921","<img style='border: 4px solid darkgrey;' src='img/tf1_32_M_ss1.jpeg'></img>","3","","exp","","1","<img src='img/tf1_32_T1_ss1_md.jpeg'></img>","0","false",""
"","html-keyboard-response","79","230000","0.0-10.0-0.32","924","""event"",""trial"",""time""
""fullscreenenter"",""0"",""2434""
","
","
","""event"",""trial"",""time""
""fullscreenenter"",""0"",""2434""
","
","null","<div style=""font-size:60px;"">+</div>","","null","fixation","2021-06-17 20:55:40.576","","","","",""
"","mars-trial","80","233756","0.0-10.0-1.32","924","""event"",""trial"",""time""
""fullscreenenter"",""0"",""2434""
","
","
","""event"",""trial"",""time""
""fullscreenenter"",""0"",""2434""
","
","3145.600000023842","<img style='border: 4px solid darkgrey;' src='img/tf1_33_M_ss2.jpeg'></img>","3","","exp","","0","<img src='img/tf1_33_T1_ss2_md.jpeg'></img>","0","true",""
"","html-keyboard-response","81","234261","0.0-10.0-0.33","924","""event"",""trial"",""time""
""fullscreenenter"",""0"",""2434""
","
","
","""event"",""trial"",""time""
""fullscreenenter"",""0"",""2434""
","
","null","<div style=""font-size:60px;"">+</div>","","null","fixation","2021-06-17 20:55:44.837","","","","",""
"","mars-trial","82","236760","0.0-10.0-1.33","924","""event"",""trial"",""time""
""fullscreenenter"",""0"",""2434""
","
","
","""event"",""trial"",""time""
""fullscreenenter"",""0"",""2434""
","
","1885.300000011921","<img style='border: 4px solid darkgrey;' src='img/tf1_34_M_ss3.jpeg'></img>","1","","exp","","0","<img src='img/tf1_34_T1_ss3_md.jpeg'></img>","0","true",""
"","html-keyboard-response","83","237263","0.0-10.0-0.34","924","""event"",""trial"",""time""
""fullscreenenter"",""0"",""2434""
","
","
","""event"",""trial"",""time""
""fullscreenenter"",""0"",""2434""
","
","null","<div style=""font-size:60px;"">+</div>","","null","fixation","2021-06-17 20:55:47.839","","","","",""
"","mars-trial","84","238944","0.0-10.0-1.34","924","""event"",""trial"",""time""
""fullscreenenter"",""0"",""2434""
","
","
","""event"",""trial"",""time""
""fullscreenenter"",""0"",""2434""
","
","1073","<img style='border: 4px solid darkgrey;' src='img/tf1_35_M_ss1.jpeg'></img>","2","","exp","","2","<img src='img/tf1_35_T1_ss1_md.jpeg'></img>","0","false",""
"","html-keyboard-response","85","239449","0.0-10.0-0.35","924","""event"",""trial"",""time""
""fullscreenenter"",""0"",""2434""
","
","
","""event"",""trial"",""time""
""fullscreenenter"",""0"",""2434""
","
","null","<div style=""font-size:60px;"">+</div>","","null","fixation","2021-06-17 20:55:50.025","","","","",""
"","mars-trial","86","240563","0.0-10.0-1.35","924","""event"",""trial"",""time""
""fullscreenenter"",""0"",""2434""
","
","
","""event"",""trial"",""time""
""fullscreenenter"",""0"",""2434""
","
","503.30000001192093","<img style='border: 4px solid darkgrey;' src='img/tf1_36_M_ss2.jpeg'></img>","3","","exp","","3","<img src='img/tf1_36_T1_ss2_md.jpeg'></img>","0","false",""
"","html-keyboard-response","87","241065","0.0-10.0-0.36","924","""event"",""trial"",""time""
""fullscreenenter"",""0"",""2434""
","
","
","""event"",""trial"",""time""
""fullscreenenter"",""0"",""2434""
","
","null","<div style=""font-size:60px;"">+</div>","","null","fixation","2021-06-17 20:55:51.641","","","","",""
"","mars-trial","88","242199","0.0-10.0-1.36","924","""event"",""trial"",""time""
""fullscreenenter"",""0"",""2434""
","
","
","""event"",""trial"",""time""
""fullscreenenter"",""0"",""2434""
","
","527.3999999761581","<img style='border: 4px solid darkgrey;' src='img/tf1_37_M_ss3.jpeg'></img>","2","","exp","","0","<img src='img/tf1_37_T1_ss3_md.jpeg'></img>","0","true",""
"","html-keyboard-response","89","242702","0.0-10.0-0.37","924","""event"",""trial"",""time""
""fullscreenenter"",""0"",""2434""
","
","
","""event"",""trial"",""time""
""fullscreenenter"",""0"",""2434""
","
","null","<div style=""font-size:60px;"">+</div>","","null","fixation","2021-06-17 20:55:53.278","","","","",""
"","mars-trial","90","243911","0.0-10.0-1.37","924","""event"",""trial"",""time""
""fullscreenenter"",""0"",""2434""
","
","
","""event"",""trial"",""time""
""fullscreenenter"",""0"",""2434""
","
","598.8000000119209","<img style='border: 4px solid darkgrey;' src='img/tf1_38_M_ss1.jpeg'></img>","3","","exp","","1","<img src='img/tf1_38_T1_ss1_md.jpeg'></img>","0","false",""
"","html-keyboard-response","91","244414","0.0-10.0-0.38","924","""event"",""trial"",""time""
""fullscreenenter"",""0"",""2434""
","
","
","""event"",""trial"",""time""
""fullscreenenter"",""0"",""2434""
","
","null","<div style=""font-size:60px;"">+</div>","","null","fixation","2021-06-17 20:55:54.990","","","","",""
"","mars-trial","92","245929","0.0-10.0-1.38","924","""event"",""trial"",""time""
""fullscreenenter"",""0"",""2434""
","
","
","""event"",""trial"",""time""
""fullscreenenter"",""0"",""2434""
","
","903.5999999642372","<img style='border: 4px solid darkgrey;' src='img/tf1_39_M_ss2.jpeg'></img>","1","","exp","","3","<img src='img/tf1_39_T1_ss2_md.jpeg'></img>","0","false",""
"","html-keyboard-response","93","246435","0.0-10.0-0.39","924","""event"",""trial"",""time""
""fullscreenenter"",""0"",""2434""
","
","
","""event"",""trial"",""time""
""fullscreenenter"",""0"",""2434""
","
","null","<div style=""font-size:60px;"">+</div>","","null","fixation","2021-06-17 20:55:57.011","","","","",""
"","mars-trial","94","251506","0.0-10.0-1.39","924","""event"",""trial"",""time""
""fullscreenenter"",""0"",""2434""
","
","
","""event"",""trial"",""time""
""fullscreenenter"",""0"",""2434""
","
","4459.5","<img style='border: 4px solid darkgrey;' src='img/tf1_40_M_ss3.jpeg'></img>","0","","exp","","2","<img src='img/tf1_40_T1_ss3_md.jpeg'></img>","0","false",""
"","html-keyboard-response","95","252011","0.0-10.0-0.40","924","""event"",""trial"",""time""
""fullscreenenter"",""0"",""2434""
","
","
","""event"",""trial"",""time""
""fullscreenenter"",""0"",""2434""
","
","null","<div style=""font-size:60px;"">+</div>","","null","fixation","2021-06-17 20:56:02.587","","","","",""
"","mars-trial","96","254653","0.0-10.0-1.40","924","""event"",""trial"",""time""
""fullscreenenter"",""0"",""2434""
","
","
","""event"",""trial"",""time""
""fullscreenenter"",""0"",""2434""
","
","2028.4000000357628","<img style='border: 4px solid darkgrey;' src='img/tf1_41_M_ss1.jpeg'></img>","3","","exp","","0","<img src='img/tf1_41_T1_ss1_md.jpeg'></img>","0","true",""
"","html-keyboard-response","97","255154","0.0-10.0-0.41","924","""event"",""trial"",""time""
""fullscreenenter"",""0"",""2434""
","
","
","""event"",""trial"",""time""
""fullscreenenter"",""0"",""2434""
","
","null","<div style=""font-size:60px;"">+</div>","","null","fixation","2021-06-17 20:56:05.730","","","","",""
"","mars-trial","98","260292","0.0-10.0-1.41","924","""event"",""trial"",""time""
""fullscreenenter"",""0"",""2434""
","
","
","""event"",""trial"",""time""
""fullscreenenter"",""0"",""2434""
","
","4523.400000035763","<img style='border: 4px solid darkgrey;' src='img/tf1_42_M_ss2.jpeg'></img>","2","","exp","","1","<img src='img/tf1_42_T1_ss2_md.jpeg'></img>","0","false",""
"","html-keyboard-response","99","260797","0.0-10.0-0.42","924","""event"",""trial"",""time""
""fullscreenenter"",""0"",""2434""
","
","
","""event"",""trial"",""time""
""fullscreenenter"",""0"",""2434""
","
","null","<div style=""font-size:60px;"">+</div>","","null","fixation","2021-06-17 20:56:11.373","","","","",""
"","mars-trial","100","265810","0.0-10.0-1.42","924","""event"",""trial"",""time""
""fullscreenenter"",""0"",""2434""
","
","
","""event"",""trial"",""time""
""fullscreenenter"",""0"",""2434""
","
","4400.800000011921","<img style='border: 4px solid darkgrey;' src='img/tf1_43_M_ss3.jpeg'></img>","0","","exp","","2","<img src='img/tf1_43_T1_ss3_md.jpeg'></img>","0","false",""
"","html-keyboard-response","101","266315","0.0-10.0-0.43","924","""event"",""trial"",""time""
""fullscreenenter"",""0"",""2434""
","
","
","""event"",""trial"",""time""
""fullscreenenter"",""0"",""2434""
","
","null","<div style=""font-size:60px;"">+</div>","","null","fixation","2021-06-17 20:56:16.891","","","","",""
"","mars-trial","102","269836","0.0-10.0-1.43","924","""event"",""trial"",""time""
""fullscreenenter"",""0"",""2434""
","
","
","""event"",""trial"",""time""
""fullscreenenter"",""0"",""2434""
","
","2908.800000011921","<img style='border: 4px solid darkgrey;' src='img/tf1_44_M_ss1.jpeg'></img>","2","","exp","","3","<img src='img/tf1_44_T1_ss1_md.jpeg'></img>","0","false",""
"","html-keyboard-response","103","270340","0.0-10.0-0.44","924","""event"",""trial"",""time""
""fullscreenenter"",""0"",""2434""
","
","
","""event"",""trial"",""time""
""fullscreenenter"",""0"",""2434""
","
","null","<div style=""font-size:60px;"">+</div>","","null","fixation","2021-06-17 20:56:20.916","","","","",""
"","mars-trial","104","272074","0.0-10.0-1.44","924","""event"",""trial"",""time""
""fullscreenenter"",""0"",""2434""
","
","
","""event"",""trial"",""time""
""fullscreenenter"",""0"",""2434""
","
","1120.6000000238419","<img style='border: 4px solid darkgrey;' src='img/tf1_45_M_ss2.jpeg'></img>","3","","exp","","2","<img src='img/tf1_45_T1_ss2_md.jpeg'></img>","0","false",""
"","html-keyboard-response","105","272576","0.0-10.0-0.45","924","""event"",""trial"",""time""
""fullscreenenter"",""0"",""2434""
","
","
","""event"",""trial"",""time""
""fullscreenenter"",""0"",""2434""
","
","null","<div style=""font-size:60px;"">+</div>","","null","fixation","2021-06-17 20:56:23.152","","","","",""
"","mars-trial","106","274071","0.0-10.0-1.45","924","""event"",""trial"",""time""
""fullscreenenter"",""0"",""2434""
","
","
","""event"",""trial"",""time""
""fullscreenenter"",""0"",""2434""
","
","886.5","<img style='border: 4px solid darkgrey;' src='img/tf1_46_M_ss3.jpeg'></img>","2","","exp","","0","<img src='img/tf1_46_T1_ss3_md.jpeg'></img>","0","true",""
"","html-keyboard-response","107","274573","0.0-10.0-0.46","924","""event"",""trial"",""time""
""fullscreenenter"",""0"",""2434""
","
","
","""event"",""trial"",""time""
""fullscreenenter"",""0"",""2434""
","
","null","<div style=""font-size:60px;"">+</div>","","null","fixation","2021-06-17 20:56:25.149","","","","",""
"","mars-trial","108","275973","0.0-10.0-1.46","924","""event"",""trial"",""time""
""fullscreenenter"",""0"",""2434""
","
","
","""event"",""trial"",""time""
""fullscreenenter"",""0"",""2434""
","
","793","<img style='border: 4px solid darkgrey;' src='img/tf1_47_M_ss1.jpeg'></img>","3","","exp","","2","<img src='img/tf1_47_T1_ss1_md.jpeg'></img>","0","false",""
"","html-keyboard-response","109","276476","0.0-10.0-0.47","924","""event"",""trial"",""time""
""fullscreenenter"",""0"",""2434""
","
","
","""event"",""trial"",""time""
""fullscreenenter"",""0"",""2434""
","
","null","<div style=""font-size:60px;"">+</div>","","null","fixation","2021-06-17 20:56:27.052","","","","",""
"","mars-trial","110","277493","0.0-10.0-1.47","924","""event"",""trial"",""time""
""fullscreenenter"",""0"",""2434""
","
","
","""event"",""trial"",""time""
""fullscreenenter"",""0"",""2434""
","
","406.7999999523163","<img style='border: 4px solid darkgrey;' src='img/tf1_48_M_ss2.jpeg'></img>","2","","exp","","2","<img src='img/tf1_48_T1_ss2_md.jpeg'></img>","0","false",""
"","html-keyboard-response","111","277997","0.0-10.0-0.48","924","""event"",""trial"",""time""
""fullscreenenter"",""0"",""2434""
","
","
","""event"",""trial"",""time""
""fullscreenenter"",""0"",""2434""
","
","null","<div style=""font-size:60px;"">+</div>","","null","fixation","2021-06-17 20:56:28.573","","","","",""
"","mars-trial","112","285740","0.0-10.0-1.48","924","""event"",""trial"",""time""
""fullscreenenter"",""0"",""2434""
","
","
","""event"",""trial"",""time""
""fullscreenenter"",""0"",""2434""
","
","7128.100000023842","<img style='border: 4px solid darkgrey;' src='img/tf1_49_M_ss3.jpeg'></img>","1","","exp","","2","<img src='img/tf1_49_T1_ss3_md.jpeg'></img>","0","false",""
"","html-keyboard-response","113","286244","0.0-10.0-0.49","924","""event"",""trial"",""time""
""fullscreenenter"",""0"",""2434""
","
","
","""event"",""trial"",""time""
""fullscreenenter"",""0"",""2434""
","
","null","<div style=""font-size:60px;"">+</div>","","null","fixation","2021-06-17 20:56:36.820","","","","",""
"","mars-trial","114","290868","0.0-10.0-1.49","924","""event"",""trial"",""time""
""fullscreenenter"",""0"",""2434""
","
","
","""event"",""trial"",""time""
""fullscreenenter"",""0"",""2434""
","
","4008.300000011921","<img style='border: 4px solid darkgrey;' src='img/tf1_50_M_ss1.jpeg'></img>","3","","exp","","3","<img src='img/tf1_50_T1_ss1_md.jpeg'></img>","0","false",""
"","html-keyboard-response","115","291373","0.0-10.0-0.50","924","""event"",""trial"",""time""
""fullscreenenter"",""0"",""2434""
","
","
","""event"",""trial"",""time""
""fullscreenenter"",""0"",""2434""
","
","null","<div style=""font-size:60px;"">+</div>","","null","fixation","2021-06-17 20:56:41.949","","","","",""
"","mars-trial","116","295285","0.0-10.0-1.50","924","""event"",""trial"",""time""
""fullscreenenter"",""0"",""2434""
","
","
","""event"",""trial"",""time""
""fullscreenenter"",""0"",""2434""
","
","3301.199999988079","<img style='border: 4px solid darkgrey;' src='img/tf1_51_M_ss2.jpeg'></img>","3","","exp","","0","<img src='img/tf1_51_T1_ss2_md.jpeg'></img>","0","true",""
"","html-keyboard-response","117","295790","0.0-10.0-0.51","924","""event"",""trial"",""time""
""fullscreenenter"",""0"",""2434""
","
","
","""event"",""trial"",""time""
""fullscreenenter"",""0"",""2434""
","
","null","<div style=""font-size:60px;"">+</div>","","null","fixation","2021-06-17 20:56:46.366","","","","",""
"","mars-trial","118","301309","0.0-10.0-1.51","924","""event"",""trial"",""time""
""fullscreenenter"",""0"",""2434""
","
","
","""event"",""trial"",""time""
""fullscreenenter"",""0"",""2434""
","
","4903.700000047684","<img style='border: 4px solid darkgrey;' src='img/tf1_52_M_ss3.jpeg'></img>","0","","exp","","2","<img src='img/tf1_52_T1_ss3_md.jpeg'></img>","0","false",""
"","html-keyboard-response","119","301816","0.0-10.0-0.52","924","""event"",""trial"",""time""
""fullscreenenter"",""0"",""2434""
","
","
","""event"",""trial"",""time""
""fullscreenenter"",""0"",""2434""
","
","null","<div style=""font-size:60px;"">+</div>","","null","fixation","2021-06-17 20:56:52.392","","","","",""
"","mars-trial","120","307857","0.0-10.0-1.52","924","""event"",""trial"",""time""
""fullscreenenter"",""0"",""2434""
","
","
","""event"",""trial"",""time""
""fullscreenenter"",""0"",""2434""
","
","5426.300000011921","<img style='border: 4px solid darkgrey;' src='img/tf1_53_M_ss1.jpeg'></img>","3","","exp","","1","<img src='img/tf1_53_T1_ss1_md.jpeg'></img>","0","false",""
"","html-keyboard-response","121","308364","0.0-10.0-0.53","924","""event"",""trial"",""time""
""fullscreenenter"",""0"",""2434""
","
","
","""event"",""trial"",""time""
""fullscreenenter"",""0"",""2434""
","
","null","<div style=""font-size:60px;"">+</div>","","null","fixation","2021-06-17 20:56:58.940","","","","",""
"","mars-trial","122","311099","0.0-10.0-1.53","924","""event"",""trial"",""time""
""fullscreenenter"",""0"",""2434""
","
","
","""event"",""trial"",""time""
""fullscreenenter"",""0"",""2434""
","
","2121.399999976158","<img style='border: 4px solid darkgrey;' src='img/tf1_54_M_ss2.jpeg'></img>","2","","exp","","2","<img src='img/tf1_54_T1_ss2_md.jpeg'></img>","0","false",""
"","html-keyboard-response","123","311603","0.0-10.0-0.54","924","""event"",""trial"",""time""
""fullscreenenter"",""0"",""2434""
","
","
","""event"",""trial"",""time""
""fullscreenenter"",""0"",""2434""
","
","null","<div style=""font-size:60px;"">+</div>","","null","fixation","2021-06-17 20:57:02.180","","","","",""
"","mars-trial","124","314968","0.0-10.0-1.54","924","""event"",""trial"",""time""
""fullscreenenter"",""0"",""2434""
","
","
","""event"",""trial"",""time""
""fullscreenenter"",""0"",""2434""
","
","2755.300000011921","<img style='border: 4px solid darkgrey;' src='img/tf1_55_M_ss3.jpeg'></img>","0","","exp","","1","<img src='img/tf1_55_T1_ss3_md.jpeg'></img>","0","false",""
"","html-keyboard-response","125","315473","0.0-10.0-0.55","924","""event"",""trial"",""time""
""fullscreenenter"",""0"",""2434""
","
","
","""event"",""trial"",""time""
""fullscreenenter"",""0"",""2434""
","
","null","<div style=""font-size:60px;"">+</div>","","null","fixation","2021-06-17 20:57:06.049","","","","",""
"","mars-trial","126","320648","0.0-10.0-1.55","924","""event"",""trial"",""time""
""fullscreenenter"",""0"",""2434""
","
","
","""event"",""trial"",""time""
""fullscreenenter"",""0"",""2434""
","
","4563.899999976158","<img style='border: 4px solid darkgrey;' src='img/tf1_56_M_ss1.jpeg'></img>","1","","exp","","0","<img src='img/tf1_56_T1_ss1_md.jpeg'></img>","0","true",""
"","html-keyboard-response","127","321152","0.0-10.0-0.56","924","""event"",""trial"",""time""
""fullscreenenter"",""0"",""2434""
","
","
","""event"",""trial"",""time""
""fullscreenenter"",""0"",""2434""
","
","null","<div style=""font-size:60px;"">+</div>","","null","fixation","2021-06-17 20:57:11.728","","","","",""
"","mars-trial","128","325083","0.0-10.0-1.56","924","""event"",""trial"",""time""
""fullscreenenter"",""0"",""2434""
","
","
","""event"",""trial"",""time""
""fullscreenenter"",""0"",""2434""
","
","3318","<img style='border: 4px solid darkgrey;' src='img/tf1_57_M_ss2.jpeg'></img>","3","","exp","","2","<img src='img/tf1_57_T1_ss2_md.jpeg'></img>","0","false",""
"","html-keyboard-response","129","325586","0.0-10.0-0.57","924","""event"",""trial"",""time""
""fullscreenenter"",""0"",""2434""
","
","
","""event"",""trial"",""time""
""fullscreenenter"",""0"",""2434""
","
","null","<div style=""font-size:60px;"">+</div>","","null","fixation","2021-06-17 20:57:16.162","","","","",""
"","mars-trial","130","326697","0.0-10.0-1.57","924","""event"",""trial"",""time""
""fullscreenenter"",""0"",""2434""
","
","
","""event"",""trial"",""time""
""fullscreenenter"",""0"",""2434""
","
","502.2000000476837","<img style='border: 4px solid darkgrey;' src='img/tf1_58_M_ss3.jpeg'></img>","2","","exp","","3","<img src='img/tf1_58_T1_ss3_md.jpeg'></img>","0","false",""
"","html-keyboard-response","131","327198","0.0-10.0-0.58","924","""event"",""trial"",""time""
""fullscreenenter"",""0"",""2434""
","
","
","""event"",""trial"",""time""
""fullscreenenter"",""0"",""2434""
","
","null","<div style=""font-size:60px;"">+</div>","","null","fixation","2021-06-17 20:57:17.774","","","","",""
"","mars-trial","132","328761","0.0-10.0-1.58","924","""event"",""trial"",""time""
""fullscreenenter"",""0"",""2434""
","
","
","""event"",""trial"",""time""
""fullscreenenter"",""0"",""2434""
","
","953.1999999880791","<img style='border: 4px solid darkgrey;' src='img/tf1_59_M_ss1.jpeg'></img>","1","","exp","","1","<img src='img/tf1_59_T1_ss1_md.jpeg'></img>","0","false",""
"","html-keyboard-response","133","329265","0.0-10.0-0.59","924","""event"",""trial"",""time""
""fullscreenenter"",""0"",""2434""
","
","
","""event"",""trial"",""time""
""fullscreenenter"",""0"",""2434""
","
","null","<div style=""font-size:60px;"">+</div>","","null","fixation","2021-06-17 20:57:19.841","","","","",""
"","mars-trial","134","330627","0.0-10.0-1.59","924","""event"",""trial"",""time""
""fullscreenenter"",""0"",""2434""
","
","
","""event"",""trial"",""time""
""fullscreenenter"",""0"",""2434""
","
","755.6999999880791","<img style='border: 4px solid darkgrey;' src='img/tf1_60_M_ss2.jpeg'></img>","0","","exp","","1","<img src='img/tf1_60_T1_ss2_md.jpeg'></img>","0","false",""
"","html-keyboard-response","135","331132","0.0-10.0-0.60","924","""event"",""trial"",""time""
""fullscreenenter"",""0"",""2434""
","
","
","""event"",""trial"",""time""
""fullscreenenter"",""0"",""2434""
","
","null","<div style=""font-size:60px;"">+</div>","","null","fixation","2021-06-17 20:57:21.708","","","","",""
"","mars-trial","136","333893","0.0-10.0-1.60","924","""event"",""trial"",""time""
""fullscreenenter"",""0"",""2434""
","
","
","""event"",""trial"",""time""
""fullscreenenter"",""0"",""2434""
","
","2152.5","<img style='border: 4px solid darkgrey;' src='img/tf1_61_M_ss3.jpeg'></img>","0","","exp","","0","<img src='img/tf1_61_T1_ss3_md.jpeg'></img>","0","true",""
"","html-keyboard-response","137","334398","0.0-10.0-0.61","924","""event"",""trial"",""time""
""fullscreenenter"",""0"",""2434""
","
","
","""event"",""trial"",""time""
""fullscreenenter"",""0"",""2434""
","
","null","<div style=""font-size:60px;"">+</div>","","null","fixation","2021-06-17 20:57:24.974","","","","",""
"","mars-trial","138","335953","0.0-10.0-1.61","924","""event"",""trial"",""time""
""fullscreenenter"",""0"",""2434""
","
","
","""event"",""trial"",""time""
""fullscreenenter"",""0"",""2434""
","
","945.5","<img style='border: 4px solid darkgrey;' src='img/tf1_62_M_ss1.jpeg'></img>","1","","exp","","3","<img src='img/tf1_62_T1_ss1_md.jpeg'></img>","0","false",""
"","html-keyboard-response","139","336455","0.0-10.0-0.62","924","""event"",""trial"",""time""
""fullscreenenter"",""0"",""2434""
","
","
","""event"",""trial"",""time""
""fullscreenenter"",""0"",""2434""
","
","null","<div style=""font-size:60px;"">+</div>","","null","fixation","2021-06-17 20:57:27.031","","","","",""
"","mars-trial","140","337522","0.0-10.0-1.62","924","""event"",""trial"",""time""
""fullscreenenter"",""0"",""2434""
","
","
","""event"",""trial"",""time""
""fullscreenenter"",""0"",""2434""
","
","457.69999998807907","<img style='border: 4px solid darkgrey;' src='img/tf1_63_M_ss2.jpeg'></img>","3","","exp","","2","<img src='img/tf1_63_T1_ss2_md.jpeg'></img>","0","false",""
"","html-keyboard-response","141","338026","0.0-10.0-0.63","924","""event"",""trial"",""time""
""fullscreenenter"",""0"",""2434""
","
","
","""event"",""trial"",""time""
""fullscreenenter"",""0"",""2434""
","
","null","<div style=""font-size:60px;"">+</div>","","null","fixation","2021-06-17 20:57:28.602","","","","",""
"","mars-trial","142","339193","0.0-10.0-1.63","924","""event"",""trial"",""time""
""fullscreenenter"",""0"",""2434""
","
","
","""event"",""trial"",""time""
""fullscreenenter"",""0"",""2434""
","
","558.4000000357628","<img style='border: 4px solid darkgrey;' src='img/tf1_64_M_ss3.jpeg'></img>","2","","exp","","3","<img src='img/tf1_64_T1_ss3_md.jpeg'></img>","0","false",""
"","html-keyboard-response","143","339695","0.0-10.0-0.64","924","""event"",""trial"",""time""
""fullscreenenter"",""0"",""2434""
","
","
","""event"",""trial"",""time""
""fullscreenenter"",""0"",""2434""
","
","null","<div style=""font-size:60px;"">+</div>","","null","fixation","2021-06-17 20:57:30.271","","","","",""
"","mars-trial","144","341228","0.0-10.0-1.64","924","""event"",""trial"",""time""
""fullscreenenter"",""0"",""2434""
","
","
","""event"",""trial"",""time""
""fullscreenenter"",""0"",""2434""
","
","922","<img style='border: 4px solid darkgrey;' src='img/tf1_65_M_ss1.jpeg'></img>","0","","exp","","0","<img src='img/tf1_65_T1_ss1_md.jpeg'></img>","0","true",""
"","html-keyboard-response","145","341730","0.0-10.0-0.65","924","""event"",""trial"",""time""
""fullscreenenter"",""0"",""2434""
","
","
","""event"",""trial"",""time""
""fullscreenenter"",""0"",""2434""
","
","null","<div style=""font-size:60px;"">+</div>","","null","fixation","2021-06-17 20:57:32.306","","","","",""
"","mars-trial","146","347543","0.0-10.0-1.65","924","""event"",""trial"",""time""
""fullscreenenter"",""0"",""2434""
","
","
","""event"",""trial"",""time""
""fullscreenenter"",""0"",""2434""
","
","5202.800000011921","<img style='border: 4px solid darkgrey;' src='img/tf1_66_M_ss2.jpeg'></img>","3","","exp","","0","<img src='img/tf1_66_T1_ss2_md.jpeg'></img>","0","true",""
"","html-keyboard-response","147","348048","0.0-10.0-0.66","924","""event"",""trial"",""time""
""fullscreenenter"",""0"",""2434""
","
","
","""event"",""trial"",""time""
""fullscreenenter"",""0"",""2434""
","
","null","<div style=""font-size:60px;"">+</div>","","null","fixation","2021-06-17 20:57:38.624","","","","",""
"","mars-trial","148","352754","0.0-10.0-1.66","924","""event"",""trial"",""time""
""fullscreenenter"",""0"",""2434""
","
","
","""event"",""trial"",""time""
""fullscreenenter"",""0"",""2434""
","
","4093.100000023842","<img style='border: 4px solid darkgrey;' src='img/tf1_67_M_ss3.jpeg'></img>","1","","exp","","0","<img src='img/tf1_67_T1_ss3_md.jpeg'></img>","0","true",""
"","html-keyboard-response","149","353256","0.0-10.0-0.67","924","""event"",""trial"",""time""
""fullscreenenter"",""0"",""2434""
","
","
","""event"",""trial"",""time""
""fullscreenenter"",""0"",""2434""
","
","null","<div style=""font-size:60px;"">+</div>","","null","fixation","2021-06-17 20:57:43.832","","","","",""
"","mars-trial","150","357314","0.0-10.0-1.67","924","""event"",""trial"",""time""
""fullscreenenter"",""0"",""2434""
","
","
","""event"",""trial"",""time""
""fullscreenenter"",""0"",""2434""
","
","3449.5","<img style='border: 4px solid darkgrey;' src='img/tf1_68_M_ss1.jpeg'></img>","0","","exp","","0","<img src='img/tf1_68_T1_ss1_md.jpeg'></img>","0","true",""
"","html-keyboard-response","151","357818","0.0-10.0-0.68","924","""event"",""trial"",""time""
""fullscreenenter"",""0"",""2434""
","
","
","""event"",""trial"",""time""
""fullscreenenter"",""0"",""2434""
","
","null","<div style=""font-size:60px;"">+</div>","","null","fixation","2021-06-17 20:57:48.394","","","","",""
"","mars-trial","152","360866","0.0-10.0-1.68","924","""event"",""trial"",""time""
""fullscreenenter"",""0"",""2434""
","
","
","""event"",""trial"",""time""
""fullscreenenter"",""0"",""2434""
","
","2435.400000035763","<img style='border: 4px solid darkgrey;' src='img/tf1_69_M_ss2.jpeg'></img>","1","","exp","","2","<img src='img/tf1_69_T1_ss2_md.jpeg'></img>","0","false",""
"","html-keyboard-response","153","361370","0.0-10.0-0.69","924","""event"",""trial"",""time""
""fullscreenenter"",""0"",""2434""
","
","
","""event"",""trial"",""time""
""fullscreenenter"",""0"",""2434""
","
","null","<div style=""font-size:60px;"">+</div>","","null","fixation","2021-06-17 20:57:51.946","","","","",""
"","mars-trial","154","363068","0.0-10.0-1.69","924","""event"",""trial"",""time""
""fullscreenenter"",""0"",""2434""
","
","
","""event"",""trial"",""time""
""fullscreenenter"",""0"",""2434""
","
","1087.5999999642372","<img style='border: 4px solid darkgrey;' src='img/tf1_70_M_ss3.jpeg'></img>","3","","exp","","3","<img src='img/tf1_70_T1_ss3_md.jpeg'></img>","0","false",""
"","html-keyboard-response","155","363569","0.0-10.0-0.70","924","""event"",""trial"",""time""
""fullscreenenter"",""0"",""2434""
","
","
","""event"",""trial"",""time""
""fullscreenenter"",""0"",""2434""
","
","null","<div style=""font-size:60px;"">+</div>","","null","fixation","2021-06-17 20:57:54.146","","","","",""
"","mars-trial","156","365246","0.0-10.0-1.70","924","""event"",""trial"",""time""
""fullscreenenter"",""0"",""2434""
","
","
","""event"",""trial"",""time""
""fullscreenenter"",""0"",""2434""
","
","1065.5999999642372","<img style='border: 4px solid darkgrey;' src='img/tf1_71_M_ss1.jpeg'></img>","2","","exp","","0","<img src='img/tf1_71_T1_ss1_md.jpeg'></img>","0","true",""
"","html-keyboard-response","157","365752","0.0-10.0-0.71","924","""event"",""trial"",""time""
""fullscreenenter"",""0"",""2434""
","
","
","""event"",""trial"",""time""
""fullscreenenter"",""0"",""2434""
","
","null","<div style=""font-size:60px;"">+</div>","","null","fixation","2021-06-17 20:57:56.328","","","","",""
"","mars-trial","158","367819","0.0-10.0-1.71","924","""event"",""trial"",""time""
""fullscreenenter"",""0"",""2434""
","
","
","""event"",""trial"",""time""
""fullscreenenter"",""0"",""2434""
","
","1457.800000011921","<img style='border: 4px solid darkgrey;' src='img/tf1_72_M_ss2.jpeg'></img>","3","","exp","","3","<img src='img/tf1_72_T1_ss2_md.jpeg'></img>","0","false",""
"","html-keyboard-response","159","368323","0.0-10.0-0.72","924","""event"",""trial"",""time""
""fullscreenenter"",""0"",""2434""
","
","
","""event"",""trial"",""time""
""fullscreenenter"",""0"",""2434""
","
","null","<div style=""font-size:60px;"">+</div>","","null","fixation","2021-06-17 20:57:58.900","","","","",""
"","mars-trial","160","370062","0.0-10.0-1.72","924","""event"",""trial"",""time""
""fullscreenenter"",""0"",""2434""
","
","
","""event"",""trial"",""time""
""fullscreenenter"",""0"",""2434""
","
","1124.199999988079","<img style='border: 4px solid darkgrey;' src='img/tf1_73_M_ss3.jpeg'></img>","1","","exp","","1","<img src='img/tf1_73_T1_ss3_md.jpeg'></img>","0","false",""
"","html-keyboard-response","161","370566","0.0-10.0-0.73","924","""event"",""trial"",""time""
""fullscreenenter"",""0"",""2434""
","
","
","""event"",""trial"",""time""
""fullscreenenter"",""0"",""2434""
","
","null","<div style=""font-size:60px;"">+</div>","","null","fixation","2021-06-17 20:58:01.142","","","","",""
"","mars-trial","162","372794","0.0-10.0-1.73","924","""event"",""trial"",""time""
""fullscreenenter"",""0"",""2434""
","
","
","""event"",""trial"",""time""
""fullscreenenter"",""0"",""2434""
","
","1613.3999999761581","<img style='border: 4px solid darkgrey;' src='img/tf1_74_M_ss1.jpeg'></img>","2","","exp","","2","<img src='img/tf1_74_T1_ss1_md.jpeg'></img>","0","false",""
"","html-keyboard-response","163","373298","0.0-10.0-0.74","924","""event"",""trial"",""time""
""fullscreenenter"",""0"",""2434""
","
","
","""event"",""trial"",""time""
""fullscreenenter"",""0"",""2434""
","
","null","<div style=""font-size:60px;"">+</div>","","null","fixation","2021-06-17 20:58:03.875","","","","",""
"","mars-trial","164","378955","0.0-10.0-1.74","924","""event"",""trial"",""time""
""fullscreenenter"",""0"",""2434""
","
","
","""event"",""trial"",""time""
""fullscreenenter"",""0"",""2434""
","
","5044.200000047684","<img style='border: 4px solid darkgrey;' src='img/tf1_75_M_ss2.jpeg'></img>","2","","exp","","2","<img src='img/tf1_75_T1_ss2_md.jpeg'></img>","0","false",""
"","html-keyboard-response","165","379460","0.0-10.0-0.75","924","""event"",""trial"",""time""
""fullscreenenter"",""0"",""2434""
","
","
","""event"",""trial"",""time""
""fullscreenenter"",""0"",""2434""
","
","null","<div style=""font-size:60px;"">+</div>","","null","fixation","2021-06-17 20:58:10.036","","","","",""
"","mars-trial","166","383013","0.0-10.0-1.75","924","""event"",""trial"",""time""
""fullscreenenter"",""0"",""2434""
","
","
","""event"",""trial"",""time""
""fullscreenenter"",""0"",""2434""
","
","2944.900000035763","<img style='border: 4px solid darkgrey;' src='img/tf1_76_M_ss3.jpeg'></img>","2","","exp","","2","<img src='img/tf1_76_T1_ss3_md.jpeg'></img>","0","false",""
"","html-keyboard-response","167","383518","0.0-10.0-0.76","924","""event"",""trial"",""time""
""fullscreenenter"",""0"",""2434""
","
","
","""event"",""trial"",""time""
""fullscreenenter"",""0"",""2434""
","
","null","<div style=""font-size:60px;"">+</div>","","null","fixation","2021-06-17 20:58:14.094","","","","",""
"","mars-trial","168","390153","0.0-10.0-1.76","924","""event"",""trial"",""time""
""fullscreenenter"",""0"",""2434""
","
","
","""event"",""trial"",""time""
""fullscreenenter"",""0"",""2434""
","
","6023.099999964237","<img style='border: 4px solid darkgrey;' src='img/tf1_77_M_ss1.jpeg'></img>","3","","exp","","1","<img src='img/tf1_77_T1_ss1_md.jpeg'></img>","0","false",""
"","html-keyboard-response","169","390658","0.0-10.0-0.77","924","""event"",""trial"",""time""
""fullscreenenter"",""0"",""2434""
","
","
","""event"",""trial"",""time""
""fullscreenenter"",""0"",""2434""
","
","null","<div style=""font-size:60px;"">+</div>","","null","fixation","2021-06-17 20:58:21.234","","","","",""
"","mars-trial","170","396473","0.0-10.0-1.77","924","""event"",""trial"",""time""
""fullscreenenter"",""0"",""2434""
","
","
","""event"",""trial"",""time""
""fullscreenenter"",""0"",""2434""
","
","5200.800000011921","<img style='border: 4px solid darkgrey;' src='img/tf1_78_M_ss2.jpeg'></img>","2","","exp","","2","<img src='img/tf1_78_T1_ss2_md.jpeg'></img>","0","false",""
"","html-keyboard-response","171","396978","0.0-10.0-0.78","924","""event"",""trial"",""time""
""fullscreenenter"",""0"",""2434""
","
","
","""event"",""trial"",""time""
""fullscreenenter"",""0"",""2434""
","
","null","<div style=""font-size:60px;"">+</div>","","null","fixation","2021-06-17 20:58:27.554","","","","",""
"","mars-trial","172","403515","0.0-10.0-1.78","924","""event"",""trial"",""time""
""fullscreenenter"",""0"",""2434""
","
","
","""event"",""trial"",""time""
""fullscreenenter"",""0"",""2434""
","
","5923.800000011921","<img style='border: 4px solid darkgrey;' src='img/tf1_79_M_ss3.jpeg'></img>","0","","exp","","0","<img src='img/tf1_79_T1_ss3_md.jpeg'></img>","0","true",""
"","html-keyboard-response","173","404017","0.0-10.0-0.79","924","""event"",""trial"",""time""
""fullscreenenter"",""0"",""2434""
","
","
","""event"",""trial"",""time""
""fullscreenenter"",""0"",""2434""
","
","null","<div style=""font-size:60px;"">+</div>","","null","fixation","2021-06-17 20:58:34.594","","","","",""
"","mars-trial","174","408184","0.0-10.0-1.79","924","""event"",""trial"",""time""
""fullscreenenter"",""0"",""2434""
","
","
","""event"",""trial"",""time""
""fullscreenenter"",""0"",""2434""
","
","3554.099999964237","<img style='border: 4px solid darkgrey;' src='img/tf1_80_M_ss1.jpeg'></img>","1","","exp","","1","<img src='img/tf1_80_T1_ss1_md.jpeg'></img>","0","false",""
"","audio-button-response","175","411506","0.0-11.0","924","""event"",""trial"",""time""
""fullscreenenter"",""0"",""2434""
","
","
","""event"",""trial"",""time""
""fullscreenenter"",""0"",""2434""
","
","3318.7999999523163","audio/mars_instructions_slide5.wav","0","","","","","","","",""
