"success","trial_type","trial_index","time_elapsed","internal_node_id","subject_id","interactions","blur_events","focus_events","fullscreenenter_events","fullscreenexit_events","rt","stimulus","button_pressed","key_press","part","timestamp","unshuffled_button","correct_response","correct_button","correct","value"
"true","fullscreen","0","3572","0.0-0.0","543","""event"",""trial"",""time""
""fullscreenenter"",""0"",""2593""
","
","
","""event"",""trial"",""time""
""fullscreenenter"",""0"",""2593""
","
","","","","","","","","","","",""
"","pavlovia","1","3580","0.0-1.0","543","""event"",""trial"",""time""
""fullscreenenter"",""0"",""2593""
","
","
","""event"",""trial"",""time""
""fullscreenenter"",""0"",""2593""
","
","","","","","","","","","","",""
"","html-button-response","2","5356","0.0-2.0","543","""event"",""trial"",""time""
""fullscreenenter"",""0"",""2593""
","
","
","""event"",""trial"",""time""
""fullscreenenter"",""0"",""2593""
","
","1773.4000000059605","<p>Welcome! Press START to begin.</p><br>","0","","","","","","","",""
"","audio-button-response","3","15546","0.0-3.0","543","""event"",""trial"",""time""
""fullscreenenter"",""0"",""2593""
","
","
","""event"",""trial"",""time""
""fullscreenenter"",""0"",""2593""
","
","10186","audio/mars_instructions_slide2.wav","0","","","","","","","",""
"","audio-button-response","4","21486","0.0-4.0","543","""event"",""trial"",""time""
""fullscreenenter"",""0"",""2593""
","
","
","""event"",""trial"",""time""
""fullscreenenter"",""0"",""2593""
","
","5938.700000017881","audio/mars_instructions_slide3.wav","0","","","","","","","",""
"","html-keyboard-response","5","21989","0.0-5.0-0.0","543","""event"",""trial"",""time""
""fullscreenenter"",""0"",""2593""
","
","
","""event"",""trial"",""time""
""fullscreenenter"",""0"",""2593""
","
","null","<div style=""font-size:60px;"">+</div>","","null","fixation","2021-08-19 18:06:14.865","","","","",""
"","mars-trial","6","30021","0.0-5.0-1.0","543","""event"",""trial"",""time""
""fullscreenenter"",""0"",""2593""
","
","
","""event"",""trial"",""time""
""fullscreenenter"",""0"",""2593""
","
","5916","<img style='border: 4px solid darkgrey;' src='practice/pt1_M1.png'></img>","3","","practice","","0","<img src='practice/pt1_T1.png'></img>","0","true",""
"","html-keyboard-response","7","30526","0.0-6.0-0.0","543","""event"",""trial"",""time""
""fullscreenenter"",""0"",""2593""
","
","
","""event"",""trial"",""time""
""fullscreenenter"",""0"",""2593""
","
","null","<div style=""font-size:60px;"">+</div>","","null","fixation","2021-08-19 18:06:23.402","","","","",""
"","mars-trial","8","36282","0.0-6.0-1.0","543","""event"",""trial"",""time""
""fullscreenenter"",""0"",""2593""
","
","
","""event"",""trial"",""time""
""fullscreenenter"",""0"",""2593""
","
","3646.0999999940395","<img style='border: 4px solid darkgrey;' src='practice/pt2_M1.png'></img>","0","","practice","","0","<img src='practice/pt2_T1.png'></img>","0","true",""
"","html-keyboard-response","9","36788","0.0-7.0-0.0","543","""event"",""trial"",""time""
""fullscreenenter"",""0"",""2593""
","
","
","""event"",""trial"",""time""
""fullscreenenter"",""0"",""2593""
","
","null","<div style=""font-size:60px;"">+</div>","","null","fixation","2021-08-19 18:06:29.663","","","","",""
"","mars-trial","10","41918","0.0-7.0-1.0","543","""event"",""trial"",""time""
""fullscreenenter"",""0"",""2593""
","
","
","""event"",""trial"",""time""
""fullscreenenter"",""0"",""2593""
","
","3018","<img style='border: 4px solid darkgrey;' src='practice/pt3_M1.png'></img>","0","","practice","","0","<img src='practice/pt3_T1.png'></img>","0","true",""
"","audio-button-response","11","49575","0.0-8.0","543","""event"",""trial"",""time""
""fullscreenenter"",""0"",""2593""
","
","
","""event"",""trial"",""time""
""fullscreenenter"",""0"",""2593""
","
","7654","audio/mars_instructions_slide4.wav","0","","","","","","","",""
"","call-function","12","49577","0.0-9.0","543","""event"",""trial"",""time""
""fullscreenenter"",""0"",""2593""
","
","
","""event"",""trial"",""time""
""fullscreenenter"",""0"",""2593""
","
","","","","","","","","","","",""
"","html-keyboard-response","13","50080","0.0-10.0-0.0","543","""event"",""trial"",""time""
""fullscreenenter"",""0"",""2593""
","
","
","""event"",""trial"",""time""
""fullscreenenter"",""0"",""2593""
","
","null","<div style=""font-size:60px;"">+</div>","","null","fixation","2021-08-19 18:06:42.955","","","","",""
"","mars-trial","14","53305","0.0-10.0-1.0","543","""event"",""trial"",""time""
""fullscreenenter"",""0"",""2593""
","
","
","""event"",""trial"",""time""
""fullscreenenter"",""0"",""2593""
","
","2612.2999999821186","<img style='border: 4px solid darkgrey;' src='img/tf1_1_M_ss3.jpeg'></img>","3","","exp","","0","<img src='img/tf1_1_T1_ss3_md.jpeg'></img>","0","true",""
"","html-keyboard-response","15","53810","0.0-10.0-0.1","543","""event"",""trial"",""time""
""fullscreenenter"",""0"",""2593""
","
","
","""event"",""trial"",""time""
""fullscreenenter"",""0"",""2593""
","
","null","<div style=""font-size:60px;"">+</div>","","null","fixation","2021-08-19 18:06:46.685","","","","",""
"","mars-trial","16","57808","0.0-10.0-1.1","543","""event"",""trial"",""time""
""fullscreenenter"",""0"",""2593""
","
","
","""event"",""trial"",""time""
""fullscreenenter"",""0"",""2593""
","
","3385.0999999940395","<img style='border: 4px solid darkgrey;' src='img/tf1_2_M_ss1.jpeg'></img>","0","","exp","","0","<img src='img/tf1_2_T1_ss1_md.jpeg'></img>","0","true",""
"","html-keyboard-response","17","58311","0.0-10.0-0.2","543","""event"",""trial"",""time""
""fullscreenenter"",""0"",""2593""
","
","
","""event"",""trial"",""time""
""fullscreenenter"",""0"",""2593""
","
","null","<div style=""font-size:60px;"">+</div>","","null","fixation","2021-08-19 18:06:51.186","","","","",""
"","mars-trial","18","61706","0.0-10.0-1.2","543","""event"",""trial"",""time""
""fullscreenenter"",""0"",""2593""
","
","
","""event"",""trial"",""time""
""fullscreenenter"",""0"",""2593""
","
","2782.7999999821186","<img style='border: 4px solid darkgrey;' src='img/tf1_3_M_ss2.jpeg'></img>","3","","exp","","0","<img src='img/tf1_3_T1_ss2_md.jpeg'></img>","0","true",""
"","html-keyboard-response","19","62212","0.0-10.0-0.3","543","""event"",""trial"",""time""
""fullscreenenter"",""0"",""2593""
","
","
","""event"",""trial"",""time""
""fullscreenenter"",""0"",""2593""
","
","null","<div style=""font-size:60px;"">+</div>","","null","fixation","2021-08-19 18:06:55.088","","","","",""
"","mars-trial","20","67217","0.0-10.0-1.3","543","""event"",""trial"",""time""
""fullscreenenter"",""0"",""2593""
","
","
","""event"",""trial"",""time""
""fullscreenenter"",""0"",""2593""
","
","4392","<img style='border: 4px solid darkgrey;' src='img/tf1_4_M_ss3.jpeg'></img>","3","","exp","","0","<img src='img/tf1_4_T1_ss3_md.jpeg'></img>","0","true",""
"","html-keyboard-response","21","67722","0.0-10.0-0.4","543","""event"",""trial"",""time""
""fullscreenenter"",""0"",""2593""
","
","
","""event"",""trial"",""time""
""fullscreenenter"",""0"",""2593""
","
","null","<div style=""font-size:60px;"">+</div>","","null","fixation","2021-08-19 18:07:00.597","","","","",""
"","mars-trial","22","70526","0.0-10.0-1.4","543","""event"",""trial"",""time""
""fullscreenenter"",""0"",""2593""
","
","
","""event"",""trial"",""time""
""fullscreenenter"",""0"",""2593""
","
","2196.399999976158","<img style='border: 4px solid darkgrey;' src='img/tf1_5_M_ss1.jpeg'></img>","1","","exp","","0","<img src='img/tf1_5_T1_ss1_md.jpeg'></img>","0","true",""
"","html-keyboard-response","23","71031","0.0-10.0-0.5","543","""event"",""trial"",""time""
""fullscreenenter"",""0"",""2593""
","
","
","""event"",""trial"",""time""
""fullscreenenter"",""0"",""2593""
","
","null","<div style=""font-size:60px;"">+</div>","","null","fixation","2021-08-19 18:07:03.906","","","","",""
"","mars-trial","24","82767","0.0-10.0-1.5","543","""event"",""trial"",""time""
""fullscreenenter"",""0"",""2593""
","
","
","""event"",""trial"",""time""
""fullscreenenter"",""0"",""2593""
","
","11124.600000023842","<img style='border: 4px solid darkgrey;' src='img/tf1_6_M_ss2.jpeg'></img>","0","","exp","","0","<img src='img/tf1_6_T1_ss2_md.jpeg'></img>","0","true",""
"","html-keyboard-response","25","83270","0.0-10.0-0.6","543","""event"",""trial"",""time""
""fullscreenenter"",""0"",""2593""
","
","
","""event"",""trial"",""time""
""fullscreenenter"",""0"",""2593""
","
","null","<div style=""font-size:60px;"">+</div>","","null","fixation","2021-08-19 18:07:16.145","","","","",""
"","mars-trial","26","89462","0.0-10.0-1.6","543","""event"",""trial"",""time""
""fullscreenenter"",""0"",""2593""
","
","
","""event"",""trial"",""time""
""fullscreenenter"",""0"",""2593""
","
","5584.200000017881","<img style='border: 4px solid darkgrey;' src='img/tf1_7_M_ss3.jpeg'></img>","0","","exp","","0","<img src='img/tf1_7_T1_ss3_md.jpeg'></img>","0","true",""
"","html-keyboard-response","27","89966","0.0-10.0-0.7","543","""event"",""trial"",""time""
""fullscreenenter"",""0"",""2593""
","
","
","""event"",""trial"",""time""
""fullscreenenter"",""0"",""2593""
","
","null","<div style=""font-size:60px;"">+</div>","","null","fixation","2021-08-19 18:07:22.842","","","","",""
"","mars-trial","28","102731","0.0-10.0-1.7","543","""event"",""trial"",""time""
""fullscreenenter"",""0"",""2593""
","
","
","""event"",""trial"",""time""
""fullscreenenter"",""0"",""2593""
","
","12155.700000017881","<img style='border: 4px solid darkgrey;' src='img/tf1_8_M_ss1.jpeg'></img>","2","","exp","","0","<img src='img/tf1_8_T1_ss1_md.jpeg'></img>","0","true",""
"","html-keyboard-response","29","103236","0.0-10.0-0.8","543","""event"",""trial"",""time""
""fullscreenenter"",""0"",""2593""
","
","
","""event"",""trial"",""time""
""fullscreenenter"",""0"",""2593""
","
","null","<div style=""font-size:60px;"">+</div>","","null","fixation","2021-08-19 18:07:36.111","","","","",""
"","mars-trial","30","110652","0.0-10.0-1.8","543","""event"",""trial"",""time""
""fullscreenenter"",""0"",""2593""
","
","
","""event"",""trial"",""time""
""fullscreenenter"",""0"",""2593""
","
","6804.700000017881","<img style='border: 4px solid darkgrey;' src='img/tf1_9_M_ss2.jpeg'></img>","0","","exp","","0","<img src='img/tf1_9_T1_ss2_md.jpeg'></img>","0","true",""
"","html-keyboard-response","31","111158","0.0-10.0-0.9","543","""event"",""trial"",""time""
""fullscreenenter"",""0"",""2593""
","
","
","""event"",""trial"",""time""
""fullscreenenter"",""0"",""2593""
","
","null","<div style=""font-size:60px;"">+</div>","","null","fixation","2021-08-19 18:07:44.033","","","","",""
"","mars-trial","32","140085","0.0-10.0-1.9","543","""event"",""trial"",""time""
""fullscreenenter"",""0"",""2593""
","
","
","""event"",""trial"",""time""
""fullscreenenter"",""0"",""2593""
","
","28315.59999999404","<img style='border: 4px solid darkgrey;' src='img/tf1_10_M_ss3.jpeg'></img>","2","","exp","","0","<img src='img/tf1_10_T1_ss3_md.jpeg'></img>","0","true",""
"","html-keyboard-response","33","140587","0.0-10.0-0.10","543","""event"",""trial"",""time""
""fullscreenenter"",""0"",""2593""
","
","
","""event"",""trial"",""time""
""fullscreenenter"",""0"",""2593""
","
","null","<div style=""font-size:60px;"">+</div>","","null","fixation","2021-08-19 18:08:13.463","","","","",""
"","mars-trial","34","159246","0.0-10.0-1.10","543","""event"",""trial"",""time""
""fullscreenenter"",""0"",""2593""
","
","
","""event"",""trial"",""time""
""fullscreenenter"",""0"",""2593""
","
","18047.79999998212","<img style='border: 4px solid darkgrey;' src='img/tf1_11_M_ss1.jpeg'></img>","3","","exp","","0","<img src='img/tf1_11_T1_ss1_md.jpeg'></img>","0","true",""
"","html-keyboard-response","35","159750","0.0-10.0-0.11","543","""event"",""trial"",""time""
""fullscreenenter"",""0"",""2593""
","
","
","""event"",""trial"",""time""
""fullscreenenter"",""0"",""2593""
","
","null","<div style=""font-size:60px;"">+</div>","","null","fixation","2021-08-19 18:08:32.625","","","","",""
"","mars-trial","36","175190","0.0-10.0-1.11","543","""event"",""trial"",""time""
""fullscreenenter"",""0"",""2593""
","
","
","""event"",""trial"",""time""
""fullscreenenter"",""0"",""2593""
","
","14832.300000011921","<img style='border: 4px solid darkgrey;' src='img/tf1_12_M_ss2.jpeg'></img>","2","","exp","","2","<img src='img/tf1_12_T1_ss2_md.jpeg'></img>","0","false",""
"","html-keyboard-response","37","175696","0.0-10.0-0.12","543","""event"",""trial"",""time""
""fullscreenenter"",""0"",""2593""
","
","
","""event"",""trial"",""time""
""fullscreenenter"",""0"",""2593""
","
","null","<div style=""font-size:60px;"">+</div>","","null","fixation","2021-08-19 18:08:48.571","","","","",""
"","mars-trial","38","185224","0.0-10.0-1.12","543","""event"",""trial"",""time""
""fullscreenenter"",""0"",""2593""
","
","
","""event"",""trial"",""time""
""fullscreenenter"",""0"",""2593""
","
","8915.700000017881","<img style='border: 4px solid darkgrey;' src='img/tf1_13_M_ss3.jpeg'></img>","1","","exp","","1","<img src='img/tf1_13_T1_ss3_md.jpeg'></img>","0","false",""
"","html-keyboard-response","39","185728","0.0-10.0-0.13","543","""event"",""trial"",""time""
""fullscreenenter"",""0"",""2593""
","
","
","""event"",""trial"",""time""
""fullscreenenter"",""0"",""2593""
","
","null","<div style=""font-size:60px;"">+</div>","","null","fixation","2021-08-19 18:08:58.603","","","","",""
"","mars-trial","40","199276","0.0-10.0-1.13","543","""event"",""trial"",""time""
""fullscreenenter"",""0"",""2593""
","
","
","""event"",""trial"",""time""
""fullscreenenter"",""0"",""2593""
","
","12939","<img style='border: 4px solid darkgrey;' src='img/tf1_14_M_ss1.jpeg'></img>","1","","exp","","3","<img src='img/tf1_14_T1_ss1_md.jpeg'></img>","0","false",""
"","html-keyboard-response","41","199781","0.0-10.0-0.14","543","""event"",""trial"",""time""
""fullscreenenter"",""0"",""2593""
","
","
","""event"",""trial"",""time""
""fullscreenenter"",""0"",""2593""
","
","null","<div style=""font-size:60px;"">+</div>","","null","fixation","2021-08-19 18:09:12.656","","","","",""
"","mars-trial","42","211641","0.0-10.0-1.14","543","""event"",""trial"",""time""
""fullscreenenter"",""0"",""2593""
","
","
","""event"",""trial"",""time""
""fullscreenenter"",""0"",""2593""
","
","11250","<img style='border: 4px solid darkgrey;' src='img/tf1_15_M_ss2.jpeg'></img>","1","","exp","","1","<img src='img/tf1_15_T1_ss2_md.jpeg'></img>","0","false",""
"","html-keyboard-response","43","212143","0.0-10.0-0.15","543","""event"",""trial"",""time""
""fullscreenenter"",""0"",""2593""
","
","
","""event"",""trial"",""time""
""fullscreenenter"",""0"",""2593""
","
","null","<div style=""font-size:60px;"">+</div>","","null","fixation","2021-08-19 18:09:25.019","","","","",""
"","mars-trial","44","230170","0.0-10.0-1.15","543","""event"",""trial"",""time""
""fullscreenenter"",""0"",""2593""
","
","
","""event"",""trial"",""time""
""fullscreenenter"",""0"",""2593""
","
","17415.5","<img style='border: 4px solid darkgrey;' src='img/tf1_16_M_ss3.jpeg'></img>","2","","exp","","3","<img src='img/tf1_16_T1_ss3_md.jpeg'></img>","0","false",""
"","html-keyboard-response","45","230673","0.0-10.0-0.16","543","""event"",""trial"",""time""
""fullscreenenter"",""0"",""2593""
","
","
","""event"",""trial"",""time""
""fullscreenenter"",""0"",""2593""
","
","null","<div style=""font-size:60px;"">+</div>","","null","fixation","2021-08-19 18:09:43.548","","","","",""
"","mars-trial","46","237350","0.0-10.0-1.16","543","""event"",""trial"",""time""
""fullscreenenter"",""0"",""2593""
","
","
","""event"",""trial"",""time""
""fullscreenenter"",""0"",""2593""
","
","6068.700000017881","<img style='border: 4px solid darkgrey;' src='img/tf1_17_M_ss1.jpeg'></img>","2","","exp","","1","<img src='img/tf1_17_T1_ss1_md.jpeg'></img>","0","false",""
"","html-keyboard-response","47","237853","0.0-10.0-0.17","543","""event"",""trial"",""time""
""fullscreenenter"",""0"",""2593""
","
","
","""event"",""trial"",""time""
""fullscreenenter"",""0"",""2593""
","
","null","<div style=""font-size:60px;"">+</div>","","null","fixation","2021-08-19 18:09:50.728","","","","",""
"","mars-trial","48","251392","0.0-10.0-1.17","543","""event"",""trial"",""time""
""fullscreenenter"",""0"",""2593""
","
","
","""event"",""trial"",""time""
""fullscreenenter"",""0"",""2593""
","
","12928.299999982119","<img style='border: 4px solid darkgrey;' src='img/tf1_18_M_ss2.jpeg'></img>","2","","exp","","0","<img src='img/tf1_18_T1_ss2_md.jpeg'></img>","0","true",""
"","html-keyboard-response","49","251894","0.0-10.0-0.18","543","""event"",""trial"",""time""
""fullscreenenter"",""0"",""2593""
","
","
","""event"",""trial"",""time""
""fullscreenenter"",""0"",""2593""
","
","null","<div style=""font-size:60px;"">+</div>","","null","fixation","2021-08-19 18:10:04.769","","","","",""
"","mars-trial","50","258696","0.0-10.0-1.18","543","""event"",""trial"",""time""
""fullscreenenter"",""0"",""2593""
","
","
","""event"",""trial"",""time""
""fullscreenenter"",""0"",""2593""
","
","6193.4000000059605","<img style='border: 4px solid darkgrey;' src='img/tf1_19_M_ss3.jpeg'></img>","2","","exp","","3","<img src='img/tf1_19_T1_ss3_md.jpeg'></img>","0","false",""
"","html-keyboard-response","51","259199","0.0-10.0-0.19","543","""event"",""trial"",""time""
""fullscreenenter"",""0"",""2593""
","
","
","""event"",""trial"",""time""
""fullscreenenter"",""0"",""2593""
","
","null","<div style=""font-size:60px;"">+</div>","","null","fixation","2021-08-19 18:10:12.074","","","","",""
"","mars-trial","52","276177","0.0-10.0-1.19","543","""event"",""trial"",""time""
""fullscreenenter"",""0"",""2593""
","
","
","""event"",""trial"",""time""
""fullscreenenter"",""0"",""2593""
","
","16366","<img style='border: 4px solid darkgrey;' src='img/tf1_20_M_ss1.jpeg'></img>","0","","exp","","0","<img src='img/tf1_20_T1_ss1_md.jpeg'></img>","0","true",""
"","html-keyboard-response","53","276684","0.0-10.0-0.20","543","""event"",""trial"",""time""
""fullscreenenter"",""0"",""2593""
","
","
","""event"",""trial"",""time""
""fullscreenenter"",""0"",""2593""
","
","null","<div style=""font-size:60px;"">+</div>","","null","fixation","2021-08-19 18:10:29.559","","","","",""
"","mars-trial","54","288516","0.0-10.0-1.20","543","""event"",""trial"",""time""
""fullscreenenter"",""0"",""2593""
","
","
","""event"",""trial"",""time""
""fullscreenenter"",""0"",""2593""
","
","11223.300000011921","<img style='border: 4px solid darkgrey;' src='img/tf1_21_M_ss2.jpeg'></img>","2","","exp","","2","<img src='img/tf1_21_T1_ss2_md.jpeg'></img>","0","false",""
"","html-keyboard-response","55","289020","0.0-10.0-0.21","543","""event"",""trial"",""time""
""fullscreenenter"",""0"",""2593""
","
","
","""event"",""trial"",""time""
""fullscreenenter"",""0"",""2593""
","
","null","<div style=""font-size:60px;"">+</div>","","null","fixation","2021-08-19 18:10:41.895","","","","",""
"","mars-trial","56","301542","0.0-10.0-1.21","543","""event"",""trial"",""time""
""fullscreenenter"",""0"",""2593""
","
","
","""event"",""trial"",""time""
""fullscreenenter"",""0"",""2593""
","
","11913","<img style='border: 4px solid darkgrey;' src='img/tf1_22_M_ss3.jpeg'></img>","2","","exp","","0","<img src='img/tf1_22_T1_ss3_md.jpeg'></img>","0","true",""
"","html-keyboard-response","57","302046","0.0-10.0-0.22","543","""event"",""trial"",""time""
""fullscreenenter"",""0"",""2593""
","
","
","""event"",""trial"",""time""
""fullscreenenter"",""0"",""2593""
","
","null","<div style=""font-size:60px;"">+</div>","","null","fixation","2021-08-19 18:10:54.921","","","","",""
"","mars-trial","58","310756","0.0-10.0-1.22","543","""event"",""trial"",""time""
""fullscreenenter"",""0"",""2593""
","
","
","""event"",""trial"",""time""
""fullscreenenter"",""0"",""2593""
","
","8098.300000011921","<img style='border: 4px solid darkgrey;' src='img/tf1_23_M_ss1.jpeg'></img>","2","","exp","","3","<img src='img/tf1_23_T1_ss1_md.jpeg'></img>","0","false",""
"","html-keyboard-response","59","311259","0.0-10.0-0.23","543","""event"",""trial"",""time""
""fullscreenenter"",""0"",""2593""
","
","
","""event"",""trial"",""time""
""fullscreenenter"",""0"",""2593""
","
","null","<div style=""font-size:60px;"">+</div>","","null","fixation","2021-08-19 18:11:04.135","","","","",""
"","mars-trial","60","323521","0.0-10.0-1.23","543","""event"",""trial"",""time""
""fullscreenenter"",""0"",""2593""
","
","
","""event"",""trial"",""time""
""fullscreenenter"",""0"",""2593""
","
","11652.800000011921","<img style='border: 4px solid darkgrey;' src='img/tf1_24_M_ss2.jpeg'></img>","0","","exp","","2","<img src='img/tf1_24_T1_ss2_md.jpeg'></img>","0","false",""
"","html-keyboard-response","61","324027","0.0-10.0-0.24","543","""event"",""trial"",""time""
""fullscreenenter"",""0"",""2593""
","
","
","""event"",""trial"",""time""
""fullscreenenter"",""0"",""2593""
","
","null","<div style=""font-size:60px;"">+</div>","","null","fixation","2021-08-19 18:11:16.902","","","","",""
"","mars-trial","62","330186","0.0-10.0-1.24","543","""event"",""trial"",""time""
""fullscreenenter"",""0"",""2593""
","
","
","""event"",""trial"",""time""
""fullscreenenter"",""0"",""2593""
","
","5548.4000000059605","<img style='border: 4px solid darkgrey;' src='img/tf1_25_M_ss3.jpeg'></img>","2","","exp","","0","<img src='img/tf1_25_T1_ss3_md.jpeg'></img>","0","true",""
"","html-keyboard-response","63","330694","0.0-10.0-0.25","543","""event"",""trial"",""time""
""fullscreenenter"",""0"",""2593""
","
","
","""event"",""trial"",""time""
""fullscreenenter"",""0"",""2593""
","
","null","<div style=""font-size:60px;"">+</div>","","null","fixation","2021-08-19 18:11:23.569","","","","",""
"","mars-trial","64","346027","0.0-10.0-1.25","543","""event"",""trial"",""time""
""fullscreenenter"",""0"",""2593""
","
","
","""event"",""trial"",""time""
""fullscreenenter"",""0"",""2593""
","
","14725.199999988079","<img style='border: 4px solid darkgrey;' src='img/tf1_26_M_ss1.jpeg'></img>","1","","exp","","0","<img src='img/tf1_26_T1_ss1_md.jpeg'></img>","0","true",""
"","html-keyboard-response","65","346531","0.0-10.0-0.26","543","""event"",""trial"",""time""
""fullscreenenter"",""0"",""2593""
","
","
","""event"",""trial"",""time""
""fullscreenenter"",""0"",""2593""
","
","null","<div style=""font-size:60px;"">+</div>","","null","fixation","2021-08-19 18:11:39.407","","","","",""
"","mars-trial","66","353766","0.0-10.0-1.26","543","""event"",""trial"",""time""
""fullscreenenter"",""0"",""2593""
","
","
","""event"",""trial"",""time""
""fullscreenenter"",""0"",""2593""
","
","6622.700000017881","<img style='border: 4px solid darkgrey;' src='img/tf1_27_M_ss2.jpeg'></img>","0","","exp","","1","<img src='img/tf1_27_T1_ss2_md.jpeg'></img>","0","false",""
"","html-keyboard-response","67","354269","0.0-10.0-0.27","543","""event"",""trial"",""time""
""fullscreenenter"",""0"",""2593""
","
","
","""event"",""trial"",""time""
""fullscreenenter"",""0"",""2593""
","
","null","<div style=""font-size:60px;"">+</div>","","null","fixation","2021-08-19 18:11:47.144","","","","",""
"","mars-trial","68","362321","0.0-10.0-1.27","543","""event"",""trial"",""time""
""fullscreenenter"",""0"",""2593""
","
","
","""event"",""trial"",""time""
""fullscreenenter"",""0"",""2593""
","
","7442.800000011921","<img style='border: 4px solid darkgrey;' src='img/tf1_28_M_ss3.jpeg'></img>","3","","exp","","1","<img src='img/tf1_28_T1_ss3_md.jpeg'></img>","0","false",""
"","html-keyboard-response","69","362827","0.0-10.0-0.28","543","""event"",""trial"",""time""
""fullscreenenter"",""0"",""2593""
","
","
","""event"",""trial"",""time""
""fullscreenenter"",""0"",""2593""
","
","null","<div style=""font-size:60px;"">+</div>","","null","fixation","2021-08-19 18:11:55.702","","","","",""
"","mars-trial","70","370044","0.0-10.0-1.28","543","""event"",""trial"",""time""
""fullscreenenter"",""0"",""2593""
","
","
","""event"",""trial"",""time""
""fullscreenenter"",""0"",""2593""
","
","6608.4000000059605","<img style='border: 4px solid darkgrey;' src='img/tf1_29_M_ss1.jpeg'></img>","3","","exp","","1","<img src='img/tf1_29_T1_ss1_md.jpeg'></img>","0","false",""
"","html-keyboard-response","71","370549","0.0-10.0-0.29","543","""event"",""trial"",""time""
""fullscreenenter"",""0"",""2593""
","
","
","""event"",""trial"",""time""
""fullscreenenter"",""0"",""2593""
","
","null","<div style=""font-size:60px;"">+</div>","","null","fixation","2021-08-19 18:12:03.424","","","","",""
"","mars-trial","72","380065","0.0-10.0-1.29","543","""event"",""trial"",""time""
""fullscreenenter"",""0"",""2593""
","
","
","""event"",""trial"",""time""
""fullscreenenter"",""0"",""2593""
","
","8906.09999999404","<img style='border: 4px solid darkgrey;' src='img/tf1_30_M_ss2.jpeg'></img>","3","","exp","","0","<img src='img/tf1_30_T1_ss2_md.jpeg'></img>","0","true",""
"","html-keyboard-response","73","380568","0.0-10.0-0.30","543","""event"",""trial"",""time""
""fullscreenenter"",""0"",""2593""
","
","
","""event"",""trial"",""time""
""fullscreenenter"",""0"",""2593""
","
","null","<div style=""font-size:60px;"">+</div>","","null","fixation","2021-08-19 18:12:13.443","","","","",""
"","mars-trial","74","392167","0.0-10.0-1.30","543","""event"",""trial"",""time""
""fullscreenenter"",""0"",""2593""
","
","
","""event"",""trial"",""time""
""fullscreenenter"",""0"",""2593""
","
","10986","<img style='border: 4px solid darkgrey;' src='img/tf1_31_M_ss3.jpeg'></img>","3","","exp","","2","<img src='img/tf1_31_T1_ss3_md.jpeg'></img>","0","false",""
"","html-keyboard-response","75","392673","0.0-10.0-0.31","543","""event"",""trial"",""time""
""fullscreenenter"",""0"",""2593""
","
","
","""event"",""trial"",""time""
""fullscreenenter"",""0"",""2593""
","
","null","<div style=""font-size:60px;"">+</div>","","null","fixation","2021-08-19 18:12:25.548","","","","",""
"","mars-trial","76","399170","0.0-10.0-1.31","543","""event"",""trial"",""time""
""fullscreenenter"",""0"",""2593""
","
","
","""event"",""trial"",""time""
""fullscreenenter"",""0"",""2593""
","
","5886.9000000059605","<img style='border: 4px solid darkgrey;' src='img/tf1_32_M_ss1.jpeg'></img>","1","","exp","","3","<img src='img/tf1_32_T1_ss1_md.jpeg'></img>","0","false",""
"","html-keyboard-response","77","399673","0.0-10.0-0.32","543","""event"",""trial"",""time""
""fullscreenenter"",""0"",""2593""
","
","
","""event"",""trial"",""time""
""fullscreenenter"",""0"",""2593""
","
","null","<div style=""font-size:60px;"">+</div>","","null","fixation","2021-08-19 18:12:32.548","","","","",""
"","mars-trial","78","400439","0.0-10.0-1.32","543","""event"",""trial"",""time""
""fullscreenenter"",""0"",""2593""
","
","
","""event"",""trial"",""time""
""fullscreenenter"",""0"",""2593""
","
","153","<img style='border: 4px solid darkgrey;' src='img/tf1_33_M_ss2.jpeg'></img>","0","","exp","","1","<img src='img/tf1_33_T1_ss2_md.jpeg'></img>","0","false",""
"","html-keyboard-response","79","400944","0.0-10.0-0.33","543","""event"",""trial"",""time""
""fullscreenenter"",""0"",""2593""
","
","
","""event"",""trial"",""time""
""fullscreenenter"",""0"",""2593""
","
","null","<div style=""font-size:60px;"">+</div>","","null","fixation","2021-08-19 18:12:33.819","","","","",""
"","mars-trial","80","417738","0.0-10.0-1.33","543","""event"",""trial"",""time""
""fullscreenenter"",""0"",""2593""
","
","
","""event"",""trial"",""time""
""fullscreenenter"",""0"",""2593""
","
","16183.59999999404","<img style='border: 4px solid darkgrey;' src='img/tf1_34_M_ss3.jpeg'></img>","3","","exp","","3","<img src='img/tf1_34_T1_ss3_md.jpeg'></img>","0","false",""
"","html-keyboard-response","81","418243","0.0-10.0-0.34","543","""event"",""trial"",""time""
""fullscreenenter"",""0"",""2593""
","
","
","""event"",""trial"",""time""
""fullscreenenter"",""0"",""2593""
","
","null","<div style=""font-size:60px;"">+</div>","","null","fixation","2021-08-19 18:12:51.118","","","","",""
"","mars-trial","82","434762","0.0-10.0-1.34","543","""event"",""trial"",""time""
""fullscreenenter"",""0"",""2593""
","
","
","""event"",""trial"",""time""
""fullscreenenter"",""0"",""2593""
","
","15905.800000011921","<img style='border: 4px solid darkgrey;' src='img/tf1_35_M_ss1.jpeg'></img>","2","","exp","","3","<img src='img/tf1_35_T1_ss1_md.jpeg'></img>","0","false",""
"","html-keyboard-response","83","435268","0.0-10.0-0.35","543","""event"",""trial"",""time""
""fullscreenenter"",""0"",""2593""
","
","
","""event"",""trial"",""time""
""fullscreenenter"",""0"",""2593""
","
","null","<div style=""font-size:60px;"">+</div>","","null","fixation","2021-08-19 18:13:08.143","","","","",""
"","mars-trial","84","445452","0.0-10.0-1.35","543","""event"",""trial"",""time""
""fullscreenenter"",""0"",""2593""
","
","
","""event"",""trial"",""time""
""fullscreenenter"",""0"",""2593""
","
","9571.800000011921","<img style='border: 4px solid darkgrey;' src='img/tf1_36_M_ss2.jpeg'></img>","2","","exp","","3","<img src='img/tf1_36_T1_ss2_md.jpeg'></img>","0","false",""
"","html-keyboard-response","85","445955","0.0-10.0-0.36","543","""event"",""trial"",""time""
""fullscreenenter"",""0"",""2593""
","
","
","""event"",""trial"",""time""
""fullscreenenter"",""0"",""2593""
","
","null","<div style=""font-size:60px;"">+</div>","","null","fixation","2021-08-19 18:13:18.830","","","","",""
"","mars-trial","86","473285","0.0-10.0-1.36","543","""event"",""trial"",""time""
""fullscreenenter"",""0"",""2593""
","
","
","""event"",""trial"",""time""
""fullscreenenter"",""0"",""2593""
","
","26716","<img style='border: 4px solid darkgrey;' src='img/tf1_37_M_ss3.jpeg'></img>","2","","exp","","0","<img src='img/tf1_37_T1_ss3_md.jpeg'></img>","0","true",""
"","html-keyboard-response","87","473790","0.0-10.0-0.37","543","""event"",""trial"",""time""
""fullscreenenter"",""0"",""2593""
","
","
","""event"",""trial"",""time""
""fullscreenenter"",""0"",""2593""
","
","null","<div style=""font-size:60px;"">+</div>","","null","fixation","2021-08-19 18:13:46.665","","","","",""
"","mars-trial","88","479974","0.0-10.0-1.37","543","""event"",""trial"",""time""
""fullscreenenter"",""0"",""2593""
","
","
","""event"",""trial"",""time""
""fullscreenenter"",""0"",""2593""
","
","5574.9000000059605","<img style='border: 4px solid darkgrey;' src='img/tf1_38_M_ss1.jpeg'></img>","2","","exp","","0","<img src='img/tf1_38_T1_ss1_md.jpeg'></img>","0","true",""
"","html-keyboard-response","89","480480","0.0-10.0-0.38","543","""event"",""trial"",""time""
""fullscreenenter"",""0"",""2593""
","
","
","""event"",""trial"",""time""
""fullscreenenter"",""0"",""2593""
","
","null","<div style=""font-size:60px;"">+</div>","","null","fixation","2021-08-19 18:13:53.355","","","","",""
"","mars-trial","90","490879","0.0-10.0-1.38","543","""event"",""trial"",""time""
""fullscreenenter"",""0"",""2593""
","
","
","""event"",""trial"",""time""
""fullscreenenter"",""0"",""2593""
","
","9788.300000011921","<img style='border: 4px solid darkgrey;' src='img/tf1_39_M_ss2.jpeg'></img>","1","","exp","","0","<img src='img/tf1_39_T1_ss2_md.jpeg'></img>","0","true",""
"","html-keyboard-response","91","491382","0.0-10.0-0.39","543","""event"",""trial"",""time""
""fullscreenenter"",""0"",""2593""
","
","
","""event"",""trial"",""time""
""fullscreenenter"",""0"",""2593""
","
","null","<div style=""font-size:60px;"">+</div>","","null","fixation","2021-08-19 18:14:04.257","","","","",""
"","mars-trial","92","498807","0.0-10.0-1.39","543","""event"",""trial"",""time""
""fullscreenenter"",""0"",""2593""
","
","
","""event"",""trial"",""time""
""fullscreenenter"",""0"",""2593""
","
","6815.5","<img style='border: 4px solid darkgrey;' src='img/tf1_40_M_ss3.jpeg'></img>","2","","exp","","3","<img src='img/tf1_40_T1_ss3_md.jpeg'></img>","0","false",""
"","html-keyboard-response","93","499312","0.0-10.0-0.40","543","""event"",""trial"",""time""
""fullscreenenter"",""0"",""2593""
","
","
","""event"",""trial"",""time""
""fullscreenenter"",""0"",""2593""
","
","null","<div style=""font-size:60px;"">+</div>","","null","fixation","2021-08-19 18:14:12.187","","","","",""
"","mars-trial","94","504095","0.0-10.0-1.40","543","""event"",""trial"",""time""
""fullscreenenter"",""0"",""2593""
","
","
","""event"",""trial"",""time""
""fullscreenenter"",""0"",""2593""
","
","4171.5","<img style='border: 4px solid darkgrey;' src='img/tf1_41_M_ss1.jpeg'></img>","3","","exp","","0","<img src='img/tf1_41_T1_ss1_md.jpeg'></img>","0","true",""
"","html-keyboard-response","95","504598","0.0-10.0-0.41","543","""event"",""trial"",""time""
""fullscreenenter"",""0"",""2593""
","
","
","""event"",""trial"",""time""
""fullscreenenter"",""0"",""2593""
","
","null","<div style=""font-size:60px;"">+</div>","","null","fixation","2021-08-19 18:14:17.473","","","","",""
"","mars-trial","96","509980","0.0-10.0-1.41","543","""event"",""trial"",""time""
""fullscreenenter"",""0"",""2593""
","
","
","""event"",""trial"",""time""
""fullscreenenter"",""0"",""2593""
","
","4773.5","<img style='border: 4px solid darkgrey;' src='img/tf1_42_M_ss2.jpeg'></img>","3","","exp","","1","<img src='img/tf1_42_T1_ss2_md.jpeg'></img>","0","false",""
"","html-keyboard-response","97","510486","0.0-10.0-0.42","543","""event"",""trial"",""time""
""fullscreenenter"",""0"",""2593""
","
","
","""event"",""trial"",""time""
""fullscreenenter"",""0"",""2593""
","
","null","<div style=""font-size:60px;"">+</div>","","null","fixation","2021-08-19 18:14:23.361","","","","",""
"","mars-trial","98","521359","0.0-10.0-1.42","543","""event"",""trial"",""time""
""fullscreenenter"",""0"",""2593""
","
","
","""event"",""trial"",""time""
""fullscreenenter"",""0"",""2593""
","
","10264","<img style='border: 4px solid darkgrey;' src='img/tf1_43_M_ss3.jpeg'></img>","2","","exp","","0","<img src='img/tf1_43_T1_ss3_md.jpeg'></img>","0","true",""
"","html-keyboard-response","99","521864","0.0-10.0-0.43","543","""event"",""trial"",""time""
""fullscreenenter"",""0"",""2593""
","
","
","""event"",""trial"",""time""
""fullscreenenter"",""0"",""2593""
","
","null","<div style=""font-size:60px;"">+</div>","","null","fixation","2021-08-19 18:14:34.739","","","","",""
"","mars-trial","100","529579","0.0-10.0-1.43","543","""event"",""trial"",""time""
""fullscreenenter"",""0"",""2593""
","
","
","""event"",""trial"",""time""
""fullscreenenter"",""0"",""2593""
","
","","","","","exp","","","<img src='img/tf1_44_T1_ss1_md.jpeg'></img>","0","false",""
"","html-keyboard-response","101","529606","0.0-10.0-0.44","543","""event"",""trial"",""time""
""fullscreenenter"",""0"",""2593""
","
","
","""event"",""trial"",""time""
""fullscreenenter"",""0"",""2593""
","
","7128.199999988079","<img style='border: 4px solid darkgrey;' src='img/tf1_44_M_ss1.jpeg'></img>","3","","fixation","2021-08-19 18:14:42.481","3","","","",""
"","audio-button-response","102","533227","0.0-11.0","543","""event"",""trial"",""time""
""fullscreenenter"",""0"",""2593""
","
","
","""event"",""trial"",""time""
""fullscreenenter"",""0"",""2593""
","
","3516.5999999940395","audio/mars_instructions_slide5.wav","0","","","","","","","",""
