"success","trial_type","trial_index","time_elapsed","internal_node_id","subject_id","interactions","blur_events","focus_events","fullscreenenter_events","fullscreenexit_events","rt","stimulus","button_pressed","key_press","part","timestamp","unshuffled_button","correct_response","correct_button","correct","value"
"true","fullscreen","0","8916","0.0-0.0","808","""event"",""trial"",""time""
""fullscreenenter"",""0"",""7923""
","
","
","""event"",""trial"",""time""
""fullscreenenter"",""0"",""7923""
","
","","","","","","","","","","",""
"","pavlovia","1","8923","0.0-1.0","808","""event"",""trial"",""time""
""fullscreenenter"",""0"",""7923""
","
","
","""event"",""trial"",""time""
""fullscreenenter"",""0"",""7923""
","
","","","","","","","","","","",""
"","html-button-response","2","12783","0.0-2.0","808","""event"",""trial"",""time""
""fullscreenenter"",""0"",""7923""
","
","
","""event"",""trial"",""time""
""fullscreenenter"",""0"",""7923""
","
","3855.6549999993877","<p>Welcome! Press START to begin.</p><br>","0","","","","","","","",""
"","audio-button-response","3","102328","0.0-3.0","808","""event"",""trial"",""time""
""fullscreenenter"",""0"",""7923""
","
","
","""event"",""trial"",""time""
""fullscreenenter"",""0"",""7923""
","
","89540.67500000019","audio/mars_instructions_slide2.wav","0","","","","","","","",""
"","audio-button-response","4","105387","0.0-4.0","808","""event"",""trial"",""time""
""fullscreenenter"",""0"",""7923""
","
","
","""event"",""trial"",""time""
""fullscreenenter"",""0"",""7923""
","
","3056.0850000001665","audio/mars_instructions_slide3.wav","0","","","","","","","",""
"","html-keyboard-response","5","105890","0.0-5.0-0.0","808","""event"",""trial"",""time""
""fullscreenenter"",""0"",""7923""
","
","
","""event"",""trial"",""time""
""fullscreenenter"",""0"",""7923""
","
","null","<div style=""font-size:60px;"">+</div>","","null","fixation","2021-04-26 20:41:40.511","","","","",""
"","mars-trial","6","113453","0.0-5.0-1.0","808","""event"",""trial"",""time""
""fullscreenenter"",""0"",""7923""
","
","
","""event"",""trial"",""time""
""fullscreenenter"",""0"",""7923""
","
","5451.584999998886","<img style='border: 4px solid darkgrey;' src='practice/pt1_M1.png'></img>","1","","practice","","3","<img src='practice/pt1_T1.png'></img>","0","false",""
"","html-keyboard-response","7","113957","0.0-5.1-0.1","808","""event"",""trial"",""time""
""fullscreenenter"",""0"",""7923""
","
","
","""event"",""trial"",""time""
""fullscreenenter"",""0"",""7923""
","
","null","<div style=""font-size:60px;"">+</div>","","null","fixation","2021-04-26 20:41:48.579","","","","",""
"","mars-trial","8","121725","0.0-5.1-1.1","808","""event"",""trial"",""time""
""fullscreenenter"",""0"",""7923""
","
","
","""event"",""trial"",""time""
""fullscreenenter"",""0"",""7923""
","
","5659.870000003139","<img style='border: 4px solid darkgrey;' src='practice/pt1_M1.png'></img>","3","","practice","","2","<img src='practice/pt1_T1.png'></img>","0","false",""
"","html-keyboard-response","9","122229","0.0-5.2-0.2","808","""event"",""trial"",""time""
""fullscreenenter"",""0"",""7923""
","
","
","""event"",""trial"",""time""
""fullscreenenter"",""0"",""7923""
","
","null","<div style=""font-size:60px;"">+</div>","","null","fixation","2021-04-26 20:41:56.850","","","","",""
"","mars-trial","10","125733","0.0-5.2-1.2","808","""event"",""trial"",""time""
""fullscreenenter"",""0"",""7923""
","
","
","""event"",""trial"",""time""
""fullscreenenter"",""0"",""7923""
","
","1395.20000000266","<img style='border: 4px solid darkgrey;' src='practice/pt1_M1.png'></img>","1","","practice","","2","<img src='practice/pt1_T1.png'></img>","0","false",""
"","html-keyboard-response","11","126236","0.0-5.3-0.3","808","""event"",""trial"",""time""
""fullscreenenter"",""0"",""7923""
","
","
","""event"",""trial"",""time""
""fullscreenenter"",""0"",""7923""
","
","null","<div style=""font-size:60px;"">+</div>","","null","fixation","2021-04-26 20:42:00.857","","","","",""
"","mars-trial","12","130282","0.0-5.3-1.3","808","""event"",""trial"",""time""
""fullscreenenter"",""0"",""7923""
","
","
","""event"",""trial"",""time""
""fullscreenenter"",""0"",""7923""
","
","1938.0000000019209","<img style='border: 4px solid darkgrey;' src='practice/pt1_M1.png'></img>","1","","practice","","1","<img src='practice/pt1_T1.png'></img>","0","false",""
"","html-keyboard-response","13","130785","0.0-5.4-0.4","808","""event"",""trial"",""time""
""fullscreenenter"",""0"",""7923""
","
","
","""event"",""trial"",""time""
""fullscreenenter"",""0"",""7923""
","
","null","<div style=""font-size:60px;"">+</div>","","null","fixation","2021-04-26 20:42:05.406","","","","",""
"","mars-trial","14","142690","0.0-5.4-1.4","808","""event"",""trial"",""time""
""fullscreenenter"",""0"",""7923""
","
","
","""event"",""trial"",""time""
""fullscreenenter"",""0"",""7923""
","
","9797.215000002325","<img style='border: 4px solid darkgrey;' src='practice/pt1_M1.png'></img>","2","","practice","","1","<img src='practice/pt1_T1.png'></img>","0","false",""
"","html-keyboard-response","15","143193","0.0-5.5-0.5","808","""event"",""trial"",""time""
""fullscreenenter"",""0"",""7923""
","
","
","""event"",""trial"",""time""
""fullscreenenter"",""0"",""7923""
","
","null","<div style=""font-size:60px;"">+</div>","","null","fixation","2021-04-26 20:42:17.814","","","","",""
"","mars-trial","16","149960","0.0-5.5-1.5","808","""event"",""trial"",""time""
""fullscreenenter"",""0"",""7923""
","
","
","""event"",""trial"",""time""
""fullscreenenter"",""0"",""7923""
","
","4657.8799999988405","<img style='border: 4px solid darkgrey;' src='practice/pt1_M1.png'></img>","1","","practice","","0","<img src='practice/pt1_T1.png'></img>","0","true",""
"","html-keyboard-response","17","150463","0.0-6.0-0.0","808","""event"",""trial"",""time""
""fullscreenenter"",""0"",""7923""
","
","
","""event"",""trial"",""time""
""fullscreenenter"",""0"",""7923""
","
","null","<div style=""font-size:60px;"">+</div>","","null","fixation","2021-04-26 20:42:25.084","","","","",""
"","mars-trial","18","155352","0.0-6.0-1.0","808","""event"",""trial"",""time""
""fullscreenenter"",""0"",""7923""
","
","
","""event"",""trial"",""time""
""fullscreenenter"",""0"",""7923""
","
","2779.4900000008056","<img style='border: 4px solid darkgrey;' src='practice/pt2_M1.png'></img>","3","","practice","","0","<img src='practice/pt2_T1.png'></img>","0","true",""
"","html-keyboard-response","19","155856","0.0-7.0-0.0","808","""event"",""trial"",""time""
""fullscreenenter"",""0"",""7923""
","
","
","""event"",""trial"",""time""
""fullscreenenter"",""0"",""7923""
","
","null","<div style=""font-size:60px;"">+</div>","","null","fixation","2021-04-26 20:42:30.477","","","","",""
"","mars-trial","20","159396","0.0-7.0-1.0","808","""event"",""trial"",""time""
""fullscreenenter"",""0"",""7923""
","
","
","""event"",""trial"",""time""
""fullscreenenter"",""0"",""7923""
","
","1432.1100000015576","<img style='border: 4px solid darkgrey;' src='practice/pt3_M1.png'></img>","3","","practice","","0","<img src='practice/pt3_T1.png'></img>","0","true",""
"","audio-button-response","21","161422","0.0-8.0","808","""event"",""trial"",""time""
""fullscreenenter"",""0"",""7923""
","
","
","""event"",""trial"",""time""
""fullscreenenter"",""0"",""7923""
","
","2021.7200000006414","audio/mars_instructions_slide4.wav","0","","","","","","","",""
"","call-function","22","161425","0.0-9.0","808","""event"",""trial"",""time""
""fullscreenenter"",""0"",""7923""
","
","
","""event"",""trial"",""time""
""fullscreenenter"",""0"",""7923""
","
","","","","","","","","","","",""
"","html-keyboard-response","23","161926","0.0-10.0-0.0","808","""event"",""trial"",""time""
""fullscreenenter"",""0"",""7923""
","
","
","""event"",""trial"",""time""
""fullscreenenter"",""0"",""7923""
","
","null","<div style=""font-size:60px;"">+</div>","","null","fixation","2021-04-26 20:42:36.547","","","","",""
"","mars-trial","24","163739","0.0-10.0-1.0","808","""event"",""trial"",""time""
""fullscreenenter"",""0"",""7923""
","
","
","""event"",""trial"",""time""
""fullscreenenter"",""0"",""7923""
","
","1205.5099999997765","<img style='border: 4px solid darkgrey;' src='img/tf1_1_M_ss3.jpeg'></img>","3","","exp","","2","<img src='img/tf1_1_T1_ss3_md.jpeg'></img>","0","false",""
"","html-keyboard-response","25","164241","0.0-10.0-0.1","808","""event"",""trial"",""time""
""fullscreenenter"",""0"",""7923""
","
","
","""event"",""trial"",""time""
""fullscreenenter"",""0"",""7923""
","
","null","<div style=""font-size:60px;"">+</div>","","null","fixation","2021-04-26 20:42:38.862","","","","",""
"","mars-trial","26","167325","0.0-10.0-1.1","808","""event"",""trial"",""time""
""fullscreenenter"",""0"",""7923""
","
","
","""event"",""trial"",""time""
""fullscreenenter"",""0"",""7923""
","
","2478.12999999951","<img style='border: 4px solid darkgrey;' src='img/tf1_2_M_ss1.jpeg'></img>","0","","exp","","0","<img src='img/tf1_2_T1_ss1_md.jpeg'></img>","0","true",""
"","html-keyboard-response","27","167827","0.0-10.0-0.2","808","""event"",""trial"",""time""
""fullscreenenter"",""0"",""7923""
","
","
","""event"",""trial"",""time""
""fullscreenenter"",""0"",""7923""
","
","null","<div style=""font-size:60px;"">+</div>","","null","fixation","2021-04-26 20:42:42.448","","","","",""
"","mars-trial","28","174124","0.0-10.0-1.2","808","""event"",""trial"",""time""
""fullscreenenter"",""0"",""7923""
","
","
","""event"",""trial"",""time""
""fullscreenenter"",""0"",""7923""
","
","5688.740000001417","<img style='border: 4px solid darkgrey;' src='img/tf1_3_M_ss2.jpeg'></img>","0","","exp","","0","<img src='img/tf1_3_T1_ss2_md.jpeg'></img>","0","true",""
"","html-keyboard-response","29","174627","0.0-10.0-0.3","808","""event"",""trial"",""time""
""fullscreenenter"",""0"",""7923""
","
","
","""event"",""trial"",""time""
""fullscreenenter"",""0"",""7923""
","
","null","<div style=""font-size:60px;"">+</div>","","null","fixation","2021-04-26 20:42:49.248","","","","",""
"","mars-trial","30","177961","0.0-10.0-1.3","808","""event"",""trial"",""time""
""fullscreenenter"",""0"",""7923""
","
","
","""event"",""trial"",""time""
""fullscreenenter"",""0"",""7923""
","
","2726.3249999996333","<img style='border: 4px solid darkgrey;' src='img/tf1_4_M_ss3.jpeg'></img>","2","","exp","","0","<img src='img/tf1_4_T1_ss3_md.jpeg'></img>","0","true",""
"","html-keyboard-response","31","178463","0.0-10.0-0.4","808","""event"",""trial"",""time""
""fullscreenenter"",""0"",""7923""
","
","
","""event"",""trial"",""time""
""fullscreenenter"",""0"",""7923""
","
","null","<div style=""font-size:60px;"">+</div>","","null","fixation","2021-04-26 20:42:53.084","","","","",""
"","mars-trial","32","182429","0.0-10.0-1.4","808","""event"",""trial"",""time""
""fullscreenenter"",""0"",""7923""
","
","
","""event"",""trial"",""time""
""fullscreenenter"",""0"",""7923""
","
","3349.9750000009954","<img style='border: 4px solid darkgrey;' src='img/tf1_5_M_ss1.jpeg'></img>","0","","exp","","0","<img src='img/tf1_5_T1_ss1_md.jpeg'></img>","0","true",""
"","html-keyboard-response","33","182932","0.0-10.0-0.5","808","""event"",""trial"",""time""
""fullscreenenter"",""0"",""7923""
","
","
","""event"",""trial"",""time""
""fullscreenenter"",""0"",""7923""
","
","null","<div style=""font-size:60px;"">+</div>","","null","fixation","2021-04-26 20:42:57.553","","","","",""
"","mars-trial","34","198583","0.0-10.0-1.5","808","""event"",""trial"",""time""
""fullscreenenter"",""0"",""7923""
","
","
","""event"",""trial"",""time""
""fullscreenenter"",""0"",""7923""
","
","15043.714999999793","<img style='border: 4px solid darkgrey;' src='img/tf1_6_M_ss2.jpeg'></img>","2","","exp","","0","<img src='img/tf1_6_T1_ss2_md.jpeg'></img>","0","true",""
"","html-keyboard-response","35","199086","0.0-10.0-0.6","808","""event"",""trial"",""time""
""fullscreenenter"",""0"",""7923""
","
","
","""event"",""trial"",""time""
""fullscreenenter"",""0"",""7923""
","
","null","<div style=""font-size:60px;"">+</div>","","null","fixation","2021-04-26 20:43:13.707","","","","",""
"","mars-trial","36","209498","0.0-10.0-1.6","808","""event"",""trial"",""time""
""fullscreenenter"",""0"",""7923""
","
","
","""event"",""trial"",""time""
""fullscreenenter"",""0"",""7923""
","
","9804.44499999794","<img style='border: 4px solid darkgrey;' src='img/tf1_7_M_ss3.jpeg'></img>","0","","exp","","0","<img src='img/tf1_7_T1_ss3_md.jpeg'></img>","0","true",""
"","html-keyboard-response","37","210001","0.0-10.0-0.7","808","""event"",""trial"",""time""
""fullscreenenter"",""0"",""7923""
","
","
","""event"",""trial"",""time""
""fullscreenenter"",""0"",""7923""
","
","null","<div style=""font-size:60px;"">+</div>","","null","fixation","2021-04-26 20:43:24.622","","","","",""
"","mars-trial","38","215330","0.0-10.0-1.7","808","""event"",""trial"",""time""
""fullscreenenter"",""0"",""7923""
","
","
","""event"",""trial"",""time""
""fullscreenenter"",""0"",""7923""
","
","4722.154999999475","<img style='border: 4px solid darkgrey;' src='img/tf1_8_M_ss1.jpeg'></img>","3","","exp","","2","<img src='img/tf1_8_T1_ss1_md.jpeg'></img>","0","false",""
"","html-keyboard-response","39","215833","0.0-10.0-0.8","808","""event"",""trial"",""time""
""fullscreenenter"",""0"",""7923""
","
","
","""event"",""trial"",""time""
""fullscreenenter"",""0"",""7923""
","
","null","<div style=""font-size:60px;"">+</div>","","null","fixation","2021-04-26 20:43:30.454","","","","",""
"","mars-trial","40","224106","0.0-10.0-1.8","808","""event"",""trial"",""time""
""fullscreenenter"",""0"",""7923""
","
","
","""event"",""trial"",""time""
""fullscreenenter"",""0"",""7923""
","
","7665.639999999257","<img style='border: 4px solid darkgrey;' src='img/tf1_9_M_ss2.jpeg'></img>","2","","exp","","0","<img src='img/tf1_9_T1_ss2_md.jpeg'></img>","0","true",""
"","html-keyboard-response","41","224608","0.0-10.0-0.9","808","""event"",""trial"",""time""
""fullscreenenter"",""0"",""7923""
","
","
","""event"",""trial"",""time""
""fullscreenenter"",""0"",""7923""
","
","null","<div style=""font-size:60px;"">+</div>","","null","fixation","2021-04-26 20:43:39.230","","","","",""
"","mars-trial","42","252963","0.0-10.0-1.9","808","""event"",""trial"",""time""
""fullscreenenter"",""0"",""7923""
","
","
","""event"",""trial"",""time""
""fullscreenenter"",""0"",""7923""
","
","27745.599999998376","<img style='border: 4px solid darkgrey;' src='img/tf1_10_M_ss3.jpeg'></img>","2","","exp","","1","<img src='img/tf1_10_T1_ss3_md.jpeg'></img>","0","false",""
"","html-keyboard-response","43","253465","0.0-10.0-0.10","808","""event"",""trial"",""time""
""fullscreenenter"",""0"",""7923""
","
","
","""event"",""trial"",""time""
""fullscreenenter"",""0"",""7923""
","
","null","<div style=""font-size:60px;"">+</div>","","null","fixation","2021-04-26 20:44:08.087","","","","",""
"","mars-trial","44","257530","0.0-10.0-1.10","808","""event"",""trial"",""time""
""fullscreenenter"",""0"",""7923""
","
","
","""event"",""trial"",""time""
""fullscreenenter"",""0"",""7923""
","
","3454.300000001269","<img style='border: 4px solid darkgrey;' src='img/tf1_11_M_ss1.jpeg'></img>","3","","exp","","3","<img src='img/tf1_11_T1_ss1_md.jpeg'></img>","0","false",""
"","html-keyboard-response","45","258032","0.0-10.0-0.11","808","""event"",""trial"",""time""
""fullscreenenter"",""0"",""7923""
","
","
","""event"",""trial"",""time""
""fullscreenenter"",""0"",""7923""
","
","null","<div style=""font-size:60px;"">+</div>","","null","fixation","2021-04-26 20:44:12.653","","","","",""
"","mars-trial","46","258897","0.0-10.0-1.11","808","""event"",""trial"",""time""
""fullscreenenter"",""0"",""7923""
","
","
","""event"",""trial"",""time""
""fullscreenenter"",""0"",""7923""
","
","255.2800000011921","<img style='border: 4px solid darkgrey;' src='img/tf1_12_M_ss2.jpeg'></img>","2","","exp","","0","<img src='img/tf1_12_T1_ss2_md.jpeg'></img>","0","true",""
"","html-keyboard-response","47","259399","0.0-10.0-0.12","808","""event"",""trial"",""time""
""fullscreenenter"",""0"",""7923""
","
","
","""event"",""trial"",""time""
""fullscreenenter"",""0"",""7923""
","
","null","<div style=""font-size:60px;"">+</div>","","null","fixation","2021-04-26 20:44:14.020","","","","",""
"","mars-trial","48","260099","0.0-10.0-1.12","808","""event"",""trial"",""time""
""fullscreenenter"",""0"",""7923""
","
","
","""event"",""trial"",""time""
""fullscreenenter"",""0"",""7923""
","
","92.05500000098255","<img style='border: 4px solid darkgrey;' src='img/tf1_13_M_ss3.jpeg'></img>","0","","exp","","3","<img src='img/tf1_13_T1_ss3_md.jpeg'></img>","0","false",""
"","html-keyboard-response","49","260601","0.0-10.0-0.13","808","""event"",""trial"",""time""
""fullscreenenter"",""0"",""7923""
","
","
","""event"",""trial"",""time""
""fullscreenenter"",""0"",""7923""
","
","null","<div style=""font-size:60px;"">+</div>","","null","fixation","2021-04-26 20:44:15.222","","","","",""
"","mars-trial","50","262136","0.0-10.0-1.13","808","""event"",""trial"",""time""
""fullscreenenter"",""0"",""7923""
","
","
","""event"",""trial"",""time""
""fullscreenenter"",""0"",""7923""
","
","928.6399999982677","<img style='border: 4px solid darkgrey;' src='img/tf1_14_M_ss1.jpeg'></img>","0","","exp","","0","<img src='img/tf1_14_T1_ss1_md.jpeg'></img>","0","true",""
"","html-keyboard-response","51","262638","0.0-10.0-0.14","808","""event"",""trial"",""time""
""fullscreenenter"",""0"",""7923""
","
","
","""event"",""trial"",""time""
""fullscreenenter"",""0"",""7923""
","
","null","<div style=""font-size:60px;"">+</div>","","null","fixation","2021-04-26 20:44:17.260","","","","",""
"","mars-trial","52","263322","0.0-10.0-1.14","808","""event"",""trial"",""time""
""fullscreenenter"",""0"",""7923""
","
","
","""event"",""trial"",""time""
""fullscreenenter"",""0"",""7923""
","
","75.82499999989523","<img style='border: 4px solid darkgrey;' src='img/tf1_15_M_ss2.jpeg'></img>","2","","exp","","2","<img src='img/tf1_15_T1_ss2_md.jpeg'></img>","0","false",""
"","html-keyboard-response","53","263824","0.0-10.0-0.15","808","""event"",""trial"",""time""
""fullscreenenter"",""0"",""7923""
","
","
","""event"",""trial"",""time""
""fullscreenenter"",""0"",""7923""
","
","null","<div style=""font-size:60px;"">+</div>","","null","fixation","2021-04-26 20:44:18.445","","","","",""
"","mars-trial","54","264486","0.0-10.0-1.15","808","""event"",""trial"",""time""
""fullscreenenter"",""0"",""7923""
","
","
","""event"",""trial"",""time""
""fullscreenenter"",""0"",""7923""
","
","53.719999999855645","<img style='border: 4px solid darkgrey;' src='img/tf1_16_M_ss3.jpeg'></img>","1","","exp","","0","<img src='img/tf1_16_T1_ss3_md.jpeg'></img>","0","true",""
"","html-keyboard-response","55","264988","0.0-10.0-0.16","808","""event"",""trial"",""time""
""fullscreenenter"",""0"",""7923""
","
","
","""event"",""trial"",""time""
""fullscreenenter"",""0"",""7923""
","
","null","<div style=""font-size:60px;"">+</div>","","null","fixation","2021-04-26 20:44:19.610","","","","",""
"","mars-trial","56","265741","0.0-10.0-1.16","808","""event"",""trial"",""time""
""fullscreenenter"",""0"",""7923""
","
","
","""event"",""trial"",""time""
""fullscreenenter"",""0"",""7923""
","
","145.2449999997625","<img style='border: 4px solid darkgrey;' src='img/tf1_17_M_ss1.jpeg'></img>","2","","exp","","2","<img src='img/tf1_17_T1_ss1_md.jpeg'></img>","0","false",""
"","html-keyboard-response","57","266244","0.0-10.0-0.17","808","""event"",""trial"",""time""
""fullscreenenter"",""0"",""7923""
","
","
","""event"",""trial"",""time""
""fullscreenenter"",""0"",""7923""
","
","null","<div style=""font-size:60px;"">+</div>","","null","fixation","2021-04-26 20:44:20.865","","","","",""
"","mars-trial","58","267046","0.0-10.0-1.17","808","""event"",""trial"",""time""
""fullscreenenter"",""0"",""7923""
","
","
","""event"",""trial"",""time""
""fullscreenenter"",""0"",""7923""
","
","195.01499999745283","<img style='border: 4px solid darkgrey;' src='img/tf1_18_M_ss2.jpeg'></img>","0","","exp","","1","<img src='img/tf1_18_T1_ss2_md.jpeg'></img>","0","false",""
"","html-keyboard-response","59","267548","0.0-10.0-0.18","808","""event"",""trial"",""time""
""fullscreenenter"",""0"",""7923""
","
","
","""event"",""trial"",""time""
""fullscreenenter"",""0"",""7923""
","
","null","<div style=""font-size:60px;"">+</div>","","null","fixation","2021-04-26 20:44:22.169","","","","",""
"","mars-trial","60","272597","0.0-10.0-1.18","808","""event"",""trial"",""time""
""fullscreenenter"",""0"",""7923""
","
","
","""event"",""trial"",""time""
""fullscreenenter"",""0"",""7923""
","
","4441.73000000231","<img style='border: 4px solid darkgrey;' src='img/tf1_19_M_ss3.jpeg'></img>","2","","exp","","3","<img src='img/tf1_19_T1_ss3_md.jpeg'></img>","0","false",""
"","html-keyboard-response","61","273100","0.0-10.0-0.19","808","""event"",""trial"",""time""
""fullscreenenter"",""0"",""7923""
","
","
","""event"",""trial"",""time""
""fullscreenenter"",""0"",""7923""
","
","null","<div style=""font-size:60px;"">+</div>","","null","fixation","2021-04-26 20:44:27.721","","","","",""
"","mars-trial","62","280732","0.0-10.0-1.19","808","""event"",""trial"",""time""
""fullscreenenter"",""0"",""7923""
","
","
","""event"",""trial"",""time""
""fullscreenenter"",""0"",""7923""
","
","7022.680000001797","<img style='border: 4px solid darkgrey;' src='img/tf1_20_M_ss1.jpeg'></img>","3","","exp","","3","<img src='img/tf1_20_T1_ss1_md.jpeg'></img>","0","false",""
"","html-keyboard-response","63","281235","0.0-10.0-0.20","808","""event"",""trial"",""time""
""fullscreenenter"",""0"",""7923""
","
","
","""event"",""trial"",""time""
""fullscreenenter"",""0"",""7923""
","
","null","<div style=""font-size:60px;"">+</div>","","null","fixation","2021-04-26 20:44:35.856","","","","",""
"","mars-trial","64","288934","0.0-10.0-1.20","808","""event"",""trial"",""time""
""fullscreenenter"",""0"",""7923""
","
","
","""event"",""trial"",""time""
""fullscreenenter"",""0"",""7923""
","
","7090.840000000782","<img style='border: 4px solid darkgrey;' src='img/tf1_21_M_ss2.jpeg'></img>","2","","exp","","2","<img src='img/tf1_21_T1_ss2_md.jpeg'></img>","0","false",""
"","html-keyboard-response","65","289437","0.0-10.0-0.21","808","""event"",""trial"",""time""
""fullscreenenter"",""0"",""7923""
","
","
","""event"",""trial"",""time""
""fullscreenenter"",""0"",""7923""
","
","null","<div style=""font-size:60px;"">+</div>","","null","fixation","2021-04-26 20:44:44.058","","","","",""
"","mars-trial","66","305227","0.0-10.0-1.21","808","""event"",""trial"",""time""
""fullscreenenter"",""0"",""7923""
","
","
","""event"",""trial"",""time""
""fullscreenenter"",""0"",""7923""
","
","15182.49999999901","<img style='border: 4px solid darkgrey;' src='img/tf1_22_M_ss3.jpeg'></img>","3","","exp","","0","<img src='img/tf1_22_T1_ss3_md.jpeg'></img>","0","true",""
"","html-keyboard-response","67","305729","0.0-10.0-0.22","808","""event"",""trial"",""time""
""fullscreenenter"",""0"",""7923""
","
","
","""event"",""trial"",""time""
""fullscreenenter"",""0"",""7923""
","
","null","<div style=""font-size:60px;"">+</div>","","null","fixation","2021-04-26 20:45:00.351","","","","",""
"","mars-trial","68","310257","0.0-10.0-1.22","808","""event"",""trial"",""time""
""fullscreenenter"",""0"",""7923""
","
","
","""event"",""trial"",""time""
""fullscreenenter"",""0"",""7923""
","
","3919.930000000051","<img style='border: 4px solid darkgrey;' src='img/tf1_23_M_ss1.jpeg'></img>","1","","exp","","2","<img src='img/tf1_23_T1_ss1_md.jpeg'></img>","0","false",""
"","html-keyboard-response","69","310760","0.0-10.0-0.23","808","""event"",""trial"",""time""
""fullscreenenter"",""0"",""7923""
","
","
","""event"",""trial"",""time""
""fullscreenenter"",""0"",""7923""
","
","null","<div style=""font-size:60px;"">+</div>","","null","fixation","2021-04-26 20:45:05.381","","","","",""
"","mars-trial","70","329189","0.0-10.0-1.23","808","""event"",""trial"",""time""
""fullscreenenter"",""0"",""7923""
","
","
","""event"",""trial"",""time""
""fullscreenenter"",""0"",""7923""
","
","17821.79499999981","<img style='border: 4px solid darkgrey;' src='img/tf1_24_M_ss2.jpeg'></img>","1","","exp","","0","<img src='img/tf1_24_T1_ss2_md.jpeg'></img>","0","true",""
"","html-keyboard-response","71","329692","0.0-10.0-0.24","808","""event"",""trial"",""time""
""fullscreenenter"",""0"",""7923""
""fullscreenexit"",""72"",""348408""
""blur"",""72"",""352687""
","""event"",""trial"",""time""
""blur"",""72"",""352687""
","
","""event"",""trial"",""time""
""fullscreenenter"",""0"",""7923""
","""event"",""trial"",""time""
""fullscreenexit"",""72"",""348408""
","null","<div style=""font-size:60px;"">+</div>","","null","fixation","2021-04-26 20:45:24.313","","","","",""
"","mars-trial","72","360513","0.0-10.0-1.24","808","""event"",""trial"",""time""
""fullscreenenter"",""0"",""7923""
""fullscreenexit"",""72"",""348408""
""blur"",""72"",""352687""
","""event"",""trial"",""time""
""blur"",""72"",""352687""
","
","""event"",""trial"",""time""
""fullscreenenter"",""0"",""7923""
","""event"",""trial"",""time""
""fullscreenexit"",""72"",""348408""
","null","<img style='border: 4px solid darkgrey;' src='img/tf1_25_M_ss3.jpeg'></img>","null","","exp","","null","<img src='img/tf1_25_T1_ss3_md.jpeg'></img>","0","false",""
"","html-keyboard-response","73","361513","0.0-10.0-0.25","808","""event"",""trial"",""time""
""fullscreenenter"",""0"",""7923""
""fullscreenexit"",""72"",""348408""
""blur"",""72"",""352687""
","""event"",""trial"",""time""
""blur"",""72"",""352687""
","
","""event"",""trial"",""time""
""fullscreenenter"",""0"",""7923""
","""event"",""trial"",""time""
""fullscreenexit"",""72"",""348408""
","null","<div style=""font-size:60px;"">+</div>","","null","fixation","2021-04-26 20:45:56.134","","","","",""
"","mars-trial","74","393512","0.0-10.0-1.25","808","""event"",""trial"",""time""
""fullscreenenter"",""0"",""7923""
""fullscreenexit"",""72"",""348408""
""blur"",""72"",""352687""
","""event"",""trial"",""time""
""blur"",""72"",""352687""
","
","""event"",""trial"",""time""
""fullscreenenter"",""0"",""7923""
","""event"",""trial"",""time""
""fullscreenexit"",""72"",""348408""
","null","<img style='border: 4px solid darkgrey;' src='img/tf1_26_M_ss1.jpeg'></img>","null","","exp","","null","<img src='img/tf1_26_T1_ss1_md.jpeg'></img>","0","false",""
"","html-keyboard-response","75","394512","0.0-10.0-0.26","808","""event"",""trial"",""time""
""fullscreenenter"",""0"",""7923""
""fullscreenexit"",""72"",""348408""
""blur"",""72"",""352687""
""focus"",""76"",""401205""
","""event"",""trial"",""time""
""blur"",""72"",""352687""
","""event"",""trial"",""time""
""focus"",""76"",""401205""
","""event"",""trial"",""time""
""fullscreenenter"",""0"",""7923""
","""event"",""trial"",""time""
""fullscreenexit"",""72"",""348408""
","null","<div style=""font-size:60px;"">+</div>","","null","fixation","2021-04-26 20:46:29.134","","","","",""
"","mars-trial","76","416272","0.0-10.0-1.26","808","""event"",""trial"",""time""
""fullscreenenter"",""0"",""7923""
""fullscreenexit"",""72"",""348408""
""blur"",""72"",""352687""
""focus"",""76"",""401205""
","""event"",""trial"",""time""
""blur"",""72"",""352687""
","""event"",""trial"",""time""
""focus"",""76"",""401205""
","""event"",""trial"",""time""
""fullscreenenter"",""0"",""7923""
","""event"",""trial"",""time""
""fullscreenexit"",""72"",""348408""
","20252.9549999999","<img style='border: 4px solid darkgrey;' src='img/tf1_27_M_ss2.jpeg'></img>","2","","exp","","3","<img src='img/tf1_27_T1_ss2_md.jpeg'></img>","0","false",""
"","html-keyboard-response","77","416775","0.0-10.0-0.27","808","""event"",""trial"",""time""
""fullscreenenter"",""0"",""7923""
""fullscreenexit"",""72"",""348408""
""blur"",""72"",""352687""
""focus"",""76"",""401205""
","""event"",""trial"",""time""
""blur"",""72"",""352687""
","""event"",""trial"",""time""
""focus"",""76"",""401205""
","""event"",""trial"",""time""
""fullscreenenter"",""0"",""7923""
","""event"",""trial"",""time""
""fullscreenexit"",""72"",""348408""
","null","<div style=""font-size:60px;"">+</div>","","null","fixation","2021-04-26 20:46:51.396","","","","",""
"","mars-trial","78","446117","0.0-10.0-1.27","808","""event"",""trial"",""time""
""fullscreenenter"",""0"",""7923""
""fullscreenexit"",""72"",""348408""
""blur"",""72"",""352687""
""focus"",""76"",""401205""
","""event"",""trial"",""time""
""blur"",""72"",""352687""
","""event"",""trial"",""time""
""focus"",""76"",""401205""
","""event"",""trial"",""time""
""fullscreenenter"",""0"",""7923""
","""event"",""trial"",""time""
""fullscreenexit"",""72"",""348408""
","28731.494999999995","<img style='border: 4px solid darkgrey;' src='img/tf1_28_M_ss3.jpeg'></img>","2","","exp","","0","<img src='img/tf1_28_T1_ss3_md.jpeg'></img>","0","true",""
"","html-keyboard-response","79","446619","0.0-10.0-0.28","808","""event"",""trial"",""time""
""fullscreenenter"",""0"",""7923""
""fullscreenexit"",""72"",""348408""
""blur"",""72"",""352687""
""focus"",""76"",""401205""
","""event"",""trial"",""time""
""blur"",""72"",""352687""
","""event"",""trial"",""time""
""focus"",""76"",""401205""
","""event"",""trial"",""time""
""fullscreenenter"",""0"",""7923""
","""event"",""trial"",""time""
""fullscreenexit"",""72"",""348408""
","null","<div style=""font-size:60px;"">+</div>","","null","fixation","2021-04-26 20:47:21.240","","","","",""
"","mars-trial","80","457189","0.0-10.0-1.28","808","""event"",""trial"",""time""
""fullscreenenter"",""0"",""7923""
""fullscreenexit"",""72"",""348408""
""blur"",""72"",""352687""
""focus"",""76"",""401205""
","""event"",""trial"",""time""
""blur"",""72"",""352687""
","""event"",""trial"",""time""
""focus"",""76"",""401205""
","""event"",""trial"",""time""
""fullscreenenter"",""0"",""7923""
","""event"",""trial"",""time""
""fullscreenexit"",""72"",""348408""
","9961.914999999863","<img style='border: 4px solid darkgrey;' src='img/tf1_29_M_ss1.jpeg'></img>","2","","exp","","3","<img src='img/tf1_29_T1_ss1_md.jpeg'></img>","0","false",""
"","html-keyboard-response","81","457691","0.0-10.0-0.29","808","""event"",""trial"",""time""
""fullscreenenter"",""0"",""7923""
""fullscreenexit"",""72"",""348408""
""blur"",""72"",""352687""
""focus"",""76"",""401205""
","""event"",""trial"",""time""
""blur"",""72"",""352687""
","""event"",""trial"",""time""
""focus"",""76"",""401205""
","""event"",""trial"",""time""
""fullscreenenter"",""0"",""7923""
","""event"",""trial"",""time""
""fullscreenexit"",""72"",""348408""
","null","<div style=""font-size:60px;"">+</div>","","null","fixation","2021-04-26 20:47:32.312","","","","",""
"","mars-trial","82","485333","0.0-10.0-1.29","808","""event"",""trial"",""time""
""fullscreenenter"",""0"",""7923""
""fullscreenexit"",""72"",""348408""
""blur"",""72"",""352687""
""focus"",""76"",""401205""
","""event"",""trial"",""time""
""blur"",""72"",""352687""
","""event"",""trial"",""time""
""focus"",""76"",""401205""
","""event"",""trial"",""time""
""fullscreenenter"",""0"",""7923""
","""event"",""trial"",""time""
""fullscreenexit"",""72"",""348408""
","27032.78499999945","<img style='border: 4px solid darkgrey;' src='img/tf1_30_M_ss2.jpeg'></img>","3","","exp","","2","<img src='img/tf1_30_T1_ss2_md.jpeg'></img>","0","false",""
"","html-keyboard-response","83","485836","0.0-10.0-0.30","808","""event"",""trial"",""time""
""fullscreenenter"",""0"",""7923""
""fullscreenexit"",""72"",""348408""
""blur"",""72"",""352687""
""focus"",""76"",""401205""
","""event"",""trial"",""time""
""blur"",""72"",""352687""
","""event"",""trial"",""time""
""focus"",""76"",""401205""
","""event"",""trial"",""time""
""fullscreenenter"",""0"",""7923""
","""event"",""trial"",""time""
""fullscreenexit"",""72"",""348408""
","null","<div style=""font-size:60px;"">+</div>","","null","fixation","2021-04-26 20:48:00.457","","","","",""
"","mars-trial","84","501147","0.0-10.0-1.30","808","""event"",""trial"",""time""
""fullscreenenter"",""0"",""7923""
""fullscreenexit"",""72"",""348408""
""blur"",""72"",""352687""
""focus"",""76"",""401205""
","""event"",""trial"",""time""
""blur"",""72"",""352687""
","""event"",""trial"",""time""
""focus"",""76"",""401205""
","""event"",""trial"",""time""
""fullscreenenter"",""0"",""7923""
","""event"",""trial"",""time""
""fullscreenexit"",""72"",""348408""
","14703.204999997979","<img style='border: 4px solid darkgrey;' src='img/tf1_31_M_ss3.jpeg'></img>","1","","exp","","2","<img src='img/tf1_31_T1_ss3_md.jpeg'></img>","0","false",""
"","html-keyboard-response","85","501653","0.0-10.0-0.31","808","""event"",""trial"",""time""
""fullscreenenter"",""0"",""7923""
""fullscreenexit"",""72"",""348408""
""blur"",""72"",""352687""
""focus"",""76"",""401205""
","""event"",""trial"",""time""
""blur"",""72"",""352687""
","""event"",""trial"",""time""
""focus"",""76"",""401205""
","""event"",""trial"",""time""
""fullscreenenter"",""0"",""7923""
","""event"",""trial"",""time""
""fullscreenexit"",""72"",""348408""
","null","<div style=""font-size:60px;"">+</div>","","null","fixation","2021-04-26 20:48:16.274","","","","",""
"","mars-trial","86","503286","0.0-10.0-1.31","808","""event"",""trial"",""time""
""fullscreenenter"",""0"",""7923""
""fullscreenexit"",""72"",""348408""
""blur"",""72"",""352687""
""focus"",""76"",""401205""
","""event"",""trial"",""time""
""blur"",""72"",""352687""
","""event"",""trial"",""time""
""focus"",""76"",""401205""
","""event"",""trial"",""time""
""fullscreenenter"",""0"",""7923""
","""event"",""trial"",""time""
""fullscreenexit"",""72"",""348408""
","1024.5099999993108","<img style='border: 4px solid darkgrey;' src='img/tf1_32_M_ss1.jpeg'></img>","2","","exp","","0","<img src='img/tf1_32_T1_ss1_md.jpeg'></img>","0","true",""
"","html-keyboard-response","87","503788","0.0-10.0-0.32","808","""event"",""trial"",""time""
""fullscreenenter"",""0"",""7923""
""fullscreenexit"",""72"",""348408""
""blur"",""72"",""352687""
""focus"",""76"",""401205""
","""event"",""trial"",""time""
""blur"",""72"",""352687""
","""event"",""trial"",""time""
""focus"",""76"",""401205""
","""event"",""trial"",""time""
""fullscreenenter"",""0"",""7923""
","""event"",""trial"",""time""
""fullscreenexit"",""72"",""348408""
","null","<div style=""font-size:60px;"">+</div>","","null","fixation","2021-04-26 20:48:18.410","","","","",""
"","mars-trial","88","505214","0.0-10.0-1.32","808","""event"",""trial"",""time""
""fullscreenenter"",""0"",""7923""
""fullscreenexit"",""72"",""348408""
""blur"",""72"",""352687""
""focus"",""76"",""401205""
","""event"",""trial"",""time""
""blur"",""72"",""352687""
","""event"",""trial"",""time""
""focus"",""76"",""401205""
","""event"",""trial"",""time""
""fullscreenenter"",""0"",""7923""
","""event"",""trial"",""time""
""fullscreenexit"",""72"",""348408""
","818.2200000010198","<img style='border: 4px solid darkgrey;' src='img/tf1_33_M_ss2.jpeg'></img>","1","","exp","","3","<img src='img/tf1_33_T1_ss2_md.jpeg'></img>","0","false",""
"","html-keyboard-response","89","505716","0.0-10.0-0.33","808","""event"",""trial"",""time""
""fullscreenenter"",""0"",""7923""
""fullscreenexit"",""72"",""348408""
""blur"",""72"",""352687""
""focus"",""76"",""401205""
","""event"",""trial"",""time""
""blur"",""72"",""352687""
","""event"",""trial"",""time""
""focus"",""76"",""401205""
","""event"",""trial"",""time""
""fullscreenenter"",""0"",""7923""
","""event"",""trial"",""time""
""fullscreenexit"",""72"",""348408""
","null","<div style=""font-size:60px;"">+</div>","","null","fixation","2021-04-26 20:48:20.337","","","","",""
"","mars-trial","90","507271","0.0-10.0-1.33","808","""event"",""trial"",""time""
""fullscreenenter"",""0"",""7923""
""fullscreenexit"",""72"",""348408""
""blur"",""72"",""352687""
""focus"",""76"",""401205""
","""event"",""trial"",""time""
""blur"",""72"",""352687""
","""event"",""trial"",""time""
""focus"",""76"",""401205""
","""event"",""trial"",""time""
""fullscreenenter"",""0"",""7923""
","""event"",""trial"",""time""
""fullscreenexit"",""72"",""348408""
","948.979999997362","<img style='border: 4px solid darkgrey;' src='img/tf1_34_M_ss3.jpeg'></img>","0","","exp","","2","<img src='img/tf1_34_T1_ss3_md.jpeg'></img>","0","false",""
"","html-keyboard-response","91","507773","0.0-10.0-0.34","808","""event"",""trial"",""time""
""fullscreenenter"",""0"",""7923""
""fullscreenexit"",""72"",""348408""
""blur"",""72"",""352687""
""focus"",""76"",""401205""
","""event"",""trial"",""time""
""blur"",""72"",""352687""
","""event"",""trial"",""time""
""focus"",""76"",""401205""
","""event"",""trial"",""time""
""fullscreenenter"",""0"",""7923""
","""event"",""trial"",""time""
""fullscreenexit"",""72"",""348408""
","null","<div style=""font-size:60px;"">+</div>","","null","fixation","2021-04-26 20:48:22.394","","","","",""
"","mars-trial","92","508687","0.0-10.0-1.34","808","""event"",""trial"",""time""
""fullscreenenter"",""0"",""7923""
""fullscreenexit"",""72"",""348408""
""blur"",""72"",""352687""
""focus"",""76"",""401205""
","""event"",""trial"",""time""
""blur"",""72"",""352687""
","""event"",""trial"",""time""
""focus"",""76"",""401205""
","""event"",""trial"",""time""
""fullscreenenter"",""0"",""7923""
","""event"",""trial"",""time""
""fullscreenexit"",""72"",""348408""
","306.8700000003446","<img style='border: 4px solid darkgrey;' src='img/tf1_35_M_ss1.jpeg'></img>","2","","exp","","2","<img src='img/tf1_35_T1_ss1_md.jpeg'></img>","0","false",""
"","html-keyboard-response","93","509190","0.0-10.0-0.35","808","""event"",""trial"",""time""
""fullscreenenter"",""0"",""7923""
""fullscreenexit"",""72"",""348408""
""blur"",""72"",""352687""
""focus"",""76"",""401205""
","""event"",""trial"",""time""
""blur"",""72"",""352687""
","""event"",""trial"",""time""
""focus"",""76"",""401205""
","""event"",""trial"",""time""
""fullscreenenter"",""0"",""7923""
","""event"",""trial"",""time""
""fullscreenexit"",""72"",""348408""
","null","<div style=""font-size:60px;"">+</div>","","null","fixation","2021-04-26 20:48:23.811","","","","",""
"","mars-trial","94","510172","0.0-10.0-1.35","808","""event"",""trial"",""time""
""fullscreenenter"",""0"",""7923""
""fullscreenexit"",""72"",""348408""
""blur"",""72"",""352687""
""focus"",""76"",""401205""
","""event"",""trial"",""time""
""blur"",""72"",""352687""
","""event"",""trial"",""time""
""focus"",""76"",""401205""
","""event"",""trial"",""time""
""fullscreenenter"",""0"",""7923""
","""event"",""trial"",""time""
""fullscreenexit"",""72"",""348408""
","374.7700000022305","<img style='border: 4px solid darkgrey;' src='img/tf1_36_M_ss2.jpeg'></img>","1","","exp","","2","<img src='img/tf1_36_T1_ss2_md.jpeg'></img>","0","false",""
"","html-keyboard-response","95","510674","0.0-10.0-0.36","808","""event"",""trial"",""time""
""fullscreenenter"",""0"",""7923""
""fullscreenexit"",""72"",""348408""
""blur"",""72"",""352687""
""focus"",""76"",""401205""
","""event"",""trial"",""time""
""blur"",""72"",""352687""
","""event"",""trial"",""time""
""focus"",""76"",""401205""
","""event"",""trial"",""time""
""fullscreenenter"",""0"",""7923""
","""event"",""trial"",""time""
""fullscreenexit"",""72"",""348408""
","null","<div style=""font-size:60px;"">+</div>","","null","fixation","2021-04-26 20:48:25.295","","","","",""
"","mars-trial","96","512161","0.0-10.0-1.36","808","""event"",""trial"",""time""
""fullscreenenter"",""0"",""7923""
""fullscreenexit"",""72"",""348408""
""blur"",""72"",""352687""
""focus"",""76"",""401205""
","""event"",""trial"",""time""
""blur"",""72"",""352687""
","""event"",""trial"",""time""
""focus"",""76"",""401205""
","""event"",""trial"",""time""
""fullscreenenter"",""0"",""7923""
","""event"",""trial"",""time""
""fullscreenexit"",""72"",""348408""
","880.2250000007916","<img style='border: 4px solid darkgrey;' src='img/tf1_37_M_ss3.jpeg'></img>","3","","exp","","3","<img src='img/tf1_37_T1_ss3_md.jpeg'></img>","0","false",""
"","html-keyboard-response","97","512663","0.0-10.0-0.37","808","""event"",""trial"",""time""
""fullscreenenter"",""0"",""7923""
""fullscreenexit"",""72"",""348408""
""blur"",""72"",""352687""
""focus"",""76"",""401205""
","""event"",""trial"",""time""
""blur"",""72"",""352687""
","""event"",""trial"",""time""
""focus"",""76"",""401205""
","""event"",""trial"",""time""
""fullscreenenter"",""0"",""7923""
","""event"",""trial"",""time""
""fullscreenexit"",""72"",""348408""
","null","<div style=""font-size:60px;"">+</div>","","null","fixation","2021-04-26 20:48:27.284","","","","",""
"","mars-trial","98","516368","0.0-10.0-1.37","808","""event"",""trial"",""time""
""fullscreenenter"",""0"",""7923""
""fullscreenexit"",""72"",""348408""
""blur"",""72"",""352687""
""focus"",""76"",""401205""
","""event"",""trial"",""time""
""blur"",""72"",""352687""
","""event"",""trial"",""time""
""focus"",""76"",""401205""
","""event"",""trial"",""time""
""fullscreenenter"",""0"",""7923""
","""event"",""trial"",""time""
""fullscreenexit"",""72"",""348408""
","3099.050000000745","<img style='border: 4px solid darkgrey;' src='img/tf1_38_M_ss1.jpeg'></img>","1","","exp","","1","<img src='img/tf1_38_T1_ss1_md.jpeg'></img>","0","false",""
"","html-keyboard-response","99","516871","0.0-10.0-0.38","808","""event"",""trial"",""time""
""fullscreenenter"",""0"",""7923""
""fullscreenexit"",""72"",""348408""
""blur"",""72"",""352687""
""focus"",""76"",""401205""
","""event"",""trial"",""time""
""blur"",""72"",""352687""
","""event"",""trial"",""time""
""focus"",""76"",""401205""
","""event"",""trial"",""time""
""fullscreenenter"",""0"",""7923""
","""event"",""trial"",""time""
""fullscreenexit"",""72"",""348408""
","null","<div style=""font-size:60px;"">+</div>","","null","fixation","2021-04-26 20:48:31.492","","","","",""
"","mars-trial","100","517955","0.0-10.0-1.38","808","""event"",""trial"",""time""
""fullscreenenter"",""0"",""7923""
""fullscreenexit"",""72"",""348408""
""blur"",""72"",""352687""
""focus"",""76"",""401205""
","""event"",""trial"",""time""
""blur"",""72"",""352687""
","""event"",""trial"",""time""
""focus"",""76"",""401205""
","""event"",""trial"",""time""
""fullscreenenter"",""0"",""7923""
","""event"",""trial"",""time""
""fullscreenexit"",""72"",""348408""
","476.6300000010524","<img style='border: 4px solid darkgrey;' src='img/tf1_39_M_ss2.jpeg'></img>","0","","exp","","2","<img src='img/tf1_39_T1_ss2_md.jpeg'></img>","0","false",""
"","html-keyboard-response","101","518457","0.0-10.0-0.39","808","""event"",""trial"",""time""
""fullscreenenter"",""0"",""7923""
""fullscreenexit"",""72"",""348408""
""blur"",""72"",""352687""
""focus"",""76"",""401205""
","""event"",""trial"",""time""
""blur"",""72"",""352687""
","""event"",""trial"",""time""
""focus"",""76"",""401205""
","""event"",""trial"",""time""
""fullscreenenter"",""0"",""7923""
","""event"",""trial"",""time""
""fullscreenexit"",""72"",""348408""
","null","<div style=""font-size:60px;"">+</div>","","null","fixation","2021-04-26 20:48:33.078","","","","",""
"","mars-trial","102","519511","0.0-10.0-1.39","808","""event"",""trial"",""time""
""fullscreenenter"",""0"",""7923""
""fullscreenexit"",""72"",""348408""
""blur"",""72"",""352687""
""focus"",""76"",""401205""
","""event"",""trial"",""time""
""blur"",""72"",""352687""
","""event"",""trial"",""time""
""focus"",""76"",""401205""
","""event"",""trial"",""time""
""fullscreenenter"",""0"",""7923""
","""event"",""trial"",""time""
""fullscreenexit"",""72"",""348408""
","448.1649999979418","<img style='border: 4px solid darkgrey;' src='img/tf1_40_M_ss3.jpeg'></img>","2","","exp","","1","<img src='img/tf1_40_T1_ss3_md.jpeg'></img>","0","false",""
"","html-keyboard-response","103","520013","0.0-10.0-0.40","808","""event"",""trial"",""time""
""fullscreenenter"",""0"",""7923""
""fullscreenexit"",""72"",""348408""
""blur"",""72"",""352687""
""focus"",""76"",""401205""
","""event"",""trial"",""time""
""blur"",""72"",""352687""
","""event"",""trial"",""time""
""focus"",""76"",""401205""
","""event"",""trial"",""time""
""fullscreenenter"",""0"",""7923""
","""event"",""trial"",""time""
""fullscreenexit"",""72"",""348408""
","null","<div style=""font-size:60px;"">+</div>","","null","fixation","2021-04-26 20:48:34.635","","","","",""
"","mars-trial","104","521179","0.0-10.0-1.40","808","""event"",""trial"",""time""
""fullscreenenter"",""0"",""7923""
""fullscreenexit"",""72"",""348408""
""blur"",""72"",""352687""
""focus"",""76"",""401205""
","""event"",""trial"",""time""
""blur"",""72"",""352687""
","""event"",""trial"",""time""
""focus"",""76"",""401205""
","""event"",""trial"",""time""
""fullscreenenter"",""0"",""7923""
","""event"",""trial"",""time""
""fullscreenexit"",""72"",""348408""
","558.6699999985285","<img style='border: 4px solid darkgrey;' src='img/tf1_41_M_ss1.jpeg'></img>","3","","exp","","0","<img src='img/tf1_41_T1_ss1_md.jpeg'></img>","0","true",""
"","html-keyboard-response","105","521682","0.0-10.0-0.41","808","""event"",""trial"",""time""
""fullscreenenter"",""0"",""7923""
""fullscreenexit"",""72"",""348408""
""blur"",""72"",""352687""
""focus"",""76"",""401205""
","""event"",""trial"",""time""
""blur"",""72"",""352687""
","""event"",""trial"",""time""
""focus"",""76"",""401205""
","""event"",""trial"",""time""
""fullscreenenter"",""0"",""7923""
","""event"",""trial"",""time""
""fullscreenexit"",""72"",""348408""
","null","<div style=""font-size:60px;"">+</div>","","null","fixation","2021-04-26 20:48:36.303","","","","",""
"","mars-trial","106","527293","0.0-10.0-1.41","808","""event"",""trial"",""time""
""fullscreenenter"",""0"",""7923""
""fullscreenexit"",""72"",""348408""
""blur"",""72"",""352687""
""focus"",""76"",""401205""
","""event"",""trial"",""time""
""blur"",""72"",""352687""
","""event"",""trial"",""time""
""focus"",""76"",""401205""
","""event"",""trial"",""time""
""fullscreenenter"",""0"",""7923""
","""event"",""trial"",""time""
""fullscreenexit"",""72"",""348408""
","5004.905000001658","<img style='border: 4px solid darkgrey;' src='img/tf1_42_M_ss2.jpeg'></img>","3","","exp","","1","<img src='img/tf1_42_T1_ss2_md.jpeg'></img>","0","false",""
"","html-keyboard-response","107","527812","0.0-10.0-0.42","808","""event"",""trial"",""time""
""fullscreenenter"",""0"",""7923""
""fullscreenexit"",""72"",""348408""
""blur"",""72"",""352687""
""focus"",""76"",""401205""
","""event"",""trial"",""time""
""blur"",""72"",""352687""
","""event"",""trial"",""time""
""focus"",""76"",""401205""
","""event"",""trial"",""time""
""fullscreenenter"",""0"",""7923""
","""event"",""trial"",""time""
""fullscreenexit"",""72"",""348408""
","null","<div style=""font-size:60px;"">+</div>","","null","fixation","2021-04-26 20:48:42.433","","","","",""
"","mars-trial","108","541851","0.0-10.0-1.42","808","""event"",""trial"",""time""
""fullscreenenter"",""0"",""7923""
""fullscreenexit"",""72"",""348408""
""blur"",""72"",""352687""
""focus"",""76"",""401205""
","""event"",""trial"",""time""
""blur"",""72"",""352687""
","""event"",""trial"",""time""
""focus"",""76"",""401205""
","""event"",""trial"",""time""
""fullscreenenter"",""0"",""7923""
","""event"",""trial"",""time""
""fullscreenexit"",""72"",""348408""
","13426.350000001607","<img style='border: 4px solid darkgrey;' src='img/tf1_43_M_ss3.jpeg'></img>","3","","exp","","1","<img src='img/tf1_43_T1_ss3_md.jpeg'></img>","0","false",""
"","html-keyboard-response","109","542355","0.0-10.0-0.43","808","""event"",""trial"",""time""
""fullscreenenter"",""0"",""7923""
""fullscreenexit"",""72"",""348408""
""blur"",""72"",""352687""
""focus"",""76"",""401205""
","""event"",""trial"",""time""
""blur"",""72"",""352687""
","""event"",""trial"",""time""
""focus"",""76"",""401205""
","""event"",""trial"",""time""
""fullscreenenter"",""0"",""7923""
","""event"",""trial"",""time""
""fullscreenexit"",""72"",""348408""
","null","<div style=""font-size:60px;"">+</div>","","null","fixation","2021-04-26 20:48:56.976","","","","",""
"","mars-trial","110","546304","0.0-10.0-1.43","808","""event"",""trial"",""time""
""fullscreenenter"",""0"",""7923""
""fullscreenexit"",""72"",""348408""
""blur"",""72"",""352687""
""focus"",""76"",""401205""
","""event"",""trial"",""time""
""blur"",""72"",""352687""
","""event"",""trial"",""time""
""focus"",""76"",""401205""
","""event"",""trial"",""time""
""fullscreenenter"",""0"",""7923""
","""event"",""trial"",""time""
""fullscreenexit"",""72"",""348408""
","3340.1400000001304","<img style='border: 4px solid darkgrey;' src='img/tf1_44_M_ss1.jpeg'></img>","1","","exp","","2","<img src='img/tf1_44_T1_ss1_md.jpeg'></img>","0","false",""
"","html-keyboard-response","111","546807","0.0-10.0-0.44","808","""event"",""trial"",""time""
""fullscreenenter"",""0"",""7923""
""fullscreenexit"",""72"",""348408""
""blur"",""72"",""352687""
""focus"",""76"",""401205""
","""event"",""trial"",""time""
""blur"",""72"",""352687""
","""event"",""trial"",""time""
""focus"",""76"",""401205""
","""event"",""trial"",""time""
""fullscreenenter"",""0"",""7923""
","""event"",""trial"",""time""
""fullscreenexit"",""72"",""348408""
","null","<div style=""font-size:60px;"">+</div>","","null","fixation","2021-04-26 20:49:01.428","","","","",""
"","mars-trial","112","549336","0.0-10.0-1.44","808","""event"",""trial"",""time""
""fullscreenenter"",""0"",""7923""
""fullscreenexit"",""72"",""348408""
""blur"",""72"",""352687""
""focus"",""76"",""401205""
","""event"",""trial"",""time""
""blur"",""72"",""352687""
","""event"",""trial"",""time""
""focus"",""76"",""401205""
","""event"",""trial"",""time""
""fullscreenenter"",""0"",""7923""
","""event"",""trial"",""time""
""fullscreenexit"",""72"",""348408""
","1920.8900000011781","<img style='border: 4px solid darkgrey;' src='img/tf1_45_M_ss2.jpeg'></img>","3","","exp","","3","<img src='img/tf1_45_T1_ss2_md.jpeg'></img>","0","false",""
"","html-keyboard-response","113","549838","0.0-10.0-0.45","808","""event"",""trial"",""time""
""fullscreenenter"",""0"",""7923""
""fullscreenexit"",""72"",""348408""
""blur"",""72"",""352687""
""focus"",""76"",""401205""
","""event"",""trial"",""time""
""blur"",""72"",""352687""
","""event"",""trial"",""time""
""focus"",""76"",""401205""
","""event"",""trial"",""time""
""fullscreenenter"",""0"",""7923""
","""event"",""trial"",""time""
""fullscreenexit"",""72"",""348408""
","null","<div style=""font-size:60px;"">+</div>","","null","fixation","2021-04-26 20:49:04.459","","","","",""
"","mars-trial","114","552408","0.0-10.0-1.45","808","""event"",""trial"",""time""
""fullscreenenter"",""0"",""7923""
""fullscreenexit"",""72"",""348408""
""blur"",""72"",""352687""
""focus"",""76"",""401205""
","""event"",""trial"",""time""
""blur"",""72"",""352687""
","""event"",""trial"",""time""
""focus"",""76"",""401205""
","""event"",""trial"",""time""
""fullscreenenter"",""0"",""7923""
","""event"",""trial"",""time""
""fullscreenexit"",""72"",""348408""
","1962.0350000003818","<img style='border: 4px solid darkgrey;' src='img/tf1_46_M_ss3.jpeg'></img>","3","","exp","","3","<img src='img/tf1_46_T1_ss3_md.jpeg'></img>","0","false",""
"","html-keyboard-response","115","552909","0.0-10.0-0.46","808","""event"",""trial"",""time""
""fullscreenenter"",""0"",""7923""
""fullscreenexit"",""72"",""348408""
""blur"",""72"",""352687""
""focus"",""76"",""401205""
","""event"",""trial"",""time""
""blur"",""72"",""352687""
","""event"",""trial"",""time""
""focus"",""76"",""401205""
","""event"",""trial"",""time""
""fullscreenenter"",""0"",""7923""
","""event"",""trial"",""time""
""fullscreenexit"",""72"",""348408""
","null","<div style=""font-size:60px;"">+</div>","","null","fixation","2021-04-26 20:49:07.531","","","","",""
"","mars-trial","116","554788","0.0-10.0-1.46","808","""event"",""trial"",""time""
""fullscreenenter"",""0"",""7923""
""fullscreenexit"",""72"",""348408""
""blur"",""72"",""352687""
""focus"",""76"",""401205""
","""event"",""trial"",""time""
""blur"",""72"",""352687""
","""event"",""trial"",""time""
""focus"",""76"",""401205""
","""event"",""trial"",""time""
""fullscreenenter"",""0"",""7923""
","""event"",""trial"",""time""
""fullscreenexit"",""72"",""348408""
","1272.2549999998882","<img style='border: 4px solid darkgrey;' src='img/tf1_47_M_ss1.jpeg'></img>","2","","exp","","3","<img src='img/tf1_47_T1_ss1_md.jpeg'></img>","0","false",""
"","html-keyboard-response","117","555290","0.0-10.0-0.47","808","""event"",""trial"",""time""
""fullscreenenter"",""0"",""7923""
""fullscreenexit"",""72"",""348408""
""blur"",""72"",""352687""
""focus"",""76"",""401205""
","""event"",""trial"",""time""
""blur"",""72"",""352687""
","""event"",""trial"",""time""
""focus"",""76"",""401205""
","""event"",""trial"",""time""
""fullscreenenter"",""0"",""7923""
","""event"",""trial"",""time""
""fullscreenexit"",""72"",""348408""
","null","<div style=""font-size:60px;"">+</div>","","null","fixation","2021-04-26 20:49:09.912","","","","",""
"","mars-trial","118","558132","0.0-10.0-1.47","808","""event"",""trial"",""time""
""fullscreenenter"",""0"",""7923""
""fullscreenexit"",""72"",""348408""
""blur"",""72"",""352687""
""focus"",""76"",""401205""
","""event"",""trial"",""time""
""blur"",""72"",""352687""
","""event"",""trial"",""time""
""focus"",""76"",""401205""
","""event"",""trial"",""time""
""fullscreenenter"",""0"",""7923""
","""event"",""trial"",""time""
""fullscreenexit"",""72"",""348408""
","2234.5600000007544","<img style='border: 4px solid darkgrey;' src='img/tf1_48_M_ss2.jpeg'></img>","0","","exp","","2","<img src='img/tf1_48_T1_ss2_md.jpeg'></img>","0","false",""
"","html-keyboard-response","119","558635","0.0-10.0-0.48","808","""event"",""trial"",""time""
""fullscreenenter"",""0"",""7923""
""fullscreenexit"",""72"",""348408""
""blur"",""72"",""352687""
""focus"",""76"",""401205""
","""event"",""trial"",""time""
""blur"",""72"",""352687""
","""event"",""trial"",""time""
""focus"",""76"",""401205""
","""event"",""trial"",""time""
""fullscreenenter"",""0"",""7923""
","""event"",""trial"",""time""
""fullscreenexit"",""72"",""348408""
","null","<div style=""font-size:60px;"">+</div>","","null","fixation","2021-04-26 20:49:13.256","","","","",""
"","mars-trial","120","563103","0.0-10.0-1.48","808","""event"",""trial"",""time""
""fullscreenenter"",""0"",""7923""
""fullscreenexit"",""72"",""348408""
""blur"",""72"",""352687""
""focus"",""76"",""401205""
","""event"",""trial"",""time""
""blur"",""72"",""352687""
","""event"",""trial"",""time""
""focus"",""76"",""401205""
","""event"",""trial"",""time""
""fullscreenenter"",""0"",""7923""
","""event"",""trial"",""time""
""fullscreenexit"",""72"",""348408""
","3859.635000000708","<img style='border: 4px solid darkgrey;' src='img/tf1_49_M_ss3.jpeg'></img>","3","","exp","","0","<img src='img/tf1_49_T1_ss3_md.jpeg'></img>","0","true",""
"","html-keyboard-response","121","563611","0.0-10.0-0.49","808","""event"",""trial"",""time""
""fullscreenenter"",""0"",""7923""
""fullscreenexit"",""72"",""348408""
""blur"",""72"",""352687""
""focus"",""76"",""401205""
","""event"",""trial"",""time""
""blur"",""72"",""352687""
","""event"",""trial"",""time""
""focus"",""76"",""401205""
","""event"",""trial"",""time""
""fullscreenenter"",""0"",""7923""
","""event"",""trial"",""time""
""fullscreenexit"",""72"",""348408""
","null","<div style=""font-size:60px;"">+</div>","","null","fixation","2021-04-26 20:49:18.233","","","","",""
"","mars-trial","122","569822","0.0-10.0-1.49","808","""event"",""trial"",""time""
""fullscreenenter"",""0"",""7923""
""fullscreenexit"",""72"",""348408""
""blur"",""72"",""352687""
""focus"",""76"",""401205""
","""event"",""trial"",""time""
""blur"",""72"",""352687""
","""event"",""trial"",""time""
""focus"",""76"",""401205""
","""event"",""trial"",""time""
""fullscreenenter"",""0"",""7923""
","""event"",""trial"",""time""
""fullscreenexit"",""72"",""348408""
","5602.854999997304","<img style='border: 4px solid darkgrey;' src='img/tf1_50_M_ss1.jpeg'></img>","2","","exp","","2","<img src='img/tf1_50_T1_ss1_md.jpeg'></img>","0","false",""
"","html-keyboard-response","123","570325","0.0-10.0-0.50","808","""event"",""trial"",""time""
""fullscreenenter"",""0"",""7923""
""fullscreenexit"",""72"",""348408""
""blur"",""72"",""352687""
""focus"",""76"",""401205""
","""event"",""trial"",""time""
""blur"",""72"",""352687""
","""event"",""trial"",""time""
""focus"",""76"",""401205""
","""event"",""trial"",""time""
""fullscreenenter"",""0"",""7923""
","""event"",""trial"",""time""
""fullscreenexit"",""72"",""348408""
","null","<div style=""font-size:60px;"">+</div>","","null","fixation","2021-04-26 20:49:24.946","","","","",""
"","mars-trial","124","572049","0.0-10.0-1.50","808","""event"",""trial"",""time""
""fullscreenenter"",""0"",""7923""
""fullscreenexit"",""72"",""348408""
""blur"",""72"",""352687""
""focus"",""76"",""401205""
","""event"",""trial"",""time""
""blur"",""72"",""352687""
","""event"",""trial"",""time""
""focus"",""76"",""401205""
","""event"",""trial"",""time""
""fullscreenenter"",""0"",""7923""
","""event"",""trial"",""time""
""fullscreenexit"",""72"",""348408""
","1115.669999999227","<img style='border: 4px solid darkgrey;' src='img/tf1_51_M_ss2.jpeg'></img>","1","","exp","","2","<img src='img/tf1_51_T1_ss2_md.jpeg'></img>","0","false",""
"","html-keyboard-response","125","572552","0.0-10.0-0.51","808","""event"",""trial"",""time""
""fullscreenenter"",""0"",""7923""
""fullscreenexit"",""72"",""348408""
""blur"",""72"",""352687""
""focus"",""76"",""401205""
","""event"",""trial"",""time""
""blur"",""72"",""352687""
","""event"",""trial"",""time""
""focus"",""76"",""401205""
","""event"",""trial"",""time""
""fullscreenenter"",""0"",""7923""
","""event"",""trial"",""time""
""fullscreenexit"",""72"",""348408""
","null","<div style=""font-size:60px;"">+</div>","","null","fixation","2021-04-26 20:49:27.174","","","","",""
"","mars-trial","126","573849","0.0-10.0-1.51","808","""event"",""trial"",""time""
""fullscreenenter"",""0"",""7923""
""fullscreenexit"",""72"",""348408""
""blur"",""72"",""352687""
""focus"",""76"",""401205""
","""event"",""trial"",""time""
""blur"",""72"",""352687""
","""event"",""trial"",""time""
""focus"",""76"",""401205""
","""event"",""trial"",""time""
""fullscreenenter"",""0"",""7923""
","""event"",""trial"",""time""
""fullscreenexit"",""72"",""348408""
","689.59000000183","<img style='border: 4px solid darkgrey;' src='img/tf1_52_M_ss3.jpeg'></img>","0","","exp","","1","<img src='img/tf1_52_T1_ss3_md.jpeg'></img>","0","false",""
"","html-keyboard-response","127","574357","0.0-10.0-0.52","808","""event"",""trial"",""time""
""fullscreenenter"",""0"",""7923""
""fullscreenexit"",""72"",""348408""
""blur"",""72"",""352687""
""focus"",""76"",""401205""
","""event"",""trial"",""time""
""blur"",""72"",""352687""
","""event"",""trial"",""time""
""focus"",""76"",""401205""
","""event"",""trial"",""time""
""fullscreenenter"",""0"",""7923""
","""event"",""trial"",""time""
""fullscreenexit"",""72"",""348408""
","null","<div style=""font-size:60px;"">+</div>","","null","fixation","2021-04-26 20:49:28.978","","","","",""
"","mars-trial","128","575481","0.0-10.0-1.52","808","""event"",""trial"",""time""
""fullscreenenter"",""0"",""7923""
""fullscreenexit"",""72"",""348408""
""blur"",""72"",""352687""
""focus"",""76"",""401205""
","""event"",""trial"",""time""
""blur"",""72"",""352687""
","""event"",""trial"",""time""
""focus"",""76"",""401205""
","""event"",""trial"",""time""
""fullscreenenter"",""0"",""7923""
","""event"",""trial"",""time""
""fullscreenexit"",""72"",""348408""
","518.3900000010617","<img style='border: 4px solid darkgrey;' src='img/tf1_53_M_ss1.jpeg'></img>","2","","exp","","0","<img src='img/tf1_53_T1_ss1_md.jpeg'></img>","0","true",""
"","html-keyboard-response","129","575986","0.0-10.0-0.53","808","""event"",""trial"",""time""
""fullscreenenter"",""0"",""7923""
""fullscreenexit"",""72"",""348408""
""blur"",""72"",""352687""
""focus"",""76"",""401205""
","""event"",""trial"",""time""
""blur"",""72"",""352687""
","""event"",""trial"",""time""
""focus"",""76"",""401205""
","""event"",""trial"",""time""
""fullscreenenter"",""0"",""7923""
","""event"",""trial"",""time""
""fullscreenexit"",""72"",""348408""
","null","<div style=""font-size:60px;"">+</div>","","null","fixation","2021-04-26 20:49:30.607","","","","",""
"","mars-trial","130","577194","0.0-10.0-1.53","808","""event"",""trial"",""time""
""fullscreenenter"",""0"",""7923""
""fullscreenexit"",""72"",""348408""
""blur"",""72"",""352687""
""focus"",""76"",""401205""
","""event"",""trial"",""time""
""blur"",""72"",""352687""
","""event"",""trial"",""time""
""focus"",""76"",""401205""
","""event"",""trial"",""time""
""fullscreenenter"",""0"",""7923""
","""event"",""trial"",""time""
""fullscreenexit"",""72"",""348408""
","599.9100000008475","<img style='border: 4px solid darkgrey;' src='img/tf1_54_M_ss2.jpeg'></img>","1","","exp","","0","<img src='img/tf1_54_T1_ss2_md.jpeg'></img>","0","true",""
"","html-keyboard-response","131","577696","0.0-10.0-0.54","808","""event"",""trial"",""time""
""fullscreenenter"",""0"",""7923""
""fullscreenexit"",""72"",""348408""
""blur"",""72"",""352687""
""focus"",""76"",""401205""
","""event"",""trial"",""time""
""blur"",""72"",""352687""
","""event"",""trial"",""time""
""focus"",""76"",""401205""
","""event"",""trial"",""time""
""fullscreenenter"",""0"",""7923""
","""event"",""trial"",""time""
""fullscreenexit"",""72"",""348408""
","null","<div style=""font-size:60px;"">+</div>","","null","fixation","2021-04-26 20:49:32.317","","","","",""
"","mars-trial","132","578776","0.0-10.0-1.54","808","""event"",""trial"",""time""
""fullscreenenter"",""0"",""7923""
""fullscreenexit"",""72"",""348408""
""blur"",""72"",""352687""
""focus"",""76"",""401205""
","""event"",""trial"",""time""
""blur"",""72"",""352687""
","""event"",""trial"",""time""
""focus"",""76"",""401205""
","""event"",""trial"",""time""
""fullscreenenter"",""0"",""7923""
","""event"",""trial"",""time""
""fullscreenexit"",""72"",""348408""
","474.35500000207685","<img style='border: 4px solid darkgrey;' src='img/tf1_55_M_ss3.jpeg'></img>","2","","exp","","2","<img src='img/tf1_55_T1_ss3_md.jpeg'></img>","0","false",""
"","html-keyboard-response","133","579278","0.0-10.0-0.55","808","""event"",""trial"",""time""
""fullscreenenter"",""0"",""7923""
""fullscreenexit"",""72"",""348408""
""blur"",""72"",""352687""
""focus"",""76"",""401205""
","""event"",""trial"",""time""
""blur"",""72"",""352687""
","""event"",""trial"",""time""
""focus"",""76"",""401205""
","""event"",""trial"",""time""
""fullscreenenter"",""0"",""7923""
","""event"",""trial"",""time""
""fullscreenexit"",""72"",""348408""
","null","<div style=""font-size:60px;"">+</div>","","null","fixation","2021-04-26 20:49:33.899","","","","",""
"","mars-trial","134","580183","0.0-10.0-1.55","808","""event"",""trial"",""time""
""fullscreenenter"",""0"",""7923""
""fullscreenexit"",""72"",""348408""
""blur"",""72"",""352687""
""focus"",""76"",""401205""
","""event"",""trial"",""time""
""blur"",""72"",""352687""
","""event"",""trial"",""time""
""focus"",""76"",""401205""
","""event"",""trial"",""time""
""fullscreenenter"",""0"",""7923""
","""event"",""trial"",""time""
""fullscreenexit"",""72"",""348408""
","299.6999999996042","<img style='border: 4px solid darkgrey;' src='img/tf1_56_M_ss1.jpeg'></img>","0","","exp","","2","<img src='img/tf1_56_T1_ss1_md.jpeg'></img>","0","false",""
"","html-keyboard-response","135","580686","0.0-10.0-0.56","808","""event"",""trial"",""time""
""fullscreenenter"",""0"",""7923""
""fullscreenexit"",""72"",""348408""
""blur"",""72"",""352687""
""focus"",""76"",""401205""
","""event"",""trial"",""time""
""blur"",""72"",""352687""
","""event"",""trial"",""time""
""focus"",""76"",""401205""
","""event"",""trial"",""time""
""fullscreenenter"",""0"",""7923""
","""event"",""trial"",""time""
""fullscreenexit"",""72"",""348408""
","null","<div style=""font-size:60px;"">+</div>","","null","fixation","2021-04-26 20:49:35.307","","","","",""
"","mars-trial","136","583025","0.0-10.0-1.56","808","""event"",""trial"",""time""
""fullscreenenter"",""0"",""7923""
""fullscreenexit"",""72"",""348408""
""blur"",""72"",""352687""
""focus"",""76"",""401205""
","""event"",""trial"",""time""
""blur"",""72"",""352687""
","""event"",""trial"",""time""
""focus"",""76"",""401205""
","""event"",""trial"",""time""
""fullscreenenter"",""0"",""7923""
","""event"",""trial"",""time""
""fullscreenexit"",""72"",""348408""
","1732.640000001993","<img style='border: 4px solid darkgrey;' src='img/tf1_57_M_ss2.jpeg'></img>","3","","exp","","2","<img src='img/tf1_57_T1_ss2_md.jpeg'></img>","0","false",""
"","html-keyboard-response","137","583528","0.0-10.0-0.57","808","""event"",""trial"",""time""
""fullscreenenter"",""0"",""7923""
""fullscreenexit"",""72"",""348408""
""blur"",""72"",""352687""
""focus"",""76"",""401205""
","""event"",""trial"",""time""
""blur"",""72"",""352687""
","""event"",""trial"",""time""
""focus"",""76"",""401205""
","""event"",""trial"",""time""
""fullscreenenter"",""0"",""7923""
","""event"",""trial"",""time""
""fullscreenexit"",""72"",""348408""
","null","<div style=""font-size:60px;"">+</div>","","null","fixation","2021-04-26 20:49:38.149","","","","",""
"","mars-trial","138","585857","0.0-10.0-1.57","808","""event"",""trial"",""time""
""fullscreenenter"",""0"",""7923""
""fullscreenexit"",""72"",""348408""
""blur"",""72"",""352687""
""focus"",""76"",""401205""
","""event"",""trial"",""time""
""blur"",""72"",""352687""
","""event"",""trial"",""time""
""focus"",""76"",""401205""
","""event"",""trial"",""time""
""fullscreenenter"",""0"",""7923""
","""event"",""trial"",""time""
""fullscreenexit"",""72"",""348408""
","1722.4250000000466","<img style='border: 4px solid darkgrey;' src='img/tf1_58_M_ss3.jpeg'></img>","1","","exp","","1","<img src='img/tf1_58_T1_ss3_md.jpeg'></img>","0","false",""
"","html-keyboard-response","139","586359","0.0-10.0-0.58","808","""event"",""trial"",""time""
""fullscreenenter"",""0"",""7923""
""fullscreenexit"",""72"",""348408""
""blur"",""72"",""352687""
""focus"",""76"",""401205""
","""event"",""trial"",""time""
""blur"",""72"",""352687""
","""event"",""trial"",""time""
""focus"",""76"",""401205""
","""event"",""trial"",""time""
""fullscreenenter"",""0"",""7923""
","""event"",""trial"",""time""
""fullscreenexit"",""72"",""348408""
","null","<div style=""font-size:60px;"">+</div>","","null","fixation","2021-04-26 20:49:40.980","","","","",""
"","mars-trial","140","587946","0.0-10.0-1.58","808","""event"",""trial"",""time""
""fullscreenenter"",""0"",""7923""
""fullscreenexit"",""72"",""348408""
""blur"",""72"",""352687""
""focus"",""76"",""401205""
","""event"",""trial"",""time""
""blur"",""72"",""352687""
","""event"",""trial"",""time""
""focus"",""76"",""401205""
","""event"",""trial"",""time""
""fullscreenenter"",""0"",""7923""
","""event"",""trial"",""time""
""fullscreenexit"",""72"",""348408""
","980.5200000010664","<img style='border: 4px solid darkgrey;' src='img/tf1_59_M_ss1.jpeg'></img>","0","","exp","","1","<img src='img/tf1_59_T1_ss1_md.jpeg'></img>","0","false",""
"","html-keyboard-response","141","588448","0.0-10.0-0.59","808","""event"",""trial"",""time""
""fullscreenenter"",""0"",""7923""
""fullscreenexit"",""72"",""348408""
""blur"",""72"",""352687""
""focus"",""76"",""401205""
","""event"",""trial"",""time""
""blur"",""72"",""352687""
","""event"",""trial"",""time""
""focus"",""76"",""401205""
","""event"",""trial"",""time""
""fullscreenenter"",""0"",""7923""
","""event"",""trial"",""time""
""fullscreenexit"",""72"",""348408""
","null","<div style=""font-size:60px;"">+</div>","","null","fixation","2021-04-26 20:49:43.070","","","","",""
"","mars-trial","142","589383","0.0-10.0-1.59","808","""event"",""trial"",""time""
""fullscreenenter"",""0"",""7923""
""fullscreenexit"",""72"",""348408""
""blur"",""72"",""352687""
""focus"",""76"",""401205""
","""event"",""trial"",""time""
""blur"",""72"",""352687""
","""event"",""trial"",""time""
""focus"",""76"",""401205""
","""event"",""trial"",""time""
""fullscreenenter"",""0"",""7923""
","""event"",""trial"",""time""
""fullscreenexit"",""72"",""348408""
","328.32999999669846","<img style='border: 4px solid darkgrey;' src='img/tf1_60_M_ss2.jpeg'></img>","2","","exp","","2","<img src='img/tf1_60_T1_ss2_md.jpeg'></img>","0","false",""
"","html-keyboard-response","143","589885","0.0-10.0-0.60","808","""event"",""trial"",""time""
""fullscreenenter"",""0"",""7923""
""fullscreenexit"",""72"",""348408""
""blur"",""72"",""352687""
""focus"",""76"",""401205""
","""event"",""trial"",""time""
""blur"",""72"",""352687""
","""event"",""trial"",""time""
""focus"",""76"",""401205""
","""event"",""trial"",""time""
""fullscreenenter"",""0"",""7923""
","""event"",""trial"",""time""
""fullscreenexit"",""72"",""348408""
","null","<div style=""font-size:60px;"">+</div>","","null","fixation","2021-04-26 20:49:44.506","","","","",""
"","mars-trial","144","590890","0.0-10.0-1.60","808","""event"",""trial"",""time""
""fullscreenenter"",""0"",""7923""
""fullscreenexit"",""72"",""348408""
""blur"",""72"",""352687""
""focus"",""76"",""401205""
","""event"",""trial"",""time""
""blur"",""72"",""352687""
","""event"",""trial"",""time""
""focus"",""76"",""401205""
","""event"",""trial"",""time""
""fullscreenenter"",""0"",""7923""
","""event"",""trial"",""time""
""fullscreenexit"",""72"",""348408""
","397.7149999991525","<img style='border: 4px solid darkgrey;' src='img/tf1_61_M_ss3.jpeg'></img>","1","","exp","","2","<img src='img/tf1_61_T1_ss3_md.jpeg'></img>","0","false",""
"","html-keyboard-response","145","591393","0.0-10.0-0.61","808","""event"",""trial"",""time""
""fullscreenenter"",""0"",""7923""
""fullscreenexit"",""72"",""348408""
""blur"",""72"",""352687""
""focus"",""76"",""401205""
","""event"",""trial"",""time""
""blur"",""72"",""352687""
","""event"",""trial"",""time""
""focus"",""76"",""401205""
","""event"",""trial"",""time""
""fullscreenenter"",""0"",""7923""
","""event"",""trial"",""time""
""fullscreenexit"",""72"",""348408""
","null","<div style=""font-size:60px;"">+</div>","","null","fixation","2021-04-26 20:49:46.014","","","","",""
"","mars-trial","146","592387","0.0-10.0-1.61","808","""event"",""trial"",""time""
""fullscreenenter"",""0"",""7923""
""fullscreenexit"",""72"",""348408""
""blur"",""72"",""352687""
""focus"",""76"",""401205""
","""event"",""trial"",""time""
""blur"",""72"",""352687""
","""event"",""trial"",""time""
""focus"",""76"",""401205""
","""event"",""trial"",""time""
""fullscreenenter"",""0"",""7923""
","""event"",""trial"",""time""
""fullscreenexit"",""72"",""348408""
","387.4599999981001","<img style='border: 4px solid darkgrey;' src='img/tf1_62_M_ss1.jpeg'></img>","3","","exp","","1","<img src='img/tf1_62_T1_ss1_md.jpeg'></img>","0","false",""
"","html-keyboard-response","147","592889","0.0-10.0-0.62","808","""event"",""trial"",""time""
""fullscreenenter"",""0"",""7923""
""fullscreenexit"",""72"",""348408""
""blur"",""72"",""352687""
""focus"",""76"",""401205""
","""event"",""trial"",""time""
""blur"",""72"",""352687""
","""event"",""trial"",""time""
""focus"",""76"",""401205""
","""event"",""trial"",""time""
""fullscreenenter"",""0"",""7923""
","""event"",""trial"",""time""
""fullscreenexit"",""72"",""348408""
","null","<div style=""font-size:60px;"">+</div>","","null","fixation","2021-04-26 20:49:47.510","","","","",""
"","mars-trial","148","594398","0.0-10.0-1.62","808","""event"",""trial"",""time""
""fullscreenenter"",""0"",""7923""
""fullscreenexit"",""72"",""348408""
""blur"",""72"",""352687""
""focus"",""76"",""401205""
","""event"",""trial"",""time""
""blur"",""72"",""352687""
","""event"",""trial"",""time""
""focus"",""76"",""401205""
","""event"",""trial"",""time""
""fullscreenenter"",""0"",""7923""
","""event"",""trial"",""time""
""fullscreenexit"",""72"",""348408""
","902.7499999974389","<img style='border: 4px solid darkgrey;' src='img/tf1_63_M_ss2.jpeg'></img>","0","","exp","","1","<img src='img/tf1_63_T1_ss2_md.jpeg'></img>","0","false",""
"","html-keyboard-response","149","594900","0.0-10.0-0.63","808","""event"",""trial"",""time""
""fullscreenenter"",""0"",""7923""
""fullscreenexit"",""72"",""348408""
""blur"",""72"",""352687""
""focus"",""76"",""401205""
","""event"",""trial"",""time""
""blur"",""72"",""352687""
","""event"",""trial"",""time""
""focus"",""76"",""401205""
","""event"",""trial"",""time""
""fullscreenenter"",""0"",""7923""
","""event"",""trial"",""time""
""fullscreenexit"",""72"",""348408""
","null","<div style=""font-size:60px;"">+</div>","","null","fixation","2021-04-26 20:49:49.522","","","","",""
"","mars-trial","150","596290","0.0-10.0-1.63","808","""event"",""trial"",""time""
""fullscreenenter"",""0"",""7923""
""fullscreenexit"",""72"",""348408""
""blur"",""72"",""352687""
""focus"",""76"",""401205""
","""event"",""trial"",""time""
""blur"",""72"",""352687""
","""event"",""trial"",""time""
""focus"",""76"",""401205""
","""event"",""trial"",""time""
""fullscreenenter"",""0"",""7923""
","""event"",""trial"",""time""
""fullscreenexit"",""72"",""348408""
","781.5950000003213","<img style='border: 4px solid darkgrey;' src='img/tf1_64_M_ss3.jpeg'></img>","1","","exp","","0","<img src='img/tf1_64_T1_ss3_md.jpeg'></img>","0","true",""
"","html-keyboard-response","151","596793","0.0-10.0-0.64","808","""event"",""trial"",""time""
""fullscreenenter"",""0"",""7923""
""fullscreenexit"",""72"",""348408""
""blur"",""72"",""352687""
""focus"",""76"",""401205""
","""event"",""trial"",""time""
""blur"",""72"",""352687""
","""event"",""trial"",""time""
""focus"",""76"",""401205""
","""event"",""trial"",""time""
""fullscreenenter"",""0"",""7923""
","""event"",""trial"",""time""
""fullscreenexit"",""72"",""348408""
","null","<div style=""font-size:60px;"">+</div>","","null","fixation","2021-04-26 20:49:51.414","","","","",""
"","mars-trial","152","598065","0.0-10.0-1.64","808","""event"",""trial"",""time""
""fullscreenenter"",""0"",""7923""
""fullscreenexit"",""72"",""348408""
""blur"",""72"",""352687""
""focus"",""76"",""401205""
","""event"",""trial"",""time""
""blur"",""72"",""352687""
","""event"",""trial"",""time""
""focus"",""76"",""401205""
","""event"",""trial"",""time""
""fullscreenenter"",""0"",""7923""
","""event"",""trial"",""time""
""fullscreenexit"",""72"",""348408""
","666.1249999997672","<img style='border: 4px solid darkgrey;' src='img/tf1_65_M_ss1.jpeg'></img>","2","","exp","","0","<img src='img/tf1_65_T1_ss1_md.jpeg'></img>","0","true",""
"","html-keyboard-response","153","598567","0.0-10.0-0.65","808","""event"",""trial"",""time""
""fullscreenenter"",""0"",""7923""
""fullscreenexit"",""72"",""348408""
""blur"",""72"",""352687""
""focus"",""76"",""401205""
","""event"",""trial"",""time""
""blur"",""72"",""352687""
","""event"",""trial"",""time""
""focus"",""76"",""401205""
","""event"",""trial"",""time""
""fullscreenenter"",""0"",""7923""
","""event"",""trial"",""time""
""fullscreenexit"",""72"",""348408""
","null","<div style=""font-size:60px;"">+</div>","","null","fixation","2021-04-26 20:49:53.189","","","","",""
"","mars-trial","154","599656","0.0-10.0-1.65","808","""event"",""trial"",""time""
""fullscreenenter"",""0"",""7923""
""fullscreenexit"",""72"",""348408""
""blur"",""72"",""352687""
""focus"",""76"",""401205""
","""event"",""trial"",""time""
""blur"",""72"",""352687""
","""event"",""trial"",""time""
""focus"",""76"",""401205""
","""event"",""trial"",""time""
""fullscreenenter"",""0"",""7923""
","""event"",""trial"",""time""
""fullscreenexit"",""72"",""348408""
","479.25499999837484","<img style='border: 4px solid darkgrey;' src='img/tf1_66_M_ss2.jpeg'></img>","1","","exp","","3","<img src='img/tf1_66_T1_ss2_md.jpeg'></img>","0","false",""
"","html-keyboard-response","155","600158","0.0-10.0-0.66","808","""event"",""trial"",""time""
""fullscreenenter"",""0"",""7923""
""fullscreenexit"",""72"",""348408""
""blur"",""72"",""352687""
""focus"",""76"",""401205""
","""event"",""trial"",""time""
""blur"",""72"",""352687""
","""event"",""trial"",""time""
""focus"",""76"",""401205""
","""event"",""trial"",""time""
""fullscreenenter"",""0"",""7923""
","""event"",""trial"",""time""
""fullscreenexit"",""72"",""348408""
","null","<div style=""font-size:60px;"">+</div>","","null","fixation","2021-04-26 20:49:54.779","","","","",""
"","mars-trial","156","601351","0.0-10.0-1.66","808","""event"",""trial"",""time""
""fullscreenenter"",""0"",""7923""
""fullscreenexit"",""72"",""348408""
""blur"",""72"",""352687""
""focus"",""76"",""401205""
","""event"",""trial"",""time""
""blur"",""72"",""352687""
","""event"",""trial"",""time""
""focus"",""76"",""401205""
","""event"",""trial"",""time""
""fullscreenenter"",""0"",""7923""
","""event"",""trial"",""time""
""fullscreenexit"",""72"",""348408""
","585.2699999996694","<img style='border: 4px solid darkgrey;' src='img/tf1_67_M_ss3.jpeg'></img>","1","","exp","","1","<img src='img/tf1_67_T1_ss3_md.jpeg'></img>","0","false",""
"","html-keyboard-response","157","601853","0.0-10.0-0.67","808","""event"",""trial"",""time""
""fullscreenenter"",""0"",""7923""
""fullscreenexit"",""72"",""348408""
""blur"",""72"",""352687""
""focus"",""76"",""401205""
","""event"",""trial"",""time""
""blur"",""72"",""352687""
","""event"",""trial"",""time""
""focus"",""76"",""401205""
","""event"",""trial"",""time""
""fullscreenenter"",""0"",""7923""
","""event"",""trial"",""time""
""fullscreenexit"",""72"",""348408""
","null","<div style=""font-size:60px;"">+</div>","","null","fixation","2021-04-26 20:49:56.474","","","","",""
"","mars-trial","158","603111","0.0-10.0-1.67","808","""event"",""trial"",""time""
""fullscreenenter"",""0"",""7923""
""fullscreenexit"",""72"",""348408""
""blur"",""72"",""352687""
""focus"",""76"",""401205""
","""event"",""trial"",""time""
""blur"",""72"",""352687""
","""event"",""trial"",""time""
""focus"",""76"",""401205""
","""event"",""trial"",""time""
""fullscreenenter"",""0"",""7923""
","""event"",""trial"",""time""
""fullscreenexit"",""72"",""348408""
","650.1050000006799","<img style='border: 4px solid darkgrey;' src='img/tf1_68_M_ss1.jpeg'></img>","0","","exp","","0","<img src='img/tf1_68_T1_ss1_md.jpeg'></img>","0","true",""
"","html-keyboard-response","159","603613","0.0-10.0-0.68","808","""event"",""trial"",""time""
""fullscreenenter"",""0"",""7923""
""fullscreenexit"",""72"",""348408""
""blur"",""72"",""352687""
""focus"",""76"",""401205""
","""event"",""trial"",""time""
""blur"",""72"",""352687""
","""event"",""trial"",""time""
""focus"",""76"",""401205""
","""event"",""trial"",""time""
""fullscreenenter"",""0"",""7923""
","""event"",""trial"",""time""
""fullscreenexit"",""72"",""348408""
","null","<div style=""font-size:60px;"">+</div>","","null","fixation","2021-04-26 20:49:58.234","","","","",""
"","mars-trial","160","606192","0.0-10.0-1.68","808","""event"",""trial"",""time""
""fullscreenenter"",""0"",""7923""
""fullscreenexit"",""72"",""348408""
""blur"",""72"",""352687""
""focus"",""76"",""401205""
","""event"",""trial"",""time""
""blur"",""72"",""352687""
","""event"",""trial"",""time""
""focus"",""76"",""401205""
","""event"",""trial"",""time""
""fullscreenenter"",""0"",""7923""
","""event"",""trial"",""time""
""fullscreenexit"",""72"",""348408""
","1970.2649999998976","<img style='border: 4px solid darkgrey;' src='img/tf1_69_M_ss2.jpeg'></img>","2","","exp","","0","<img src='img/tf1_69_T1_ss2_md.jpeg'></img>","0","true",""
"","html-keyboard-response","161","606695","0.0-10.0-0.69","808","""event"",""trial"",""time""
""fullscreenenter"",""0"",""7923""
""fullscreenexit"",""72"",""348408""
""blur"",""72"",""352687""
""focus"",""76"",""401205""
","""event"",""trial"",""time""
""blur"",""72"",""352687""
","""event"",""trial"",""time""
""focus"",""76"",""401205""
","""event"",""trial"",""time""
""fullscreenenter"",""0"",""7923""
","""event"",""trial"",""time""
""fullscreenexit"",""72"",""348408""
","null","<div style=""font-size:60px;"">+</div>","","null","fixation","2021-04-26 20:50:01.317","","","","",""
"","mars-trial","162","617660","0.0-10.0-1.69","808","""event"",""trial"",""time""
""fullscreenenter"",""0"",""7923""
""fullscreenexit"",""72"",""348408""
""blur"",""72"",""352687""
""focus"",""76"",""401205""
","""event"",""trial"",""time""
""blur"",""72"",""352687""
","""event"",""trial"",""time""
""focus"",""76"",""401205""
","""event"",""trial"",""time""
""fullscreenenter"",""0"",""7923""
","""event"",""trial"",""time""
""fullscreenexit"",""72"",""348408""
","10357.710000000196","<img style='border: 4px solid darkgrey;' src='img/tf1_70_M_ss3.jpeg'></img>","1","","exp","","0","<img src='img/tf1_70_T1_ss3_md.jpeg'></img>","0","true",""
"","html-keyboard-response","163","618163","0.0-10.0-0.70","808","""event"",""trial"",""time""
""fullscreenenter"",""0"",""7923""
""fullscreenexit"",""72"",""348408""
""blur"",""72"",""352687""
""focus"",""76"",""401205""
","""event"",""trial"",""time""
""blur"",""72"",""352687""
","""event"",""trial"",""time""
""focus"",""76"",""401205""
","""event"",""trial"",""time""
""fullscreenenter"",""0"",""7923""
","""event"",""trial"",""time""
""fullscreenexit"",""72"",""348408""
","null","<div style=""font-size:60px;"">+</div>","","null","fixation","2021-04-26 20:50:12.784","","","","",""
"","mars-trial","164","633226","0.0-10.0-1.70","808","""event"",""trial"",""time""
""fullscreenenter"",""0"",""7923""
""fullscreenexit"",""72"",""348408""
""blur"",""72"",""352687""
""focus"",""76"",""401205""
","""event"",""trial"",""time""
""blur"",""72"",""352687""
","""event"",""trial"",""time""
""focus"",""76"",""401205""
","""event"",""trial"",""time""
""fullscreenenter"",""0"",""7923""
","""event"",""trial"",""time""
""fullscreenexit"",""72"",""348408""
","14456.319999997504","<img style='border: 4px solid darkgrey;' src='img/tf1_71_M_ss1.jpeg'></img>","3","","exp","","0","<img src='img/tf1_71_T1_ss1_md.jpeg'></img>","0","true",""
"","html-keyboard-response","165","633728","0.0-10.0-0.71","808","""event"",""trial"",""time""
""fullscreenenter"",""0"",""7923""
""fullscreenexit"",""72"",""348408""
""blur"",""72"",""352687""
""focus"",""76"",""401205""
","""event"",""trial"",""time""
""blur"",""72"",""352687""
","""event"",""trial"",""time""
""focus"",""76"",""401205""
","""event"",""trial"",""time""
""fullscreenenter"",""0"",""7923""
","""event"",""trial"",""time""
""fullscreenexit"",""72"",""348408""
","null","<div style=""font-size:60px;"">+</div>","","null","fixation","2021-04-26 20:50:28.349","","","","",""
"","mars-trial","166","640570","0.0-10.0-1.71","808","""event"",""trial"",""time""
""fullscreenenter"",""0"",""7923""
""fullscreenexit"",""72"",""348408""
""blur"",""72"",""352687""
""focus"",""76"",""401205""
","""event"",""trial"",""time""
""blur"",""72"",""352687""
","""event"",""trial"",""time""
""focus"",""76"",""401205""
","""event"",""trial"",""time""
""fullscreenenter"",""0"",""7923""
","""event"",""trial"",""time""
""fullscreenexit"",""72"",""348408""
","6234.580000000191","<img style='border: 4px solid darkgrey;' src='img/tf1_72_M_ss2.jpeg'></img>","1","","exp","","2","<img src='img/tf1_72_T1_ss2_md.jpeg'></img>","0","false",""
"","html-keyboard-response","167","641072","0.0-10.0-0.72","808","""event"",""trial"",""time""
""fullscreenenter"",""0"",""7923""
""fullscreenexit"",""72"",""348408""
""blur"",""72"",""352687""
""focus"",""76"",""401205""
","""event"",""trial"",""time""
""blur"",""72"",""352687""
","""event"",""trial"",""time""
""focus"",""76"",""401205""
","""event"",""trial"",""time""
""fullscreenenter"",""0"",""7923""
","""event"",""trial"",""time""
""fullscreenexit"",""72"",""348408""
","null","<div style=""font-size:60px;"">+</div>","","null","fixation","2021-04-26 20:50:35.693","","","","",""
"","mars-trial","168","641425","0.0-10.0-1.72","808","""event"",""trial"",""time""
""fullscreenenter"",""0"",""7923""
""fullscreenexit"",""72"",""348408""
""blur"",""72"",""352687""
""focus"",""76"",""401205""
","""event"",""trial"",""time""
""blur"",""72"",""352687""
","""event"",""trial"",""time""
""focus"",""76"",""401205""
","""event"",""trial"",""time""
""fullscreenenter"",""0"",""7923""
","""event"",""trial"",""time""
""fullscreenexit"",""72"",""348408""
","","","","","exp","","","<img src='img/tf1_73_T1_ss3_md.jpeg'></img>","0","false",""
"","html-keyboard-response","169","641926","0.0-10.0-0.73","808","""event"",""trial"",""time""
""fullscreenenter"",""0"",""7923""
""fullscreenexit"",""72"",""348408""
""blur"",""72"",""352687""
""focus"",""76"",""401205""
","""event"",""trial"",""time""
""blur"",""72"",""352687""
","""event"",""trial"",""time""
""focus"",""76"",""401205""
","""event"",""trial"",""time""
""fullscreenenter"",""0"",""7923""
","""event"",""trial"",""time""
""fullscreenexit"",""72"",""348408""
","null","<div style=""font-size:60px;"">+</div>","","null","fixation","2021-04-26 20:50:36.547","","","","",""
"","audio-button-response","170","648202","0.0-11.0","808","""event"",""trial"",""time""
""fullscreenenter"",""0"",""7923""
""fullscreenexit"",""72"",""348408""
""blur"",""72"",""352687""
""focus"",""76"",""401205""
","""event"",""trial"",""time""
""blur"",""72"",""352687""
","""event"",""trial"",""time""
""focus"",""76"",""401205""
","""event"",""trial"",""time""
""fullscreenenter"",""0"",""7923""
","""event"",""trial"",""time""
""fullscreenexit"",""72"",""348408""
","6172.320000001462","audio/mars_instructions_slide5.wav","0","","","","","","","",""
