"success","trial_type","trial_index","time_elapsed","internal_node_id","subject_id","interactions","blur_events","focus_events","fullscreenenter_events","fullscreenexit_events","rt","stimulus","button_pressed","key_press","part","timestamp","unshuffled_button","correct_response","correct_button","correct","value"
"true","fullscreen","0","3712","0.0-0.0","870","""event"",""trial"",""time""
""fullscreenenter"",""0"",""2745""
","
","
","""event"",""trial"",""time""
""fullscreenenter"",""0"",""2745""
","
","","","","","","","","","","",""
"","pavlovia","1","3715","0.0-1.0","870","""event"",""trial"",""time""
""fullscreenenter"",""0"",""2745""
","
","
","""event"",""trial"",""time""
""fullscreenenter"",""0"",""2745""
","
","","","","","","","","","","",""
"","html-button-response","2","5105","0.0-2.0","870","""event"",""trial"",""time""
""fullscreenenter"",""0"",""2745""
","
","
","""event"",""trial"",""time""
""fullscreenenter"",""0"",""2745""
","
","1389","<p>Welcome! Press START to begin.</p><br>","0","","","","","","","",""
"","audio-button-response","3","14636","0.0-3.0","870","""event"",""trial"",""time""
""fullscreenenter"",""0"",""2745""
","
","
","""event"",""trial"",""time""
""fullscreenenter"",""0"",""2745""
","
","9529","audio/mars_instructions_slide2.wav","0","","","","","","","",""
"","audio-button-response","4","18370","0.0-4.0","870","""event"",""trial"",""time""
""fullscreenenter"",""0"",""2745""
","
","
","""event"",""trial"",""time""
""fullscreenenter"",""0"",""2745""
","
","3733.2999999523163","audio/mars_instructions_slide3.wav","0","","","","","","","",""
"","html-keyboard-response","5","18876","0.0-5.0-0.0","870","""event"",""trial"",""time""
""fullscreenenter"",""0"",""2745""
","
","
","""event"",""trial"",""time""
""fullscreenenter"",""0"",""2745""
","
","null","<div style=""font-size:60px;"">+</div>","","null","fixation","2021-06-25 22:42:06.960","","","","",""
"","mars-trial","6","26044","0.0-5.0-1.0","870","""event"",""trial"",""time""
""fullscreenenter"",""0"",""2745""
","
","
","""event"",""trial"",""time""
""fullscreenenter"",""0"",""2745""
","
","5060.100000023842","<img style='border: 4px solid darkgrey;' src='practice/pt1_M1.png'></img>","0","","practice","","0","<img src='practice/pt1_T1.png'></img>","0","true",""
"","html-keyboard-response","7","26546","0.0-6.0-0.0","870","""event"",""trial"",""time""
""fullscreenenter"",""0"",""2745""
","
","
","""event"",""trial"",""time""
""fullscreenenter"",""0"",""2745""
","
","null","<div style=""font-size:60px;"">+</div>","","null","fixation","2021-06-25 22:42:14.630","","","","",""
"","mars-trial","8","31569","0.0-6.0-1.0","870","""event"",""trial"",""time""
""fullscreenenter"",""0"",""2745""
","
","
","""event"",""trial"",""time""
""fullscreenenter"",""0"",""2745""
","
","2912.7000000476837","<img style='border: 4px solid darkgrey;' src='practice/pt2_M1.png'></img>","1","","practice","","0","<img src='practice/pt2_T1.png'></img>","0","true",""
"","html-keyboard-response","9","32074","0.0-7.0-0.0","870","""event"",""trial"",""time""
""fullscreenenter"",""0"",""2745""
","
","
","""event"",""trial"",""time""
""fullscreenenter"",""0"",""2745""
","
","null","<div style=""font-size:60px;"">+</div>","","null","fixation","2021-06-25 22:42:20.158","","","","",""
"","mars-trial","10","36808","0.0-7.0-1.0","870","""event"",""trial"",""time""
""fullscreenenter"",""0"",""2745""
","
","
","""event"",""trial"",""time""
""fullscreenenter"",""0"",""2745""
","
","2629.7999999523163","<img style='border: 4px solid darkgrey;' src='practice/pt3_M1.png'></img>","2","","practice","","0","<img src='practice/pt3_T1.png'></img>","0","true",""
"","audio-button-response","11","38362","0.0-8.0","870","""event"",""trial"",""time""
""fullscreenenter"",""0"",""2745""
","
","
","""event"",""trial"",""time""
""fullscreenenter"",""0"",""2745""
","
","1552.8999999761581","audio/mars_instructions_slide4.wav","0","","","","","","","",""
"","call-function","12","38363","0.0-9.0","870","""event"",""trial"",""time""
""fullscreenenter"",""0"",""2745""
","
","
","""event"",""trial"",""time""
""fullscreenenter"",""0"",""2745""
","
","","","","","","","","","","",""
"","html-keyboard-response","13","38868","0.0-10.0-0.0","870","""event"",""trial"",""time""
""fullscreenenter"",""0"",""2745""
","
","
","""event"",""trial"",""time""
""fullscreenenter"",""0"",""2745""
","
","null","<div style=""font-size:60px;"">+</div>","","null","fixation","2021-06-25 22:42:26.952","","","","",""
"","mars-trial","14","40801","0.0-10.0-1.0","870","""event"",""trial"",""time""
""fullscreenenter"",""0"",""2745""
","
","
","""event"",""trial"",""time""
""fullscreenenter"",""0"",""2745""
","
","1325.6000000238419","<img style='border: 4px solid darkgrey;' src='img/tf1_1_M_ss3.jpeg'></img>","2","","exp","","0","<img src='img/tf1_1_T1_ss3_md.jpeg'></img>","0","true",""
"","html-keyboard-response","15","41306","0.0-10.0-0.1","870","""event"",""trial"",""time""
""fullscreenenter"",""0"",""2745""
","
","
","""event"",""trial"",""time""
""fullscreenenter"",""0"",""2745""
","
","null","<div style=""font-size:60px;"">+</div>","","null","fixation","2021-06-25 22:42:29.390","","","","",""
"","mars-trial","16","45356","0.0-10.0-1.1","870","""event"",""trial"",""time""
""fullscreenenter"",""0"",""2745""
","
","
","""event"",""trial"",""time""
""fullscreenenter"",""0"",""2745""
","
","3445.3000000715256","<img style='border: 4px solid darkgrey;' src='img/tf1_2_M_ss1.jpeg'></img>","2","","exp","","0","<img src='img/tf1_2_T1_ss1_md.jpeg'></img>","0","true",""
"","html-keyboard-response","17","45859","0.0-10.0-0.2","870","""event"",""trial"",""time""
""fullscreenenter"",""0"",""2745""
","
","
","""event"",""trial"",""time""
""fullscreenenter"",""0"",""2745""
","
","null","<div style=""font-size:60px;"">+</div>","","null","fixation","2021-06-25 22:42:33.943","","","","",""
"","mars-trial","18","49667","0.0-10.0-1.2","870","""event"",""trial"",""time""
""fullscreenenter"",""0"",""2745""
","
","
","""event"",""trial"",""time""
""fullscreenenter"",""0"",""2745""
","
","3201.899999976158","<img style='border: 4px solid darkgrey;' src='img/tf1_3_M_ss2.jpeg'></img>","0","","exp","","0","<img src='img/tf1_3_T1_ss2_md.jpeg'></img>","0","true",""
"","html-keyboard-response","19","50168","0.0-10.0-0.3","870","""event"",""trial"",""time""
""fullscreenenter"",""0"",""2745""
","
","
","""event"",""trial"",""time""
""fullscreenenter"",""0"",""2745""
","
","null","<div style=""font-size:60px;"">+</div>","","null","fixation","2021-06-25 22:42:38.252","","","","",""
"","mars-trial","20","60116","0.0-10.0-1.3","870","""event"",""trial"",""time""
""fullscreenenter"",""0"",""2745""
","
","
","""event"",""trial"",""time""
""fullscreenenter"",""0"",""2745""
","
","9340.800000071526","<img style='border: 4px solid darkgrey;' src='img/tf1_4_M_ss3.jpeg'></img>","1","","exp","","0","<img src='img/tf1_4_T1_ss3_md.jpeg'></img>","0","true",""
"","html-keyboard-response","21","60619","0.0-10.0-0.4","870","""event"",""trial"",""time""
""fullscreenenter"",""0"",""2745""
","
","
","""event"",""trial"",""time""
""fullscreenenter"",""0"",""2745""
","
","null","<div style=""font-size:60px;"">+</div>","","null","fixation","2021-06-25 22:42:48.703","","","","",""
"","mars-trial","22","68081","0.0-10.0-1.4","870","""event"",""trial"",""time""
""fullscreenenter"",""0"",""2745""
","
","
","""event"",""trial"",""time""
""fullscreenenter"",""0"",""2745""
","
","6857.699999928474","<img style='border: 4px solid darkgrey;' src='img/tf1_5_M_ss1.jpeg'></img>","0","","exp","","0","<img src='img/tf1_5_T1_ss1_md.jpeg'></img>","0","true",""
"","html-keyboard-response","23","68584","0.0-10.0-0.5","870","""event"",""trial"",""time""
""fullscreenenter"",""0"",""2745""
","
","
","""event"",""trial"",""time""
""fullscreenenter"",""0"",""2745""
","
","null","<div style=""font-size:60px;"">+</div>","","null","fixation","2021-06-25 22:42:56.668","","","","",""
"","mars-trial","24","94028","0.0-10.0-1.5","870","""event"",""trial"",""time""
""fullscreenenter"",""0"",""2745""
","
","
","""event"",""trial"",""time""
""fullscreenenter"",""0"",""2745""
","
","24837.899999976158","<img style='border: 4px solid darkgrey;' src='img/tf1_6_M_ss2.jpeg'></img>","3","","exp","","0","<img src='img/tf1_6_T1_ss2_md.jpeg'></img>","0","true",""
"","html-keyboard-response","25","94529","0.0-10.0-0.6","870","""event"",""trial"",""time""
""fullscreenenter"",""0"",""2745""
","
","
","""event"",""trial"",""time""
""fullscreenenter"",""0"",""2745""
","
","null","<div style=""font-size:60px;"">+</div>","","null","fixation","2021-06-25 22:43:22.613","","","","",""
"","mars-trial","26","101129","0.0-10.0-1.6","870","""event"",""trial"",""time""
""fullscreenenter"",""0"",""2745""
","
","
","""event"",""trial"",""time""
""fullscreenenter"",""0"",""2745""
","
","5988.199999928474","<img style='border: 4px solid darkgrey;' src='img/tf1_7_M_ss3.jpeg'></img>","3","","exp","","0","<img src='img/tf1_7_T1_ss3_md.jpeg'></img>","0","true",""
"","html-keyboard-response","27","101630","0.0-10.0-0.7","870","""event"",""trial"",""time""
""fullscreenenter"",""0"",""2745""
","
","
","""event"",""trial"",""time""
""fullscreenenter"",""0"",""2745""
","
","null","<div style=""font-size:60px;"">+</div>","","null","fixation","2021-06-25 22:43:29.714","","","","",""
"","mars-trial","28","114143","0.0-10.0-1.7","870","""event"",""trial"",""time""
""fullscreenenter"",""0"",""2745""
","
","
","""event"",""trial"",""time""
""fullscreenenter"",""0"",""2745""
","
","11906.299999952316","<img style='border: 4px solid darkgrey;' src='img/tf1_8_M_ss1.jpeg'></img>","3","","exp","","0","<img src='img/tf1_8_T1_ss1_md.jpeg'></img>","0","true",""
"","html-keyboard-response","29","114648","0.0-10.0-0.8","870","""event"",""trial"",""time""
""fullscreenenter"",""0"",""2745""
","
","
","""event"",""trial"",""time""
""fullscreenenter"",""0"",""2745""
","
","null","<div style=""font-size:60px;"">+</div>","","null","fixation","2021-06-25 22:43:42.732","","","","",""
"","mars-trial","30","124876","0.0-10.0-1.8","870","""event"",""trial"",""time""
""fullscreenenter"",""0"",""2745""
","
","
","""event"",""trial"",""time""
""fullscreenenter"",""0"",""2745""
","
","9620.700000047684","<img style='border: 4px solid darkgrey;' src='img/tf1_9_M_ss2.jpeg'></img>","2","","exp","","0","<img src='img/tf1_9_T1_ss2_md.jpeg'></img>","0","true",""
"","html-keyboard-response","31","125381","0.0-10.0-0.9","870","""event"",""trial"",""time""
""fullscreenenter"",""0"",""2745""
","
","
","""event"",""trial"",""time""
""fullscreenenter"",""0"",""2745""
","
","null","<div style=""font-size:60px;"">+</div>","","null","fixation","2021-06-25 22:43:53.465","","","","",""
"","mars-trial","32","144397","0.0-10.0-1.9","870","""event"",""trial"",""time""
""fullscreenenter"",""0"",""2745""
","
","
","""event"",""trial"",""time""
""fullscreenenter"",""0"",""2745""
","
","18408.900000095367","<img style='border: 4px solid darkgrey;' src='img/tf1_10_M_ss3.jpeg'></img>","0","","exp","","1","<img src='img/tf1_10_T1_ss3_md.jpeg'></img>","0","false",""
"","html-keyboard-response","33","144902","0.0-10.0-0.10","870","""event"",""trial"",""time""
""fullscreenenter"",""0"",""2745""
","
","
","""event"",""trial"",""time""
""fullscreenenter"",""0"",""2745""
","
","null","<div style=""font-size:60px;"">+</div>","","null","fixation","2021-06-25 22:44:12.986","","","","",""
"","mars-trial","34","156570","0.0-10.0-1.10","870","""event"",""trial"",""time""
""fullscreenenter"",""0"",""2745""
","
","
","""event"",""trial"",""time""
""fullscreenenter"",""0"",""2745""
","
","11061.5","<img style='border: 4px solid darkgrey;' src='img/tf1_11_M_ss1.jpeg'></img>","2","","exp","","0","<img src='img/tf1_11_T1_ss1_md.jpeg'></img>","0","true",""
"","html-keyboard-response","35","157071","0.0-10.0-0.11","870","""event"",""trial"",""time""
""fullscreenenter"",""0"",""2745""
","
","
","""event"",""trial"",""time""
""fullscreenenter"",""0"",""2745""
","
","null","<div style=""font-size:60px;"">+</div>","","null","fixation","2021-06-25 22:44:25.155","","","","",""
"","mars-trial","36","184526","0.0-10.0-1.11","870","""event"",""trial"",""time""
""fullscreenenter"",""0"",""2745""
","
","
","""event"",""trial"",""time""
""fullscreenenter"",""0"",""2745""
","
","26849.200000047684","<img style='border: 4px solid darkgrey;' src='img/tf1_12_M_ss2.jpeg'></img>","0","","exp","","0","<img src='img/tf1_12_T1_ss2_md.jpeg'></img>","0","true",""
"","html-keyboard-response","37","185031","0.0-10.0-0.12","870","""event"",""trial"",""time""
""fullscreenenter"",""0"",""2745""
","
","
","""event"",""trial"",""time""
""fullscreenenter"",""0"",""2745""
","
","null","<div style=""font-size:60px;"">+</div>","","null","fixation","2021-06-25 22:44:53.115","","","","",""
"","mars-trial","38","196296","0.0-10.0-1.12","870","""event"",""trial"",""time""
""fullscreenenter"",""0"",""2745""
","
","
","""event"",""trial"",""time""
""fullscreenenter"",""0"",""2745""
","
","10655","<img style='border: 4px solid darkgrey;' src='img/tf1_13_M_ss3.jpeg'></img>","1","","exp","","3","<img src='img/tf1_13_T1_ss3_md.jpeg'></img>","0","false",""
"","html-keyboard-response","39","196797","0.0-10.0-0.13","870","""event"",""trial"",""time""
""fullscreenenter"",""0"",""2745""
","
","
","""event"",""trial"",""time""
""fullscreenenter"",""0"",""2745""
","
","null","<div style=""font-size:60px;"">+</div>","","null","fixation","2021-06-25 22:45:04.881","","","","",""
"","mars-trial","40","213196","0.0-10.0-1.13","870","""event"",""trial"",""time""
""fullscreenenter"",""0"",""2745""
","
","
","""event"",""trial"",""time""
""fullscreenenter"",""0"",""2745""
","
","15789.399999976158","<img style='border: 4px solid darkgrey;' src='img/tf1_14_M_ss1.jpeg'></img>","0","","exp","","2","<img src='img/tf1_14_T1_ss1_md.jpeg'></img>","0","false",""
"","html-keyboard-response","41","213700","0.0-10.0-0.14","870","""event"",""trial"",""time""
""fullscreenenter"",""0"",""2745""
","
","
","""event"",""trial"",""time""
""fullscreenenter"",""0"",""2745""
","
","null","<div style=""font-size:60px;"">+</div>","","null","fixation","2021-06-25 22:45:21.784","","","","",""
"","mars-trial","42","221595","0.0-10.0-1.14","870","""event"",""trial"",""time""
""fullscreenenter"",""0"",""2745""
","
","
","""event"",""trial"",""time""
""fullscreenenter"",""0"",""2745""
","
","7291.200000047684","<img style='border: 4px solid darkgrey;' src='img/tf1_15_M_ss2.jpeg'></img>","1","","exp","","1","<img src='img/tf1_15_T1_ss2_md.jpeg'></img>","0","false",""
"","html-keyboard-response","43","222100","0.0-10.0-0.15","870","""event"",""trial"",""time""
""fullscreenenter"",""0"",""2745""
","
","
","""event"",""trial"",""time""
""fullscreenenter"",""0"",""2745""
","
","null","<div style=""font-size:60px;"">+</div>","","null","fixation","2021-06-25 22:45:30.184","","","","",""
"","mars-trial","44","234853","0.0-10.0-1.15","870","""event"",""trial"",""time""
""fullscreenenter"",""0"",""2745""
","
","
","""event"",""trial"",""time""
""fullscreenenter"",""0"",""2745""
","
","12145.199999928474","<img style='border: 4px solid darkgrey;' src='img/tf1_16_M_ss3.jpeg'></img>","0","","exp","","3","<img src='img/tf1_16_T1_ss3_md.jpeg'></img>","0","false",""
"","html-keyboard-response","45","235358","0.0-10.0-0.16","870","""event"",""trial"",""time""
""fullscreenenter"",""0"",""2745""
","
","
","""event"",""trial"",""time""
""fullscreenenter"",""0"",""2745""
","
","null","<div style=""font-size:60px;"">+</div>","","null","fixation","2021-06-25 22:45:43.442","","","","",""
"","mars-trial","46","247216","0.0-10.0-1.16","870","""event"",""trial"",""time""
""fullscreenenter"",""0"",""2745""
","
","
","""event"",""trial"",""time""
""fullscreenenter"",""0"",""2745""
","
","11247.800000071526","<img style='border: 4px solid darkgrey;' src='img/tf1_17_M_ss1.jpeg'></img>","0","","exp","","0","<img src='img/tf1_17_T1_ss1_md.jpeg'></img>","0","true",""
"","html-keyboard-response","47","247719","0.0-10.0-0.17","870","""event"",""trial"",""time""
""fullscreenenter"",""0"",""2745""
","
","
","""event"",""trial"",""time""
""fullscreenenter"",""0"",""2745""
","
","null","<div style=""font-size:60px;"">+</div>","","null","fixation","2021-06-25 22:45:55.803","","","","",""
"","mars-trial","48","274546","0.0-10.0-1.17","870","""event"",""trial"",""time""
""fullscreenenter"",""0"",""2745""
","
","
","""event"",""trial"",""time""
""fullscreenenter"",""0"",""2745""
","
","26219.700000047684","<img style='border: 4px solid darkgrey;' src='img/tf1_18_M_ss2.jpeg'></img>","0","","exp","","3","<img src='img/tf1_18_T1_ss2_md.jpeg'></img>","0","false",""
"","html-keyboard-response","49","275051","0.0-10.0-0.18","870","""event"",""trial"",""time""
""fullscreenenter"",""0"",""2745""
","
","
","""event"",""trial"",""time""
""fullscreenenter"",""0"",""2745""
","
","null","<div style=""font-size:60px;"">+</div>","","null","fixation","2021-06-25 22:46:23.135","","","","",""
"","mars-trial","50","279044","0.0-10.0-1.18","870","""event"",""trial"",""time""
""fullscreenenter"",""0"",""2745""
","
","
","""event"",""trial"",""time""
""fullscreenenter"",""0"",""2745""
","
","3382.7000000476837","<img style='border: 4px solid darkgrey;' src='img/tf1_19_M_ss3.jpeg'></img>","3","","exp","","0","<img src='img/tf1_19_T1_ss3_md.jpeg'></img>","0","true",""
"","html-keyboard-response","51","279550","0.0-10.0-0.19","870","""event"",""trial"",""time""
""fullscreenenter"",""0"",""2745""
","
","
","""event"",""trial"",""time""
""fullscreenenter"",""0"",""2745""
","
","null","<div style=""font-size:60px;"">+</div>","","null","fixation","2021-06-25 22:46:27.634","","","","",""
"","mars-trial","52","284140","0.0-10.0-1.19","870","""event"",""trial"",""time""
""fullscreenenter"",""0"",""2745""
","
","
","""event"",""trial"",""time""
""fullscreenenter"",""0"",""2745""
","
","3983.600000023842","<img style='border: 4px solid darkgrey;' src='img/tf1_20_M_ss1.jpeg'></img>","3","","exp","","2","<img src='img/tf1_20_T1_ss1_md.jpeg'></img>","0","false",""
"","html-keyboard-response","53","284646","0.0-10.0-0.20","870","""event"",""trial"",""time""
""fullscreenenter"",""0"",""2745""
","
","
","""event"",""trial"",""time""
""fullscreenenter"",""0"",""2745""
","
","null","<div style=""font-size:60px;"">+</div>","","null","fixation","2021-06-25 22:46:32.730","","","","",""
"","mars-trial","54","293475","0.0-10.0-1.20","870","""event"",""trial"",""time""
""fullscreenenter"",""0"",""2745""
","
","
","""event"",""trial"",""time""
""fullscreenenter"",""0"",""2745""
","
","8222.100000023842","<img style='border: 4px solid darkgrey;' src='img/tf1_21_M_ss2.jpeg'></img>","2","","exp","","1","<img src='img/tf1_21_T1_ss2_md.jpeg'></img>","0","false",""
"","html-keyboard-response","55","293980","0.0-10.0-0.21","870","""event"",""trial"",""time""
""fullscreenenter"",""0"",""2745""
","
","
","""event"",""trial"",""time""
""fullscreenenter"",""0"",""2745""
","
","null","<div style=""font-size:60px;"">+</div>","","null","fixation","2021-06-25 22:46:42.064","","","","",""
"","mars-trial","56","317136","0.0-10.0-1.21","870","""event"",""trial"",""time""
""fullscreenenter"",""0"",""2745""
","
","
","""event"",""trial"",""time""
""fullscreenenter"",""0"",""2745""
","
","22548.799999952316","<img style='border: 4px solid darkgrey;' src='img/tf1_22_M_ss3.jpeg'></img>","1","","exp","","3","<img src='img/tf1_22_T1_ss3_md.jpeg'></img>","0","false",""
"","html-keyboard-response","57","317640","0.0-10.0-0.22","870","""event"",""trial"",""time""
""fullscreenenter"",""0"",""2745""
","
","
","""event"",""trial"",""time""
""fullscreenenter"",""0"",""2745""
","
","null","<div style=""font-size:60px;"">+</div>","","null","fixation","2021-06-25 22:47:05.724","","","","",""
"","mars-trial","58","337661","0.0-10.0-1.22","870","""event"",""trial"",""time""
""fullscreenenter"",""0"",""2745""
","
","
","""event"",""trial"",""time""
""fullscreenenter"",""0"",""2745""
","
","19409.300000071526","<img style='border: 4px solid darkgrey;' src='img/tf1_23_M_ss1.jpeg'></img>","2","","exp","","3","<img src='img/tf1_23_T1_ss1_md.jpeg'></img>","0","false",""
"","html-keyboard-response","59","338163","0.0-10.0-0.23","870","""event"",""trial"",""time""
""fullscreenenter"",""0"",""2745""
","
","
","""event"",""trial"",""time""
""fullscreenenter"",""0"",""2745""
","
","null","<div style=""font-size:60px;"">+</div>","","null","fixation","2021-06-25 22:47:26.247","","","","",""
"","mars-trial","60","352330","0.0-10.0-1.23","870","""event"",""trial"",""time""
""fullscreenenter"",""0"",""2745""
","
","
","""event"",""trial"",""time""
""fullscreenenter"",""0"",""2745""
","
","13558.5","<img style='border: 4px solid darkgrey;' src='img/tf1_24_M_ss2.jpeg'></img>","0","","exp","","3","<img src='img/tf1_24_T1_ss2_md.jpeg'></img>","0","false",""
"","html-keyboard-response","61","352835","0.0-10.0-0.24","870","""event"",""trial"",""time""
""fullscreenenter"",""0"",""2745""
","
","
","""event"",""trial"",""time""
""fullscreenenter"",""0"",""2745""
","
","null","<div style=""font-size:60px;"">+</div>","","null","fixation","2021-06-25 22:47:40.919","","","","",""
"","mars-trial","62","360779","0.0-10.0-1.24","870","""event"",""trial"",""time""
""fullscreenenter"",""0"",""2745""
","
","
","""event"",""trial"",""time""
""fullscreenenter"",""0"",""2745""
","
","7334.5","<img style='border: 4px solid darkgrey;' src='img/tf1_25_M_ss3.jpeg'></img>","0","","exp","","0","<img src='img/tf1_25_T1_ss3_md.jpeg'></img>","0","true",""
"","html-keyboard-response","63","361286","0.0-10.0-0.25","870","""event"",""trial"",""time""
""fullscreenenter"",""0"",""2745""
","
","
","""event"",""trial"",""time""
""fullscreenenter"",""0"",""2745""
","
","null","<div style=""font-size:60px;"">+</div>","","null","fixation","2021-06-25 22:47:49.370","","","","",""
"","mars-trial","64","371154","0.0-10.0-1.25","870","""event"",""trial"",""time""
""fullscreenenter"",""0"",""2745""
","
","
","""event"",""trial"",""time""
""fullscreenenter"",""0"",""2745""
","
","9255.899999976158","<img style='border: 4px solid darkgrey;' src='img/tf1_26_M_ss1.jpeg'></img>","0","","exp","","2","<img src='img/tf1_26_T1_ss1_md.jpeg'></img>","0","false",""
"","html-keyboard-response","65","371655","0.0-10.0-0.26","870","""event"",""trial"",""time""
""fullscreenenter"",""0"",""2745""
","
","
","""event"",""trial"",""time""
""fullscreenenter"",""0"",""2745""
","
","null","<div style=""font-size:60px;"">+</div>","","null","fixation","2021-06-25 22:47:59.739","","","","",""
"","mars-trial","66","380291","0.0-10.0-1.26","870","""event"",""trial"",""time""
""fullscreenenter"",""0"",""2745""
","
","
","""event"",""trial"",""time""
""fullscreenenter"",""0"",""2745""
","
","8025.299999952316","<img style='border: 4px solid darkgrey;' src='img/tf1_27_M_ss2.jpeg'></img>","2","","exp","","2","<img src='img/tf1_27_T1_ss2_md.jpeg'></img>","0","false",""
"","html-keyboard-response","67","380796","0.0-10.0-0.27","870","""event"",""trial"",""time""
""fullscreenenter"",""0"",""2745""
","
","
","""event"",""trial"",""time""
""fullscreenenter"",""0"",""2745""
","
","null","<div style=""font-size:60px;"">+</div>","","null","fixation","2021-06-25 22:48:08.880","","","","",""
"","mars-trial","68","386453","0.0-10.0-1.27","870","""event"",""trial"",""time""
""fullscreenenter"",""0"",""2745""
","
","
","""event"",""trial"",""time""
""fullscreenenter"",""0"",""2745""
","
","5051","<img style='border: 4px solid darkgrey;' src='img/tf1_28_M_ss3.jpeg'></img>","3","","exp","","1","<img src='img/tf1_28_T1_ss3_md.jpeg'></img>","0","false",""
"","html-keyboard-response","69","386955","0.0-10.0-0.28","870","""event"",""trial"",""time""
""fullscreenenter"",""0"",""2745""
","
","
","""event"",""trial"",""time""
""fullscreenenter"",""0"",""2745""
","
","null","<div style=""font-size:60px;"">+</div>","","null","fixation","2021-06-25 22:48:15.039","","","","",""
"","mars-trial","70","391460","0.0-10.0-1.28","870","""event"",""trial"",""time""
""fullscreenenter"",""0"",""2745""
","
","
","""event"",""trial"",""time""
""fullscreenenter"",""0"",""2745""
","
","3894.399999976158","<img style='border: 4px solid darkgrey;' src='img/tf1_29_M_ss1.jpeg'></img>","0","","exp","","2","<img src='img/tf1_29_T1_ss1_md.jpeg'></img>","0","false",""
"","html-keyboard-response","71","391965","0.0-10.0-0.29","870","""event"",""trial"",""time""
""fullscreenenter"",""0"",""2745""
","
","
","""event"",""trial"",""time""
""fullscreenenter"",""0"",""2745""
","
","null","<div style=""font-size:60px;"">+</div>","","null","fixation","2021-06-25 22:48:20.049","","","","",""
"","mars-trial","72","402651","0.0-10.0-1.29","870","""event"",""trial"",""time""
""fullscreenenter"",""0"",""2745""
","
","
","""event"",""trial"",""time""
""fullscreenenter"",""0"",""2745""
","
","10080.099999904633","<img style='border: 4px solid darkgrey;' src='img/tf1_30_M_ss2.jpeg'></img>","0","","exp","","0","<img src='img/tf1_30_T1_ss2_md.jpeg'></img>","0","true",""
"","html-keyboard-response","73","403156","0.0-10.0-0.30","870","""event"",""trial"",""time""
""fullscreenenter"",""0"",""2745""
","
","
","""event"",""trial"",""time""
""fullscreenenter"",""0"",""2745""
","
","null","<div style=""font-size:60px;"">+</div>","","null","fixation","2021-06-25 22:48:31.240","","","","",""
"","mars-trial","74","410035","0.0-10.0-1.30","870","""event"",""trial"",""time""
""fullscreenenter"",""0"",""2745""
","
","
","""event"",""trial"",""time""
""fullscreenenter"",""0"",""2745""
","
","6270.100000023842","<img style='border: 4px solid darkgrey;' src='img/tf1_31_M_ss3.jpeg'></img>","1","","exp","","2","<img src='img/tf1_31_T1_ss3_md.jpeg'></img>","0","false",""
"","html-keyboard-response","75","410540","0.0-10.0-0.31","870","""event"",""trial"",""time""
""fullscreenenter"",""0"",""2745""
","
","
","""event"",""trial"",""time""
""fullscreenenter"",""0"",""2745""
","
","null","<div style=""font-size:60px;"">+</div>","","null","fixation","2021-06-25 22:48:38.624","","","","",""
"","mars-trial","76","415929","0.0-10.0-1.31","870","""event"",""trial"",""time""
""fullscreenenter"",""0"",""2745""
","
","
","""event"",""trial"",""time""
""fullscreenenter"",""0"",""2745""
","
","4780.299999952316","<img style='border: 4px solid darkgrey;' src='img/tf1_32_M_ss1.jpeg'></img>","3","","exp","","0","<img src='img/tf1_32_T1_ss1_md.jpeg'></img>","0","true",""
"","html-keyboard-response","77","416432","0.0-10.0-0.32","870","""event"",""trial"",""time""
""fullscreenenter"",""0"",""2745""
","
","
","""event"",""trial"",""time""
""fullscreenenter"",""0"",""2745""
","
","null","<div style=""font-size:60px;"">+</div>","","null","fixation","2021-06-25 22:48:44.516","","","","",""
"","mars-trial","78","420170","0.0-10.0-1.32","870","""event"",""trial"",""time""
""fullscreenenter"",""0"",""2745""
","
","
","""event"",""trial"",""time""
""fullscreenenter"",""0"",""2745""
","
","3129.5","<img style='border: 4px solid darkgrey;' src='img/tf1_33_M_ss2.jpeg'></img>","2","","exp","","2","<img src='img/tf1_33_T1_ss2_md.jpeg'></img>","0","false",""
"","html-keyboard-response","79","420675","0.0-10.0-0.33","870","""event"",""trial"",""time""
""fullscreenenter"",""0"",""2745""
","
","
","""event"",""trial"",""time""
""fullscreenenter"",""0"",""2745""
","
","null","<div style=""font-size:60px;"">+</div>","","null","fixation","2021-06-25 22:48:48.759","","","","",""
"","mars-trial","80","432528","0.0-10.0-1.33","870","""event"",""trial"",""time""
""fullscreenenter"",""0"",""2745""
","
","
","""event"",""trial"",""time""
""fullscreenenter"",""0"",""2745""
","
","11242.5","<img style='border: 4px solid darkgrey;' src='img/tf1_34_M_ss3.jpeg'></img>","0","","exp","","3","<img src='img/tf1_34_T1_ss3_md.jpeg'></img>","0","false",""
"","html-keyboard-response","81","433033","0.0-10.0-0.34","870","""event"",""trial"",""time""
""fullscreenenter"",""0"",""2745""
","
","
","""event"",""trial"",""time""
""fullscreenenter"",""0"",""2745""
","
","null","<div style=""font-size:60px;"">+</div>","","null","fixation","2021-06-25 22:49:01.118","","","","",""
"","mars-trial","82","440075","0.0-10.0-1.34","870","""event"",""trial"",""time""
""fullscreenenter"",""0"",""2745""
","
","
","""event"",""trial"",""time""
""fullscreenenter"",""0"",""2745""
","
","6430.699999928474","<img style='border: 4px solid darkgrey;' src='img/tf1_35_M_ss1.jpeg'></img>","0","","exp","","2","<img src='img/tf1_35_T1_ss1_md.jpeg'></img>","0","false",""
"","html-keyboard-response","83","440576","0.0-10.0-0.35","870","""event"",""trial"",""time""
""fullscreenenter"",""0"",""2745""
","
","
","""event"",""trial"",""time""
""fullscreenenter"",""0"",""2745""
","
","null","<div style=""font-size:60px;"">+</div>","","null","fixation","2021-06-25 22:49:08.660","","","","",""
"","mars-trial","84","448489","0.0-10.0-1.35","870","""event"",""trial"",""time""
""fullscreenenter"",""0"",""2745""
","
","
","""event"",""trial"",""time""
""fullscreenenter"",""0"",""2745""
","
","7305.899999976158","<img style='border: 4px solid darkgrey;' src='img/tf1_36_M_ss2.jpeg'></img>","3","","exp","","3","<img src='img/tf1_36_T1_ss2_md.jpeg'></img>","0","false",""
"","html-keyboard-response","85","448991","0.0-10.0-0.36","870","""event"",""trial"",""time""
""fullscreenenter"",""0"",""2745""
","
","
","""event"",""trial"",""time""
""fullscreenenter"",""0"",""2745""
","
","null","<div style=""font-size:60px;"">+</div>","","null","fixation","2021-06-25 22:49:17.075","","","","",""
"","mars-trial","86","454148","0.0-10.0-1.36","870","""event"",""trial"",""time""
""fullscreenenter"",""0"",""2745""
","
","
","""event"",""trial"",""time""
""fullscreenenter"",""0"",""2745""
","
","4551.600000023842","<img style='border: 4px solid darkgrey;' src='img/tf1_37_M_ss3.jpeg'></img>","0","","exp","","0","<img src='img/tf1_37_T1_ss3_md.jpeg'></img>","0","true",""
"","html-keyboard-response","87","454650","0.0-10.0-0.37","870","""event"",""trial"",""time""
""fullscreenenter"",""0"",""2745""
","
","
","""event"",""trial"",""time""
""fullscreenenter"",""0"",""2745""
","
","null","<div style=""font-size:60px;"">+</div>","","null","fixation","2021-06-25 22:49:22.734","","","","",""
"","mars-trial","88","464339","0.0-10.0-1.37","870","""event"",""trial"",""time""
""fullscreenenter"",""0"",""2745""
","
","
","""event"",""trial"",""time""
""fullscreenenter"",""0"",""2745""
","
","9081.099999904633","<img style='border: 4px solid darkgrey;' src='img/tf1_38_M_ss1.jpeg'></img>","2","","exp","","0","<img src='img/tf1_38_T1_ss1_md.jpeg'></img>","0","true",""
"","html-keyboard-response","89","464843","0.0-10.0-0.38","870","""event"",""trial"",""time""
""fullscreenenter"",""0"",""2745""
","
","
","""event"",""trial"",""time""
""fullscreenenter"",""0"",""2745""
","
","null","<div style=""font-size:60px;"">+</div>","","null","fixation","2021-06-25 22:49:32.927","","","","",""
"","mars-trial","90","475840","0.0-10.0-1.38","870","""event"",""trial"",""time""
""fullscreenenter"",""0"",""2745""
","
","
","""event"",""trial"",""time""
""fullscreenenter"",""0"",""2745""
","
","10385.799999952316","<img style='border: 4px solid darkgrey;' src='img/tf1_39_M_ss2.jpeg'></img>","3","","exp","","2","<img src='img/tf1_39_T1_ss2_md.jpeg'></img>","0","false",""
"","html-keyboard-response","91","476343","0.0-10.0-0.39","870","""event"",""trial"",""time""
""fullscreenenter"",""0"",""2745""
","
","
","""event"",""trial"",""time""
""fullscreenenter"",""0"",""2745""
","
","null","<div style=""font-size:60px;"">+</div>","","null","fixation","2021-06-25 22:49:44.427","","","","",""
"","mars-trial","92","482490","0.0-10.0-1.39","870","""event"",""trial"",""time""
""fullscreenenter"",""0"",""2745""
","
","
","""event"",""trial"",""time""
""fullscreenenter"",""0"",""2745""
","
","5535.699999928474","<img style='border: 4px solid darkgrey;' src='img/tf1_40_M_ss3.jpeg'></img>","3","","exp","","2","<img src='img/tf1_40_T1_ss3_md.jpeg'></img>","0","false",""
"","html-keyboard-response","93","482992","0.0-10.0-0.40","870","""event"",""trial"",""time""
""fullscreenenter"",""0"",""2745""
","
","
","""event"",""trial"",""time""
""fullscreenenter"",""0"",""2745""
","
","null","<div style=""font-size:60px;"">+</div>","","null","fixation","2021-06-25 22:49:51.076","","","","",""
"","mars-trial","94","486257","0.0-10.0-1.40","870","""event"",""trial"",""time""
""fullscreenenter"",""0"",""2745""
","
","
","""event"",""trial"",""time""
""fullscreenenter"",""0"",""2745""
","
","2658.7999999523163","<img style='border: 4px solid darkgrey;' src='img/tf1_41_M_ss1.jpeg'></img>","0","","exp","","0","<img src='img/tf1_41_T1_ss1_md.jpeg'></img>","0","true",""
"","html-keyboard-response","95","486762","0.0-10.0-0.41","870","""event"",""trial"",""time""
""fullscreenenter"",""0"",""2745""
","
","
","""event"",""trial"",""time""
""fullscreenenter"",""0"",""2745""
","
","null","<div style=""font-size:60px;"">+</div>","","null","fixation","2021-06-25 22:49:54.846","","","","",""
"","mars-trial","96","491701","0.0-10.0-1.41","870","""event"",""trial"",""time""
""fullscreenenter"",""0"",""2745""
","
","
","""event"",""trial"",""time""
""fullscreenenter"",""0"",""2745""
","
","4330.400000095367","<img style='border: 4px solid darkgrey;' src='img/tf1_42_M_ss2.jpeg'></img>","0","","exp","","2","<img src='img/tf1_42_T1_ss2_md.jpeg'></img>","0","false",""
"","html-keyboard-response","97","492203","0.0-10.0-0.42","870","""event"",""trial"",""time""
""fullscreenenter"",""0"",""2745""
","
","
","""event"",""trial"",""time""
""fullscreenenter"",""0"",""2745""
","
","null","<div style=""font-size:60px;"">+</div>","","null","fixation","2021-06-25 22:50:00.287","","","","",""
"","mars-trial","98","501965","0.0-10.0-1.42","870","""event"",""trial"",""time""
""fullscreenenter"",""0"",""2745""
","
","
","""event"",""trial"",""time""
""fullscreenenter"",""0"",""2745""
","
","9151.600000023842","<img style='border: 4px solid darkgrey;' src='img/tf1_43_M_ss3.jpeg'></img>","1","","exp","","0","<img src='img/tf1_43_T1_ss3_md.jpeg'></img>","0","true",""
"","html-keyboard-response","99","502469","0.0-10.0-0.43","870","""event"",""trial"",""time""
""fullscreenenter"",""0"",""2745""
","
","
","""event"",""trial"",""time""
""fullscreenenter"",""0"",""2745""
","
","null","<div style=""font-size:60px;"">+</div>","","null","fixation","2021-06-25 22:50:10.554","","","","",""
"","mars-trial","100","518347","0.0-10.0-1.43","870","""event"",""trial"",""time""
""fullscreenenter"",""0"",""2745""
","
","
","""event"",""trial"",""time""
""fullscreenenter"",""0"",""2745""
","
","","","","","exp","","","<img src='img/tf1_44_T1_ss1_md.jpeg'></img>","0","false",""
"","html-keyboard-response","101","518848","0.0-10.0-0.44","870","""event"",""trial"",""time""
""fullscreenenter"",""0"",""2745""
","
","
","""event"",""trial"",""time""
""fullscreenenter"",""0"",""2745""
","
","null","<div style=""font-size:60px;"">+</div>","","null","fixation","2021-06-25 22:50:26.932","","","","",""
"","audio-button-response","102","521474","0.0-11.0","870","""event"",""trial"",""time""
""fullscreenenter"",""0"",""2745""
","
","
","""event"",""trial"",""time""
""fullscreenenter"",""0"",""2745""
","
","2523.399999976158","audio/mars_instructions_slide5.wav","0","","","","","","","",""
