"success","trial_type","trial_index","time_elapsed","internal_node_id","subject_id","interactions","blur_events","focus_events","fullscreenenter_events","fullscreenexit_events","rt","stimulus","button_pressed","key_press","part","timestamp","unshuffled_button","correct_response","correct_button","correct","value"
"true","fullscreen","0","6035","0.0-0.0","1086","""event"",""trial"",""time""
""focus"",""0"",""0""
""fullscreenenter"",""0"",""5248""
","
","""event"",""trial"",""time""
""focus"",""0"",""0""
","""event"",""trial"",""time""
""fullscreenenter"",""0"",""5248""
","
","","","","","","","","","","",""
"","pavlovia","1","6043","0.0-1.0","1086","""event"",""trial"",""time""
""focus"",""0"",""0""
""fullscreenenter"",""0"",""5248""
","
","""event"",""trial"",""time""
""focus"",""0"",""0""
","""event"",""trial"",""time""
""fullscreenenter"",""0"",""5248""
","
","","","","","","","","","","",""
"","html-button-response","2","8048","0.0-2.0","1086","""event"",""trial"",""time""
""focus"",""0"",""0""
""fullscreenenter"",""0"",""5248""
","
","""event"",""trial"",""time""
""focus"",""0"",""0""
","""event"",""trial"",""time""
""fullscreenenter"",""0"",""5248""
","
","2003","<p>Welcome! Press START to begin.</p><br>","0","","","","","","","",""
"","audio-button-response","3","23088","0.0-3.0","1086","""event"",""trial"",""time""
""focus"",""0"",""0""
""fullscreenenter"",""0"",""5248""
","
","""event"",""trial"",""time""
""focus"",""0"",""0""
","""event"",""trial"",""time""
""fullscreenenter"",""0"",""5248""
","
","15038","audio/mars_instructions_slide2.wav","0","","","","","","","",""
"","audio-button-response","4","25739","0.0-4.0","1086","""event"",""trial"",""time""
""focus"",""0"",""0""
""fullscreenenter"",""0"",""5248""
","
","""event"",""trial"",""time""
""focus"",""0"",""0""
","""event"",""trial"",""time""
""fullscreenenter"",""0"",""5248""
","
","2646","audio/mars_instructions_slide3.wav","0","","","","","","","",""
"","html-keyboard-response","5","26248","0.0-5.0-0.0","1086","""event"",""trial"",""time""
""focus"",""0"",""0""
""fullscreenenter"",""0"",""5248""
","
","""event"",""trial"",""time""
""focus"",""0"",""0""
","""event"",""trial"",""time""
""fullscreenenter"",""0"",""5248""
","
","null","<div style=""font-size:60px;"">+</div>","","null","fixation","2021-08-05 15:11:05.391","","","","",""
"","mars-trial","6","43912","0.0-5.0-1.0","1086","""event"",""trial"",""time""
""focus"",""0"",""0""
""fullscreenenter"",""0"",""5248""
","
","""event"",""trial"",""time""
""focus"",""0"",""0""
","""event"",""trial"",""time""
""fullscreenenter"",""0"",""5248""
","
","15543","<img style='border: 4px solid darkgrey;' src='practice/pt1_M1.png'></img>","2","","practice","","0","<img src='practice/pt1_T1.png'></img>","0","true",""
"","html-keyboard-response","7","44434","0.0-6.0-0.0","1086","""event"",""trial"",""time""
""focus"",""0"",""0""
""fullscreenenter"",""0"",""5248""
","
","""event"",""trial"",""time""
""focus"",""0"",""0""
","""event"",""trial"",""time""
""fullscreenenter"",""0"",""5248""
","
","null","<div style=""font-size:60px;"">+</div>","","null","fixation","2021-08-05 15:11:23.577","","","","",""
"","mars-trial","8","51529","0.0-6.0-1.0","1086","""event"",""trial"",""time""
""focus"",""0"",""0""
""fullscreenenter"",""0"",""5248""
","
","""event"",""trial"",""time""
""focus"",""0"",""0""
","""event"",""trial"",""time""
""fullscreenenter"",""0"",""5248""
","
","4965","<img style='border: 4px solid darkgrey;' src='practice/pt2_M1.png'></img>","2","","practice","","0","<img src='practice/pt2_T1.png'></img>","0","true",""
"","html-keyboard-response","9","52050","0.0-7.0-0.0","1086","""event"",""trial"",""time""
""focus"",""0"",""0""
""fullscreenenter"",""0"",""5248""
","
","""event"",""trial"",""time""
""focus"",""0"",""0""
","""event"",""trial"",""time""
""fullscreenenter"",""0"",""5248""
","
","null","<div style=""font-size:60px;"">+</div>","","null","fixation","2021-08-05 15:11:31.193","","","","",""
"","mars-trial","10","56616","0.0-7.0-1.0","1086","""event"",""trial"",""time""
""focus"",""0"",""0""
""fullscreenenter"",""0"",""5248""
","
","""event"",""trial"",""time""
""focus"",""0"",""0""
","""event"",""trial"",""time""
""fullscreenenter"",""0"",""5248""
","
","2447","<img style='border: 4px solid darkgrey;' src='practice/pt3_M1.png'></img>","2","","practice","","0","<img src='practice/pt3_T1.png'></img>","0","true",""
"","audio-button-response","11","59880","0.0-8.0","1086","""event"",""trial"",""time""
""focus"",""0"",""0""
""fullscreenenter"",""0"",""5248""
","
","""event"",""trial"",""time""
""focus"",""0"",""0""
","""event"",""trial"",""time""
""fullscreenenter"",""0"",""5248""
","
","3262","audio/mars_instructions_slide4.wav","0","","","","","","","",""
"","call-function","12","59882","0.0-9.0","1086","""event"",""trial"",""time""
""focus"",""0"",""0""
""fullscreenenter"",""0"",""5248""
","
","""event"",""trial"",""time""
""focus"",""0"",""0""
","""event"",""trial"",""time""
""fullscreenenter"",""0"",""5248""
","
","","","","","","","","","","",""
"","html-keyboard-response","13","60392","0.0-10.0-0.0","1086","""event"",""trial"",""time""
""focus"",""0"",""0""
""fullscreenenter"",""0"",""5248""
","
","""event"",""trial"",""time""
""focus"",""0"",""0""
","""event"",""trial"",""time""
""fullscreenenter"",""0"",""5248""
","
","null","<div style=""font-size:60px;"">+</div>","","null","fixation","2021-08-05 15:11:39.535","","","","",""
"","mars-trial","14","63645","0.0-10.0-1.0","1086","""event"",""trial"",""time""
""focus"",""0"",""0""
""fullscreenenter"",""0"",""5248""
","
","""event"",""trial"",""time""
""focus"",""0"",""0""
","""event"",""trial"",""time""
""fullscreenenter"",""0"",""5248""
","
","2631","<img style='border: 4px solid darkgrey;' src='img/tf1_1_M_ss3.jpeg'></img>","0","","exp","","0","<img src='img/tf1_1_T1_ss3_md.jpeg'></img>","0","true",""
"","html-keyboard-response","15","64167","0.0-10.0-0.1","1086","""event"",""trial"",""time""
""focus"",""0"",""0""
""fullscreenenter"",""0"",""5248""
","
","""event"",""trial"",""time""
""focus"",""0"",""0""
","""event"",""trial"",""time""
""fullscreenenter"",""0"",""5248""
","
","null","<div style=""font-size:60px;"">+</div>","","null","fixation","2021-08-05 15:11:43.310","","","","",""
"","mars-trial","16","68330","0.0-10.0-1.1","1086","""event"",""trial"",""time""
""focus"",""0"",""0""
""fullscreenenter"",""0"",""5248""
","
","""event"",""trial"",""time""
""focus"",""0"",""0""
","""event"",""trial"",""time""
""fullscreenenter"",""0"",""5248""
","
","3535","<img style='border: 4px solid darkgrey;' src='img/tf1_2_M_ss1.jpeg'></img>","0","","exp","","0","<img src='img/tf1_2_T1_ss1_md.jpeg'></img>","0","true",""
"","html-keyboard-response","17","68851","0.0-10.0-0.2","1086","""event"",""trial"",""time""
""focus"",""0"",""0""
""fullscreenenter"",""0"",""5248""
","
","""event"",""trial"",""time""
""focus"",""0"",""0""
","""event"",""trial"",""time""
""fullscreenenter"",""0"",""5248""
","
","null","<div style=""font-size:60px;"">+</div>","","null","fixation","2021-08-05 15:11:47.994","","","","",""
"","mars-trial","18","72477","0.0-10.0-1.2","1086","""event"",""trial"",""time""
""focus"",""0"",""0""
""fullscreenenter"",""0"",""5248""
","
","""event"",""trial"",""time""
""focus"",""0"",""0""
","""event"",""trial"",""time""
""fullscreenenter"",""0"",""5248""
","
","3012","<img style='border: 4px solid darkgrey;' src='img/tf1_3_M_ss2.jpeg'></img>","1","","exp","","0","<img src='img/tf1_3_T1_ss2_md.jpeg'></img>","0","true",""
"","html-keyboard-response","19","72999","0.0-10.0-0.3","1086","""event"",""trial"",""time""
""focus"",""0"",""0""
""fullscreenenter"",""0"",""5248""
","
","""event"",""trial"",""time""
""focus"",""0"",""0""
","""event"",""trial"",""time""
""fullscreenenter"",""0"",""5248""
","
","null","<div style=""font-size:60px;"">+</div>","","null","fixation","2021-08-05 15:11:52.142","","","","",""
"","mars-trial","20","77949","0.0-10.0-1.3","1086","""event"",""trial"",""time""
""focus"",""0"",""0""
""fullscreenenter"",""0"",""5248""
","
","""event"",""trial"",""time""
""focus"",""0"",""0""
","""event"",""trial"",""time""
""fullscreenenter"",""0"",""5248""
","
","4311","<img style='border: 4px solid darkgrey;' src='img/tf1_4_M_ss3.jpeg'></img>","3","","exp","","0","<img src='img/tf1_4_T1_ss3_md.jpeg'></img>","0","true",""
"","html-keyboard-response","21","78462","0.0-10.0-0.4","1086","""event"",""trial"",""time""
""focus"",""0"",""0""
""fullscreenenter"",""0"",""5248""
","
","""event"",""trial"",""time""
""focus"",""0"",""0""
","""event"",""trial"",""time""
""fullscreenenter"",""0"",""5248""
","
","null","<div style=""font-size:60px;"">+</div>","","null","fixation","2021-08-05 15:11:57.605","","","","",""
"","mars-trial","22","85813","0.0-10.0-1.4","1086","""event"",""trial"",""time""
""focus"",""0"",""0""
""fullscreenenter"",""0"",""5248""
","
","""event"",""trial"",""time""
""focus"",""0"",""0""
","""event"",""trial"",""time""
""fullscreenenter"",""0"",""5248""
","
","6723","<img style='border: 4px solid darkgrey;' src='img/tf1_5_M_ss1.jpeg'></img>","3","","exp","","0","<img src='img/tf1_5_T1_ss1_md.jpeg'></img>","0","true",""
"","html-keyboard-response","23","86334","0.0-10.0-0.5","1086","""event"",""trial"",""time""
""focus"",""0"",""0""
""fullscreenenter"",""0"",""5248""
","
","""event"",""trial"",""time""
""focus"",""0"",""0""
","""event"",""trial"",""time""
""fullscreenenter"",""0"",""5248""
","
","null","<div style=""font-size:60px;"">+</div>","","null","fixation","2021-08-05 15:12:05.477","","","","",""
"","mars-trial","24","90707","0.0-10.0-1.5","1086","""event"",""trial"",""time""
""focus"",""0"",""0""
""fullscreenenter"",""0"",""5248""
","
","""event"",""trial"",""time""
""focus"",""0"",""0""
","""event"",""trial"",""time""
""fullscreenenter"",""0"",""5248""
","
","3745","<img style='border: 4px solid darkgrey;' src='img/tf1_6_M_ss2.jpeg'></img>","3","","exp","","0","<img src='img/tf1_6_T1_ss2_md.jpeg'></img>","0","true",""
"","html-keyboard-response","25","91228","0.0-10.0-0.6","1086","""event"",""trial"",""time""
""focus"",""0"",""0""
""fullscreenenter"",""0"",""5248""
","
","""event"",""trial"",""time""
""focus"",""0"",""0""
","""event"",""trial"",""time""
""fullscreenenter"",""0"",""5248""
","
","null","<div style=""font-size:60px;"">+</div>","","null","fixation","2021-08-05 15:12:10.371","","","","",""
"","mars-trial","26","96845","0.0-10.0-1.6","1086","""event"",""trial"",""time""
""focus"",""0"",""0""
""fullscreenenter"",""0"",""5248""
","
","""event"",""trial"",""time""
""focus"",""0"",""0""
","""event"",""trial"",""time""
""fullscreenenter"",""0"",""5248""
","
","5004","<img style='border: 4px solid darkgrey;' src='img/tf1_7_M_ss3.jpeg'></img>","0","","exp","","0","<img src='img/tf1_7_T1_ss3_md.jpeg'></img>","0","true",""
"","html-keyboard-response","27","97362","0.0-10.0-0.7","1086","""event"",""trial"",""time""
""focus"",""0"",""0""
""fullscreenenter"",""0"",""5248""
","
","""event"",""trial"",""time""
""focus"",""0"",""0""
","""event"",""trial"",""time""
""fullscreenenter"",""0"",""5248""
","
","null","<div style=""font-size:60px;"">+</div>","","null","fixation","2021-08-05 15:12:16.505","","","","",""
"","mars-trial","28","120776","0.0-10.0-1.7","1086","""event"",""trial"",""time""
""focus"",""0"",""0""
""fullscreenenter"",""0"",""5248""
","
","""event"",""trial"",""time""
""focus"",""0"",""0""
","""event"",""trial"",""time""
""fullscreenenter"",""0"",""5248""
","
","22803","<img style='border: 4px solid darkgrey;' src='img/tf1_8_M_ss1.jpeg'></img>","1","","exp","","0","<img src='img/tf1_8_T1_ss1_md.jpeg'></img>","0","true",""
"","html-keyboard-response","29","121288","0.0-10.0-0.8","1086","""event"",""trial"",""time""
""focus"",""0"",""0""
""fullscreenenter"",""0"",""5248""
","
","""event"",""trial"",""time""
""focus"",""0"",""0""
","""event"",""trial"",""time""
""fullscreenenter"",""0"",""5248""
","
","null","<div style=""font-size:60px;"">+</div>","","null","fixation","2021-08-05 15:12:40.431","","","","",""
"","mars-trial","30","130856","0.0-10.0-1.8","1086","""event"",""trial"",""time""
""focus"",""0"",""0""
""fullscreenenter"",""0"",""5248""
","
","""event"",""trial"",""time""
""focus"",""0"",""0""
","""event"",""trial"",""time""
""fullscreenenter"",""0"",""5248""
","
","8953","<img style='border: 4px solid darkgrey;' src='img/tf1_9_M_ss2.jpeg'></img>","2","","exp","","0","<img src='img/tf1_9_T1_ss2_md.jpeg'></img>","0","true",""
"","html-keyboard-response","31","131378","0.0-10.0-0.9","1086","""event"",""trial"",""time""
""focus"",""0"",""0""
""fullscreenenter"",""0"",""5248""
","
","""event"",""trial"",""time""
""focus"",""0"",""0""
","""event"",""trial"",""time""
""fullscreenenter"",""0"",""5248""
","
","null","<div style=""font-size:60px;"">+</div>","","null","fixation","2021-08-05 15:12:50.521","","","","",""
"","mars-trial","32","149266","0.0-10.0-1.9","1086","""event"",""trial"",""time""
""focus"",""0"",""0""
""fullscreenenter"",""0"",""5248""
","
","""event"",""trial"",""time""
""focus"",""0"",""0""
","""event"",""trial"",""time""
""fullscreenenter"",""0"",""5248""
","
","17276","<img style='border: 4px solid darkgrey;' src='img/tf1_10_M_ss3.jpeg'></img>","1","","exp","","0","<img src='img/tf1_10_T1_ss3_md.jpeg'></img>","0","true",""
"","html-keyboard-response","33","149788","0.0-10.0-0.10","1086","""event"",""trial"",""time""
""focus"",""0"",""0""
""fullscreenenter"",""0"",""5248""
","
","""event"",""trial"",""time""
""focus"",""0"",""0""
","""event"",""trial"",""time""
""fullscreenenter"",""0"",""5248""
","
","null","<div style=""font-size:60px;"">+</div>","","null","fixation","2021-08-05 15:13:08.932","","","","",""
"","mars-trial","34","162664","0.0-10.0-1.10","1086","""event"",""trial"",""time""
""focus"",""0"",""0""
""fullscreenenter"",""0"",""5248""
","
","""event"",""trial"",""time""
""focus"",""0"",""0""
","""event"",""trial"",""time""
""fullscreenenter"",""0"",""5248""
","
","12247","<img style='border: 4px solid darkgrey;' src='img/tf1_11_M_ss1.jpeg'></img>","3","","exp","","2","<img src='img/tf1_11_T1_ss1_md.jpeg'></img>","0","false",""
"","html-keyboard-response","35","163176","0.0-10.0-0.11","1086","""event"",""trial"",""time""
""focus"",""0"",""0""
""fullscreenenter"",""0"",""5248""
","
","""event"",""trial"",""time""
""focus"",""0"",""0""
","""event"",""trial"",""time""
""fullscreenenter"",""0"",""5248""
","
","null","<div style=""font-size:60px;"">+</div>","","null","fixation","2021-08-05 15:13:22.319","","","","",""
"","mars-trial","36","170642","0.0-10.0-1.11","1086","""event"",""trial"",""time""
""focus"",""0"",""0""
""fullscreenenter"",""0"",""5248""
","
","""event"",""trial"",""time""
""focus"",""0"",""0""
","""event"",""trial"",""time""
""fullscreenenter"",""0"",""5248""
","
","6843","<img style='border: 4px solid darkgrey;' src='img/tf1_12_M_ss2.jpeg'></img>","3","","exp","","0","<img src='img/tf1_12_T1_ss2_md.jpeg'></img>","0","true",""
"","html-keyboard-response","37","171164","0.0-10.0-0.12","1086","""event"",""trial"",""time""
""focus"",""0"",""0""
""fullscreenenter"",""0"",""5248""
","
","""event"",""trial"",""time""
""focus"",""0"",""0""
","""event"",""trial"",""time""
""fullscreenenter"",""0"",""5248""
","
","null","<div style=""font-size:60px;"">+</div>","","null","fixation","2021-08-05 15:13:30.308","","","","",""
"","mars-trial","38","173779","0.0-10.0-1.12","1086","""event"",""trial"",""time""
""focus"",""0"",""0""
""fullscreenenter"",""0"",""5248""
","
","""event"",""trial"",""time""
""focus"",""0"",""0""
","""event"",""trial"",""time""
""fullscreenenter"",""0"",""5248""
","
","1991","<img style='border: 4px solid darkgrey;' src='img/tf1_13_M_ss3.jpeg'></img>","2","","exp","","2","<img src='img/tf1_13_T1_ss3_md.jpeg'></img>","0","false",""
"","html-keyboard-response","39","174290","0.0-10.0-0.13","1086","""event"",""trial"",""time""
""focus"",""0"",""0""
""fullscreenenter"",""0"",""5248""
","
","""event"",""trial"",""time""
""focus"",""0"",""0""
","""event"",""trial"",""time""
""fullscreenenter"",""0"",""5248""
","
","null","<div style=""font-size:60px;"">+</div>","","null","fixation","2021-08-05 15:13:33.433","","","","",""
"","mars-trial","40","181694","0.0-10.0-1.13","1086","""event"",""trial"",""time""
""focus"",""0"",""0""
""fullscreenenter"",""0"",""5248""
","
","""event"",""trial"",""time""
""focus"",""0"",""0""
","""event"",""trial"",""time""
""fullscreenenter"",""0"",""5248""
","
","6772","<img style='border: 4px solid darkgrey;' src='img/tf1_14_M_ss1.jpeg'></img>","2","","exp","","0","<img src='img/tf1_14_T1_ss1_md.jpeg'></img>","0","true",""
"","html-keyboard-response","41","182205","0.0-10.0-0.14","1086","""event"",""trial"",""time""
""focus"",""0"",""0""
""fullscreenenter"",""0"",""5248""
","
","""event"",""trial"",""time""
""focus"",""0"",""0""
","""event"",""trial"",""time""
""fullscreenenter"",""0"",""5248""
","
","null","<div style=""font-size:60px;"">+</div>","","null","fixation","2021-08-05 15:13:41.348","","","","",""
"","mars-trial","42","194109","0.0-10.0-1.14","1086","""event"",""trial"",""time""
""focus"",""0"",""0""
""fullscreenenter"",""0"",""5248""
","
","""event"",""trial"",""time""
""focus"",""0"",""0""
","""event"",""trial"",""time""
""fullscreenenter"",""0"",""5248""
","
","11274","<img style='border: 4px solid darkgrey;' src='img/tf1_15_M_ss2.jpeg'></img>","3","","exp","","3","<img src='img/tf1_15_T1_ss2_md.jpeg'></img>","0","false",""
"","html-keyboard-response","43","194631","0.0-10.0-0.15","1086","""event"",""trial"",""time""
""focus"",""0"",""0""
""fullscreenenter"",""0"",""5248""
","
","""event"",""trial"",""time""
""focus"",""0"",""0""
","""event"",""trial"",""time""
""fullscreenenter"",""0"",""5248""
","
","null","<div style=""font-size:60px;"">+</div>","","null","fixation","2021-08-05 15:13:53.775","","","","",""
"","mars-trial","44","204669","0.0-10.0-1.15","1086","""event"",""trial"",""time""
""focus"",""0"",""0""
""fullscreenenter"",""0"",""5248""
","
","""event"",""trial"",""time""
""focus"",""0"",""0""
","""event"",""trial"",""time""
""fullscreenenter"",""0"",""5248""
","
","9421","<img style='border: 4px solid darkgrey;' src='img/tf1_16_M_ss3.jpeg'></img>","2","","exp","","3","<img src='img/tf1_16_T1_ss3_md.jpeg'></img>","0","false",""
"","html-keyboard-response","45","205191","0.0-10.0-0.16","1086","""event"",""trial"",""time""
""focus"",""0"",""0""
""fullscreenenter"",""0"",""5248""
","
","""event"",""trial"",""time""
""focus"",""0"",""0""
","""event"",""trial"",""time""
""fullscreenenter"",""0"",""5248""
","
","null","<div style=""font-size:60px;"">+</div>","","null","fixation","2021-08-05 15:14:04.335","","","","",""
"","mars-trial","46","206845","0.0-10.0-1.16","1086","""event"",""trial"",""time""
""focus"",""0"",""0""
""fullscreenenter"",""0"",""5248""
","
","""event"",""trial"",""time""
""focus"",""0"",""0""
","""event"",""trial"",""time""
""fullscreenenter"",""0"",""5248""
","
","1025","<img style='border: 4px solid darkgrey;' src='img/tf1_17_M_ss1.jpeg'></img>","1","","exp","","0","<img src='img/tf1_17_T1_ss1_md.jpeg'></img>","0","true",""
"","html-keyboard-response","47","207358","0.0-10.0-0.17","1086","""event"",""trial"",""time""
""focus"",""0"",""0""
""fullscreenenter"",""0"",""5248""
","
","""event"",""trial"",""time""
""focus"",""0"",""0""
","""event"",""trial"",""time""
""fullscreenenter"",""0"",""5248""
","
","null","<div style=""font-size:60px;"">+</div>","","null","fixation","2021-08-05 15:14:06.501","","","","",""
"","mars-trial","48","213086","0.0-10.0-1.17","1086","""event"",""trial"",""time""
""focus"",""0"",""0""
""fullscreenenter"",""0"",""5248""
","
","""event"",""trial"",""time""
""focus"",""0"",""0""
","""event"",""trial"",""time""
""fullscreenenter"",""0"",""5248""
","
","5113","<img style='border: 4px solid darkgrey;' src='img/tf1_18_M_ss2.jpeg'></img>","1","","exp","","0","<img src='img/tf1_18_T1_ss2_md.jpeg'></img>","0","true",""
"","html-keyboard-response","49","213597","0.0-10.0-0.18","1086","""event"",""trial"",""time""
""focus"",""0"",""0""
""fullscreenenter"",""0"",""5248""
","
","""event"",""trial"",""time""
""focus"",""0"",""0""
","""event"",""trial"",""time""
""fullscreenenter"",""0"",""5248""
","
","null","<div style=""font-size:60px;"">+</div>","","null","fixation","2021-08-05 15:14:12.741","","","","",""
"","mars-trial","50","225437","0.0-10.0-1.18","1086","""event"",""trial"",""time""
""focus"",""0"",""0""
""fullscreenenter"",""0"",""5248""
","
","""event"",""trial"",""time""
""focus"",""0"",""0""
","""event"",""trial"",""time""
""fullscreenenter"",""0"",""5248""
","
","11209","<img style='border: 4px solid darkgrey;' src='img/tf1_19_M_ss3.jpeg'></img>","2","","exp","","2","<img src='img/tf1_19_T1_ss3_md.jpeg'></img>","0","false",""
"","html-keyboard-response","51","225959","0.0-10.0-0.19","1086","""event"",""trial"",""time""
""focus"",""0"",""0""
""fullscreenenter"",""0"",""5248""
","
","""event"",""trial"",""time""
""focus"",""0"",""0""
","""event"",""trial"",""time""
""fullscreenenter"",""0"",""5248""
","
","null","<div style=""font-size:60px;"">+</div>","","null","fixation","2021-08-05 15:14:25.102","","","","",""
"","mars-trial","52","231538","0.0-10.0-1.19","1086","""event"",""trial"",""time""
""focus"",""0"",""0""
""fullscreenenter"",""0"",""5248""
","
","""event"",""trial"",""time""
""focus"",""0"",""0""
","""event"",""trial"",""time""
""fullscreenenter"",""0"",""5248""
","
","4968","<img style='border: 4px solid darkgrey;' src='img/tf1_20_M_ss1.jpeg'></img>","1","","exp","","1","<img src='img/tf1_20_T1_ss1_md.jpeg'></img>","0","false",""
"","html-keyboard-response","53","232041","0.0-10.0-0.20","1086","""event"",""trial"",""time""
""focus"",""0"",""0""
""fullscreenenter"",""0"",""5248""
","
","""event"",""trial"",""time""
""focus"",""0"",""0""
","""event"",""trial"",""time""
""fullscreenenter"",""0"",""5248""
","
","null","<div style=""font-size:60px;"">+</div>","","null","fixation","2021-08-05 15:14:31.184","","","","",""
"","mars-trial","54","233511","0.0-10.0-1.20","1086","""event"",""trial"",""time""
""focus"",""0"",""0""
""fullscreenenter"",""0"",""5248""
","
","""event"",""trial"",""time""
""focus"",""0"",""0""
","""event"",""trial"",""time""
""fullscreenenter"",""0"",""5248""
","
","842","<img style='border: 4px solid darkgrey;' src='img/tf1_21_M_ss2.jpeg'></img>","2","","exp","","0","<img src='img/tf1_21_T1_ss2_md.jpeg'></img>","0","true",""
"","html-keyboard-response","55","234034","0.0-10.0-0.21","1086","""event"",""trial"",""time""
""focus"",""0"",""0""
""fullscreenenter"",""0"",""5248""
","
","""event"",""trial"",""time""
""focus"",""0"",""0""
","""event"",""trial"",""time""
""fullscreenenter"",""0"",""5248""
","
","null","<div style=""font-size:60px;"">+</div>","","null","fixation","2021-08-05 15:14:33.177","","","","",""
"","mars-trial","56","241672","0.0-10.0-1.21","1086","""event"",""trial"",""time""
""focus"",""0"",""0""
""fullscreenenter"",""0"",""5248""
","
","""event"",""trial"",""time""
""focus"",""0"",""0""
","""event"",""trial"",""time""
""fullscreenenter"",""0"",""5248""
","
","7026","<img style='border: 4px solid darkgrey;' src='img/tf1_22_M_ss3.jpeg'></img>","3","","exp","","2","<img src='img/tf1_22_T1_ss3_md.jpeg'></img>","0","false",""
"","html-keyboard-response","57","242178","0.0-10.0-0.22","1086","""event"",""trial"",""time""
""focus"",""0"",""0""
""fullscreenenter"",""0"",""5248""
","
","""event"",""trial"",""time""
""focus"",""0"",""0""
","""event"",""trial"",""time""
""fullscreenenter"",""0"",""5248""
","
","null","<div style=""font-size:60px;"">+</div>","","null","fixation","2021-08-05 15:14:41.321","","","","",""
"","mars-trial","58","244391","0.0-10.0-1.22","1086","""event"",""trial"",""time""
""focus"",""0"",""0""
""fullscreenenter"",""0"",""5248""
","
","""event"",""trial"",""time""
""focus"",""0"",""0""
","""event"",""trial"",""time""
""fullscreenenter"",""0"",""5248""
","
","1603","<img style='border: 4px solid darkgrey;' src='img/tf1_23_M_ss1.jpeg'></img>","0","","exp","","3","<img src='img/tf1_23_T1_ss1_md.jpeg'></img>","0","false",""
"","html-keyboard-response","59","244896","0.0-10.0-0.23","1086","""event"",""trial"",""time""
""focus"",""0"",""0""
""fullscreenenter"",""0"",""5248""
","
","""event"",""trial"",""time""
""focus"",""0"",""0""
","""event"",""trial"",""time""
""fullscreenenter"",""0"",""5248""
","
","null","<div style=""font-size:60px;"">+</div>","","null","fixation","2021-08-05 15:14:44.039","","","","",""
"","mars-trial","60","245992","0.0-10.0-1.23","1086","""event"",""trial"",""time""
""focus"",""0"",""0""
""fullscreenenter"",""0"",""5248""
","
","""event"",""trial"",""time""
""focus"",""0"",""0""
","""event"",""trial"",""time""
""fullscreenenter"",""0"",""5248""
","
","485","<img style='border: 4px solid darkgrey;' src='img/tf1_24_M_ss2.jpeg'></img>","1","","exp","","0","<img src='img/tf1_24_T1_ss2_md.jpeg'></img>","0","true",""
"","html-keyboard-response","61","246513","0.0-10.0-0.24","1086","""event"",""trial"",""time""
""focus"",""0"",""0""
""fullscreenenter"",""0"",""5248""
","
","""event"",""trial"",""time""
""focus"",""0"",""0""
","""event"",""trial"",""time""
""fullscreenenter"",""0"",""5248""
","
","null","<div style=""font-size:60px;"">+</div>","","null","fixation","2021-08-05 15:14:45.657","","","","",""
"","mars-trial","62","247774","0.0-10.0-1.24","1086","""event"",""trial"",""time""
""focus"",""0"",""0""
""fullscreenenter"",""0"",""5248""
","
","""event"",""trial"",""time""
""focus"",""0"",""0""
","""event"",""trial"",""time""
""fullscreenenter"",""0"",""5248""
","
","635","<img style='border: 4px solid darkgrey;' src='img/tf1_25_M_ss3.jpeg'></img>","1","","exp","","1","<img src='img/tf1_25_T1_ss3_md.jpeg'></img>","0","false",""
"","html-keyboard-response","63","248285","0.0-10.0-0.25","1086","""event"",""trial"",""time""
""focus"",""0"",""0""
""fullscreenenter"",""0"",""5248""
","
","""event"",""trial"",""time""
""focus"",""0"",""0""
","""event"",""trial"",""time""
""fullscreenenter"",""0"",""5248""
","
","null","<div style=""font-size:60px;"">+</div>","","null","fixation","2021-08-05 15:14:47.428","","","","",""
"","mars-trial","64","249374","0.0-10.0-1.25","1086","""event"",""trial"",""time""
""focus"",""0"",""0""
""fullscreenenter"",""0"",""5248""
","
","""event"",""trial"",""time""
""focus"",""0"",""0""
","""event"",""trial"",""time""
""fullscreenenter"",""0"",""5248""
","
","461","<img style='border: 4px solid darkgrey;' src='img/tf1_26_M_ss1.jpeg'></img>","2","","exp","","0","<img src='img/tf1_26_T1_ss1_md.jpeg'></img>","0","true",""
"","html-keyboard-response","65","249879","0.0-10.0-0.26","1086","""event"",""trial"",""time""
""focus"",""0"",""0""
""fullscreenenter"",""0"",""5248""
","
","""event"",""trial"",""time""
""focus"",""0"",""0""
","""event"",""trial"",""time""
""fullscreenenter"",""0"",""5248""
","
","null","<div style=""font-size:60px;"">+</div>","","null","fixation","2021-08-05 15:14:49.022","","","","",""
"","mars-trial","66","251624","0.0-10.0-1.26","1086","""event"",""trial"",""time""
""focus"",""0"",""0""
""fullscreenenter"",""0"",""5248""
","
","""event"",""trial"",""time""
""focus"",""0"",""0""
","""event"",""trial"",""time""
""fullscreenenter"",""0"",""5248""
","
","1120","<img style='border: 4px solid darkgrey;' src='img/tf1_27_M_ss2.jpeg'></img>","2","","exp","","3","<img src='img/tf1_27_T1_ss2_md.jpeg'></img>","0","false",""
"","html-keyboard-response","67","252132","0.0-10.0-0.27","1086","""event"",""trial"",""time""
""focus"",""0"",""0""
""fullscreenenter"",""0"",""5248""
","
","""event"",""trial"",""time""
""focus"",""0"",""0""
","""event"",""trial"",""time""
""fullscreenenter"",""0"",""5248""
","
","null","<div style=""font-size:60px;"">+</div>","","null","fixation","2021-08-05 15:14:51.275","","","","",""
"","mars-trial","68","253286","0.0-10.0-1.27","1086","""event"",""trial"",""time""
""focus"",""0"",""0""
""fullscreenenter"",""0"",""5248""
","
","""event"",""trial"",""time""
""focus"",""0"",""0""
","""event"",""trial"",""time""
""fullscreenenter"",""0"",""5248""
","
","524","<img style='border: 4px solid darkgrey;' src='img/tf1_28_M_ss3.jpeg'></img>","1","","exp","","0","<img src='img/tf1_28_T1_ss3_md.jpeg'></img>","0","true",""
"","html-keyboard-response","69","253810","0.0-10.0-0.28","1086","""event"",""trial"",""time""
""focus"",""0"",""0""
""fullscreenenter"",""0"",""5248""
","
","""event"",""trial"",""time""
""focus"",""0"",""0""
","""event"",""trial"",""time""
""fullscreenenter"",""0"",""5248""
","
","null","<div style=""font-size:60px;"">+</div>","","null","fixation","2021-08-05 15:14:52.953","","","","",""
"","mars-trial","70","256200","0.0-10.0-1.28","1086","""event"",""trial"",""time""
""focus"",""0"",""0""
""fullscreenenter"",""0"",""5248""
","
","""event"",""trial"",""time""
""focus"",""0"",""0""
","""event"",""trial"",""time""
""fullscreenenter"",""0"",""5248""
","
","1762","<img style='border: 4px solid darkgrey;' src='img/tf1_29_M_ss1.jpeg'></img>","3","","exp","","2","<img src='img/tf1_29_T1_ss1_md.jpeg'></img>","0","false",""
"","html-keyboard-response","71","256711","0.0-10.0-0.29","1086","""event"",""trial"",""time""
""focus"",""0"",""0""
""fullscreenenter"",""0"",""5248""
","
","""event"",""trial"",""time""
""focus"",""0"",""0""
","""event"",""trial"",""time""
""fullscreenenter"",""0"",""5248""
","
","null","<div style=""font-size:60px;"">+</div>","","null","fixation","2021-08-05 15:14:55.855","","","","",""
"","mars-trial","72","258013","0.0-10.0-1.29","1086","""event"",""trial"",""time""
""focus"",""0"",""0""
""fullscreenenter"",""0"",""5248""
","
","""event"",""trial"",""time""
""focus"",""0"",""0""
","""event"",""trial"",""time""
""fullscreenenter"",""0"",""5248""
","
","680","<img style='border: 4px solid darkgrey;' src='img/tf1_30_M_ss2.jpeg'></img>","2","","exp","","2","<img src='img/tf1_30_T1_ss2_md.jpeg'></img>","0","false",""
"","html-keyboard-response","73","258535","0.0-10.0-0.30","1086","""event"",""trial"",""time""
""focus"",""0"",""0""
""fullscreenenter"",""0"",""5248""
","
","""event"",""trial"",""time""
""focus"",""0"",""0""
","""event"",""trial"",""time""
""fullscreenenter"",""0"",""5248""
","
","null","<div style=""font-size:60px;"">+</div>","","null","fixation","2021-08-05 15:14:57.679","","","","",""
"","mars-trial","74","259612","0.0-10.0-1.30","1086","""event"",""trial"",""time""
""focus"",""0"",""0""
""fullscreenenter"",""0"",""5248""
","
","""event"",""trial"",""time""
""focus"",""0"",""0""
","""event"",""trial"",""time""
""fullscreenenter"",""0"",""5248""
","
","455","<img style='border: 4px solid darkgrey;' src='img/tf1_31_M_ss3.jpeg'></img>","1","","exp","","0","<img src='img/tf1_31_T1_ss3_md.jpeg'></img>","0","true",""
"","html-keyboard-response","75","260134","0.0-10.0-0.31","1086","""event"",""trial"",""time""
""focus"",""0"",""0""
""fullscreenenter"",""0"",""5248""
","
","""event"",""trial"",""time""
""focus"",""0"",""0""
","""event"",""trial"",""time""
""fullscreenenter"",""0"",""5248""
","
","null","<div style=""font-size:60px;"">+</div>","","null","fixation","2021-08-05 15:14:59.277","","","","",""
"","mars-trial","76","264348","0.0-10.0-1.31","1086","""event"",""trial"",""time""
""focus"",""0"",""0""
""fullscreenenter"",""0"",""5248""
","
","""event"",""trial"",""time""
""focus"",""0"",""0""
","""event"",""trial"",""time""
""fullscreenenter"",""0"",""5248""
","
","3595","<img style='border: 4px solid darkgrey;' src='img/tf1_32_M_ss1.jpeg'></img>","2","","exp","","3","<img src='img/tf1_32_T1_ss1_md.jpeg'></img>","0","false",""
"","html-keyboard-response","77","264871","0.0-10.0-0.32","1086","""event"",""trial"",""time""
""focus"",""0"",""0""
""fullscreenenter"",""0"",""5248""
","
","""event"",""trial"",""time""
""focus"",""0"",""0""
","""event"",""trial"",""time""
""fullscreenenter"",""0"",""5248""
","
","null","<div style=""font-size:60px;"">+</div>","","null","fixation","2021-08-05 15:15:04.014","","","","",""
"","mars-trial","78","273842","0.0-10.0-1.32","1086","""event"",""trial"",""time""
""focus"",""0"",""0""
""fullscreenenter"",""0"",""5248""
","
","""event"",""trial"",""time""
""focus"",""0"",""0""
","""event"",""trial"",""time""
""fullscreenenter"",""0"",""5248""
","
","8338","<img style='border: 4px solid darkgrey;' src='img/tf1_33_M_ss2.jpeg'></img>","3","","exp","","0","<img src='img/tf1_33_T1_ss2_md.jpeg'></img>","0","true",""
"","html-keyboard-response","79","274364","0.0-10.0-0.33","1086","""event"",""trial"",""time""
""focus"",""0"",""0""
""fullscreenenter"",""0"",""5248""
","
","""event"",""trial"",""time""
""focus"",""0"",""0""
","""event"",""trial"",""time""
""fullscreenenter"",""0"",""5248""
","
","null","<div style=""font-size:60px;"">+</div>","","null","fixation","2021-08-05 15:15:13.507","","","","",""
"","mars-trial","80","284797","0.0-10.0-1.33","1086","""event"",""trial"",""time""
""focus"",""0"",""0""
""fullscreenenter"",""0"",""5248""
","
","""event"",""trial"",""time""
""focus"",""0"",""0""
","""event"",""trial"",""time""
""fullscreenenter"",""0"",""5248""
","
","9805","<img style='border: 4px solid darkgrey;' src='img/tf1_34_M_ss3.jpeg'></img>","3","","exp","","3","<img src='img/tf1_34_T1_ss3_md.jpeg'></img>","0","false",""
"","html-keyboard-response","81","285320","0.0-10.0-0.34","1086","""event"",""trial"",""time""
""focus"",""0"",""0""
""fullscreenenter"",""0"",""5248""
","
","""event"",""trial"",""time""
""focus"",""0"",""0""
","""event"",""trial"",""time""
""fullscreenenter"",""0"",""5248""
","
","null","<div style=""font-size:60px;"">+</div>","","null","fixation","2021-08-05 15:15:24.463","","","","",""
"","mars-trial","82","287507","0.0-10.0-1.34","1086","""event"",""trial"",""time""
""focus"",""0"",""0""
""fullscreenenter"",""0"",""5248""
","
","""event"",""trial"",""time""
""focus"",""0"",""0""
","""event"",""trial"",""time""
""fullscreenenter"",""0"",""5248""
","
","1548","<img style='border: 4px solid darkgrey;' src='img/tf1_35_M_ss1.jpeg'></img>","2","","exp","","1","<img src='img/tf1_35_T1_ss1_md.jpeg'></img>","0","false",""
"","html-keyboard-response","83","288018","0.0-10.0-0.35","1086","""event"",""trial"",""time""
""focus"",""0"",""0""
""fullscreenenter"",""0"",""5248""
","
","""event"",""trial"",""time""
""focus"",""0"",""0""
","""event"",""trial"",""time""
""fullscreenenter"",""0"",""5248""
","
","null","<div style=""font-size:60px;"">+</div>","","null","fixation","2021-08-05 15:15:27.161","","","","",""
"","mars-trial","84","289896","0.0-10.0-1.35","1086","""event"",""trial"",""time""
""focus"",""0"",""0""
""fullscreenenter"",""0"",""5248""
","
","""event"",""trial"",""time""
""focus"",""0"",""0""
","""event"",""trial"",""time""
""fullscreenenter"",""0"",""5248""
","
","1247","<img style='border: 4px solid darkgrey;' src='img/tf1_36_M_ss2.jpeg'></img>","1","","exp","","3","<img src='img/tf1_36_T1_ss2_md.jpeg'></img>","0","false",""
"","html-keyboard-response","85","290417","0.0-10.0-0.36","1086","""event"",""trial"",""time""
""focus"",""0"",""0""
""fullscreenenter"",""0"",""5248""
","
","""event"",""trial"",""time""
""focus"",""0"",""0""
","""event"",""trial"",""time""
""fullscreenenter"",""0"",""5248""
","
","null","<div style=""font-size:60px;"">+</div>","","null","fixation","2021-08-05 15:15:29.561","","","","",""
"","mars-trial","86","291314","0.0-10.0-1.36","1086","""event"",""trial"",""time""
""focus"",""0"",""0""
""fullscreenenter"",""0"",""5248""
","
","""event"",""trial"",""time""
""focus"",""0"",""0""
","""event"",""trial"",""time""
""fullscreenenter"",""0"",""5248""
","
","268","<img style='border: 4px solid darkgrey;' src='img/tf1_37_M_ss3.jpeg'></img>","0","","exp","","0","<img src='img/tf1_37_T1_ss3_md.jpeg'></img>","0","true",""
"","html-keyboard-response","87","291836","0.0-10.0-0.37","1086","""event"",""trial"",""time""
""focus"",""0"",""0""
""fullscreenenter"",""0"",""5248""
","
","""event"",""trial"",""time""
""focus"",""0"",""0""
","""event"",""trial"",""time""
""fullscreenenter"",""0"",""5248""
","
","null","<div style=""font-size:60px;"">+</div>","","null","fixation","2021-08-05 15:15:30.979","","","","",""
"","mars-trial","88","294598","0.0-10.0-1.37","1086","""event"",""trial"",""time""
""focus"",""0"",""0""
""fullscreenenter"",""0"",""5248""
","
","""event"",""trial"",""time""
""focus"",""0"",""0""
","""event"",""trial"",""time""
""fullscreenenter"",""0"",""5248""
","
","2139","<img style='border: 4px solid darkgrey;' src='img/tf1_38_M_ss1.jpeg'></img>","1","","exp","","2","<img src='img/tf1_38_T1_ss1_md.jpeg'></img>","0","false",""
"","html-keyboard-response","89","295100","0.0-10.0-0.38","1086","""event"",""trial"",""time""
""focus"",""0"",""0""
""fullscreenenter"",""0"",""5248""
","
","""event"",""trial"",""time""
""focus"",""0"",""0""
","""event"",""trial"",""time""
""fullscreenenter"",""0"",""5248""
","
","null","<div style=""font-size:60px;"">+</div>","","null","fixation","2021-08-05 15:15:34.244","","","","",""
"","mars-trial","90","297224","0.0-10.0-1.38","1086","""event"",""trial"",""time""
""focus"",""0"",""0""
""fullscreenenter"",""0"",""5248""
","
","""event"",""trial"",""time""
""focus"",""0"",""0""
","""event"",""trial"",""time""
""fullscreenenter"",""0"",""5248""
","
","1508","<img style='border: 4px solid darkgrey;' src='img/tf1_39_M_ss2.jpeg'></img>","3","","exp","","3","<img src='img/tf1_39_T1_ss2_md.jpeg'></img>","0","false",""
"","html-keyboard-response","91","297746","0.0-10.0-0.39","1086","""event"",""trial"",""time""
""focus"",""0"",""0""
""fullscreenenter"",""0"",""5248""
","
","""event"",""trial"",""time""
""focus"",""0"",""0""
","""event"",""trial"",""time""
""fullscreenenter"",""0"",""5248""
","
","null","<div style=""font-size:60px;"">+</div>","","null","fixation","2021-08-05 15:15:36.889","","","","",""
"","mars-trial","92","298814","0.0-10.0-1.39","1086","""event"",""trial"",""time""
""focus"",""0"",""0""
""fullscreenenter"",""0"",""5248""
","
","""event"",""trial"",""time""
""focus"",""0"",""0""
","""event"",""trial"",""time""
""fullscreenenter"",""0"",""5248""
","
","433","<img style='border: 4px solid darkgrey;' src='img/tf1_40_M_ss3.jpeg'></img>","2","","exp","","2","<img src='img/tf1_40_T1_ss3_md.jpeg'></img>","0","false",""
"","html-keyboard-response","93","299335","0.0-10.0-0.40","1086","""event"",""trial"",""time""
""focus"",""0"",""0""
""fullscreenenter"",""0"",""5248""
","
","""event"",""trial"",""time""
""focus"",""0"",""0""
","""event"",""trial"",""time""
""fullscreenenter"",""0"",""5248""
","
","null","<div style=""font-size:60px;"">+</div>","","null","fixation","2021-08-05 15:15:38.478","","","","",""
"","mars-trial","94","300305","0.0-10.0-1.40","1086","""event"",""trial"",""time""
""focus"",""0"",""0""
""fullscreenenter"",""0"",""5248""
","
","""event"",""trial"",""time""
""focus"",""0"",""0""
","""event"",""trial"",""time""
""fullscreenenter"",""0"",""5248""
","
","361","<img style='border: 4px solid darkgrey;' src='img/tf1_41_M_ss1.jpeg'></img>","1","","exp","","2","<img src='img/tf1_41_T1_ss1_md.jpeg'></img>","0","false",""
"","html-keyboard-response","95","300806","0.0-10.0-0.41","1086","""event"",""trial"",""time""
""focus"",""0"",""0""
""fullscreenenter"",""0"",""5248""
","
","""event"",""trial"",""time""
""focus"",""0"",""0""
","""event"",""trial"",""time""
""fullscreenenter"",""0"",""5248""
","
","null","<div style=""font-size:60px;"">+</div>","","null","fixation","2021-08-05 15:15:39.949","","","","",""
"","mars-trial","96","302065","0.0-10.0-1.41","1086","""event"",""trial"",""time""
""focus"",""0"",""0""
""fullscreenenter"",""0"",""5248""
","
","""event"",""trial"",""time""
""focus"",""0"",""0""
","""event"",""trial"",""time""
""fullscreenenter"",""0"",""5248""
","
","645","<img style='border: 4px solid darkgrey;' src='img/tf1_42_M_ss2.jpeg'></img>","0","","exp","","1","<img src='img/tf1_42_T1_ss2_md.jpeg'></img>","0","false",""
"","html-keyboard-response","97","302587","0.0-10.0-0.42","1086","""event"",""trial"",""time""
""focus"",""0"",""0""
""fullscreenenter"",""0"",""5248""
","
","""event"",""trial"",""time""
""focus"",""0"",""0""
","""event"",""trial"",""time""
""fullscreenenter"",""0"",""5248""
","
","null","<div style=""font-size:60px;"">+</div>","","null","fixation","2021-08-05 15:15:41.730","","","","",""
"","mars-trial","98","303730","0.0-10.0-1.42","1086","""event"",""trial"",""time""
""focus"",""0"",""0""
""fullscreenenter"",""0"",""5248""
","
","""event"",""trial"",""time""
""focus"",""0"",""0""
","""event"",""trial"",""time""
""fullscreenenter"",""0"",""5248""
","
","528","<img style='border: 4px solid darkgrey;' src='img/tf1_43_M_ss3.jpeg'></img>","2","","exp","","1","<img src='img/tf1_43_T1_ss3_md.jpeg'></img>","0","false",""
"","html-keyboard-response","99","304253","0.0-10.0-0.43","1086","""event"",""trial"",""time""
""focus"",""0"",""0""
""fullscreenenter"",""0"",""5248""
","
","""event"",""trial"",""time""
""focus"",""0"",""0""
","""event"",""trial"",""time""
""fullscreenenter"",""0"",""5248""
","
","null","<div style=""font-size:60px;"">+</div>","","null","fixation","2021-08-05 15:15:43.396","","","","",""
"","mars-trial","100","305362","0.0-10.0-1.43","1086","""event"",""trial"",""time""
""focus"",""0"",""0""
""fullscreenenter"",""0"",""5248""
","
","""event"",""trial"",""time""
""focus"",""0"",""0""
","""event"",""trial"",""time""
""fullscreenenter"",""0"",""5248""
","
","475","<img style='border: 4px solid darkgrey;' src='img/tf1_44_M_ss1.jpeg'></img>","2","","exp","","1","<img src='img/tf1_44_T1_ss1_md.jpeg'></img>","0","false",""
"","html-keyboard-response","101","305874","0.0-10.0-0.44","1086","""event"",""trial"",""time""
""focus"",""0"",""0""
""fullscreenenter"",""0"",""5248""
","
","""event"",""trial"",""time""
""focus"",""0"",""0""
","""event"",""trial"",""time""
""fullscreenenter"",""0"",""5248""
","
","null","<div style=""font-size:60px;"">+</div>","","null","fixation","2021-08-05 15:15:45.018","","","","",""
"","mars-trial","102","308594","0.0-10.0-1.44","1086","""event"",""trial"",""time""
""focus"",""0"",""0""
""fullscreenenter"",""0"",""5248""
","
","""event"",""trial"",""time""
""focus"",""0"",""0""
","""event"",""trial"",""time""
""fullscreenenter"",""0"",""5248""
","
","2108","<img style='border: 4px solid darkgrey;' src='img/tf1_45_M_ss2.jpeg'></img>","3","","exp","","2","<img src='img/tf1_45_T1_ss2_md.jpeg'></img>","0","false",""
"","html-keyboard-response","103","309101","0.0-10.0-0.45","1086","""event"",""trial"",""time""
""focus"",""0"",""0""
""fullscreenenter"",""0"",""5248""
","
","""event"",""trial"",""time""
""focus"",""0"",""0""
","""event"",""trial"",""time""
""fullscreenenter"",""0"",""5248""
","
","null","<div style=""font-size:60px;"">+</div>","","null","fixation","2021-08-05 15:15:48.244","","","","",""
"","mars-trial","104","310356","0.0-10.0-1.45","1086","""event"",""trial"",""time""
""focus"",""0"",""0""
""fullscreenenter"",""0"",""5248""
","
","""event"",""trial"",""time""
""focus"",""0"",""0""
","""event"",""trial"",""time""
""fullscreenenter"",""0"",""5248""
","
","643","<img style='border: 4px solid darkgrey;' src='img/tf1_46_M_ss3.jpeg'></img>","1","","exp","","1","<img src='img/tf1_46_T1_ss3_md.jpeg'></img>","0","false",""
"","html-keyboard-response","105","310866","0.0-10.0-0.46","1086","""event"",""trial"",""time""
""focus"",""0"",""0""
""fullscreenenter"",""0"",""5248""
","
","""event"",""trial"",""time""
""focus"",""0"",""0""
","""event"",""trial"",""time""
""fullscreenenter"",""0"",""5248""
","
","null","<div style=""font-size:60px;"">+</div>","","null","fixation","2021-08-05 15:15:50.009","","","","",""
"","mars-trial","106","312082","0.0-10.0-1.46","1086","""event"",""trial"",""time""
""focus"",""0"",""0""
""fullscreenenter"",""0"",""5248""
","
","""event"",""trial"",""time""
""focus"",""0"",""0""
","""event"",""trial"",""time""
""fullscreenenter"",""0"",""5248""
","
","581","<img style='border: 4px solid darkgrey;' src='img/tf1_47_M_ss1.jpeg'></img>","0","","exp","","3","<img src='img/tf1_47_T1_ss1_md.jpeg'></img>","0","false",""
"","html-keyboard-response","107","312604","0.0-10.0-0.47","1086","""event"",""trial"",""time""
""focus"",""0"",""0""
""fullscreenenter"",""0"",""5248""
","
","""event"",""trial"",""time""
""focus"",""0"",""0""
","""event"",""trial"",""time""
""fullscreenenter"",""0"",""5248""
","
","null","<div style=""font-size:60px;"">+</div>","","null","fixation","2021-08-05 15:15:51.747","","","","",""
"","mars-trial","108","323368","0.0-10.0-1.47","1086","""event"",""trial"",""time""
""focus"",""0"",""0""
""fullscreenenter"",""0"",""5248""
","
","""event"",""trial"",""time""
""focus"",""0"",""0""
","""event"",""trial"",""time""
""fullscreenenter"",""0"",""5248""
","
","10143","<img style='border: 4px solid darkgrey;' src='img/tf1_48_M_ss2.jpeg'></img>","3","","exp","","2","<img src='img/tf1_48_T1_ss2_md.jpeg'></img>","0","false",""
"","html-keyboard-response","109","323891","0.0-10.0-0.48","1086","""event"",""trial"",""time""
""focus"",""0"",""0""
""fullscreenenter"",""0"",""5248""
","
","""event"",""trial"",""time""
""focus"",""0"",""0""
","""event"",""trial"",""time""
""fullscreenenter"",""0"",""5248""
","
","null","<div style=""font-size:60px;"">+</div>","","null","fixation","2021-08-05 15:16:03.034","","","","",""
"","mars-trial","110","331069","0.0-10.0-1.48","1086","""event"",""trial"",""time""
""focus"",""0"",""0""
""fullscreenenter"",""0"",""5248""
","
","""event"",""trial"",""time""
""focus"",""0"",""0""
","""event"",""trial"",""time""
""fullscreenenter"",""0"",""5248""
","
","6558","<img style='border: 4px solid darkgrey;' src='img/tf1_49_M_ss3.jpeg'></img>","0","","exp","","0","<img src='img/tf1_49_T1_ss3_md.jpeg'></img>","0","true",""
"","html-keyboard-response","111","331580","0.0-10.0-0.49","1086","""event"",""trial"",""time""
""focus"",""0"",""0""
""fullscreenenter"",""0"",""5248""
","
","""event"",""trial"",""time""
""focus"",""0"",""0""
","""event"",""trial"",""time""
""fullscreenenter"",""0"",""5248""
","
","null","<div style=""font-size:60px;"">+</div>","","null","fixation","2021-08-05 15:16:10.724","","","","",""
"","mars-trial","112","334876","0.0-10.0-1.49","1086","""event"",""trial"",""time""
""focus"",""0"",""0""
""fullscreenenter"",""0"",""5248""
","
","""event"",""trial"",""time""
""focus"",""0"",""0""
","""event"",""trial"",""time""
""fullscreenenter"",""0"",""5248""
","
","2670","<img style='border: 4px solid darkgrey;' src='img/tf1_50_M_ss1.jpeg'></img>","3","","exp","","0","<img src='img/tf1_50_T1_ss1_md.jpeg'></img>","0","true",""
"","html-keyboard-response","113","335399","0.0-10.0-0.50","1086","""event"",""trial"",""time""
""focus"",""0"",""0""
""fullscreenenter"",""0"",""5248""
","
","""event"",""trial"",""time""
""focus"",""0"",""0""
","""event"",""trial"",""time""
""fullscreenenter"",""0"",""5248""
","
","null","<div style=""font-size:60px;"">+</div>","","null","fixation","2021-08-05 15:16:14.542","","","","",""
"","mars-trial","114","342141","0.0-10.0-1.50","1086","""event"",""trial"",""time""
""focus"",""0"",""0""
""fullscreenenter"",""0"",""5248""
","
","""event"",""trial"",""time""
""focus"",""0"",""0""
","""event"",""trial"",""time""
""fullscreenenter"",""0"",""5248""
","
","6109","<img style='border: 4px solid darkgrey;' src='img/tf1_51_M_ss2.jpeg'></img>","3","","exp","","1","<img src='img/tf1_51_T1_ss2_md.jpeg'></img>","0","false",""
"","html-keyboard-response","115","342657","0.0-10.0-0.51","1086","""event"",""trial"",""time""
""focus"",""0"",""0""
""fullscreenenter"",""0"",""5248""
","
","""event"",""trial"",""time""
""focus"",""0"",""0""
","""event"",""trial"",""time""
""fullscreenenter"",""0"",""5248""
","
","null","<div style=""font-size:60px;"">+</div>","","null","fixation","2021-08-05 15:16:21.800","","","","",""
"","mars-trial","116","354814","0.0-10.0-1.51","1086","""event"",""trial"",""time""
""focus"",""0"",""0""
""fullscreenenter"",""0"",""5248""
","
","""event"",""trial"",""time""
""focus"",""0"",""0""
","""event"",""trial"",""time""
""fullscreenenter"",""0"",""5248""
","
","11515","<img style='border: 4px solid darkgrey;' src='img/tf1_52_M_ss3.jpeg'></img>","1","","exp","","3","<img src='img/tf1_52_T1_ss3_md.jpeg'></img>","0","false",""
"","html-keyboard-response","117","355325","0.0-10.0-0.52","1086","""event"",""trial"",""time""
""focus"",""0"",""0""
""fullscreenenter"",""0"",""5248""
","
","""event"",""trial"",""time""
""focus"",""0"",""0""
","""event"",""trial"",""time""
""fullscreenenter"",""0"",""5248""
","
","null","<div style=""font-size:60px;"">+</div>","","null","fixation","2021-08-05 15:16:34.468","","","","",""
"","mars-trial","118","362295","0.0-10.0-1.52","1086","""event"",""trial"",""time""
""focus"",""0"",""0""
""fullscreenenter"",""0"",""5248""
","
","""event"",""trial"",""time""
""focus"",""0"",""0""
","""event"",""trial"",""time""
""fullscreenenter"",""0"",""5248""
","
","6353","<img style='border: 4px solid darkgrey;' src='img/tf1_53_M_ss1.jpeg'></img>","2","","exp","","0","<img src='img/tf1_53_T1_ss1_md.jpeg'></img>","0","true",""
"","html-keyboard-response","119","362812","0.0-10.0-0.53","1086","""event"",""trial"",""time""
""focus"",""0"",""0""
""fullscreenenter"",""0"",""5248""
","
","""event"",""trial"",""time""
""focus"",""0"",""0""
","""event"",""trial"",""time""
""fullscreenenter"",""0"",""5248""
","
","null","<div style=""font-size:60px;"">+</div>","","null","fixation","2021-08-05 15:16:41.956","","","","",""
"","mars-trial","120","369416","0.0-10.0-1.53","1086","""event"",""trial"",""time""
""focus"",""0"",""0""
""fullscreenenter"",""0"",""5248""
","
","""event"",""trial"",""time""
""focus"",""0"",""0""
","""event"",""trial"",""time""
""fullscreenenter"",""0"",""5248""
","
","5981","<img style='border: 4px solid darkgrey;' src='img/tf1_54_M_ss2.jpeg'></img>","0","","exp","","1","<img src='img/tf1_54_T1_ss2_md.jpeg'></img>","0","false",""
"","html-keyboard-response","121","369927","0.0-10.0-0.54","1086","""event"",""trial"",""time""
""focus"",""0"",""0""
""fullscreenenter"",""0"",""5248""
","
","""event"",""trial"",""time""
""focus"",""0"",""0""
","""event"",""trial"",""time""
""fullscreenenter"",""0"",""5248""
","
","null","<div style=""font-size:60px;"">+</div>","","null","fixation","2021-08-05 15:16:49.070","","","","",""
"","mars-trial","122","385639","0.0-10.0-1.54","1086","""event"",""trial"",""time""
""focus"",""0"",""0""
""fullscreenenter"",""0"",""5248""
","
","""event"",""trial"",""time""
""focus"",""0"",""0""
","""event"",""trial"",""time""
""fullscreenenter"",""0"",""5248""
","
","15089","<img style='border: 4px solid darkgrey;' src='img/tf1_55_M_ss3.jpeg'></img>","3","","exp","","3","<img src='img/tf1_55_T1_ss3_md.jpeg'></img>","0","false",""
"","html-keyboard-response","123","386161","0.0-10.0-0.55","1086","""event"",""trial"",""time""
""focus"",""0"",""0""
""fullscreenenter"",""0"",""5248""
","
","""event"",""trial"",""time""
""focus"",""0"",""0""
","""event"",""trial"",""time""
""fullscreenenter"",""0"",""5248""
","
","null","<div style=""font-size:60px;"">+</div>","","null","fixation","2021-08-05 15:17:05.304","","","","",""
"","mars-trial","124","393010","0.0-10.0-1.55","1086","""event"",""trial"",""time""
""focus"",""0"",""0""
""fullscreenenter"",""0"",""5248""
","
","""event"",""trial"",""time""
""focus"",""0"",""0""
","""event"",""trial"",""time""
""fullscreenenter"",""0"",""5248""
","
","6228","<img style='border: 4px solid darkgrey;' src='img/tf1_56_M_ss1.jpeg'></img>","2","","exp","","0","<img src='img/tf1_56_T1_ss1_md.jpeg'></img>","0","true",""
"","html-keyboard-response","125","393532","0.0-10.0-0.56","1086","""event"",""trial"",""time""
""focus"",""0"",""0""
""fullscreenenter"",""0"",""5248""
","
","""event"",""trial"",""time""
""focus"",""0"",""0""
","""event"",""trial"",""time""
""fullscreenenter"",""0"",""5248""
","
","null","<div style=""font-size:60px;"">+</div>","","null","fixation","2021-08-05 15:17:12.675","","","","",""
"","mars-trial","126","403751","0.0-10.0-1.56","1086","""event"",""trial"",""time""
""focus"",""0"",""0""
""fullscreenenter"",""0"",""5248""
","
","""event"",""trial"",""time""
""focus"",""0"",""0""
","""event"",""trial"",""time""
""fullscreenenter"",""0"",""5248""
","
","9580","<img style='border: 4px solid darkgrey;' src='img/tf1_57_M_ss2.jpeg'></img>","3","","exp","","0","<img src='img/tf1_57_T1_ss2_md.jpeg'></img>","0","true",""
"","html-keyboard-response","127","404274","0.0-10.0-0.57","1086","""event"",""trial"",""time""
""focus"",""0"",""0""
""fullscreenenter"",""0"",""5248""
","
","""event"",""trial"",""time""
""focus"",""0"",""0""
","""event"",""trial"",""time""
""fullscreenenter"",""0"",""5248""
","
","null","<div style=""font-size:60px;"">+</div>","","null","fixation","2021-08-05 15:17:23.417","","","","",""
"","mars-trial","128","412775","0.0-10.0-1.57","1086","""event"",""trial"",""time""
""focus"",""0"",""0""
""fullscreenenter"",""0"",""5248""
","
","""event"",""trial"",""time""
""focus"",""0"",""0""
","""event"",""trial"",""time""
""fullscreenenter"",""0"",""5248""
","
","7887","<img style='border: 4px solid darkgrey;' src='img/tf1_58_M_ss3.jpeg'></img>","3","","exp","","3","<img src='img/tf1_58_T1_ss3_md.jpeg'></img>","0","false",""
"","html-keyboard-response","129","413299","0.0-10.0-0.58","1086","""event"",""trial"",""time""
""focus"",""0"",""0""
""fullscreenenter"",""0"",""5248""
","
","""event"",""trial"",""time""
""focus"",""0"",""0""
","""event"",""trial"",""time""
""fullscreenenter"",""0"",""5248""
","
","null","<div style=""font-size:60px;"">+</div>","","null","fixation","2021-08-05 15:17:32.442","","","","",""
"","mars-trial","130","416635","0.0-10.0-1.58","1086","""event"",""trial"",""time""
""focus"",""0"",""0""
""fullscreenenter"",""0"",""5248""
","
","""event"",""trial"",""time""
""focus"",""0"",""0""
","""event"",""trial"",""time""
""fullscreenenter"",""0"",""5248""
","
","2723","<img style='border: 4px solid darkgrey;' src='img/tf1_59_M_ss1.jpeg'></img>","2","","exp","","3","<img src='img/tf1_59_T1_ss1_md.jpeg'></img>","0","false",""
"","html-keyboard-response","131","417148","0.0-10.0-0.59","1086","""event"",""trial"",""time""
""focus"",""0"",""0""
""fullscreenenter"",""0"",""5248""
","
","""event"",""trial"",""time""
""focus"",""0"",""0""
","""event"",""trial"",""time""
""fullscreenenter"",""0"",""5248""
","
","null","<div style=""font-size:60px;"">+</div>","","null","fixation","2021-08-05 15:17:36.292","","","","",""
"","mars-trial","132","432954","0.0-10.0-1.59","1086","""event"",""trial"",""time""
""focus"",""0"",""0""
""fullscreenenter"",""0"",""5248""
","
","""event"",""trial"",""time""
""focus"",""0"",""0""
","""event"",""trial"",""time""
""fullscreenenter"",""0"",""5248""
","
","15188","<img style='border: 4px solid darkgrey;' src='img/tf1_60_M_ss2.jpeg'></img>","3","","exp","","1","<img src='img/tf1_60_T1_ss2_md.jpeg'></img>","0","false",""
"","html-keyboard-response","133","433468","0.0-10.0-0.60","1086","""event"",""trial"",""time""
""focus"",""0"",""0""
""fullscreenenter"",""0"",""5248""
","
","""event"",""trial"",""time""
""focus"",""0"",""0""
","""event"",""trial"",""time""
""fullscreenenter"",""0"",""5248""
","
","null","<div style=""font-size:60px;"">+</div>","","null","fixation","2021-08-05 15:17:52.611","","","","",""
"","mars-trial","134","441362","0.0-10.0-1.60","1086","""event"",""trial"",""time""
""focus"",""0"",""0""
""fullscreenenter"",""0"",""5248""
","
","""event"",""trial"",""time""
""focus"",""0"",""0""
","""event"",""trial"",""time""
""fullscreenenter"",""0"",""5248""
","
","7281","<img style='border: 4px solid darkgrey;' src='img/tf1_61_M_ss3.jpeg'></img>","2","","exp","","0","<img src='img/tf1_61_T1_ss3_md.jpeg'></img>","0","true",""
"","html-keyboard-response","135","441884","0.0-10.0-0.61","1086","""event"",""trial"",""time""
""focus"",""0"",""0""
""fullscreenenter"",""0"",""5248""
","
","""event"",""trial"",""time""
""focus"",""0"",""0""
","""event"",""trial"",""time""
""fullscreenenter"",""0"",""5248""
","
","null","<div style=""font-size:60px;"">+</div>","","null","fixation","2021-08-05 15:18:01.027","","","","",""
"","mars-trial","136","447452","0.0-10.0-1.61","1086","""event"",""trial"",""time""
""focus"",""0"",""0""
""fullscreenenter"",""0"",""5248""
","
","""event"",""trial"",""time""
""focus"",""0"",""0""
","""event"",""trial"",""time""
""fullscreenenter"",""0"",""5248""
","
","4934","<img style='border: 4px solid darkgrey;' src='img/tf1_62_M_ss1.jpeg'></img>","2","","exp","","0","<img src='img/tf1_62_T1_ss1_md.jpeg'></img>","0","true",""
"","html-keyboard-response","137","447965","0.0-10.0-0.62","1086","""event"",""trial"",""time""
""focus"",""0"",""0""
""fullscreenenter"",""0"",""5248""
","
","""event"",""trial"",""time""
""focus"",""0"",""0""
","""event"",""trial"",""time""
""fullscreenenter"",""0"",""5248""
","
","null","<div style=""font-size:60px;"">+</div>","","null","fixation","2021-08-05 15:18:07.108","","","","",""
"","mars-trial","138","460146","0.0-10.0-1.62","1086","""event"",""trial"",""time""
""focus"",""0"",""0""
""fullscreenenter"",""0"",""5248""
","
","""event"",""trial"",""time""
""focus"",""0"",""0""
","""event"",""trial"",""time""
""fullscreenenter"",""0"",""5248""
","
","11576","<img style='border: 4px solid darkgrey;' src='img/tf1_63_M_ss2.jpeg'></img>","1","","exp","","1","<img src='img/tf1_63_T1_ss2_md.jpeg'></img>","0","false",""
"","html-keyboard-response","139","460668","0.0-10.0-0.63","1086","""event"",""trial"",""time""
""focus"",""0"",""0""
""fullscreenenter"",""0"",""5248""
","
","""event"",""trial"",""time""
""focus"",""0"",""0""
","""event"",""trial"",""time""
""fullscreenenter"",""0"",""5248""
","
","null","<div style=""font-size:60px;"">+</div>","","null","fixation","2021-08-05 15:18:19.811","","","","",""
"","mars-trial","140","470834","0.0-10.0-1.63","1086","""event"",""trial"",""time""
""focus"",""0"",""0""
""fullscreenenter"",""0"",""5248""
","
","""event"",""trial"",""time""
""focus"",""0"",""0""
","""event"",""trial"",""time""
""fullscreenenter"",""0"",""5248""
","
","9533","<img style='border: 4px solid darkgrey;' src='img/tf1_64_M_ss3.jpeg'></img>","3","","exp","","0","<img src='img/tf1_64_T1_ss3_md.jpeg'></img>","0","true",""
"","html-keyboard-response","141","471357","0.0-10.0-0.64","1086","""event"",""trial"",""time""
""focus"",""0"",""0""
""fullscreenenter"",""0"",""5248""
","
","""event"",""trial"",""time""
""focus"",""0"",""0""
","""event"",""trial"",""time""
""fullscreenenter"",""0"",""5248""
","
","null","<div style=""font-size:60px;"">+</div>","","null","fixation","2021-08-05 15:18:30.500","","","","",""
"","mars-trial","142","482097","0.0-10.0-1.64","1086","""event"",""trial"",""time""
""focus"",""0"",""0""
""fullscreenenter"",""0"",""5248""
","
","""event"",""trial"",""time""
""focus"",""0"",""0""
","""event"",""trial"",""time""
""fullscreenenter"",""0"",""5248""
","
","10131","<img style='border: 4px solid darkgrey;' src='img/tf1_65_M_ss1.jpeg'></img>","3","","exp","","2","<img src='img/tf1_65_T1_ss1_md.jpeg'></img>","0","false",""
"","html-keyboard-response","143","482610","0.0-10.0-0.65","1086","""event"",""trial"",""time""
""focus"",""0"",""0""
""fullscreenenter"",""0"",""5248""
","
","""event"",""trial"",""time""
""focus"",""0"",""0""
","""event"",""trial"",""time""
""fullscreenenter"",""0"",""5248""
","
","null","<div style=""font-size:60px;"">+</div>","","null","fixation","2021-08-05 15:18:41.753","","","","",""
"","mars-trial","144","494652","0.0-10.0-1.65","1086","""event"",""trial"",""time""
""focus"",""0"",""0""
""fullscreenenter"",""0"",""5248""
","
","""event"",""trial"",""time""
""focus"",""0"",""0""
","""event"",""trial"",""time""
""fullscreenenter"",""0"",""5248""
","
","11412","<img style='border: 4px solid darkgrey;' src='img/tf1_66_M_ss2.jpeg'></img>","3","","exp","","3","<img src='img/tf1_66_T1_ss2_md.jpeg'></img>","0","false",""
"","html-keyboard-response","145","495164","0.0-10.0-0.66","1086","""event"",""trial"",""time""
""focus"",""0"",""0""
""fullscreenenter"",""0"",""5248""
","
","""event"",""trial"",""time""
""focus"",""0"",""0""
","""event"",""trial"",""time""
""fullscreenenter"",""0"",""5248""
","
","null","<div style=""font-size:60px;"">+</div>","","null","fixation","2021-08-05 15:18:54.307","","","","",""
"","mars-trial","146","499676","0.0-10.0-1.66","1086","""event"",""trial"",""time""
""focus"",""0"",""0""
""fullscreenenter"",""0"",""5248""
","
","""event"",""trial"",""time""
""focus"",""0"",""0""
","""event"",""trial"",""time""
""fullscreenenter"",""0"",""5248""
","
","3902","<img style='border: 4px solid darkgrey;' src='img/tf1_67_M_ss3.jpeg'></img>","2","","exp","","3","<img src='img/tf1_67_T1_ss3_md.jpeg'></img>","0","false",""
"","html-keyboard-response","147","500199","0.0-10.0-0.67","1086","""event"",""trial"",""time""
""focus"",""0"",""0""
""fullscreenenter"",""0"",""5248""
","
","""event"",""trial"",""time""
""focus"",""0"",""0""
","""event"",""trial"",""time""
""fullscreenenter"",""0"",""5248""
","
","null","<div style=""font-size:60px;"">+</div>","","null","fixation","2021-08-05 15:18:59.342","","","","",""
"","mars-trial","148","503794","0.0-10.0-1.67","1086","""event"",""trial"",""time""
""focus"",""0"",""0""
""fullscreenenter"",""0"",""5248""
","
","""event"",""trial"",""time""
""focus"",""0"",""0""
","""event"",""trial"",""time""
""fullscreenenter"",""0"",""5248""
","
","2965","<img style='border: 4px solid darkgrey;' src='img/tf1_68_M_ss1.jpeg'></img>","0","","exp","","0","<img src='img/tf1_68_T1_ss1_md.jpeg'></img>","0","true",""
"","html-keyboard-response","149","504315","0.0-10.0-0.68","1086","""event"",""trial"",""time""
""focus"",""0"",""0""
""fullscreenenter"",""0"",""5248""
","
","""event"",""trial"",""time""
""focus"",""0"",""0""
","""event"",""trial"",""time""
""fullscreenenter"",""0"",""5248""
","
","null","<div style=""font-size:60px;"">+</div>","","null","fixation","2021-08-05 15:19:03.459","","","","",""
"","mars-trial","150","506012","0.0-10.0-1.68","1086","""event"",""trial"",""time""
""focus"",""0"",""0""
""fullscreenenter"",""0"",""5248""
","
","""event"",""trial"",""time""
""focus"",""0"",""0""
","""event"",""trial"",""time""
""fullscreenenter"",""0"",""5248""
","
","1069","<img style='border: 4px solid darkgrey;' src='img/tf1_69_M_ss2.jpeg'></img>","0","","exp","","2","<img src='img/tf1_69_T1_ss2_md.jpeg'></img>","0","false",""
"","html-keyboard-response","151","506518","0.0-10.0-0.69","1086","""event"",""trial"",""time""
""focus"",""0"",""0""
""fullscreenenter"",""0"",""5248""
","
","""event"",""trial"",""time""
""focus"",""0"",""0""
","""event"",""trial"",""time""
""fullscreenenter"",""0"",""5248""
","
","null","<div style=""font-size:60px;"">+</div>","","null","fixation","2021-08-05 15:19:05.661","","","","",""
"","mars-trial","152","513243","0.0-10.0-1.69","1086","""event"",""trial"",""time""
""focus"",""0"",""0""
""fullscreenenter"",""0"",""5248""
","
","""event"",""trial"",""time""
""focus"",""0"",""0""
","""event"",""trial"",""time""
""fullscreenenter"",""0"",""5248""
","
","6121","<img style='border: 4px solid darkgrey;' src='img/tf1_70_M_ss3.jpeg'></img>","0","","exp","","0","<img src='img/tf1_70_T1_ss3_md.jpeg'></img>","0","true",""
"","html-keyboard-response","153","513767","0.0-10.0-0.70","1086","""event"",""trial"",""time""
""focus"",""0"",""0""
""fullscreenenter"",""0"",""5248""
","
","""event"",""trial"",""time""
""focus"",""0"",""0""
","""event"",""trial"",""time""
""fullscreenenter"",""0"",""5248""
","
","null","<div style=""font-size:60px;"">+</div>","","null","fixation","2021-08-05 15:19:12.910","","","","",""
"","mars-trial","154","529181","0.0-10.0-1.70","1086","""event"",""trial"",""time""
""focus"",""0"",""0""
""fullscreenenter"",""0"",""5248""
","
","""event"",""trial"",""time""
""focus"",""0"",""0""
","""event"",""trial"",""time""
""fullscreenenter"",""0"",""5248""
","
","14804","<img style='border: 4px solid darkgrey;' src='img/tf1_71_M_ss1.jpeg'></img>","1","","exp","","0","<img src='img/tf1_71_T1_ss1_md.jpeg'></img>","0","true",""
"","html-keyboard-response","155","529703","0.0-10.0-0.71","1086","""event"",""trial"",""time""
""focus"",""0"",""0""
""fullscreenenter"",""0"",""5248""
","
","""event"",""trial"",""time""
""focus"",""0"",""0""
","""event"",""trial"",""time""
""fullscreenenter"",""0"",""5248""
","
","null","<div style=""font-size:60px;"">+</div>","","null","fixation","2021-08-05 15:19:28.846","","","","",""
"","mars-trial","156","539888","0.0-10.0-1.71","1086","""event"",""trial"",""time""
""focus"",""0"",""0""
""fullscreenenter"",""0"",""5248""
","
","""event"",""trial"",""time""
""focus"",""0"",""0""
","""event"",""trial"",""time""
""fullscreenenter"",""0"",""5248""
","
","","","","","exp","","","<img src='img/tf1_72_T1_ss2_md.jpeg'></img>","0","false",""
"","html-keyboard-response","157","540411","0.0-10.0-0.72","1086","""event"",""trial"",""time""
""focus"",""0"",""0""
""fullscreenenter"",""0"",""5248""
","
","""event"",""trial"",""time""
""focus"",""0"",""0""
","""event"",""trial"",""time""
""fullscreenenter"",""0"",""5248""
","
","null","<div style=""font-size:60px;"">+</div>","","null","fixation","2021-08-05 15:19:39.554","","","","",""
"","audio-button-response","158","544142","0.0-11.0","1086","""event"",""trial"",""time""
""focus"",""0"",""0""
""fullscreenenter"",""0"",""5248""
","
","""event"",""trial"",""time""
""focus"",""0"",""0""
","""event"",""trial"",""time""
""fullscreenenter"",""0"",""5248""
","
","3623","audio/mars_instructions_slide5.wav","0","","","","","","","",""
