"success","trial_type","trial_index","time_elapsed","internal_node_id","subject_id","interactions","blur_events","focus_events","fullscreenenter_events","fullscreenexit_events","rt","stimulus","button_pressed","key_press","part","timestamp","unshuffled_button","correct_response","correct_button","correct","value"
"true","fullscreen","0","2293","0.0-0.0","A105","""event"",""trial"",""time""
""fullscreenenter"",""0"",""1335""
","
","
","""event"",""trial"",""time""
""fullscreenenter"",""0"",""1335""
","
","","","","","","","","","","",""
"","pavlovia","1","2300","0.0-1.0","A105","""event"",""trial"",""time""
""fullscreenenter"",""0"",""1335""
","
","
","""event"",""trial"",""time""
""fullscreenenter"",""0"",""1335""
","
","","","","","","","","","","",""
"","html-button-response","2","3486","0.0-2.0","A105","""event"",""trial"",""time""
""fullscreenenter"",""0"",""1335""
","
","
","""event"",""trial"",""time""
""fullscreenenter"",""0"",""1335""
","
","1184.5250000005763","<p>Welcome! Press START to begin.</p><br>","0","","","","","","","",""
"","audio-button-response","3","15662","0.0-3.0","A105","""event"",""trial"",""time""
""fullscreenenter"",""0"",""1335""
","
","
","""event"",""trial"",""time""
""fullscreenenter"",""0"",""1335""
","
","12171.149999998306","audio/mars_instructions_slide2.wav","0","","","","","","","",""
"","audio-button-response","4","22004","0.0-4.0","A105","""event"",""trial"",""time""
""fullscreenenter"",""0"",""1335""
","
","
","""event"",""trial"",""time""
""fullscreenenter"",""0"",""1335""
","
","6340.079999998125","audio/mars_instructions_slide3.wav","0","","","","","","","",""
"","html-keyboard-response","5","22512","0.0-5.0-0.0","A105","""event"",""trial"",""time""
""fullscreenenter"",""0"",""1335""
","
","
","""event"",""trial"",""time""
""fullscreenenter"",""0"",""1335""
","
","null","<div style=""font-size:60px;"">+</div>","","null","fixation","2021-03-31 23:25:23.755","","","","",""
"","mars-trial","6","35682","0.0-5.0-1.0","A105","""event"",""trial"",""time""
""fullscreenenter"",""0"",""1335""
","
","
","""event"",""trial"",""time""
""fullscreenenter"",""0"",""1335""
","
","11060.170000000653","<img style='border: 4px solid darkgrey;' src='practice/pt1_M1.png'></img>","3","","practice","","0","<img src='practice/pt1_T1.png'></img>","0","true",""
"","html-keyboard-response","7","36186","0.0-6.0-0.0","A105","""event"",""trial"",""time""
""fullscreenenter"",""0"",""1335""
","
","
","""event"",""trial"",""time""
""fullscreenenter"",""0"",""1335""
","
","null","<div style=""font-size:60px;"">+</div>","","null","fixation","2021-03-31 23:25:37.430","","","","",""
"","mars-trial","8","40079","0.0-6.0-1.0","A105","""event"",""trial"",""time""
""fullscreenenter"",""0"",""1335""
","
","
","""event"",""trial"",""time""
""fullscreenenter"",""0"",""1335""
","
","1785.9349999998813","<img style='border: 4px solid darkgrey;' src='practice/pt2_M1.png'></img>","0","","practice","","0","<img src='practice/pt2_T1.png'></img>","0","true",""
"","html-keyboard-response","9","40581","0.0-7.0-0.0","A105","""event"",""trial"",""time""
""fullscreenenter"",""0"",""1335""
","
","
","""event"",""trial"",""time""
""fullscreenenter"",""0"",""1335""
","
","null","<div style=""font-size:60px;"">+</div>","","null","fixation","2021-03-31 23:25:41.824","","","","",""
"","mars-trial","10","43865","0.0-7.0-1.0","A105","""event"",""trial"",""time""
""fullscreenenter"",""0"",""1335""
","
","
","""event"",""trial"",""time""
""fullscreenenter"",""0"",""1335""
","
","1166.045000001759","<img style='border: 4px solid darkgrey;' src='practice/pt3_M1.png'></img>","1","","practice","","0","<img src='practice/pt3_T1.png'></img>","0","true",""
"","audio-button-response","11","45237","0.0-8.0","A105","""event"",""trial"",""time""
""fullscreenenter"",""0"",""1335""
","
","
","""event"",""trial"",""time""
""fullscreenenter"",""0"",""1335""
","
","1369.5150000021385","audio/mars_instructions_slide4.wav","0","","","","","","","",""
"","call-function","12","45238","0.0-9.0","A105","""event"",""trial"",""time""
""fullscreenenter"",""0"",""1335""
","
","
","""event"",""trial"",""time""
""fullscreenenter"",""0"",""1335""
","
","","","","","","","","","","",""
"","html-keyboard-response","13","45742","0.0-10.0-0.0","A105","""event"",""trial"",""time""
""fullscreenenter"",""0"",""1335""
","
","
","""event"",""trial"",""time""
""fullscreenenter"",""0"",""1335""
","
","null","<div style=""font-size:60px;"">+</div>","","null","fixation","2021-03-31 23:25:46.986","","","","",""
"","mars-trial","14","47540","0.0-10.0-1.0","A105","""event"",""trial"",""time""
""fullscreenenter"",""0"",""1335""
","
","
","""event"",""trial"",""time""
""fullscreenenter"",""0"",""1335""
","
","1187.0600000002014","<img style='border: 4px solid darkgrey;' src='img/tf1_1_M_ss3.jpeg'></img>","1","","exp","","0","<img src='img/tf1_1_T1_ss3_md.jpeg'></img>","0","true",""
"","html-keyboard-response","15","48046","0.0-10.0-0.1","A105","""event"",""trial"",""time""
""fullscreenenter"",""0"",""1335""
","
","
","""event"",""trial"",""time""
""fullscreenenter"",""0"",""1335""
","
","null","<div style=""font-size:60px;"">+</div>","","null","fixation","2021-03-31 23:25:49.289","","","","",""
"","mars-trial","16","50190","0.0-10.0-1.1","A105","""event"",""trial"",""time""
""fullscreenenter"",""0"",""1335""
","
","
","""event"",""trial"",""time""
""fullscreenenter"",""0"",""1335""
","
","1530.6200000013632","<img style='border: 4px solid darkgrey;' src='img/tf1_2_M_ss1.jpeg'></img>","1","","exp","","0","<img src='img/tf1_2_T1_ss1_md.jpeg'></img>","0","true",""
"","html-keyboard-response","17","50697","0.0-10.0-0.2","A105","""event"",""trial"",""time""
""fullscreenenter"",""0"",""1335""
","
","
","""event"",""trial"",""time""
""fullscreenenter"",""0"",""1335""
","
","null","<div style=""font-size:60px;"">+</div>","","null","fixation","2021-03-31 23:25:51.940","","","","",""
"","mars-trial","18","52484","0.0-10.0-1.2","A105","""event"",""trial"",""time""
""fullscreenenter"",""0"",""1335""
","
","
","""event"",""trial"",""time""
""fullscreenenter"",""0"",""1335""
","
","1177.575000001525","<img style='border: 4px solid darkgrey;' src='img/tf1_3_M_ss2.jpeg'></img>","2","","exp","","0","<img src='img/tf1_3_T1_ss2_md.jpeg'></img>","0","true",""
"","html-keyboard-response","19","52990","0.0-10.0-0.3","A105","""event"",""trial"",""time""
""fullscreenenter"",""0"",""1335""
","
","
","""event"",""trial"",""time""
""fullscreenenter"",""0"",""1335""
","
","null","<div style=""font-size:60px;"">+</div>","","null","fixation","2021-03-31 23:25:54.233","","","","",""
"","mars-trial","20","55214","0.0-10.0-1.3","A105","""event"",""trial"",""time""
""fullscreenenter"",""0"",""1335""
","
","
","""event"",""trial"",""time""
""fullscreenenter"",""0"",""1335""
","
","1613.9450000009674","<img style='border: 4px solid darkgrey;' src='img/tf1_4_M_ss3.jpeg'></img>","1","","exp","","0","<img src='img/tf1_4_T1_ss3_md.jpeg'></img>","0","true",""
"","html-keyboard-response","21","55721","0.0-10.0-0.4","A105","""event"",""trial"",""time""
""fullscreenenter"",""0"",""1335""
","
","
","""event"",""trial"",""time""
""fullscreenenter"",""0"",""1335""
","
","null","<div style=""font-size:60px;"">+</div>","","null","fixation","2021-03-31 23:25:56.964","","","","",""
"","mars-trial","22","57929","0.0-10.0-1.4","A105","""event"",""trial"",""time""
""fullscreenenter"",""0"",""1335""
","
","
","""event"",""trial"",""time""
""fullscreenenter"",""0"",""1335""
","
","1596.3249999986147","<img style='border: 4px solid darkgrey;' src='img/tf1_5_M_ss1.jpeg'></img>","3","","exp","","0","<img src='img/tf1_5_T1_ss1_md.jpeg'></img>","0","true",""
"","html-keyboard-response","23","58435","0.0-10.0-0.5","A105","""event"",""trial"",""time""
""fullscreenenter"",""0"",""1335""
","
","
","""event"",""trial"",""time""
""fullscreenenter"",""0"",""1335""
","
","null","<div style=""font-size:60px;"">+</div>","","null","fixation","2021-03-31 23:25:59.678","","","","",""
"","mars-trial","24","61342","0.0-10.0-1.5","A105","""event"",""trial"",""time""
""fullscreenenter"",""0"",""1335""
","
","
","""event"",""trial"",""time""
""fullscreenenter"",""0"",""1335""
","
","2297.515000002022","<img style='border: 4px solid darkgrey;' src='img/tf1_6_M_ss2.jpeg'></img>","3","","exp","","2","<img src='img/tf1_6_T1_ss2_md.jpeg'></img>","0","false",""
"","html-keyboard-response","25","61848","0.0-10.0-0.6","A105","""event"",""trial"",""time""
""fullscreenenter"",""0"",""1335""
","
","
","""event"",""trial"",""time""
""fullscreenenter"",""0"",""1335""
","
","null","<div style=""font-size:60px;"">+</div>","","null","fixation","2021-03-31 23:26:03.092","","","","",""
"","mars-trial","26","64835","0.0-10.0-1.6","A105","""event"",""trial"",""time""
""fullscreenenter"",""0"",""1335""
","
","
","""event"",""trial"",""time""
""fullscreenenter"",""0"",""1335""
","
","2375.960000001214","<img style='border: 4px solid darkgrey;' src='img/tf1_7_M_ss3.jpeg'></img>","2","","exp","","2","<img src='img/tf1_7_T1_ss3_md.jpeg'></img>","0","false",""
"","html-keyboard-response","27","65337","0.0-10.0-0.7","A105","""event"",""trial"",""time""
""fullscreenenter"",""0"",""1335""
","
","
","""event"",""trial"",""time""
""fullscreenenter"",""0"",""1335""
","
","null","<div style=""font-size:60px;"">+</div>","","null","fixation","2021-03-31 23:26:06.580","","","","",""
"","mars-trial","28","68659","0.0-10.0-1.7","A105","""event"",""trial"",""time""
""fullscreenenter"",""0"",""1335""
","
","
","""event"",""trial"",""time""
""fullscreenenter"",""0"",""1335""
","
","2714.270000000397","<img style='border: 4px solid darkgrey;' src='img/tf1_8_M_ss1.jpeg'></img>","1","","exp","","2","<img src='img/tf1_8_T1_ss1_md.jpeg'></img>","0","false",""
"","html-keyboard-response","29","69164","0.0-10.0-0.8","A105","""event"",""trial"",""time""
""fullscreenenter"",""0"",""1335""
","
","
","""event"",""trial"",""time""
""fullscreenenter"",""0"",""1335""
","
","null","<div style=""font-size:60px;"">+</div>","","null","fixation","2021-03-31 23:26:10.407","","","","",""
"","mars-trial","30","73694","0.0-10.0-1.8","A105","""event"",""trial"",""time""
""fullscreenenter"",""0"",""1335""
","
","
","""event"",""trial"",""time""
""fullscreenenter"",""0"",""1335""
","
","3916.174999998475","<img style='border: 4px solid darkgrey;' src='img/tf1_9_M_ss2.jpeg'></img>","2","","exp","","0","<img src='img/tf1_9_T1_ss2_md.jpeg'></img>","0","true",""
"","html-keyboard-response","31","74200","0.0-10.0-0.9","A105","""event"",""trial"",""time""
""fullscreenenter"",""0"",""1335""
","
","
","""event"",""trial"",""time""
""fullscreenenter"",""0"",""1335""
","
","null","<div style=""font-size:60px;"">+</div>","","null","fixation","2021-03-31 23:26:15.443","","","","",""
"","mars-trial","32","78994","0.0-10.0-1.9","A105","""event"",""trial"",""time""
""fullscreenenter"",""0"",""1335""
","
","
","""event"",""trial"",""time""
""fullscreenenter"",""0"",""1335""
","
","4184.174999998504","<img style='border: 4px solid darkgrey;' src='img/tf1_10_M_ss3.jpeg'></img>","1","","exp","","0","<img src='img/tf1_10_T1_ss3_md.jpeg'></img>","0","true",""
"","html-keyboard-response","33","79497","0.0-10.0-0.10","A105","""event"",""trial"",""time""
""fullscreenenter"",""0"",""1335""
","
","
","""event"",""trial"",""time""
""fullscreenenter"",""0"",""1335""
","
","null","<div style=""font-size:60px;"">+</div>","","null","fixation","2021-03-31 23:26:20.740","","","","",""
"","mars-trial","34","87469","0.0-10.0-1.10","A105","""event"",""trial"",""time""
""fullscreenenter"",""0"",""1335""
","
","
","""event"",""trial"",""time""
""fullscreenenter"",""0"",""1335""
","
","7362.624999997934","<img style='border: 4px solid darkgrey;' src='img/tf1_11_M_ss1.jpeg'></img>","1","","exp","","2","<img src='img/tf1_11_T1_ss1_md.jpeg'></img>","0","false",""
"","html-keyboard-response","35","87973","0.0-10.0-0.11","A105","""event"",""trial"",""time""
""fullscreenenter"",""0"",""1335""
","
","
","""event"",""trial"",""time""
""fullscreenenter"",""0"",""1335""
","
","null","<div style=""font-size:60px;"">+</div>","","null","fixation","2021-03-31 23:26:29.216","","","","",""
"","mars-trial","36","92654","0.0-10.0-1.11","A105","""event"",""trial"",""time""
""fullscreenenter"",""0"",""1335""
","
","
","""event"",""trial"",""time""
""fullscreenenter"",""0"",""1335""
","
","4071.459999999206","<img style='border: 4px solid darkgrey;' src='img/tf1_12_M_ss2.jpeg'></img>","3","","exp","","2","<img src='img/tf1_12_T1_ss2_md.jpeg'></img>","0","false",""
"","html-keyboard-response","37","93160","0.0-10.0-0.12","A105","""event"",""trial"",""time""
""fullscreenenter"",""0"",""1335""
","
","
","""event"",""trial"",""time""
""fullscreenenter"",""0"",""1335""
","
","null","<div style=""font-size:60px;"">+</div>","","null","fixation","2021-03-31 23:26:34.404","","","","",""
"","mars-trial","38","97982","0.0-10.0-1.12","A105","""event"",""trial"",""time""
""fullscreenenter"",""0"",""1335""
","
","
","""event"",""trial"",""time""
""fullscreenenter"",""0"",""1335""
","
","4213.999999999942","<img style='border: 4px solid darkgrey;' src='img/tf1_13_M_ss3.jpeg'></img>","1","","exp","","1","<img src='img/tf1_13_T1_ss3_md.jpeg'></img>","0","false",""
"","html-keyboard-response","39","98488","0.0-10.0-0.13","A105","""event"",""trial"",""time""
""fullscreenenter"",""0"",""1335""
","
","
","""event"",""trial"",""time""
""fullscreenenter"",""0"",""1335""
","
","null","<div style=""font-size:60px;"">+</div>","","null","fixation","2021-03-31 23:26:39.731","","","","",""
"","mars-trial","40","107182","0.0-10.0-1.13","A105","""event"",""trial"",""time""
""fullscreenenter"",""0"",""1335""
","
","
","""event"",""trial"",""time""
""fullscreenenter"",""0"",""1335""
","
","8084.95000000039","<img style='border: 4px solid darkgrey;' src='img/tf1_14_M_ss1.jpeg'></img>","0","","exp","","3","<img src='img/tf1_14_T1_ss1_md.jpeg'></img>","0","false",""
"","html-keyboard-response","41","107688","0.0-10.0-0.14","A105","""event"",""trial"",""time""
""fullscreenenter"",""0"",""1335""
","
","
","""event"",""trial"",""time""
""fullscreenenter"",""0"",""1335""
","
","null","<div style=""font-size:60px;"">+</div>","","null","fixation","2021-03-31 23:26:48.931","","","","",""
"","mars-trial","42","111198","0.0-10.0-1.14","A105","""event"",""trial"",""time""
""fullscreenenter"",""0"",""1335""
","
","
","""event"",""trial"",""time""
""fullscreenenter"",""0"",""1335""
","
","2901.945000001433","<img style='border: 4px solid darkgrey;' src='img/tf1_15_M_ss2.jpeg'></img>","2","","exp","","3","<img src='img/tf1_15_T1_ss2_md.jpeg'></img>","0","false",""
"","html-keyboard-response","43","111704","0.0-10.0-0.15","A105","""event"",""trial"",""time""
""fullscreenenter"",""0"",""1335""
","
","
","""event"",""trial"",""time""
""fullscreenenter"",""0"",""1335""
","
","null","<div style=""font-size:60px;"">+</div>","","null","fixation","2021-03-31 23:26:52.947","","","","",""
"","mars-trial","44","116381","0.0-10.0-1.15","A105","""event"",""trial"",""time""
""fullscreenenter"",""0"",""1335""
","
","
","""event"",""trial"",""time""
""fullscreenenter"",""0"",""1335""
","
","4071.189999998751","<img style='border: 4px solid darkgrey;' src='img/tf1_16_M_ss3.jpeg'></img>","2","","exp","","3","<img src='img/tf1_16_T1_ss3_md.jpeg'></img>","0","false",""
"","html-keyboard-response","45","116887","0.0-10.0-0.16","A105","""event"",""trial"",""time""
""fullscreenenter"",""0"",""1335""
","
","
","""event"",""trial"",""time""
""fullscreenenter"",""0"",""1335""
","
","null","<div style=""font-size:60px;"">+</div>","","null","fixation","2021-03-31 23:26:58.131","","","","",""
"","mars-trial","46","124816","0.0-10.0-1.16","A105","""event"",""trial"",""time""
""fullscreenenter"",""0"",""1335""
","
","
","""event"",""trial"",""time""
""fullscreenenter"",""0"",""1335""
","
","7321.469999998953","<img style='border: 4px solid darkgrey;' src='img/tf1_17_M_ss1.jpeg'></img>","0","","exp","","3","<img src='img/tf1_17_T1_ss1_md.jpeg'></img>","0","false",""
"","html-keyboard-response","47","125320","0.0-10.0-0.17","A105","""event"",""trial"",""time""
""fullscreenenter"",""0"",""1335""
","
","
","""event"",""trial"",""time""
""fullscreenenter"",""0"",""1335""
","
","null","<div style=""font-size:60px;"">+</div>","","null","fixation","2021-03-31 23:27:06.564","","","","",""
"","mars-trial","48","130271","0.0-10.0-1.17","A105","""event"",""trial"",""time""
""fullscreenenter"",""0"",""1335""
","
","
","""event"",""trial"",""time""
""fullscreenenter"",""0"",""1335""
","
","4335.675000002084","<img style='border: 4px solid darkgrey;' src='img/tf1_18_M_ss2.jpeg'></img>","2","","exp","","1","<img src='img/tf1_18_T1_ss2_md.jpeg'></img>","0","false",""
"","html-keyboard-response","49","130777","0.0-10.0-0.18","A105","""event"",""trial"",""time""
""fullscreenenter"",""0"",""1335""
","
","
","""event"",""trial"",""time""
""fullscreenenter"",""0"",""1335""
","
","null","<div style=""font-size:60px;"">+</div>","","null","fixation","2021-03-31 23:27:12.021","","","","",""
"","mars-trial","50","136887","0.0-10.0-1.18","A105","""event"",""trial"",""time""
""fullscreenenter"",""0"",""1335""
","
","
","""event"",""trial"",""time""
""fullscreenenter"",""0"",""1335""
","
","5500.175000001036","<img style='border: 4px solid darkgrey;' src='img/tf1_19_M_ss3.jpeg'></img>","3","","exp","","2","<img src='img/tf1_19_T1_ss3_md.jpeg'></img>","0","false",""
"","html-keyboard-response","51","137393","0.0-10.0-0.19","A105","""event"",""trial"",""time""
""fullscreenenter"",""0"",""1335""
","
","
","""event"",""trial"",""time""
""fullscreenenter"",""0"",""1335""
","
","null","<div style=""font-size:60px;"">+</div>","","null","fixation","2021-03-31 23:27:18.637","","","","",""
"","mars-trial","52","144193","0.0-10.0-1.19","A105","""event"",""trial"",""time""
""fullscreenenter"",""0"",""1335""
","
","
","""event"",""trial"",""time""
""fullscreenenter"",""0"",""1335""
","
","6189.4350000002305","<img style='border: 4px solid darkgrey;' src='img/tf1_20_M_ss1.jpeg'></img>","3","","exp","","0","<img src='img/tf1_20_T1_ss1_md.jpeg'></img>","0","true",""
"","html-keyboard-response","53","144700","0.0-10.0-0.20","A105","""event"",""trial"",""time""
""fullscreenenter"",""0"",""1335""
","
","
","""event"",""trial"",""time""
""fullscreenenter"",""0"",""1335""
","
","null","<div style=""font-size:60px;"">+</div>","","null","fixation","2021-03-31 23:27:25.943","","","","",""
"","mars-trial","54","149724","0.0-10.0-1.20","A105","""event"",""trial"",""time""
""fullscreenenter"",""0"",""1335""
","
","
","""event"",""trial"",""time""
""fullscreenenter"",""0"",""1335""
","
","4415.839999997843","<img style='border: 4px solid darkgrey;' src='img/tf1_21_M_ss2.jpeg'></img>","3","","exp","","1","<img src='img/tf1_21_T1_ss2_md.jpeg'></img>","0","false",""
"","html-keyboard-response","55","150230","0.0-10.0-0.21","A105","""event"",""trial"",""time""
""fullscreenenter"",""0"",""1335""
","
","
","""event"",""trial"",""time""
""fullscreenenter"",""0"",""1335""
","
","null","<div style=""font-size:60px;"">+</div>","","null","fixation","2021-03-31 23:27:31.473","","","","",""
"","mars-trial","56","154529","0.0-10.0-1.21","A105","""event"",""trial"",""time""
""fullscreenenter"",""0"",""1335""
","
","
","""event"",""trial"",""time""
""fullscreenenter"",""0"",""1335""
","
","3688.124999996944","<img style='border: 4px solid darkgrey;' src='img/tf1_22_M_ss3.jpeg'></img>","0","","exp","","3","<img src='img/tf1_22_T1_ss3_md.jpeg'></img>","0","false",""
"","html-keyboard-response","57","155035","0.0-10.0-0.22","A105","""event"",""trial"",""time""
""fullscreenenter"",""0"",""1335""
","
","
","""event"",""trial"",""time""
""fullscreenenter"",""0"",""1335""
","
","null","<div style=""font-size:60px;"">+</div>","","null","fixation","2021-03-31 23:27:36.278","","","","",""
"","mars-trial","58","166257","0.0-10.0-1.22","A105","""event"",""trial"",""time""
""fullscreenenter"",""0"",""1335""
","
","
","""event"",""trial"",""time""
""fullscreenenter"",""0"",""1335""
","
","10614.180000000488","<img style='border: 4px solid darkgrey;' src='img/tf1_23_M_ss1.jpeg'></img>","2","","exp","","2","<img src='img/tf1_23_T1_ss1_md.jpeg'></img>","0","false",""
"","html-keyboard-response","59","166759","0.0-10.0-0.23","A105","""event"",""trial"",""time""
""fullscreenenter"",""0"",""1335""
","
","
","""event"",""trial"",""time""
""fullscreenenter"",""0"",""1335""
","
","null","<div style=""font-size:60px;"">+</div>","","null","fixation","2021-03-31 23:27:48.002","","","","",""
"","mars-trial","60","171205","0.0-10.0-1.23","A105","""event"",""trial"",""time""
""fullscreenenter"",""0"",""1335""
","
","
","""event"",""trial"",""time""
""fullscreenenter"",""0"",""1335""
","
","3834.985000001325","<img style='border: 4px solid darkgrey;' src='img/tf1_24_M_ss2.jpeg'></img>","1","","exp","","2","<img src='img/tf1_24_T1_ss2_md.jpeg'></img>","0","false",""
"","html-keyboard-response","61","171712","0.0-10.0-0.24","A105","""event"",""trial"",""time""
""fullscreenenter"",""0"",""1335""
","
","
","""event"",""trial"",""time""
""fullscreenenter"",""0"",""1335""
","
","null","<div style=""font-size:60px;"">+</div>","","null","fixation","2021-03-31 23:27:52.955","","","","",""
"","mars-trial","62","179109","0.0-10.0-1.24","A105","""event"",""trial"",""time""
""fullscreenenter"",""0"",""1335""
","
","
","""event"",""trial"",""time""
""fullscreenenter"",""0"",""1335""
","
","6788.065000000643","<img style='border: 4px solid darkgrey;' src='img/tf1_25_M_ss3.jpeg'></img>","3","","exp","","2","<img src='img/tf1_25_T1_ss3_md.jpeg'></img>","0","false",""
"","html-keyboard-response","63","179615","0.0-10.0-0.25","A105","""event"",""trial"",""time""
""fullscreenenter"",""0"",""1335""
","
","
","""event"",""trial"",""time""
""fullscreenenter"",""0"",""1335""
","
","null","<div style=""font-size:60px;"">+</div>","","null","fixation","2021-03-31 23:28:00.858","","","","",""
"","mars-trial","64","184112","0.0-10.0-1.25","A105","""event"",""trial"",""time""
""fullscreenenter"",""0"",""1335""
","
","
","""event"",""trial"",""time""
""fullscreenenter"",""0"",""1335""
","
","3890.02999999866","<img style='border: 4px solid darkgrey;' src='img/tf1_26_M_ss1.jpeg'></img>","1","","exp","","1","<img src='img/tf1_26_T1_ss1_md.jpeg'></img>","0","false",""
"","html-keyboard-response","65","184618","0.0-10.0-0.26","A105","""event"",""trial"",""time""
""fullscreenenter"",""0"",""1335""
","
","
","""event"",""trial"",""time""
""fullscreenenter"",""0"",""1335""
","
","null","<div style=""font-size:60px;"">+</div>","","null","fixation","2021-03-31 23:28:05.861","","","","",""
"","mars-trial","66","187816","0.0-10.0-1.26","A105","""event"",""trial"",""time""
""fullscreenenter"",""0"",""1335""
","
","
","""event"",""trial"",""time""
""fullscreenenter"",""0"",""1335""
","
","2589.4699999989825","<img style='border: 4px solid darkgrey;' src='img/tf1_27_M_ss2.jpeg'></img>","3","","exp","","0","<img src='img/tf1_27_T1_ss2_md.jpeg'></img>","0","true",""
"","html-keyboard-response","67","188319","0.0-10.0-0.27","A105","""event"",""trial"",""time""
""fullscreenenter"",""0"",""1335""
","
","
","""event"",""trial"",""time""
""fullscreenenter"",""0"",""1335""
","
","null","<div style=""font-size:60px;"">+</div>","","null","fixation","2021-03-31 23:28:09.562","","","","",""
"","mars-trial","68","195679","0.0-10.0-1.27","A105","""event"",""trial"",""time""
""fullscreenenter"",""0"",""1335""
","
","
","""event"",""trial"",""time""
""fullscreenenter"",""0"",""1335""
","
","6753.359999998793","<img style='border: 4px solid darkgrey;' src='img/tf1_28_M_ss3.jpeg'></img>","0","","exp","","0","<img src='img/tf1_28_T1_ss3_md.jpeg'></img>","0","true",""
"","html-keyboard-response","69","196186","0.0-10.0-0.28","A105","""event"",""trial"",""time""
""fullscreenenter"",""0"",""1335""
","
","
","""event"",""trial"",""time""
""fullscreenenter"",""0"",""1335""
","
","null","<div style=""font-size:60px;"">+</div>","","null","fixation","2021-03-31 23:28:17.429","","","","",""
"","mars-trial","70","200522","0.0-10.0-1.28","A105","""event"",""trial"",""time""
""fullscreenenter"",""0"",""1335""
","
","
","""event"",""trial"",""time""
""fullscreenenter"",""0"",""1335""
","
","3725.5049999985204","<img style='border: 4px solid darkgrey;' src='img/tf1_29_M_ss1.jpeg'></img>","3","","exp","","3","<img src='img/tf1_29_T1_ss1_md.jpeg'></img>","0","false",""
"","html-keyboard-response","71","201028","0.0-10.0-0.29","A105","""event"",""trial"",""time""
""fullscreenenter"",""0"",""1335""
","
","
","""event"",""trial"",""time""
""fullscreenenter"",""0"",""1335""
","
","null","<div style=""font-size:60px;"">+</div>","","null","fixation","2021-03-31 23:28:22.271","","","","",""
"","mars-trial","72","204996","0.0-10.0-1.29","A105","""event"",""trial"",""time""
""fullscreenenter"",""0"",""1335""
","
","
","""event"",""trial"",""time""
""fullscreenenter"",""0"",""1335""
","
","3357.6199999988603","<img style='border: 4px solid darkgrey;' src='img/tf1_30_M_ss2.jpeg'></img>","2","","exp","","0","<img src='img/tf1_30_T1_ss2_md.jpeg'></img>","0","true",""
"","html-keyboard-response","73","205502","0.0-10.0-0.30","A105","""event"",""trial"",""time""
""fullscreenenter"",""0"",""1335""
","
","
","""event"",""trial"",""time""
""fullscreenenter"",""0"",""1335""
","
","null","<div style=""font-size:60px;"">+</div>","","null","fixation","2021-03-31 23:28:26.746","","","","",""
"","mars-trial","74","207476","0.0-10.0-1.30","A105","""event"",""trial"",""time""
""fullscreenenter"",""0"",""1335""
","
","
","""event"",""trial"",""time""
""fullscreenenter"",""0"",""1335""
","
","1363.0750000011176","<img style='border: 4px solid darkgrey;' src='img/tf1_31_M_ss3.jpeg'></img>","2","","exp","","0","<img src='img/tf1_31_T1_ss3_md.jpeg'></img>","0","true",""
"","html-keyboard-response","75","207982","0.0-10.0-0.31","A105","""event"",""trial"",""time""
""fullscreenenter"",""0"",""1335""
","
","
","""event"",""trial"",""time""
""fullscreenenter"",""0"",""1335""
","
","null","<div style=""font-size:60px;"">+</div>","","null","fixation","2021-03-31 23:28:29.226","","","","",""
"","mars-trial","76","210916","0.0-10.0-1.31","A105","""event"",""trial"",""time""
""fullscreenenter"",""0"",""1335""
","
","
","""event"",""trial"",""time""
""fullscreenenter"",""0"",""1335""
","
","2322.439999999915","<img style='border: 4px solid darkgrey;' src='img/tf1_32_M_ss1.jpeg'></img>","2","","exp","","3","<img src='img/tf1_32_T1_ss1_md.jpeg'></img>","0","false",""
"","html-keyboard-response","77","211421","0.0-10.0-0.32","A105","""event"",""trial"",""time""
""fullscreenenter"",""0"",""1335""
","
","
","""event"",""trial"",""time""
""fullscreenenter"",""0"",""1335""
","
","null","<div style=""font-size:60px;"">+</div>","","null","fixation","2021-03-31 23:28:32.664","","","","",""
"","mars-trial","78","214068","0.0-10.0-1.32","A105","""event"",""trial"",""time""
""fullscreenenter"",""0"",""1335""
","
","
","""event"",""trial"",""time""
""fullscreenenter"",""0"",""1335""
","
","2039.230000002135","<img style='border: 4px solid darkgrey;' src='img/tf1_33_M_ss2.jpeg'></img>","3","","exp","","0","<img src='img/tf1_33_T1_ss2_md.jpeg'></img>","0","true",""
"","html-keyboard-response","79","214574","0.0-10.0-0.33","A105","""event"",""trial"",""time""
""fullscreenenter"",""0"",""1335""
","
","
","""event"",""trial"",""time""
""fullscreenenter"",""0"",""1335""
","
","null","<div style=""font-size:60px;"">+</div>","","null","fixation","2021-03-31 23:28:35.817","","","","",""
"","mars-trial","80","218580","0.0-10.0-1.33","A105","""event"",""trial"",""time""
""fullscreenenter"",""0"",""1335""
","
","
","""event"",""trial"",""time""
""fullscreenenter"",""0"",""1335""
","
","3397.3450000012235","<img style='border: 4px solid darkgrey;' src='img/tf1_34_M_ss3.jpeg'></img>","2","","exp","","3","<img src='img/tf1_34_T1_ss3_md.jpeg'></img>","0","false",""
"","html-keyboard-response","81","219086","0.0-10.0-0.34","A105","""event"",""trial"",""time""
""fullscreenenter"",""0"",""1335""
","
","
","""event"",""trial"",""time""
""fullscreenenter"",""0"",""1335""
","
","null","<div style=""font-size:60px;"">+</div>","","null","fixation","2021-03-31 23:28:40.329","","","","",""
"","mars-trial","82","221139","0.0-10.0-1.34","A105","""event"",""trial"",""time""
""fullscreenenter"",""0"",""1335""
","
","
","""event"",""trial"",""time""
""fullscreenenter"",""0"",""1335""
","
","1445.9649999989779","<img style='border: 4px solid darkgrey;' src='img/tf1_35_M_ss1.jpeg'></img>","3","","exp","","1","<img src='img/tf1_35_T1_ss1_md.jpeg'></img>","0","false",""
"","html-keyboard-response","83","221646","0.0-10.0-0.35","A105","""event"",""trial"",""time""
""fullscreenenter"",""0"",""1335""
","
","
","""event"",""trial"",""time""
""fullscreenenter"",""0"",""1335""
","
","null","<div style=""font-size:60px;"">+</div>","","null","fixation","2021-03-31 23:28:42.889","","","","",""
"","mars-trial","84","224707","0.0-10.0-1.35","A105","""event"",""trial"",""time""
""fullscreenenter"",""0"",""1335""
","
","
","""event"",""trial"",""time""
""fullscreenenter"",""0"",""1335""
","
","2450.744999998278","<img style='border: 4px solid darkgrey;' src='img/tf1_36_M_ss2.jpeg'></img>","2","","exp","","0","<img src='img/tf1_36_T1_ss2_md.jpeg'></img>","0","true",""
"","html-keyboard-response","85","225214","0.0-10.0-0.36","A105","""event"",""trial"",""time""
""fullscreenenter"",""0"",""1335""
","
","
","""event"",""trial"",""time""
""fullscreenenter"",""0"",""1335""
","
","null","<div style=""font-size:60px;"">+</div>","","null","fixation","2021-03-31 23:28:46.457","","","","",""
"","mars-trial","86","228690","0.0-10.0-1.36","A105","""event"",""trial"",""time""
""fullscreenenter"",""0"",""1335""
","
","
","""event"",""trial"",""time""
""fullscreenenter"",""0"",""1335""
","
","2867.6500000001397","<img style='border: 4px solid darkgrey;' src='img/tf1_37_M_ss3.jpeg'></img>","2","","exp","","2","<img src='img/tf1_37_T1_ss3_md.jpeg'></img>","0","false",""
"","html-keyboard-response","87","229192","0.0-10.0-0.37","A105","""event"",""trial"",""time""
""fullscreenenter"",""0"",""1335""
","
","
","""event"",""trial"",""time""
""fullscreenenter"",""0"",""1335""
","
","null","<div style=""font-size:60px;"">+</div>","","null","fixation","2021-03-31 23:28:50.435","","","","",""
"","mars-trial","88","233176","0.0-10.0-1.37","A105","""event"",""trial"",""time""
""fullscreenenter"",""0"",""1335""
","
","
","""event"",""trial"",""time""
""fullscreenenter"",""0"",""1335""
","
","3372.530000000552","<img style='border: 4px solid darkgrey;' src='img/tf1_38_M_ss1.jpeg'></img>","1","","exp","","0","<img src='img/tf1_38_T1_ss1_md.jpeg'></img>","0","true",""
"","html-keyboard-response","89","233683","0.0-10.0-0.38","A105","""event"",""trial"",""time""
""fullscreenenter"",""0"",""1335""
","
","
","""event"",""trial"",""time""
""fullscreenenter"",""0"",""1335""
","
","null","<div style=""font-size:60px;"">+</div>","","null","fixation","2021-03-31 23:28:54.926","","","","",""
"","mars-trial","90","238125","0.0-10.0-1.38","A105","""event"",""trial"",""time""
""fullscreenenter"",""0"",""1335""
","
","
","""event"",""trial"",""time""
""fullscreenenter"",""0"",""1335""
","
","3836.1450000011246","<img style='border: 4px solid darkgrey;' src='img/tf1_39_M_ss2.jpeg'></img>","1","","exp","","3","<img src='img/tf1_39_T1_ss2_md.jpeg'></img>","0","false",""
"","html-keyboard-response","91","238628","0.0-10.0-0.39","A105","""event"",""trial"",""time""
""fullscreenenter"",""0"",""1335""
","
","
","""event"",""trial"",""time""
""fullscreenenter"",""0"",""1335""
","
","null","<div style=""font-size:60px;"">+</div>","","null","fixation","2021-03-31 23:28:59.871","","","","",""
"","mars-trial","92","242387","0.0-10.0-1.39","A105","""event"",""trial"",""time""
""fullscreenenter"",""0"",""1335""
","
","
","""event"",""trial"",""time""
""fullscreenenter"",""0"",""1335""
","
","3148.909999999887","<img style='border: 4px solid darkgrey;' src='img/tf1_40_M_ss3.jpeg'></img>","1","","exp","","3","<img src='img/tf1_40_T1_ss3_md.jpeg'></img>","0","false",""
"","html-keyboard-response","93","242893","0.0-10.0-0.40","A105","""event"",""trial"",""time""
""fullscreenenter"",""0"",""1335""
","
","
","""event"",""trial"",""time""
""fullscreenenter"",""0"",""1335""
","
","null","<div style=""font-size:60px;"">+</div>","","null","fixation","2021-03-31 23:29:04.136","","","","",""
"","mars-trial","94","246728","0.0-10.0-1.40","A105","""event"",""trial"",""time""
""fullscreenenter"",""0"",""1335""
","
","
","""event"",""trial"",""time""
""fullscreenenter"",""0"",""1335""
","
","3227.584999996907","<img style='border: 4px solid darkgrey;' src='img/tf1_41_M_ss1.jpeg'></img>","3","","exp","","0","<img src='img/tf1_41_T1_ss1_md.jpeg'></img>","0","true",""
"","html-keyboard-response","95","247234","0.0-10.0-0.41","A105","""event"",""trial"",""time""
""fullscreenenter"",""0"",""1335""
","
","
","""event"",""trial"",""time""
""fullscreenenter"",""0"",""1335""
","
","null","<div style=""font-size:60px;"">+</div>","","null","fixation","2021-03-31 23:29:08.477","","","","",""
"","mars-trial","96","249549","0.0-10.0-1.41","A105","""event"",""trial"",""time""
""fullscreenenter"",""0"",""1335""
","
","
","""event"",""trial"",""time""
""fullscreenenter"",""0"",""1335""
","
","1707.3200000013458","<img style='border: 4px solid darkgrey;' src='img/tf1_42_M_ss2.jpeg'></img>","3","","exp","","3","<img src='img/tf1_42_T1_ss2_md.jpeg'></img>","0","false",""
"","html-keyboard-response","97","250055","0.0-10.0-0.42","A105","""event"",""trial"",""time""
""fullscreenenter"",""0"",""1335""
","
","
","""event"",""trial"",""time""
""fullscreenenter"",""0"",""1335""
","
","null","<div style=""font-size:60px;"">+</div>","","null","fixation","2021-03-31 23:29:11.299","","","","",""
"","mars-trial","98","251848","0.0-10.0-1.42","A105","""event"",""trial"",""time""
""fullscreenenter"",""0"",""1335""
","
","
","""event"",""trial"",""time""
""fullscreenenter"",""0"",""1335""
","
","1181.895000001532","<img style='border: 4px solid darkgrey;' src='img/tf1_43_M_ss3.jpeg'></img>","2","","exp","","2","<img src='img/tf1_43_T1_ss3_md.jpeg'></img>","0","false",""
"","html-keyboard-response","99","252349","0.0-10.0-0.43","A105","""event"",""trial"",""time""
""fullscreenenter"",""0"",""1335""
","
","
","""event"",""trial"",""time""
""fullscreenenter"",""0"",""1335""
","
","null","<div style=""font-size:60px;"">+</div>","","null","fixation","2021-03-31 23:29:13.593","","","","",""
"","mars-trial","100","257143","0.0-10.0-1.43","A105","""event"",""trial"",""time""
""fullscreenenter"",""0"",""1335""
","
","
","""event"",""trial"",""time""
""fullscreenenter"",""0"",""1335""
","
","4185.614999998506","<img style='border: 4px solid darkgrey;' src='img/tf1_44_M_ss1.jpeg'></img>","3","","exp","","1","<img src='img/tf1_44_T1_ss1_md.jpeg'></img>","0","false",""
"","html-keyboard-response","101","257650","0.0-10.0-0.44","A105","""event"",""trial"",""time""
""fullscreenenter"",""0"",""1335""
","
","
","""event"",""trial"",""time""
""fullscreenenter"",""0"",""1335""
","
","null","<div style=""font-size:60px;"">+</div>","","null","fixation","2021-03-31 23:29:18.893","","","","",""
"","mars-trial","102","265090","0.0-10.0-1.44","A105","""event"",""trial"",""time""
""fullscreenenter"",""0"",""1335""
","
","
","""event"",""trial"",""time""
""fullscreenenter"",""0"",""1335""
","
","6831.184999999125","<img style='border: 4px solid darkgrey;' src='img/tf1_45_M_ss2.jpeg'></img>","2","","exp","","0","<img src='img/tf1_45_T1_ss2_md.jpeg'></img>","0","true",""
"","html-keyboard-response","103","265596","0.0-10.0-0.45","A105","""event"",""trial"",""time""
""fullscreenenter"",""0"",""1335""
","
","
","""event"",""trial"",""time""
""fullscreenenter"",""0"",""1335""
","
","null","<div style=""font-size:60px;"">+</div>","","null","fixation","2021-03-31 23:29:26.839","","","","",""
"","mars-trial","104","270748","0.0-10.0-1.45","A105","""event"",""trial"",""time""
""fullscreenenter"",""0"",""1335""
","
","
","""event"",""trial"",""time""
""fullscreenenter"",""0"",""1335""
","
","4543.009999997623","<img style='border: 4px solid darkgrey;' src='img/tf1_46_M_ss3.jpeg'></img>","2","","exp","","3","<img src='img/tf1_46_T1_ss3_md.jpeg'></img>","0","false",""
"","html-keyboard-response","105","271255","0.0-10.0-0.46","A105","""event"",""trial"",""time""
""fullscreenenter"",""0"",""1335""
","
","
","""event"",""trial"",""time""
""fullscreenenter"",""0"",""1335""
","
","null","<div style=""font-size:60px;"">+</div>","","null","fixation","2021-03-31 23:29:32.498","","","","",""
"","mars-trial","106","274129","0.0-10.0-1.46","A105","""event"",""trial"",""time""
""fullscreenenter"",""0"",""1335""
","
","
","""event"",""trial"",""time""
""fullscreenenter"",""0"",""1335""
","
","2264.7300000026007","<img style='border: 4px solid darkgrey;' src='img/tf1_47_M_ss1.jpeg'></img>","3","","exp","","1","<img src='img/tf1_47_T1_ss1_md.jpeg'></img>","0","false",""
"","html-keyboard-response","107","274636","0.0-10.0-0.47","A105","""event"",""trial"",""time""
""fullscreenenter"",""0"",""1335""
","
","
","""event"",""trial"",""time""
""fullscreenenter"",""0"",""1335""
","
","null","<div style=""font-size:60px;"">+</div>","","null","fixation","2021-03-31 23:29:35.879","","","","",""
"","mars-trial","108","279996","0.0-10.0-1.47","A105","""event"",""trial"",""time""
""fullscreenenter"",""0"",""1335""
","
","
","""event"",""trial"",""time""
""fullscreenenter"",""0"",""1335""
","
","4750.17999999912","<img style='border: 4px solid darkgrey;' src='img/tf1_48_M_ss2.jpeg'></img>","2","","exp","","1","<img src='img/tf1_48_T1_ss2_md.jpeg'></img>","0","false",""
"","html-keyboard-response","109","280503","0.0-10.0-0.48","A105","""event"",""trial"",""time""
""fullscreenenter"",""0"",""1335""
","
","
","""event"",""trial"",""time""
""fullscreenenter"",""0"",""1335""
","
","null","<div style=""font-size:60px;"">+</div>","","null","fixation","2021-03-31 23:29:41.746","","","","",""
"","mars-trial","110","283996","0.0-10.0-1.48","A105","""event"",""trial"",""time""
""fullscreenenter"",""0"",""1335""
","
","
","""event"",""trial"",""time""
""fullscreenenter"",""0"",""1335""
","
","2880.7899999992806","<img style='border: 4px solid darkgrey;' src='img/tf1_49_M_ss3.jpeg'></img>","1","","exp","","2","<img src='img/tf1_49_T1_ss3_md.jpeg'></img>","0","false",""
"","html-keyboard-response","111","284502","0.0-10.0-0.49","A105","""event"",""trial"",""time""
""fullscreenenter"",""0"",""1335""
","
","
","""event"",""trial"",""time""
""fullscreenenter"",""0"",""1335""
","
","null","<div style=""font-size:60px;"">+</div>","","null","fixation","2021-03-31 23:29:45.745","","","","",""
"","mars-trial","112","287809","0.0-10.0-1.49","A105","""event"",""trial"",""time""
""fullscreenenter"",""0"",""1335""
","
","
","""event"",""trial"",""time""
""fullscreenenter"",""0"",""1335""
","
","2697.874999998021","<img style='border: 4px solid darkgrey;' src='img/tf1_50_M_ss1.jpeg'></img>","2","","exp","","2","<img src='img/tf1_50_T1_ss1_md.jpeg'></img>","0","false",""
"","html-keyboard-response","113","288315","0.0-10.0-0.50","A105","""event"",""trial"",""time""
""fullscreenenter"",""0"",""1335""
","
","
","""event"",""trial"",""time""
""fullscreenenter"",""0"",""1335""
","
","null","<div style=""font-size:60px;"">+</div>","","null","fixation","2021-03-31 23:29:49.558","","","","",""
"","mars-trial","114","291787","0.0-10.0-1.50","A105","""event"",""trial"",""time""
""fullscreenenter"",""0"",""1335""
","
","
","""event"",""trial"",""time""
""fullscreenenter"",""0"",""1335""
","
","2864.1549999992712","<img style='border: 4px solid darkgrey;' src='img/tf1_51_M_ss2.jpeg'></img>","1","","exp","","1","<img src='img/tf1_51_T1_ss2_md.jpeg'></img>","0","false",""
"","html-keyboard-response","115","292294","0.0-10.0-0.51","A105","""event"",""trial"",""time""
""fullscreenenter"",""0"",""1335""
","
","
","""event"",""trial"",""time""
""fullscreenenter"",""0"",""1335""
","
","null","<div style=""font-size:60px;"">+</div>","","null","fixation","2021-03-31 23:29:53.537","","","","",""
"","mars-trial","116","295433","0.0-10.0-1.51","A105","""event"",""trial"",""time""
""fullscreenenter"",""0"",""1335""
","
","
","""event"",""trial"",""time""
""fullscreenenter"",""0"",""1335""
","
","2528.5299999995623","<img style='border: 4px solid darkgrey;' src='img/tf1_52_M_ss3.jpeg'></img>","1","","exp","","1","<img src='img/tf1_52_T1_ss3_md.jpeg'></img>","0","false",""
"","html-keyboard-response","117","295939","0.0-10.0-0.52","A105","""event"",""trial"",""time""
""fullscreenenter"",""0"",""1335""
","
","
","""event"",""trial"",""time""
""fullscreenenter"",""0"",""1335""
","
","null","<div style=""font-size:60px;"">+</div>","","null","fixation","2021-03-31 23:29:57.182","","","","",""
"","mars-trial","118","300144","0.0-10.0-1.52","A105","""event"",""trial"",""time""
""fullscreenenter"",""0"",""1335""
","
","
","""event"",""trial"",""time""
""fullscreenenter"",""0"",""1335""
","
","3594.5250000004307","<img style='border: 4px solid darkgrey;' src='img/tf1_53_M_ss1.jpeg'></img>","3","","exp","","1","<img src='img/tf1_53_T1_ss1_md.jpeg'></img>","0","false",""
"","html-keyboard-response","119","300651","0.0-10.0-0.53","A105","""event"",""trial"",""time""
""fullscreenenter"",""0"",""1335""
","
","
","""event"",""trial"",""time""
""fullscreenenter"",""0"",""1335""
","
","null","<div style=""font-size:60px;"">+</div>","","null","fixation","2021-03-31 23:30:01.894","","","","",""
"","mars-trial","120","303425","0.0-10.0-1.53","A105","""event"",""trial"",""time""
""fullscreenenter"",""0"",""1335""
","
","
","""event"",""trial"",""time""
""fullscreenenter"",""0"",""1335""
","
","2164.5400000015507","<img style='border: 4px solid darkgrey;' src='img/tf1_54_M_ss2.jpeg'></img>","2","","exp","","3","<img src='img/tf1_54_T1_ss2_md.jpeg'></img>","0","false",""
"","html-keyboard-response","121","303931","0.0-10.0-0.54","A105","""event"",""trial"",""time""
""fullscreenenter"",""0"",""1335""
","
","
","""event"",""trial"",""time""
""fullscreenenter"",""0"",""1335""
","
","null","<div style=""font-size:60px;"">+</div>","","null","fixation","2021-03-31 23:30:05.174","","","","",""
"","mars-trial","122","307662","0.0-10.0-1.54","A105","""event"",""trial"",""time""
""fullscreenenter"",""0"",""1335""
","
","
","""event"",""trial"",""time""
""fullscreenenter"",""0"",""1335""
","
","3120.3199999982025","<img style='border: 4px solid darkgrey;' src='img/tf1_55_M_ss3.jpeg'></img>","0","","exp","","2","<img src='img/tf1_55_T1_ss3_md.jpeg'></img>","0","false",""
"","html-keyboard-response","123","308167","0.0-10.0-0.55","A105","""event"",""trial"",""time""
""fullscreenenter"",""0"",""1335""
","
","
","""event"",""trial"",""time""
""fullscreenenter"",""0"",""1335""
","
","null","<div style=""font-size:60px;"">+</div>","","null","fixation","2021-03-31 23:30:09.410","","","","",""
"","mars-trial","124","312615","0.0-10.0-1.55","A105","""event"",""trial"",""time""
""fullscreenenter"",""0"",""1335""
","
","
","""event"",""trial"",""time""
""fullscreenenter"",""0"",""1335""
","
","3835.559999999532","<img style='border: 4px solid darkgrey;' src='img/tf1_56_M_ss1.jpeg'></img>","2","","exp","","3","<img src='img/tf1_56_T1_ss1_md.jpeg'></img>","0","false",""
"","html-keyboard-response","125","313121","0.0-10.0-0.56","A105","""event"",""trial"",""time""
""fullscreenenter"",""0"",""1335""
","
","
","""event"",""trial"",""time""
""fullscreenenter"",""0"",""1335""
","
","null","<div style=""font-size:60px;"">+</div>","","null","fixation","2021-03-31 23:30:14.364","","","","",""
"","mars-trial","126","318080","0.0-10.0-1.56","A105","""event"",""trial"",""time""
""fullscreenenter"",""0"",""1335""
","
","
","""event"",""trial"",""time""
""fullscreenenter"",""0"",""1335""
","
","4348.52000000322","<img style='border: 4px solid darkgrey;' src='img/tf1_57_M_ss2.jpeg'></img>","0","","exp","","0","<img src='img/tf1_57_T1_ss2_md.jpeg'></img>","0","true",""
"","html-keyboard-response","127","318586","0.0-10.0-0.57","A105","""event"",""trial"",""time""
""fullscreenenter"",""0"",""1335""
","
","
","""event"",""trial"",""time""
""fullscreenenter"",""0"",""1335""
","
","null","<div style=""font-size:60px;"">+</div>","","null","fixation","2021-03-31 23:30:19.829","","","","",""
"","mars-trial","128","325962","0.0-10.0-1.57","A105","""event"",""trial"",""time""
""fullscreenenter"",""0"",""1335""
","
","
","""event"",""trial"",""time""
""fullscreenenter"",""0"",""1335""
","
","6767.719999999797","<img style='border: 4px solid darkgrey;' src='img/tf1_58_M_ss3.jpeg'></img>","2","","exp","","0","<img src='img/tf1_58_T1_ss3_md.jpeg'></img>","0","true",""
"","html-keyboard-response","129","326464","0.0-10.0-0.58","A105","""event"",""trial"",""time""
""fullscreenenter"",""0"",""1335""
","
","
","""event"",""trial"",""time""
""fullscreenenter"",""0"",""1335""
","
","null","<div style=""font-size:60px;"">+</div>","","null","fixation","2021-03-31 23:30:27.707","","","","",""
"","mars-trial","130","330794","0.0-10.0-1.58","A105","""event"",""trial"",""time""
""fullscreenenter"",""0"",""1335""
","
","
","""event"",""trial"",""time""
""fullscreenenter"",""0"",""1335""
","
","3715.5800000000163","<img style='border: 4px solid darkgrey;' src='img/tf1_59_M_ss1.jpeg'></img>","3","","exp","","1","<img src='img/tf1_59_T1_ss1_md.jpeg'></img>","0","false",""
"","html-keyboard-response","131","331300","0.0-10.0-0.59","A105","""event"",""trial"",""time""
""fullscreenenter"",""0"",""1335""
","
","
","""event"",""trial"",""time""
""fullscreenenter"",""0"",""1335""
","
","null","<div style=""font-size:60px;"">+</div>","","null","fixation","2021-03-31 23:30:32.543","","","","",""
"","mars-trial","132","338303","0.0-10.0-1.59","A105","""event"",""trial"",""time""
""fullscreenenter"",""0"",""1335""
","
","
","""event"",""trial"",""time""
""fullscreenenter"",""0"",""1335""
","
","6391.485000000102","<img style='border: 4px solid darkgrey;' src='img/tf1_60_M_ss2.jpeg'></img>","0","","exp","","0","<img src='img/tf1_60_T1_ss2_md.jpeg'></img>","0","true",""
"","html-keyboard-response","133","338809","0.0-10.0-0.60","A105","""event"",""trial"",""time""
""fullscreenenter"",""0"",""1335""
","
","
","""event"",""trial"",""time""
""fullscreenenter"",""0"",""1335""
","
","null","<div style=""font-size:60px;"">+</div>","","null","fixation","2021-03-31 23:30:40.052","","","","",""
"","mars-trial","134","342025","0.0-10.0-1.60","A105","""event"",""trial"",""time""
""fullscreenenter"",""0"",""1335""
","
","
","""event"",""trial"",""time""
""fullscreenenter"",""0"",""1335""
","
","2604.4000000001397","<img style='border: 4px solid darkgrey;' src='img/tf1_61_M_ss3.jpeg'></img>","1","","exp","","2","<img src='img/tf1_61_T1_ss3_md.jpeg'></img>","0","false",""
"","html-keyboard-response","135","342532","0.0-10.0-0.61","A105","""event"",""trial"",""time""
""fullscreenenter"",""0"",""1335""
","
","
","""event"",""trial"",""time""
""fullscreenenter"",""0"",""1335""
","
","null","<div style=""font-size:60px;"">+</div>","","null","fixation","2021-03-31 23:30:43.775","","","","",""
"","mars-trial","136","349609","0.0-10.0-1.61","A105","""event"",""trial"",""time""
""fullscreenenter"",""0"",""1335""
","
","
","""event"",""trial"",""time""
""fullscreenenter"",""0"",""1335""
","
","6466.1900000028545","<img style='border: 4px solid darkgrey;' src='img/tf1_62_M_ss1.jpeg'></img>","0","","exp","","0","<img src='img/tf1_62_T1_ss1_md.jpeg'></img>","0","true",""
"","html-keyboard-response","137","350115","0.0-10.0-0.62","A105","""event"",""trial"",""time""
""fullscreenenter"",""0"",""1335""
","
","
","""event"",""trial"",""time""
""fullscreenenter"",""0"",""1335""
","
","null","<div style=""font-size:60px;"">+</div>","","null","fixation","2021-03-31 23:30:51.359","","","","",""
"","mars-trial","138","353246","0.0-10.0-1.62","A105","""event"",""trial"",""time""
""fullscreenenter"",""0"",""1335""
","
","
","""event"",""trial"",""time""
""fullscreenenter"",""0"",""1335""
","
","2521.5300000018324","<img style='border: 4px solid darkgrey;' src='img/tf1_63_M_ss2.jpeg'></img>","1","","exp","","1","<img src='img/tf1_63_T1_ss2_md.jpeg'></img>","0","false",""
"","html-keyboard-response","139","353753","0.0-10.0-0.63","A105","""event"",""trial"",""time""
""fullscreenenter"",""0"",""1335""
","
","
","""event"",""trial"",""time""
""fullscreenenter"",""0"",""1335""
","
","null","<div style=""font-size:60px;"">+</div>","","null","fixation","2021-03-31 23:30:54.996","","","","",""
"","mars-trial","140","358809","0.0-10.0-1.63","A105","""event"",""trial"",""time""
""fullscreenenter"",""0"",""1335""
","
","
","""event"",""trial"",""time""
""fullscreenenter"",""0"",""1335""
","
","4448.3800000016345","<img style='border: 4px solid darkgrey;' src='img/tf1_64_M_ss3.jpeg'></img>","2","","exp","","3","<img src='img/tf1_64_T1_ss3_md.jpeg'></img>","0","false",""
"","html-keyboard-response","141","359315","0.0-10.0-0.64","A105","""event"",""trial"",""time""
""fullscreenenter"",""0"",""1335""
","
","
","""event"",""trial"",""time""
""fullscreenenter"",""0"",""1335""
","
","null","<div style=""font-size:60px;"">+</div>","","null","fixation","2021-03-31 23:31:00.558","","","","",""
"","mars-trial","142","367161","0.0-10.0-1.64","A105","""event"",""trial"",""time""
""fullscreenenter"",""0"",""1335""
","
","
","""event"",""trial"",""time""
""fullscreenenter"",""0"",""1335""
","
","7237.255000000005","<img style='border: 4px solid darkgrey;' src='img/tf1_65_M_ss1.jpeg'></img>","3","","exp","","0","<img src='img/tf1_65_T1_ss1_md.jpeg'></img>","0","true",""
"","html-keyboard-response","143","367667","0.0-10.0-0.65","A105","""event"",""trial"",""time""
""fullscreenenter"",""0"",""1335""
","
","
","""event"",""trial"",""time""
""fullscreenenter"",""0"",""1335""
","
","null","<div style=""font-size:60px;"">+</div>","","null","fixation","2021-03-31 23:31:08.910","","","","",""
"","mars-trial","144","374718","0.0-10.0-1.65","A105","""event"",""trial"",""time""
""fullscreenenter"",""0"",""1335""
","
","
","""event"",""trial"",""time""
""fullscreenenter"",""0"",""1335""
","
","6438.775000002352","<img style='border: 4px solid darkgrey;' src='img/tf1_66_M_ss2.jpeg'></img>","0","","exp","","3","<img src='img/tf1_66_T1_ss2_md.jpeg'></img>","0","false",""
"","html-keyboard-response","145","375224","0.0-10.0-0.66","A105","""event"",""trial"",""time""
""fullscreenenter"",""0"",""1335""
","
","
","""event"",""trial"",""time""
""fullscreenenter"",""0"",""1335""
","
","null","<div style=""font-size:60px;"">+</div>","","null","fixation","2021-03-31 23:31:16.467","","","","",""
"","mars-trial","146","382680","0.0-10.0-1.66","A105","""event"",""trial"",""time""
""fullscreenenter"",""0"",""1335""
","
","
","""event"",""trial"",""time""
""fullscreenenter"",""0"",""1335""
","
","6850.01999999804","<img style='border: 4px solid darkgrey;' src='img/tf1_67_M_ss3.jpeg'></img>","3","","exp","","2","<img src='img/tf1_67_T1_ss3_md.jpeg'></img>","0","false",""
"","html-keyboard-response","147","383186","0.0-10.0-0.67","A105","""event"",""trial"",""time""
""fullscreenenter"",""0"",""1335""
","
","
","""event"",""trial"",""time""
""fullscreenenter"",""0"",""1335""
","
","null","<div style=""font-size:60px;"">+</div>","","null","fixation","2021-03-31 23:31:24.429","","","","",""
"","mars-trial","148","384989","0.0-10.0-1.67","A105","""event"",""trial"",""time""
""fullscreenenter"",""0"",""1335""
","
","
","""event"",""trial"",""time""
""fullscreenenter"",""0"",""1335""
","
","1191.8100000002305","<img style='border: 4px solid darkgrey;' src='img/tf1_68_M_ss1.jpeg'></img>","3","","exp","","0","<img src='img/tf1_68_T1_ss1_md.jpeg'></img>","0","true",""
"","html-keyboard-response","149","385495","0.0-10.0-0.68","A105","""event"",""trial"",""time""
""fullscreenenter"",""0"",""1335""
","
","
","""event"",""trial"",""time""
""fullscreenenter"",""0"",""1335""
","
","null","<div style=""font-size:60px;"">+</div>","","null","fixation","2021-03-31 23:31:26.738","","","","",""
"","mars-trial","150","390013","0.0-10.0-1.68","A105","""event"",""trial"",""time""
""fullscreenenter"",""0"",""1335""
","
","
","""event"",""trial"",""time""
""fullscreenenter"",""0"",""1335""
","
","3908.790000001318","<img style='border: 4px solid darkgrey;' src='img/tf1_69_M_ss2.jpeg'></img>","3","","exp","","1","<img src='img/tf1_69_T1_ss2_md.jpeg'></img>","0","false",""
"","html-keyboard-response","151","390519","0.0-10.0-0.69","A105","""event"",""trial"",""time""
""fullscreenenter"",""0"",""1335""
","
","
","""event"",""trial"",""time""
""fullscreenenter"",""0"",""1335""
","
","null","<div style=""font-size:60px;"">+</div>","","null","fixation","2021-03-31 23:31:31.762","","","","",""
"","mars-trial","152","398210","0.0-10.0-1.69","A105","""event"",""trial"",""time""
""fullscreenenter"",""0"",""1335""
","
","
","""event"",""trial"",""time""
""fullscreenenter"",""0"",""1335""
","
","7078.689999998431","<img style='border: 4px solid darkgrey;' src='img/tf1_70_M_ss3.jpeg'></img>","3","","exp","","0","<img src='img/tf1_70_T1_ss3_md.jpeg'></img>","0","true",""
"","html-keyboard-response","153","398712","0.0-10.0-0.70","A105","""event"",""trial"",""time""
""fullscreenenter"",""0"",""1335""
","
","
","""event"",""trial"",""time""
""fullscreenenter"",""0"",""1335""
","
","null","<div style=""font-size:60px;"">+</div>","","null","fixation","2021-03-31 23:31:39.955","","","","",""
"","mars-trial","154","406737","0.0-10.0-1.70","A105","""event"",""trial"",""time""
""fullscreenenter"",""0"",""1335""
","
","
","""event"",""trial"",""time""
""fullscreenenter"",""0"",""1335""
","
","7414.110000001558","<img style='border: 4px solid darkgrey;' src='img/tf1_71_M_ss1.jpeg'></img>","1","","exp","","0","<img src='img/tf1_71_T1_ss1_md.jpeg'></img>","0","true",""
"","html-keyboard-response","155","407244","0.0-10.0-0.71","A105","""event"",""trial"",""time""
""fullscreenenter"",""0"",""1335""
","
","
","""event"",""trial"",""time""
""fullscreenenter"",""0"",""1335""
","
","null","<div style=""font-size:60px;"">+</div>","","null","fixation","2021-03-31 23:31:48.487","","","","",""
"","mars-trial","156","410833","0.0-10.0-1.71","A105","""event"",""trial"",""time""
""fullscreenenter"",""0"",""1335""
","
","
","""event"",""trial"",""time""
""fullscreenenter"",""0"",""1335""
","
","2977.279999999155","<img style='border: 4px solid darkgrey;' src='img/tf1_72_M_ss2.jpeg'></img>","2","","exp","","0","<img src='img/tf1_72_T1_ss2_md.jpeg'></img>","0","true",""
"","html-keyboard-response","157","411340","0.0-10.0-0.72","A105","""event"",""trial"",""time""
""fullscreenenter"",""0"",""1335""
","
","
","""event"",""trial"",""time""
""fullscreenenter"",""0"",""1335""
","
","null","<div style=""font-size:60px;"">+</div>","","null","fixation","2021-03-31 23:31:52.583","","","","",""
"","mars-trial","158","413910","0.0-10.0-1.72","A105","""event"",""trial"",""time""
""fullscreenenter"",""0"",""1335""
","
","
","""event"",""trial"",""time""
""fullscreenenter"",""0"",""1335""
","
","1961.2549999983166","<img style='border: 4px solid darkgrey;' src='img/tf1_73_M_ss3.jpeg'></img>","3","","exp","","3","<img src='img/tf1_73_T1_ss3_md.jpeg'></img>","0","false",""
"","html-keyboard-response","159","414417","0.0-10.0-0.73","A105","""event"",""trial"",""time""
""fullscreenenter"",""0"",""1335""
","
","
","""event"",""trial"",""time""
""fullscreenenter"",""0"",""1335""
","
","null","<div style=""font-size:60px;"">+</div>","","null","fixation","2021-03-31 23:31:55.660","","","","",""
"","mars-trial","160","416486","0.0-10.0-1.73","A105","""event"",""trial"",""time""
""fullscreenenter"",""0"",""1335""
","
","
","""event"",""trial"",""time""
""fullscreenenter"",""0"",""1335""
","
","1461.6150000002235","<img style='border: 4px solid darkgrey;' src='img/tf1_74_M_ss1.jpeg'></img>","1","","exp","","1","<img src='img/tf1_74_T1_ss1_md.jpeg'></img>","0","false",""
"","html-keyboard-response","161","416993","0.0-10.0-0.74","A105","""event"",""trial"",""time""
""fullscreenenter"",""0"",""1335""
","
","
","""event"",""trial"",""time""
""fullscreenenter"",""0"",""1335""
","
","null","<div style=""font-size:60px;"">+</div>","","null","fixation","2021-03-31 23:31:58.236","","","","",""
"","mars-trial","162","419286","0.0-10.0-1.74","A105","""event"",""trial"",""time""
""fullscreenenter"",""0"",""1335""
","
","
","""event"",""trial"",""time""
""fullscreenenter"",""0"",""1335""
","
","1685.7900000031805","<img style='border: 4px solid darkgrey;' src='img/tf1_75_M_ss2.jpeg'></img>","3","","exp","","1","<img src='img/tf1_75_T1_ss2_md.jpeg'></img>","0","false",""
"","html-keyboard-response","163","419793","0.0-10.0-0.75","A105","""event"",""trial"",""time""
""fullscreenenter"",""0"",""1335""
","
","
","""event"",""trial"",""time""
""fullscreenenter"",""0"",""1335""
","
","null","<div style=""font-size:60px;"">+</div>","","null","fixation","2021-03-31 23:32:01.036","","","","",""
"","mars-trial","164","421382","0.0-10.0-1.75","A105","""event"",""trial"",""time""
""fullscreenenter"",""0"",""1335""
","
","
","""event"",""trial"",""time""
""fullscreenenter"",""0"",""1335""
","
","981.6500000015367","<img style='border: 4px solid darkgrey;' src='img/tf1_76_M_ss3.jpeg'></img>","1","","exp","","3","<img src='img/tf1_76_T1_ss3_md.jpeg'></img>","0","false",""
"","html-keyboard-response","165","421884","0.0-10.0-0.76","A105","""event"",""trial"",""time""
""fullscreenenter"",""0"",""1335""
","
","
","""event"",""trial"",""time""
""fullscreenenter"",""0"",""1335""
","
","null","<div style=""font-size:60px;"">+</div>","","null","fixation","2021-03-31 23:32:03.127","","","","",""
"","mars-trial","166","423121","0.0-10.0-1.76","A105","""event"",""trial"",""time""
""fullscreenenter"",""0"",""1335""
","
","
","""event"",""trial"",""time""
""fullscreenenter"",""0"",""1335""
","
","629.1749999982421","<img style='border: 4px solid darkgrey;' src='img/tf1_77_M_ss1.jpeg'></img>","2","","exp","","0","<img src='img/tf1_77_T1_ss1_md.jpeg'></img>","0","true",""
"","html-keyboard-response","167","423627","0.0-10.0-0.77","A105","""event"",""trial"",""time""
""fullscreenenter"",""0"",""1335""
","
","
","""event"",""trial"",""time""
""fullscreenenter"",""0"",""1335""
","
","null","<div style=""font-size:60px;"">+</div>","","null","fixation","2021-03-31 23:32:04.870","","","","",""
"","mars-trial","168","426833","0.0-10.0-1.77","A105","""event"",""trial"",""time""
""fullscreenenter"",""0"",""1335""
","
","
","""event"",""trial"",""time""
""fullscreenenter"",""0"",""1335""
","
","2599.3799999996554","<img style='border: 4px solid darkgrey;' src='img/tf1_78_M_ss2.jpeg'></img>","3","","exp","","1","<img src='img/tf1_78_T1_ss2_md.jpeg'></img>","0","false",""
"","html-keyboard-response","169","427339","0.0-10.0-0.78","A105","""event"",""trial"",""time""
""fullscreenenter"",""0"",""1335""
","
","
","""event"",""trial"",""time""
""fullscreenenter"",""0"",""1335""
","
","null","<div style=""font-size:60px;"">+</div>","","null","fixation","2021-03-31 23:32:08.582","","","","",""
"","mars-trial","170","430069","0.0-10.0-1.78","A105","""event"",""trial"",""time""
""fullscreenenter"",""0"",""1335""
","
","
","""event"",""trial"",""time""
""fullscreenenter"",""0"",""1335""
","
","2119.0200000018813","<img style='border: 4px solid darkgrey;' src='img/tf1_79_M_ss3.jpeg'></img>","2","","exp","","3","<img src='img/tf1_79_T1_ss3_md.jpeg'></img>","0","false",""
"","html-keyboard-response","171","430573","0.0-10.0-0.79","A105","""event"",""trial"",""time""
""fullscreenenter"",""0"",""1335""
","
","
","""event"",""trial"",""time""
""fullscreenenter"",""0"",""1335""
","
","null","<div style=""font-size:60px;"">+</div>","","null","fixation","2021-03-31 23:32:11.817","","","","",""
"","mars-trial","172","433446","0.0-10.0-1.79","A105","""event"",""trial"",""time""
""fullscreenenter"",""0"",""1335""
","
","
","""event"",""trial"",""time""
""fullscreenenter"",""0"",""1335""
","
","2260.3199999975623","<img style='border: 4px solid darkgrey;' src='img/tf1_80_M_ss1.jpeg'></img>","0","","exp","","3","<img src='img/tf1_80_T1_ss1_md.jpeg'></img>","0","false",""
"","audio-button-response","173","435497","0.0-11.0","A105","""event"",""trial"",""time""
""fullscreenenter"",""0"",""1335""
","
","
","""event"",""trial"",""time""
""fullscreenenter"",""0"",""1335""
","
","2049.0700000009965","audio/mars_instructions_slide5.wav","0","","","","","","","",""
