"success","trial_type","trial_index","time_elapsed","internal_node_id","subject_id","interactions","blur_events","focus_events","fullscreenenter_events","fullscreenexit_events","rt","stimulus","button_pressed","key_press","part","timestamp","unshuffled_button","correct_response","correct_button","correct","value"
"true","fullscreen","0","4032","0.0-0.0","859","""event"",""trial"",""time""
""fullscreenenter"",""0"",""3043""
","
","
","""event"",""trial"",""time""
""fullscreenenter"",""0"",""3043""
","
","","","","","","","","","","",""
"","pavlovia","1","4038","0.0-1.0","859","""event"",""trial"",""time""
""fullscreenenter"",""0"",""3043""
","
","
","""event"",""trial"",""time""
""fullscreenenter"",""0"",""3043""
","
","","","","","","","","","","",""
"","html-button-response","2","5377","0.0-2.0","859","""event"",""trial"",""time""
""fullscreenenter"",""0"",""3043""
","
","
","""event"",""trial"",""time""
""fullscreenenter"",""0"",""3043""
","
","1336.1950000034994","<p>Welcome! Press START to begin.</p><br>","0","","","","","","","",""
"","audio-button-response","3","23376","0.0-3.0","859","""event"",""trial"",""time""
""fullscreenenter"",""0"",""3043""
","
","
","""event"",""trial"",""time""
""fullscreenenter"",""0"",""3043""
","
","17994.259999999485","audio/mars_instructions_slide2.wav","0","","","","","","","",""
"","audio-button-response","4","26281","0.0-4.0","859","""event"",""trial"",""time""
""fullscreenenter"",""0"",""3043""
","
","
","""event"",""trial"",""time""
""fullscreenenter"",""0"",""3043""
","
","2902.0799999998417","audio/mars_instructions_slide3.wav","0","","","","","","","",""
"","html-keyboard-response","5","26784","0.0-5.0-0.0","859","""event"",""trial"",""time""
""fullscreenenter"",""0"",""3043""
","
","
","""event"",""trial"",""time""
""fullscreenenter"",""0"",""3043""
","
","null","<div style=""font-size:60px;"">+</div>","","null","fixation","2021-04-12 15:06:50.268","","","","",""
"","mars-trial","6","32392","0.0-5.0-1.0","859","""event"",""trial"",""time""
""fullscreenenter"",""0"",""3043""
","
","
","""event"",""trial"",""time""
""fullscreenenter"",""0"",""3043""
","
","3491.889999997511","<img style='border: 4px solid darkgrey;' src='practice/pt1_M1.png'></img>","3","","practice","","1","<img src='practice/pt1_T1.png'></img>","0","false",""
"","html-keyboard-response","7","32897","0.0-5.1-0.1","859","""event"",""trial"",""time""
""fullscreenenter"",""0"",""3043""
","
","
","""event"",""trial"",""time""
""fullscreenenter"",""0"",""3043""
","
","null","<div style=""font-size:60px;"">+</div>","","null","fixation","2021-04-12 15:06:56.381","","","","",""
"","mars-trial","8","39747","0.0-5.1-1.1","859","""event"",""trial"",""time""
""fullscreenenter"",""0"",""3043""
","
","
","""event"",""trial"",""time""
""fullscreenenter"",""0"",""3043""
","
","4736.644999997225","<img style='border: 4px solid darkgrey;' src='practice/pt1_M1.png'></img>","1","","practice","","0","<img src='practice/pt1_T1.png'></img>","0","true",""
"","html-keyboard-response","9","40252","0.0-6.0-0.0","859","""event"",""trial"",""time""
""fullscreenenter"",""0"",""3043""
","
","
","""event"",""trial"",""time""
""fullscreenenter"",""0"",""3043""
","
","null","<div style=""font-size:60px;"">+</div>","","null","fixation","2021-04-12 15:07:03.736","","","","",""
"","mars-trial","10","44455","0.0-6.0-1.0","859","""event"",""trial"",""time""
""fullscreenenter"",""0"",""3043""
","
","
","""event"",""trial"",""time""
""fullscreenenter"",""0"",""3043""
","
","2089.3749999959255","<img style='border: 4px solid darkgrey;' src='practice/pt2_M1.png'></img>","1","","practice","","0","<img src='practice/pt2_T1.png'></img>","0","true",""
"","html-keyboard-response","11","44960","0.0-7.0-0.0","859","""event"",""trial"",""time""
""fullscreenenter"",""0"",""3043""
","
","
","""event"",""trial"",""time""
""fullscreenenter"",""0"",""3043""
","
","null","<div style=""font-size:60px;"">+</div>","","null","fixation","2021-04-12 15:07:08.444","","","","",""
"","mars-trial","12","48170","0.0-7.0-1.0","859","""event"",""trial"",""time""
""fullscreenenter"",""0"",""3043""
","
","
","""event"",""trial"",""time""
""fullscreenenter"",""0"",""3043""
","
","1097.22000000329","<img style='border: 4px solid darkgrey;' src='practice/pt3_M1.png'></img>","1","","practice","","0","<img src='practice/pt3_T1.png'></img>","0","true",""
"","audio-button-response","13","50254","0.0-8.0","859","""event"",""trial"",""time""
""fullscreenenter"",""0"",""3043""
","
","
","""event"",""trial"",""time""
""fullscreenenter"",""0"",""3043""
","
","2080.969999995432","audio/mars_instructions_slide4.wav","0","","","","","","","",""
"","call-function","14","50255","0.0-9.0","859","""event"",""trial"",""time""
""fullscreenenter"",""0"",""3043""
","
","
","""event"",""trial"",""time""
""fullscreenenter"",""0"",""3043""
","
","","","","","","","","","","",""
"","html-keyboard-response","15","50757","0.0-10.0-0.0","859","""event"",""trial"",""time""
""fullscreenenter"",""0"",""3043""
","
","
","""event"",""trial"",""time""
""fullscreenenter"",""0"",""3043""
","
","null","<div style=""font-size:60px;"">+</div>","","null","fixation","2021-04-12 15:07:14.241","","","","",""
"","mars-trial","16","53573","0.0-10.0-1.0","859","""event"",""trial"",""time""
""fullscreenenter"",""0"",""3043""
","
","
","""event"",""trial"",""time""
""fullscreenenter"",""0"",""3043""
","
","2205.2199999961886","<img style='border: 4px solid darkgrey;' src='img/tf1_1_M_ss3.jpeg'></img>","3","","exp","","0","<img src='img/tf1_1_T1_ss3_md.jpeg'></img>","0","true",""
"","html-keyboard-response","17","54074","0.0-10.0-0.1","859","""event"",""trial"",""time""
""fullscreenenter"",""0"",""3043""
","
","
","""event"",""trial"",""time""
""fullscreenenter"",""0"",""3043""
","
","null","<div style=""font-size:60px;"">+</div>","","null","fixation","2021-04-12 15:07:17.559","","","","",""
"","mars-trial","18","57395","0.0-10.0-1.1","859","""event"",""trial"",""time""
""fullscreenenter"",""0"",""3043""
","
","
","""event"",""trial"",""time""
""fullscreenenter"",""0"",""3043""
","
","2709.020000002056","<img style='border: 4px solid darkgrey;' src='img/tf1_2_M_ss1.jpeg'></img>","3","","exp","","0","<img src='img/tf1_2_T1_ss1_md.jpeg'></img>","0","true",""
"","html-keyboard-response","19","57897","0.0-10.0-0.2","859","""event"",""trial"",""time""
""fullscreenenter"",""0"",""3043""
","
","
","""event"",""trial"",""time""
""fullscreenenter"",""0"",""3043""
","
","null","<div style=""font-size:60px;"">+</div>","","null","fixation","2021-04-12 15:07:21.381","","","","",""
"","mars-trial","20","60652","0.0-10.0-1.2","859","""event"",""trial"",""time""
""fullscreenenter"",""0"",""3043""
","
","
","""event"",""trial"",""time""
""fullscreenenter"",""0"",""3043""
","
","2146.7349999948055","<img style='border: 4px solid darkgrey;' src='img/tf1_3_M_ss2.jpeg'></img>","3","","exp","","0","<img src='img/tf1_3_T1_ss2_md.jpeg'></img>","0","true",""
"","html-keyboard-response","21","61157","0.0-10.0-0.3","859","""event"",""trial"",""time""
""fullscreenenter"",""0"",""3043""
","
","
","""event"",""trial"",""time""
""fullscreenenter"",""0"",""3043""
","
","null","<div style=""font-size:60px;"">+</div>","","null","fixation","2021-04-12 15:07:24.641","","","","",""
"","mars-trial","22","64820","0.0-10.0-1.3","859","""event"",""trial"",""time""
""fullscreenenter"",""0"",""3043""
","
","
","""event"",""trial"",""time""
""fullscreenenter"",""0"",""3043""
","
","3051.4449999973294","<img style='border: 4px solid darkgrey;' src='img/tf1_4_M_ss3.jpeg'></img>","3","","exp","","0","<img src='img/tf1_4_T1_ss3_md.jpeg'></img>","0","true",""
"","html-keyboard-response","23","65323","0.0-10.0-0.4","859","""event"",""trial"",""time""
""fullscreenenter"",""0"",""3043""
","
","
","""event"",""trial"",""time""
""fullscreenenter"",""0"",""3043""
","
","null","<div style=""font-size:60px;"">+</div>","","null","fixation","2021-04-12 15:07:28.807","","","","",""
"","mars-trial","24","68768","0.0-10.0-1.4","859","""event"",""trial"",""time""
""fullscreenenter"",""0"",""3043""
","
","
","""event"",""trial"",""time""
""fullscreenenter"",""0"",""3043""
","
","2835.174999992887","<img style='border: 4px solid darkgrey;' src='img/tf1_5_M_ss1.jpeg'></img>","1","","exp","","0","<img src='img/tf1_5_T1_ss1_md.jpeg'></img>","0","true",""
"","html-keyboard-response","25","69273","0.0-10.0-0.5","859","""event"",""trial"",""time""
""fullscreenenter"",""0"",""3043""
","
","
","""event"",""trial"",""time""
""fullscreenenter"",""0"",""3043""
","
","null","<div style=""font-size:60px;"">+</div>","","null","fixation","2021-04-12 15:07:32.757","","","","",""
"","mars-trial","26","72907","0.0-10.0-1.5","859","""event"",""trial"",""time""
""fullscreenenter"",""0"",""3043""
","
","
","""event"",""trial"",""time""
""fullscreenenter"",""0"",""3043""
","
","3023.7550000019837","<img style='border: 4px solid darkgrey;' src='img/tf1_6_M_ss2.jpeg'></img>","1","","exp","","2","<img src='img/tf1_6_T1_ss2_md.jpeg'></img>","0","false",""
"","html-keyboard-response","27","73410","0.0-10.0-0.6","859","""event"",""trial"",""time""
""fullscreenenter"",""0"",""3043""
","
","
","""event"",""trial"",""time""
""fullscreenenter"",""0"",""3043""
","
","null","<div style=""font-size:60px;"">+</div>","","null","fixation","2021-04-12 15:07:36.894","","","","",""
"","mars-trial","28","79473","0.0-10.0-1.6","859","""event"",""trial"",""time""
""fullscreenenter"",""0"",""3043""
","
","
","""event"",""trial"",""time""
""fullscreenenter"",""0"",""3043""
","
","5449.224999996659","<img style='border: 4px solid darkgrey;' src='img/tf1_7_M_ss3.jpeg'></img>","3","","exp","","0","<img src='img/tf1_7_T1_ss3_md.jpeg'></img>","0","true",""
"","html-keyboard-response","29","79977","0.0-10.0-0.7","859","""event"",""trial"",""time""
""fullscreenenter"",""0"",""3043""
","
","
","""event"",""trial"",""time""
""fullscreenenter"",""0"",""3043""
","
","null","<div style=""font-size:60px;"">+</div>","","null","fixation","2021-04-12 15:07:43.461","","","","",""
"","mars-trial","30","85877","0.0-10.0-1.7","859","""event"",""trial"",""time""
""fullscreenenter"",""0"",""3043""
","
","
","""event"",""trial"",""time""
""fullscreenenter"",""0"",""3043""
","
","5286.404999998922","<img style='border: 4px solid darkgrey;' src='img/tf1_8_M_ss1.jpeg'></img>","2","","exp","","0","<img src='img/tf1_8_T1_ss1_md.jpeg'></img>","0","true",""
"","html-keyboard-response","31","86382","0.0-10.0-0.8","859","""event"",""trial"",""time""
""fullscreenenter"",""0"",""3043""
","
","
","""event"",""trial"",""time""
""fullscreenenter"",""0"",""3043""
","
","null","<div style=""font-size:60px;"">+</div>","","null","fixation","2021-04-12 15:07:49.866","","","","",""
"","mars-trial","32","92437","0.0-10.0-1.8","859","""event"",""trial"",""time""
""fullscreenenter"",""0"",""3043""
","
","
","""event"",""trial"",""time""
""fullscreenenter"",""0"",""3043""
","
","5441.279999999097","<img style='border: 4px solid darkgrey;' src='img/tf1_9_M_ss2.jpeg'></img>","1","","exp","","0","<img src='img/tf1_9_T1_ss2_md.jpeg'></img>","0","true",""
"","html-keyboard-response","33","92942","0.0-10.0-0.9","859","""event"",""trial"",""time""
""fullscreenenter"",""0"",""3043""
","
","
","""event"",""trial"",""time""
""fullscreenenter"",""0"",""3043""
","
","null","<div style=""font-size:60px;"">+</div>","","null","fixation","2021-04-12 15:07:56.426","","","","",""
"","mars-trial","34","109226","0.0-10.0-1.9","859","""event"",""trial"",""time""
""fullscreenenter"",""0"",""3043""
","
","
","""event"",""trial"",""time""
""fullscreenenter"",""0"",""3043""
","
","15669.640000000072","<img style='border: 4px solid darkgrey;' src='img/tf1_10_M_ss3.jpeg'></img>","1","","exp","","0","<img src='img/tf1_10_T1_ss3_md.jpeg'></img>","0","true",""
"","html-keyboard-response","35","109731","0.0-10.0-0.10","859","""event"",""trial"",""time""
""fullscreenenter"",""0"",""3043""
","
","
","""event"",""trial"",""time""
""fullscreenenter"",""0"",""3043""
","
","null","<div style=""font-size:60px;"">+</div>","","null","fixation","2021-04-12 15:08:13.215","","","","",""
"","mars-trial","36","117990","0.0-10.0-1.10","859","""event"",""trial"",""time""
""fullscreenenter"",""0"",""3043""
","
","
","""event"",""trial"",""time""
""fullscreenenter"",""0"",""3043""
","
","7648.009999997157","<img style='border: 4px solid darkgrey;' src='img/tf1_11_M_ss1.jpeg'></img>","0","","exp","","2","<img src='img/tf1_11_T1_ss1_md.jpeg'></img>","0","false",""
"","html-keyboard-response","37","118492","0.0-10.0-0.11","859","""event"",""trial"",""time""
""fullscreenenter"",""0"",""3043""
","
","
","""event"",""trial"",""time""
""fullscreenenter"",""0"",""3043""
","
","null","<div style=""font-size:60px;"">+</div>","","null","fixation","2021-04-12 15:08:21.976","","","","",""
"","mars-trial","38","125911","0.0-10.0-1.11","859","""event"",""trial"",""time""
""fullscreenenter"",""0"",""3043""
","
","
","""event"",""trial"",""time""
""fullscreenenter"",""0"",""3043""
","
","6811.300000001211","<img style='border: 4px solid darkgrey;' src='img/tf1_12_M_ss2.jpeg'></img>","2","","exp","","1","<img src='img/tf1_12_T1_ss2_md.jpeg'></img>","0","false",""
"","html-keyboard-response","39","126414","0.0-10.0-0.12","859","""event"",""trial"",""time""
""fullscreenenter"",""0"",""3043""
","
","
","""event"",""trial"",""time""
""fullscreenenter"",""0"",""3043""
","
","null","<div style=""font-size:60px;"">+</div>","","null","fixation","2021-04-12 15:08:29.899","","","","",""
"","mars-trial","40","141336","0.0-10.0-1.12","859","""event"",""trial"",""time""
""fullscreenenter"",""0"",""3043""
","
","
","""event"",""trial"",""time""
""fullscreenenter"",""0"",""3043""
","
","14310.150000004796","<img style='border: 4px solid darkgrey;' src='img/tf1_13_M_ss3.jpeg'></img>","2","","exp","","1","<img src='img/tf1_13_T1_ss3_md.jpeg'></img>","0","false",""
"","html-keyboard-response","41","141840","0.0-10.0-0.13","859","""event"",""trial"",""time""
""fullscreenenter"",""0"",""3043""
","
","
","""event"",""trial"",""time""
""fullscreenenter"",""0"",""3043""
","
","null","<div style=""font-size:60px;"">+</div>","","null","fixation","2021-04-12 15:08:45.324","","","","",""
"","mars-trial","42","143280","0.0-10.0-1.13","859","""event"",""trial"",""time""
""fullscreenenter"",""0"",""3043""
","
","
","""event"",""trial"",""time""
""fullscreenenter"",""0"",""3043""
","
","829.8450000002049","<img style='border: 4px solid darkgrey;' src='img/tf1_14_M_ss1.jpeg'></img>","2","","exp","","1","<img src='img/tf1_14_T1_ss1_md.jpeg'></img>","0","false",""
"","html-keyboard-response","43","143785","0.0-10.0-0.14","859","""event"",""trial"",""time""
""fullscreenenter"",""0"",""3043""
","
","
","""event"",""trial"",""time""
""fullscreenenter"",""0"",""3043""
","
","null","<div style=""font-size:60px;"">+</div>","","null","fixation","2021-04-12 15:08:47.269","","","","",""
"","mars-trial","44","144804","0.0-10.0-1.14","859","""event"",""trial"",""time""
""fullscreenenter"",""0"",""3043""
","
","
","""event"",""trial"",""time""
""fullscreenenter"",""0"",""3043""
","
","408.0549999998766","<img style='border: 4px solid darkgrey;' src='img/tf1_15_M_ss2.jpeg'></img>","2","","exp","","0","<img src='img/tf1_15_T1_ss2_md.jpeg'></img>","0","true",""
"","html-keyboard-response","45","145306","0.0-10.0-0.15","859","""event"",""trial"",""time""
""fullscreenenter"",""0"",""3043""
","
","
","""event"",""trial"",""time""
""fullscreenenter"",""0"",""3043""
","
","null","<div style=""font-size:60px;"">+</div>","","null","fixation","2021-04-12 15:08:48.791","","","","",""
"","mars-trial","46","146232","0.0-10.0-1.15","859","""event"",""trial"",""time""
""fullscreenenter"",""0"",""3043""
","
","
","""event"",""trial"",""time""
""fullscreenenter"",""0"",""3043""
","
","314.81999999959953","<img style='border: 4px solid darkgrey;' src='img/tf1_16_M_ss3.jpeg'></img>","2","","exp","","0","<img src='img/tf1_16_T1_ss3_md.jpeg'></img>","0","true",""
"","html-keyboard-response","47","146734","0.0-10.0-0.16","859","""event"",""trial"",""time""
""fullscreenenter"",""0"",""3043""
","
","
","""event"",""trial"",""time""
""fullscreenenter"",""0"",""3043""
","
","null","<div style=""font-size:60px;"">+</div>","","null","fixation","2021-04-12 15:08:50.219","","","","",""
"","mars-trial","48","147729","0.0-10.0-1.16","859","""event"",""trial"",""time""
""fullscreenenter"",""0"",""3043""
","
","
","""event"",""trial"",""time""
""fullscreenenter"",""0"",""3043""
","
","386.41000000643544","<img style='border: 4px solid darkgrey;' src='img/tf1_17_M_ss1.jpeg'></img>","2","","exp","","2","<img src='img/tf1_17_T1_ss1_md.jpeg'></img>","0","false",""
"","html-keyboard-response","49","148232","0.0-10.0-0.17","859","""event"",""trial"",""time""
""fullscreenenter"",""0"",""3043""
","
","
","""event"",""trial"",""time""
""fullscreenenter"",""0"",""3043""
","
","null","<div style=""font-size:60px;"">+</div>","","null","fixation","2021-04-12 15:08:51.716","","","","",""
"","mars-trial","50","149951","0.0-10.0-1.17","859","""event"",""trial"",""time""
""fullscreenenter"",""0"",""3043""
","
","
","""event"",""trial"",""time""
""fullscreenenter"",""0"",""3043""
","
","1112.9000000000815","<img style='border: 4px solid darkgrey;' src='img/tf1_18_M_ss2.jpeg'></img>","1","","exp","","2","<img src='img/tf1_18_T1_ss2_md.jpeg'></img>","0","false",""
"","html-keyboard-response","51","150454","0.0-10.0-0.18","859","""event"",""trial"",""time""
""fullscreenenter"",""0"",""3043""
","
","
","""event"",""trial"",""time""
""fullscreenenter"",""0"",""3043""
","
","null","<div style=""font-size:60px;"">+</div>","","null","fixation","2021-04-12 15:08:53.938","","","","",""
"","mars-trial","52","151441","0.0-10.0-1.18","859","""event"",""trial"",""time""
""fullscreenenter"",""0"",""3043""
","
","
","""event"",""trial"",""time""
""fullscreenenter"",""0"",""3043""
","
","374.5150000031572","<img style='border: 4px solid darkgrey;' src='img/tf1_19_M_ss3.jpeg'></img>","2","","exp","","2","<img src='img/tf1_19_T1_ss3_md.jpeg'></img>","0","false",""
"","html-keyboard-response","53","151944","0.0-10.0-0.19","859","""event"",""trial"",""time""
""fullscreenenter"",""0"",""3043""
","
","
","""event"",""trial"",""time""
""fullscreenenter"",""0"",""3043""
","
","null","<div style=""font-size:60px;"">+</div>","","null","fixation","2021-04-12 15:08:55.428","","","","",""
"","mars-trial","54","152850","0.0-10.0-1.19","859","""event"",""trial"",""time""
""fullscreenenter"",""0"",""3043""
","
","
","""event"",""trial"",""time""
""fullscreenenter"",""0"",""3043""
","
","297.8900000016438","<img style='border: 4px solid darkgrey;' src='img/tf1_20_M_ss1.jpeg'></img>","1","","exp","","3","<img src='img/tf1_20_T1_ss1_md.jpeg'></img>","0","false",""
"","html-keyboard-response","55","153352","0.0-10.0-0.20","859","""event"",""trial"",""time""
""fullscreenenter"",""0"",""3043""
","
","
","""event"",""trial"",""time""
""fullscreenenter"",""0"",""3043""
","
","null","<div style=""font-size:60px;"">+</div>","","null","fixation","2021-04-12 15:08:56.836","","","","",""
"","mars-trial","56","154199","0.0-10.0-1.20","859","""event"",""trial"",""time""
""fullscreenenter"",""0"",""3043""
","
","
","""event"",""trial"",""time""
""fullscreenenter"",""0"",""3043""
","
","235.90999999578344","<img style='border: 4px solid darkgrey;' src='img/tf1_21_M_ss2.jpeg'></img>","3","","exp","","0","<img src='img/tf1_21_T1_ss2_md.jpeg'></img>","0","true",""
"","html-keyboard-response","57","154701","0.0-10.0-0.21","859","""event"",""trial"",""time""
""fullscreenenter"",""0"",""3043""
","
","
","""event"",""trial"",""time""
""fullscreenenter"",""0"",""3043""
","
","null","<div style=""font-size:60px;"">+</div>","","null","fixation","2021-04-12 15:08:58.185","","","","",""
"","mars-trial","58","155945","0.0-10.0-1.21","859","""event"",""trial"",""time""
""fullscreenenter"",""0"",""3043""
","
","
","""event"",""trial"",""time""
""fullscreenenter"",""0"",""3043""
","
","637.1050000016112","<img style='border: 4px solid darkgrey;' src='img/tf1_22_M_ss3.jpeg'></img>","0","","exp","","0","<img src='img/tf1_22_T1_ss3_md.jpeg'></img>","0","true",""
"","html-keyboard-response","59","156448","0.0-10.0-0.22","859","""event"",""trial"",""time""
""fullscreenenter"",""0"",""3043""
","
","
","""event"",""trial"",""time""
""fullscreenenter"",""0"",""3043""
","
","null","<div style=""font-size:60px;"">+</div>","","null","fixation","2021-04-12 15:08:59.933","","","","",""
"","mars-trial","60","157440","0.0-10.0-1.22","859","""event"",""trial"",""time""
""fullscreenenter"",""0"",""3043""
","
","
","""event"",""trial"",""time""
""fullscreenenter"",""0"",""3043""
","
","380.6650000042282","<img style='border: 4px solid darkgrey;' src='img/tf1_23_M_ss1.jpeg'></img>","2","","exp","","0","<img src='img/tf1_23_T1_ss1_md.jpeg'></img>","0","true",""
"","html-keyboard-response","61","157945","0.0-10.0-0.23","859","""event"",""trial"",""time""
""fullscreenenter"",""0"",""3043""
","
","
","""event"",""trial"",""time""
""fullscreenenter"",""0"",""3043""
","
","null","<div style=""font-size:60px;"">+</div>","","null","fixation","2021-04-12 15:09:01.429","","","","",""
"","mars-trial","62","158958","0.0-10.0-1.23","859","""event"",""trial"",""time""
""fullscreenenter"",""0"",""3043""
","
","
","""event"",""trial"",""time""
""fullscreenenter"",""0"",""3043""
","
","401.7149999999674","<img style='border: 4px solid darkgrey;' src='img/tf1_24_M_ss2.jpeg'></img>","2","","exp","","0","<img src='img/tf1_24_T1_ss2_md.jpeg'></img>","0","true",""
"","html-keyboard-response","63","159460","0.0-10.0-0.24","859","""event"",""trial"",""time""
""fullscreenenter"",""0"",""3043""
","
","
","""event"",""trial"",""time""
""fullscreenenter"",""0"",""3043""
","
","null","<div style=""font-size:60px;"">+</div>","","null","fixation","2021-04-12 15:09:02.944","","","","",""
"","mars-trial","64","160433","0.0-10.0-1.24","859","""event"",""trial"",""time""
""fullscreenenter"",""0"",""3043""
","
","
","""event"",""trial"",""time""
""fullscreenenter"",""0"",""3043""
","
","361.8050000004587","<img style='border: 4px solid darkgrey;' src='img/tf1_25_M_ss3.jpeg'></img>","2","","exp","","0","<img src='img/tf1_25_T1_ss3_md.jpeg'></img>","0","true",""
"","html-keyboard-response","65","160934","0.0-10.0-0.25","859","""event"",""trial"",""time""
""fullscreenenter"",""0"",""3043""
","
","
","""event"",""trial"",""time""
""fullscreenenter"",""0"",""3043""
","
","null","<div style=""font-size:60px;"">+</div>","","null","fixation","2021-04-12 15:09:04.418","","","","",""
"","mars-trial","66","161927","0.0-10.0-1.25","859","""event"",""trial"",""time""
""fullscreenenter"",""0"",""3043""
","
","
","""event"",""trial"",""time""
""fullscreenenter"",""0"",""3043""
","
","381.0799999992014","<img style='border: 4px solid darkgrey;' src='img/tf1_26_M_ss1.jpeg'></img>","2","","exp","","2","<img src='img/tf1_26_T1_ss1_md.jpeg'></img>","0","false",""
"","html-keyboard-response","67","162428","0.0-10.0-0.26","859","""event"",""trial"",""time""
""fullscreenenter"",""0"",""3043""
","
","
","""event"",""trial"",""time""
""fullscreenenter"",""0"",""3043""
","
","null","<div style=""font-size:60px;"">+</div>","","null","fixation","2021-04-12 15:09:05.912","","","","",""
"","mars-trial","68","163397","0.0-10.0-1.26","859","""event"",""trial"",""time""
""fullscreenenter"",""0"",""3043""
","
","
","""event"",""trial"",""time""
""fullscreenenter"",""0"",""3043""
","
","361.8900000001304","<img style='border: 4px solid darkgrey;' src='img/tf1_27_M_ss2.jpeg'></img>","1","","exp","","0","<img src='img/tf1_27_T1_ss2_md.jpeg'></img>","0","true",""
"","html-keyboard-response","69","163899","0.0-10.0-0.27","859","""event"",""trial"",""time""
""fullscreenenter"",""0"",""3043""
","
","
","""event"",""trial"",""time""
""fullscreenenter"",""0"",""3043""
","
","null","<div style=""font-size:60px;"">+</div>","","null","fixation","2021-04-12 15:09:07.383","","","","",""
"","mars-trial","70","164841","0.0-10.0-1.27","859","""event"",""trial"",""time""
""fullscreenenter"",""0"",""3043""
","
","
","""event"",""trial"",""time""
""fullscreenenter"",""0"",""3043""
","
","330.70500000030734","<img style='border: 4px solid darkgrey;' src='img/tf1_28_M_ss3.jpeg'></img>","3","","exp","","3","<img src='img/tf1_28_T1_ss3_md.jpeg'></img>","0","false",""
"","html-keyboard-response","71","165344","0.0-10.0-0.28","859","""event"",""trial"",""time""
""fullscreenenter"",""0"",""3043""
","
","
","""event"",""trial"",""time""
""fullscreenenter"",""0"",""3043""
","
","null","<div style=""font-size:60px;"">+</div>","","null","fixation","2021-04-12 15:09:08.828","","","","",""
"","mars-trial","72","166279","0.0-10.0-1.28","859","""event"",""trial"",""time""
""fullscreenenter"",""0"",""3043""
","
","
","""event"",""trial"",""time""
""fullscreenenter"",""0"",""3043""
","
","326.82999999815365","<img style='border: 4px solid darkgrey;' src='img/tf1_29_M_ss1.jpeg'></img>","2","","exp","","0","<img src='img/tf1_29_T1_ss1_md.jpeg'></img>","0","true",""
"","html-keyboard-response","73","166780","0.0-10.0-0.29","859","""event"",""trial"",""time""
""fullscreenenter"",""0"",""3043""
","
","
","""event"",""trial"",""time""
""fullscreenenter"",""0"",""3043""
","
","null","<div style=""font-size:60px;"">+</div>","","null","fixation","2021-04-12 15:09:10.264","","","","",""
"","mars-trial","74","168336","0.0-10.0-1.29","859","""event"",""trial"",""time""
""fullscreenenter"",""0"",""3043""
","
","
","""event"",""trial"",""time""
""fullscreenenter"",""0"",""3043""
","
","944.5950000008452","<img style='border: 4px solid darkgrey;' src='img/tf1_30_M_ss2.jpeg'></img>","2","","exp","","3","<img src='img/tf1_30_T1_ss2_md.jpeg'></img>","0","false",""
"","html-keyboard-response","75","168837","0.0-10.0-0.30","859","""event"",""trial"",""time""
""fullscreenenter"",""0"",""3043""
","
","
","""event"",""trial"",""time""
""fullscreenenter"",""0"",""3043""
","
","null","<div style=""font-size:60px;"">+</div>","","null","fixation","2021-04-12 15:09:12.321","","","","",""
"","mars-trial","76","169733","0.0-10.0-1.30","859","""event"",""trial"",""time""
""fullscreenenter"",""0"",""3043""
","
","
","""event"",""trial"",""time""
""fullscreenenter"",""0"",""3043""
","
","286.9600000049104","<img style='border: 4px solid darkgrey;' src='img/tf1_31_M_ss3.jpeg'></img>","1","","exp","","1","<img src='img/tf1_31_T1_ss3_md.jpeg'></img>","0","false",""
"","html-keyboard-response","77","170237","0.0-10.0-0.31","859","""event"",""trial"",""time""
""fullscreenenter"",""0"",""3043""
","
","
","""event"",""trial"",""time""
""fullscreenenter"",""0"",""3043""
","
","null","<div style=""font-size:60px;"">+</div>","","null","fixation","2021-04-12 15:09:13.721","","","","",""
"","mars-trial","78","171198","0.0-10.0-1.31","859","""event"",""trial"",""time""
""fullscreenenter"",""0"",""3043""
","
","
","""event"",""trial"",""time""
""fullscreenenter"",""0"",""3043""
","
","351.81500000180677","<img style='border: 4px solid darkgrey;' src='img/tf1_32_M_ss1.jpeg'></img>","3","","exp","","2","<img src='img/tf1_32_T1_ss1_md.jpeg'></img>","0","false",""
"","html-keyboard-response","79","171702","0.0-10.0-0.32","859","""event"",""trial"",""time""
""fullscreenenter"",""0"",""3043""
","
","
","""event"",""trial"",""time""
""fullscreenenter"",""0"",""3043""
","
","null","<div style=""font-size:60px;"">+</div>","","null","fixation","2021-04-12 15:09:15.186","","","","",""
"","mars-trial","80","172792","0.0-10.0-1.32","859","""event"",""trial"",""time""
""fullscreenenter"",""0"",""3043""
","
","
","""event"",""trial"",""time""
""fullscreenenter"",""0"",""3043""
","
","482.98999999678927","<img style='border: 4px solid darkgrey;' src='img/tf1_33_M_ss2.jpeg'></img>","0","","exp","","0","<img src='img/tf1_33_T1_ss2_md.jpeg'></img>","0","true",""
"","html-keyboard-response","81","173294","0.0-10.0-0.33","859","""event"",""trial"",""time""
""fullscreenenter"",""0"",""3043""
","
","
","""event"",""trial"",""time""
""fullscreenenter"",""0"",""3043""
","
","null","<div style=""font-size:60px;"">+</div>","","null","fixation","2021-04-12 15:09:16.778","","","","",""
"","mars-trial","82","175076","0.0-10.0-1.33","859","""event"",""trial"",""time""
""fullscreenenter"",""0"",""3043""
","
","
","""event"",""trial"",""time""
""fullscreenenter"",""0"",""3043""
","
","1176.7599999948288","<img style='border: 4px solid darkgrey;' src='img/tf1_34_M_ss3.jpeg'></img>","1","","exp","","0","<img src='img/tf1_34_T1_ss3_md.jpeg'></img>","0","true",""
"","html-keyboard-response","83","175580","0.0-10.0-0.34","859","""event"",""trial"",""time""
""fullscreenenter"",""0"",""3043""
","
","
","""event"",""trial"",""time""
""fullscreenenter"",""0"",""3043""
","
","null","<div style=""font-size:60px;"">+</div>","","null","fixation","2021-04-12 15:09:19.064","","","","",""
"","mars-trial","84","176535","0.0-10.0-1.34","859","""event"",""trial"",""time""
""fullscreenenter"",""0"",""3043""
","
","
","""event"",""trial"",""time""
""fullscreenenter"",""0"",""3043""
","
","346.53999999864027","<img style='border: 4px solid darkgrey;' src='img/tf1_35_M_ss1.jpeg'></img>","2","","exp","","1","<img src='img/tf1_35_T1_ss1_md.jpeg'></img>","0","false",""
"","html-keyboard-response","85","177039","0.0-10.0-0.35","859","""event"",""trial"",""time""
""fullscreenenter"",""0"",""3043""
","
","
","""event"",""trial"",""time""
""fullscreenenter"",""0"",""3043""
","
","null","<div style=""font-size:60px;"">+</div>","","null","fixation","2021-04-12 15:09:20.523","","","","",""
"","mars-trial","86","179134","0.0-10.0-1.35","859","""event"",""trial"",""time""
""fullscreenenter"",""0"",""3043""
","
","
","""event"",""trial"",""time""
""fullscreenenter"",""0"",""3043""
","
","1488.5599999979604","<img style='border: 4px solid darkgrey;' src='img/tf1_36_M_ss2.jpeg'></img>","1","","exp","","1","<img src='img/tf1_36_T1_ss2_md.jpeg'></img>","0","false",""
"","html-keyboard-response","87","179636","0.0-10.0-0.36","859","""event"",""trial"",""time""
""fullscreenenter"",""0"",""3043""
","
","
","""event"",""trial"",""time""
""fullscreenenter"",""0"",""3043""
","
","null","<div style=""font-size:60px;"">+</div>","","null","fixation","2021-04-12 15:09:23.120","","","","",""
"","mars-trial","88","180550","0.0-10.0-1.36","859","""event"",""trial"",""time""
""fullscreenenter"",""0"",""3043""
","
","
","""event"",""trial"",""time""
""fullscreenenter"",""0"",""3043""
","
","307.85499999910826","<img style='border: 4px solid darkgrey;' src='img/tf1_37_M_ss3.jpeg'></img>","0","","exp","","0","<img src='img/tf1_37_T1_ss3_md.jpeg'></img>","0","true",""
"","html-keyboard-response","89","181053","0.0-10.0-0.37","859","""event"",""trial"",""time""
""fullscreenenter"",""0"",""3043""
","
","
","""event"",""trial"",""time""
""fullscreenenter"",""0"",""3043""
","
","null","<div style=""font-size:60px;"">+</div>","","null","fixation","2021-04-12 15:09:24.537","","","","",""
"","mars-trial","90","182014","0.0-10.0-1.37","859","""event"",""trial"",""time""
""fullscreenenter"",""0"",""3043""
","
","
","""event"",""trial"",""time""
""fullscreenenter"",""0"",""3043""
","
","355.4650000005495","<img style='border: 4px solid darkgrey;' src='img/tf1_38_M_ss1.jpeg'></img>","0","","exp","","2","<img src='img/tf1_38_T1_ss1_md.jpeg'></img>","0","false",""
"","html-keyboard-response","91","182516","0.0-10.0-0.38","859","""event"",""trial"",""time""
""fullscreenenter"",""0"",""3043""
","
","
","""event"",""trial"",""time""
""fullscreenenter"",""0"",""3043""
","
","null","<div style=""font-size:60px;"">+</div>","","null","fixation","2021-04-12 15:09:26.001","","","","",""
"","mars-trial","92","183478","0.0-10.0-1.38","859","""event"",""trial"",""time""
""fullscreenenter"",""0"",""3043""
","
","
","""event"",""trial"",""time""
""fullscreenenter"",""0"",""3043""
","
","354.444999997213","<img style='border: 4px solid darkgrey;' src='img/tf1_39_M_ss2.jpeg'></img>","1","","exp","","2","<img src='img/tf1_39_T1_ss2_md.jpeg'></img>","0","false",""
"","html-keyboard-response","93","183982","0.0-10.0-0.39","859","""event"",""trial"",""time""
""fullscreenenter"",""0"",""3043""
","
","
","""event"",""trial"",""time""
""fullscreenenter"",""0"",""3043""
","
","null","<div style=""font-size:60px;"">+</div>","","null","fixation","2021-04-12 15:09:27.466","","","","",""
"","mars-trial","94","184839","0.0-10.0-1.39","859","""event"",""trial"",""time""
""fullscreenenter"",""0"",""3043""
","
","
","""event"",""trial"",""time""
""fullscreenenter"",""0"",""3043""
","
","246.63000000145985","<img style='border: 4px solid darkgrey;' src='img/tf1_40_M_ss3.jpeg'></img>","2","","exp","","1","<img src='img/tf1_40_T1_ss3_md.jpeg'></img>","0","false",""
"","html-keyboard-response","95","185341","0.0-10.0-0.40","859","""event"",""trial"",""time""
""fullscreenenter"",""0"",""3043""
","
","
","""event"",""trial"",""time""
""fullscreenenter"",""0"",""3043""
","
","null","<div style=""font-size:60px;"">+</div>","","null","fixation","2021-04-12 15:09:28.826","","","","",""
"","mars-trial","96","186469","0.0-10.0-1.40","859","""event"",""trial"",""time""
""fullscreenenter"",""0"",""3043""
","
","
","""event"",""trial"",""time""
""fullscreenenter"",""0"",""3043""
","
","519.7899999984656","<img style='border: 4px solid darkgrey;' src='img/tf1_41_M_ss1.jpeg'></img>","2","","exp","","2","<img src='img/tf1_41_T1_ss1_md.jpeg'></img>","0","false",""
"","html-keyboard-response","97","186971","0.0-10.0-0.41","859","""event"",""trial"",""time""
""fullscreenenter"",""0"",""3043""
","
","
","""event"",""trial"",""time""
""fullscreenenter"",""0"",""3043""
","
","null","<div style=""font-size:60px;"">+</div>","","null","fixation","2021-04-12 15:09:30.455","","","","",""
"","mars-trial","98","187918","0.0-10.0-1.41","859","""event"",""trial"",""time""
""fullscreenenter"",""0"",""3043""
","
","
","""event"",""trial"",""time""
""fullscreenenter"",""0"",""3043""
","
","336.02999999857275","<img style='border: 4px solid darkgrey;' src='img/tf1_42_M_ss2.jpeg'></img>","2","","exp","","1","<img src='img/tf1_42_T1_ss2_md.jpeg'></img>","0","false",""
"","html-keyboard-response","99","188423","0.0-10.0-0.42","859","""event"",""trial"",""time""
""fullscreenenter"",""0"",""3043""
","
","
","""event"",""trial"",""time""
""fullscreenenter"",""0"",""3043""
","
","null","<div style=""font-size:60px;"">+</div>","","null","fixation","2021-04-12 15:09:31.907","","","","",""
"","mars-trial","100","189262","0.0-10.0-1.42","859","""event"",""trial"",""time""
""fullscreenenter"",""0"",""3043""
","
","
","""event"",""trial"",""time""
""fullscreenenter"",""0"",""3043""
","
","229.29000000294764","<img style='border: 4px solid darkgrey;' src='img/tf1_43_M_ss3.jpeg'></img>","2","","exp","","2","<img src='img/tf1_43_T1_ss3_md.jpeg'></img>","0","false",""
"","html-keyboard-response","101","189768","0.0-10.0-0.43","859","""event"",""trial"",""time""
""fullscreenenter"",""0"",""3043""
","
","
","""event"",""trial"",""time""
""fullscreenenter"",""0"",""3043""
","
","null","<div style=""font-size:60px;"">+</div>","","null","fixation","2021-04-12 15:09:33.252","","","","",""
"","mars-trial","102","190509","0.0-10.0-1.43","859","""event"",""trial"",""time""
""fullscreenenter"",""0"",""3043""
","
","
","""event"",""trial"",""time""
""fullscreenenter"",""0"",""3043""
","
","134.65500000165775","<img style='border: 4px solid darkgrey;' src='img/tf1_44_M_ss1.jpeg'></img>","2","","exp","","3","<img src='img/tf1_44_T1_ss1_md.jpeg'></img>","0","false",""
"","html-keyboard-response","103","191012","0.0-10.0-0.44","859","""event"",""trial"",""time""
""fullscreenenter"",""0"",""3043""
","
","
","""event"",""trial"",""time""
""fullscreenenter"",""0"",""3043""
","
","null","<div style=""font-size:60px;"">+</div>","","null","fixation","2021-04-12 15:09:34.496","","","","",""
"","mars-trial","104","192510","0.0-10.0-1.44","859","""event"",""trial"",""time""
""fullscreenenter"",""0"",""3043""
","
","
","""event"",""trial"",""time""
""fullscreenenter"",""0"",""3043""
","
","887.1699999945122","<img style='border: 4px solid darkgrey;' src='img/tf1_45_M_ss2.jpeg'></img>","2","","exp","","1","<img src='img/tf1_45_T1_ss2_md.jpeg'></img>","0","false",""
"","html-keyboard-response","105","193012","0.0-10.0-0.45","859","""event"",""trial"",""time""
""fullscreenenter"",""0"",""3043""
","
","
","""event"",""trial"",""time""
""fullscreenenter"",""0"",""3043""
","
","null","<div style=""font-size:60px;"">+</div>","","null","fixation","2021-04-12 15:09:36.496","","","","",""
"","mars-trial","106","194547","0.0-10.0-1.45","859","""event"",""trial"",""time""
""fullscreenenter"",""0"",""3043""
","
","
","""event"",""trial"",""time""
""fullscreenenter"",""0"",""3043""
","
","929.2649999988498","<img style='border: 4px solid darkgrey;' src='img/tf1_46_M_ss3.jpeg'></img>","1","","exp","","2","<img src='img/tf1_46_T1_ss3_md.jpeg'></img>","0","false",""
"","html-keyboard-response","107","195050","0.0-10.0-0.46","859","""event"",""trial"",""time""
""fullscreenenter"",""0"",""3043""
","
","
","""event"",""trial"",""time""
""fullscreenenter"",""0"",""3043""
","
","null","<div style=""font-size:60px;"">+</div>","","null","fixation","2021-04-12 15:09:38.534","","","","",""
"","mars-trial","108","196286","0.0-10.0-1.46","859","""event"",""trial"",""time""
""fullscreenenter"",""0"",""3043""
","
","
","""event"",""trial"",""time""
""fullscreenenter"",""0"",""3043""
","
","628.2399999981862","<img style='border: 4px solid darkgrey;' src='img/tf1_47_M_ss1.jpeg'></img>","3","","exp","","3","<img src='img/tf1_47_T1_ss1_md.jpeg'></img>","0","false",""
"","html-keyboard-response","109","196789","0.0-10.0-0.47","859","""event"",""trial"",""time""
""fullscreenenter"",""0"",""3043""
","
","
","""event"",""trial"",""time""
""fullscreenenter"",""0"",""3043""
","
","null","<div style=""font-size:60px;"">+</div>","","null","fixation","2021-04-12 15:09:40.274","","","","",""
"","mars-trial","110","197799","0.0-10.0-1.47","859","""event"",""trial"",""time""
""fullscreenenter"",""0"",""3043""
","
","
","""event"",""trial"",""time""
""fullscreenenter"",""0"",""3043""
","
","400.62500000203727","<img style='border: 4px solid darkgrey;' src='img/tf1_48_M_ss2.jpeg'></img>","0","","exp","","3","<img src='img/tf1_48_T1_ss2_md.jpeg'></img>","0","false",""
"","html-keyboard-response","111","198303","0.0-10.0-0.48","859","""event"",""trial"",""time""
""fullscreenenter"",""0"",""3043""
","
","
","""event"",""trial"",""time""
""fullscreenenter"",""0"",""3043""
","
","null","<div style=""font-size:60px;"">+</div>","","null","fixation","2021-04-12 15:09:41.787","","","","",""
"","mars-trial","112","199957","0.0-10.0-1.48","859","""event"",""trial"",""time""
""fullscreenenter"",""0"",""3043""
","
","
","""event"",""trial"",""time""
""fullscreenenter"",""0"",""3043""
","
","1043.8799999974435","<img style='border: 4px solid darkgrey;' src='img/tf1_49_M_ss3.jpeg'></img>","1","","exp","","3","<img src='img/tf1_49_T1_ss3_md.jpeg'></img>","0","false",""
"","html-keyboard-response","113","200460","0.0-10.0-0.49","859","""event"",""trial"",""time""
""fullscreenenter"",""0"",""3043""
","
","
","""event"",""trial"",""time""
""fullscreenenter"",""0"",""3043""
","
","null","<div style=""font-size:60px;"">+</div>","","null","fixation","2021-04-12 15:09:43.944","","","","",""
"","mars-trial","114","201408","0.0-10.0-1.49","859","""event"",""trial"",""time""
""fullscreenenter"",""0"",""3043""
","
","
","""event"",""trial"",""time""
""fullscreenenter"",""0"",""3043""
","
","340.12000000075204","<img style='border: 4px solid darkgrey;' src='img/tf1_50_M_ss1.jpeg'></img>","2","","exp","","2","<img src='img/tf1_50_T1_ss1_md.jpeg'></img>","0","false",""
"","html-keyboard-response","115","201911","0.0-10.0-0.50","859","""event"",""trial"",""time""
""fullscreenenter"",""0"",""3043""
","
","
","""event"",""trial"",""time""
""fullscreenenter"",""0"",""3043""
","
","null","<div style=""font-size:60px;"">+</div>","","null","fixation","2021-04-12 15:09:45.395","","","","",""
"","mars-trial","116","203110","0.0-10.0-1.50","859","""event"",""trial"",""time""
""fullscreenenter"",""0"",""3043""
","
","
","""event"",""trial"",""time""
""fullscreenenter"",""0"",""3043""
","
","590.1300000041374","<img style='border: 4px solid darkgrey;' src='img/tf1_51_M_ss2.jpeg'></img>","2","","exp","","0","<img src='img/tf1_51_T1_ss2_md.jpeg'></img>","0","true",""
"","html-keyboard-response","117","203615","0.0-10.0-0.51","859","""event"",""trial"",""time""
""fullscreenenter"",""0"",""3043""
","
","
","""event"",""trial"",""time""
""fullscreenenter"",""0"",""3043""
","
","null","<div style=""font-size:60px;"">+</div>","","null","fixation","2021-04-12 15:09:47.099","","","","",""
"","mars-trial","118","204653","0.0-10.0-1.51","859","""event"",""trial"",""time""
""fullscreenenter"",""0"",""3043""
","
","
","""event"",""trial"",""time""
""fullscreenenter"",""0"",""3043""
","
","428.090000001248","<img style='border: 4px solid darkgrey;' src='img/tf1_52_M_ss3.jpeg'></img>","2","","exp","","2","<img src='img/tf1_52_T1_ss3_md.jpeg'></img>","0","false",""
"","html-keyboard-response","119","205155","0.0-10.0-0.52","859","""event"",""trial"",""time""
""fullscreenenter"",""0"",""3043""
","
","
","""event"",""trial"",""time""
""fullscreenenter"",""0"",""3043""
","
","null","<div style=""font-size:60px;"">+</div>","","null","fixation","2021-04-12 15:09:48.639","","","","",""
"","mars-trial","120","206088","0.0-10.0-1.52","859","""event"",""trial"",""time""
""fullscreenenter"",""0"",""3043""
","
","
","""event"",""trial"",""time""
""fullscreenenter"",""0"",""3043""
","
","325.010000000475","<img style='border: 4px solid darkgrey;' src='img/tf1_53_M_ss1.jpeg'></img>","1","","exp","","0","<img src='img/tf1_53_T1_ss1_md.jpeg'></img>","0","true",""
"","html-keyboard-response","121","206591","0.0-10.0-0.53","859","""event"",""trial"",""time""
""fullscreenenter"",""0"",""3043""
","
","
","""event"",""trial"",""time""
""fullscreenenter"",""0"",""3043""
","
","null","<div style=""font-size:60px;"">+</div>","","null","fixation","2021-04-12 15:09:50.075","","","","",""
"","mars-trial","122","207445","0.0-10.0-1.53","859","""event"",""trial"",""time""
""fullscreenenter"",""0"",""3043""
","
","
","""event"",""trial"",""time""
""fullscreenenter"",""0"",""3043""
","
","245.90499999612803","<img style='border: 4px solid darkgrey;' src='img/tf1_54_M_ss2.jpeg'></img>","2","","exp","","0","<img src='img/tf1_54_T1_ss2_md.jpeg'></img>","0","true",""
"","html-keyboard-response","123","207946","0.0-10.0-0.54","859","""event"",""trial"",""time""
""fullscreenenter"",""0"",""3043""
","
","
","""event"",""trial"",""time""
""fullscreenenter"",""0"",""3043""
","
","null","<div style=""font-size:60px;"">+</div>","","null","fixation","2021-04-12 15:09:51.430","","","","",""
"","mars-trial","124","208838","0.0-10.0-1.54","859","""event"",""trial"",""time""
""fullscreenenter"",""0"",""3043""
","
","
","""event"",""trial"",""time""
""fullscreenenter"",""0"",""3043""
","
","286.0300000029383","<img style='border: 4px solid darkgrey;' src='img/tf1_55_M_ss3.jpeg'></img>","1","","exp","","0","<img src='img/tf1_55_T1_ss3_md.jpeg'></img>","0","true",""
"","html-keyboard-response","125","209339","0.0-10.0-0.55","859","""event"",""trial"",""time""
""fullscreenenter"",""0"",""3043""
","
","
","""event"",""trial"",""time""
""fullscreenenter"",""0"",""3043""
","
","null","<div style=""font-size:60px;"">+</div>","","null","fixation","2021-04-12 15:09:52.823","","","","",""
"","mars-trial","126","210174","0.0-10.0-1.55","859","""event"",""trial"",""time""
""fullscreenenter"",""0"",""3043""
","
","
","""event"",""trial"",""time""
""fullscreenenter"",""0"",""3043""
","
","224.50499999831663","<img style='border: 4px solid darkgrey;' src='img/tf1_56_M_ss1.jpeg'></img>","2","","exp","","3","<img src='img/tf1_56_T1_ss1_md.jpeg'></img>","0","false",""
"","html-keyboard-response","127","210676","0.0-10.0-0.56","859","""event"",""trial"",""time""
""fullscreenenter"",""0"",""3043""
","
","
","""event"",""trial"",""time""
""fullscreenenter"",""0"",""3043""
","
","null","<div style=""font-size:60px;"">+</div>","","null","fixation","2021-04-12 15:09:54.160","","","","",""
"","mars-trial","128","211580","0.0-10.0-1.56","859","""event"",""trial"",""time""
""fullscreenenter"",""0"",""3043""
","
","
","""event"",""trial"",""time""
""fullscreenenter"",""0"",""3043""
","
","295.45499999949243","<img style='border: 4px solid darkgrey;' src='img/tf1_57_M_ss2.jpeg'></img>","1","","exp","","0","<img src='img/tf1_57_T1_ss2_md.jpeg'></img>","0","true",""
"","html-keyboard-response","129","212081","0.0-10.0-0.57","859","""event"",""trial"",""time""
""fullscreenenter"",""0"",""3043""
","
","
","""event"",""trial"",""time""
""fullscreenenter"",""0"",""3043""
","
","null","<div style=""font-size:60px;"">+</div>","","null","fixation","2021-04-12 15:09:55.565","","","","",""
"","mars-trial","130","212965","0.0-10.0-1.57","859","""event"",""trial"",""time""
""fullscreenenter"",""0"",""3043""
","
","
","""event"",""trial"",""time""
""fullscreenenter"",""0"",""3043""
","
","275.50000000337604","<img style='border: 4px solid darkgrey;' src='img/tf1_58_M_ss3.jpeg'></img>","1","","exp","","3","<img src='img/tf1_58_T1_ss3_md.jpeg'></img>","0","false",""
"","html-keyboard-response","131","213467","0.0-10.0-0.58","859","""event"",""trial"",""time""
""fullscreenenter"",""0"",""3043""
","
","
","""event"",""trial"",""time""
""fullscreenenter"",""0"",""3043""
","
","null","<div style=""font-size:60px;"">+</div>","","null","fixation","2021-04-12 15:09:56.951","","","","",""
"","mars-trial","132","214477","0.0-10.0-1.58","859","""event"",""trial"",""time""
""fullscreenenter"",""0"",""3043""
","
","
","""event"",""trial"",""time""
""fullscreenenter"",""0"",""3043""
","
","403.214999998454","<img style='border: 4px solid darkgrey;' src='img/tf1_59_M_ss1.jpeg'></img>","2","","exp","","2","<img src='img/tf1_59_T1_ss1_md.jpeg'></img>","0","false",""
"","html-keyboard-response","133","214982","0.0-10.0-0.59","859","""event"",""trial"",""time""
""fullscreenenter"",""0"",""3043""
","
","
","""event"",""trial"",""time""
""fullscreenenter"",""0"",""3043""
","
","null","<div style=""font-size:60px;"">+</div>","","null","fixation","2021-04-12 15:09:58.466","","","","",""
"","mars-trial","134","215818","0.0-10.0-1.59","859","""event"",""trial"",""time""
""fullscreenenter"",""0"",""3043""
","
","
","""event"",""trial"",""time""
""fullscreenenter"",""0"",""3043""
","
","227.20500000286847","<img style='border: 4px solid darkgrey;' src='img/tf1_60_M_ss2.jpeg'></img>","1","","exp","","2","<img src='img/tf1_60_T1_ss2_md.jpeg'></img>","0","false",""
"","html-keyboard-response","135","216322","0.0-10.0-0.60","859","""event"",""trial"",""time""
""fullscreenenter"",""0"",""3043""
","
","
","""event"",""trial"",""time""
""fullscreenenter"",""0"",""3043""
","
","null","<div style=""font-size:60px;"">+</div>","","null","fixation","2021-04-12 15:09:59.806","","","","",""
"","mars-trial","136","217582","0.0-10.0-1.60","859","""event"",""trial"",""time""
""fullscreenenter"",""0"",""3043""
","
","
","""event"",""trial"",""time""
""fullscreenenter"",""0"",""3043""
","
","647.3599999953876","<img style='border: 4px solid darkgrey;' src='img/tf1_61_M_ss3.jpeg'></img>","1","","exp","","3","<img src='img/tf1_61_T1_ss3_md.jpeg'></img>","0","false",""
"","html-keyboard-response","137","218085","0.0-10.0-0.61","859","""event"",""trial"",""time""
""fullscreenenter"",""0"",""3043""
","
","
","""event"",""trial"",""time""
""fullscreenenter"",""0"",""3043""
","
","null","<div style=""font-size:60px;"">+</div>","","null","fixation","2021-04-12 15:10:01.569","","","","",""
"","mars-trial","138","219481","0.0-10.0-1.61","859","""event"",""trial"",""time""
""fullscreenenter"",""0"",""3043""
","
","
","""event"",""trial"",""time""
""fullscreenenter"",""0"",""3043""
","
","790.0450000015553","<img style='border: 4px solid darkgrey;' src='img/tf1_62_M_ss1.jpeg'></img>","0","","exp","","2","<img src='img/tf1_62_T1_ss1_md.jpeg'></img>","0","false",""
"","html-keyboard-response","139","219986","0.0-10.0-0.62","859","""event"",""trial"",""time""
""fullscreenenter"",""0"",""3043""
","
","
","""event"",""trial"",""time""
""fullscreenenter"",""0"",""3043""
","
","null","<div style=""font-size:60px;"">+</div>","","null","fixation","2021-04-12 15:10:03.470","","","","",""
"","mars-trial","140","221221","0.0-10.0-1.62","859","""event"",""trial"",""time""
""fullscreenenter"",""0"",""3043""
","
","
","""event"",""trial"",""time""
""fullscreenenter"",""0"",""3043""
","
","623.8049999956274","<img style='border: 4px solid darkgrey;' src='img/tf1_63_M_ss2.jpeg'></img>","2","","exp","","2","<img src='img/tf1_63_T1_ss2_md.jpeg'></img>","0","false",""
"","html-keyboard-response","141","221722","0.0-10.0-0.63","859","""event"",""trial"",""time""
""fullscreenenter"",""0"",""3043""
","
","
","""event"",""trial"",""time""
""fullscreenenter"",""0"",""3043""
","
","null","<div style=""font-size:60px;"">+</div>","","null","fixation","2021-04-12 15:10:05.206","","","","",""
"","mars-trial","142","223183","0.0-10.0-1.63","859","""event"",""trial"",""time""
""fullscreenenter"",""0"",""3043""
","
","
","""event"",""trial"",""time""
""fullscreenenter"",""0"",""3043""
","
","853.3800000004703","<img style='border: 4px solid darkgrey;' src='img/tf1_64_M_ss3.jpeg'></img>","3","","exp","","3","<img src='img/tf1_64_T1_ss3_md.jpeg'></img>","0","false",""
"","html-keyboard-response","143","223685","0.0-10.0-0.64","859","""event"",""trial"",""time""
""fullscreenenter"",""0"",""3043""
","
","
","""event"",""trial"",""time""
""fullscreenenter"",""0"",""3043""
","
","null","<div style=""font-size:60px;"">+</div>","","null","fixation","2021-04-12 15:10:07.169","","","","",""
"","mars-trial","144","225083","0.0-10.0-1.64","859","""event"",""trial"",""time""
""fullscreenenter"",""0"",""3043""
","
","
","""event"",""trial"",""time""
""fullscreenenter"",""0"",""3043""
","
","790.8900000038557","<img style='border: 4px solid darkgrey;' src='img/tf1_65_M_ss1.jpeg'></img>","1","","exp","","0","<img src='img/tf1_65_T1_ss1_md.jpeg'></img>","0","true",""
"","html-keyboard-response","145","225585","0.0-10.0-0.65","859","""event"",""trial"",""time""
""fullscreenenter"",""0"",""3043""
","
","
","""event"",""trial"",""time""
""fullscreenenter"",""0"",""3043""
","
","null","<div style=""font-size:60px;"">+</div>","","null","fixation","2021-04-12 15:10:09.069","","","","",""
"","mars-trial","146","226614","0.0-10.0-1.65","859","""event"",""trial"",""time""
""fullscreenenter"",""0"",""3043""
","
","
","""event"",""trial"",""time""
""fullscreenenter"",""0"",""3043""
","
","421.27500000060536","<img style='border: 4px solid darkgrey;' src='img/tf1_66_M_ss2.jpeg'></img>","2","","exp","","1","<img src='img/tf1_66_T1_ss2_md.jpeg'></img>","0","false",""
"","html-keyboard-response","147","227115","0.0-10.0-0.66","859","""event"",""trial"",""time""
""fullscreenenter"",""0"",""3043""
","
","
","""event"",""trial"",""time""
""fullscreenenter"",""0"",""3043""
","
","null","<div style=""font-size:60px;"">+</div>","","null","fixation","2021-04-12 15:10:10.599","","","","",""
"","mars-trial","148","228083","0.0-10.0-1.66","859","""event"",""trial"",""time""
""fullscreenenter"",""0"",""3043""
","
","
","""event"",""trial"",""time""
""fullscreenenter"",""0"",""3043""
","
","359.7650000010617","<img style='border: 4px solid darkgrey;' src='img/tf1_67_M_ss3.jpeg'></img>","1","","exp","","2","<img src='img/tf1_67_T1_ss3_md.jpeg'></img>","0","false",""
"","html-keyboard-response","149","228587","0.0-10.0-0.67","859","""event"",""trial"",""time""
""fullscreenenter"",""0"",""3043""
","
","
","""event"",""trial"",""time""
""fullscreenenter"",""0"",""3043""
","
","null","<div style=""font-size:60px;"">+</div>","","null","fixation","2021-04-12 15:10:12.071","","","","",""
"","mars-trial","150","229507","0.0-10.0-1.67","859","""event"",""trial"",""time""
""fullscreenenter"",""0"",""3043""
","
","
","""event"",""trial"",""time""
""fullscreenenter"",""0"",""3043""
","
","313.6049999957322","<img style='border: 4px solid darkgrey;' src='img/tf1_68_M_ss1.jpeg'></img>","0","","exp","","2","<img src='img/tf1_68_T1_ss1_md.jpeg'></img>","0","false",""
"","html-keyboard-response","151","230009","0.0-10.0-0.68","859","""event"",""trial"",""time""
""fullscreenenter"",""0"",""3043""
","
","
","""event"",""trial"",""time""
""fullscreenenter"",""0"",""3043""
","
","null","<div style=""font-size:60px;"">+</div>","","null","fixation","2021-04-12 15:10:13.493","","","","",""
"","mars-trial","152","231515","0.0-10.0-1.68","859","""event"",""trial"",""time""
""fullscreenenter"",""0"",""3043""
","
","
","""event"",""trial"",""time""
""fullscreenenter"",""0"",""3043""
","
","898.3149999985471","<img style='border: 4px solid darkgrey;' src='img/tf1_69_M_ss2.jpeg'></img>","2","","exp","","1","<img src='img/tf1_69_T1_ss2_md.jpeg'></img>","0","false",""
"","html-keyboard-response","153","232019","0.0-10.0-0.69","859","""event"",""trial"",""time""
""fullscreenenter"",""0"",""3043""
","
","
","""event"",""trial"",""time""
""fullscreenenter"",""0"",""3043""
","
","null","<div style=""font-size:60px;"">+</div>","","null","fixation","2021-04-12 15:10:15.503","","","","",""
"","mars-trial","154","232964","0.0-10.0-1.69","859","""event"",""trial"",""time""
""fullscreenenter"",""0"",""3043""
","
","
","""event"",""trial"",""time""
""fullscreenenter"",""0"",""3043""
","
","332.28000000235625","<img style='border: 4px solid darkgrey;' src='img/tf1_70_M_ss3.jpeg'></img>","2","","exp","","3","<img src='img/tf1_70_T1_ss3_md.jpeg'></img>","0","false",""
"","html-keyboard-response","155","233466","0.0-10.0-0.70","859","""event"",""trial"",""time""
""fullscreenenter"",""0"",""3043""
","
","
","""event"",""trial"",""time""
""fullscreenenter"",""0"",""3043""
","
","null","<div style=""font-size:60px;"">+</div>","","null","fixation","2021-04-12 15:10:16.950","","","","",""
"","mars-trial","156","234485","0.0-10.0-1.70","859","""event"",""trial"",""time""
""fullscreenenter"",""0"",""3043""
","
","
","""event"",""trial"",""time""
""fullscreenenter"",""0"",""3043""
","
","408.07499999937136","<img style='border: 4px solid darkgrey;' src='img/tf1_71_M_ss1.jpeg'></img>","2","","exp","","2","<img src='img/tf1_71_T1_ss1_md.jpeg'></img>","0","false",""
"","html-keyboard-response","157","234987","0.0-10.0-0.71","859","""event"",""trial"",""time""
""fullscreenenter"",""0"",""3043""
","
","
","""event"",""trial"",""time""
""fullscreenenter"",""0"",""3043""
","
","null","<div style=""font-size:60px;"">+</div>","","null","fixation","2021-04-12 15:10:18.471","","","","",""
"","mars-trial","158","236403","0.0-10.0-1.71","859","""event"",""trial"",""time""
""fullscreenenter"",""0"",""3043""
","
","
","""event"",""trial"",""time""
""fullscreenenter"",""0"",""3043""
","
","805.1649999979418","<img style='border: 4px solid darkgrey;' src='img/tf1_72_M_ss2.jpeg'></img>","2","","exp","","2","<img src='img/tf1_72_T1_ss2_md.jpeg'></img>","0","false",""
"","html-keyboard-response","159","236905","0.0-10.0-0.72","859","""event"",""trial"",""time""
""fullscreenenter"",""0"",""3043""
","
","
","""event"",""trial"",""time""
""fullscreenenter"",""0"",""3043""
","
","null","<div style=""font-size:60px;"">+</div>","","null","fixation","2021-04-12 15:10:20.390","","","","",""
"","mars-trial","160","237907","0.0-10.0-1.72","859","""event"",""trial"",""time""
""fullscreenenter"",""0"",""3043""
","
","
","""event"",""trial"",""time""
""fullscreenenter"",""0"",""3043""
","
","394.350000002305","<img style='border: 4px solid darkgrey;' src='img/tf1_73_M_ss3.jpeg'></img>","1","","exp","","3","<img src='img/tf1_73_T1_ss3_md.jpeg'></img>","0","false",""
"","html-keyboard-response","161","238411","0.0-10.0-0.73","859","""event"",""trial"",""time""
""fullscreenenter"",""0"",""3043""
","
","
","""event"",""trial"",""time""
""fullscreenenter"",""0"",""3043""
","
","null","<div style=""font-size:60px;"">+</div>","","null","fixation","2021-04-12 15:10:21.895","","","","",""
"","mars-trial","162","240226","0.0-10.0-1.73","859","""event"",""trial"",""time""
""fullscreenenter"",""0"",""3043""
","
","
","""event"",""trial"",""time""
""fullscreenenter"",""0"",""3043""
","
","1203.3799999990151","<img style='border: 4px solid darkgrey;' src='img/tf1_74_M_ss1.jpeg'></img>","2","","exp","","2","<img src='img/tf1_74_T1_ss1_md.jpeg'></img>","0","false",""
"","html-keyboard-response","163","240729","0.0-10.0-0.74","859","""event"",""trial"",""time""
""fullscreenenter"",""0"",""3043""
","
","
","""event"",""trial"",""time""
""fullscreenenter"",""0"",""3043""
","
","null","<div style=""font-size:60px;"">+</div>","","null","fixation","2021-04-12 15:10:24.213","","","","",""
"","mars-trial","164","243921","0.0-10.0-1.74","859","""event"",""trial"",""time""
""fullscreenenter"",""0"",""3043""
","
","
","""event"",""trial"",""time""
""fullscreenenter"",""0"",""3043""
","
","2582.109999995737","<img style='border: 4px solid darkgrey;' src='img/tf1_75_M_ss2.jpeg'></img>","1","","exp","","0","<img src='img/tf1_75_T1_ss2_md.jpeg'></img>","0","true",""
"","html-keyboard-response","165","244424","0.0-10.0-0.75","859","""event"",""trial"",""time""
""fullscreenenter"",""0"",""3043""
","
","
","""event"",""trial"",""time""
""fullscreenenter"",""0"",""3043""
","
","null","<div style=""font-size:60px;"">+</div>","","null","fixation","2021-04-12 15:10:27.908","","","","",""
"","mars-trial","166","245797","0.0-10.0-1.75","859","""event"",""trial"",""time""
""fullscreenenter"",""0"",""3043""
","
","
","""event"",""trial"",""time""
""fullscreenenter"",""0"",""3043""
","
","766.8999999950756","<img style='border: 4px solid darkgrey;' src='img/tf1_76_M_ss3.jpeg'></img>","1","","exp","","1","<img src='img/tf1_76_T1_ss3_md.jpeg'></img>","0","false",""
"","html-keyboard-response","167","246302","0.0-10.0-0.76","859","""event"",""trial"",""time""
""fullscreenenter"",""0"",""3043""
","
","
","""event"",""trial"",""time""
""fullscreenenter"",""0"",""3043""
","
","null","<div style=""font-size:60px;"">+</div>","","null","fixation","2021-04-12 15:10:29.786","","","","",""
"","mars-trial","168","247342","0.0-10.0-1.76","859","""event"",""trial"",""time""
""fullscreenenter"",""0"",""3043""
","
","
","""event"",""trial"",""time""
""fullscreenenter"",""0"",""3043""
","
","431.7750000045635","<img style='border: 4px solid darkgrey;' src='img/tf1_77_M_ss1.jpeg'></img>","2","","exp","","3","<img src='img/tf1_77_T1_ss1_md.jpeg'></img>","0","false",""
"","html-keyboard-response","169","247844","0.0-10.0-0.77","859","""event"",""trial"",""time""
""fullscreenenter"",""0"",""3043""
","
","
","""event"",""trial"",""time""
""fullscreenenter"",""0"",""3043""
","
","null","<div style=""font-size:60px;"">+</div>","","null","fixation","2021-04-12 15:10:31.328","","","","",""
"","mars-trial","170","249803","0.0-10.0-1.77","859","""event"",""trial"",""time""
""fullscreenenter"",""0"",""3043""
","
","
","""event"",""trial"",""time""
""fullscreenenter"",""0"",""3043""
","
","1351.699999999255","<img style='border: 4px solid darkgrey;' src='img/tf1_78_M_ss2.jpeg'></img>","1","","exp","","1","<img src='img/tf1_78_T1_ss2_md.jpeg'></img>","0","false",""
"","html-keyboard-response","171","250306","0.0-10.0-0.78","859","""event"",""trial"",""time""
""fullscreenenter"",""0"",""3043""
","
","
","""event"",""trial"",""time""
""fullscreenenter"",""0"",""3043""
","
","null","<div style=""font-size:60px;"">+</div>","","null","fixation","2021-04-12 15:10:33.790","","","","",""
"","mars-trial","172","251709","0.0-10.0-1.78","859","""event"",""trial"",""time""
""fullscreenenter"",""0"",""3043""
","
","
","""event"",""trial"",""time""
""fullscreenenter"",""0"",""3043""
","
","790.949999995064","<img style='border: 4px solid darkgrey;' src='img/tf1_79_M_ss3.jpeg'></img>","1","","exp","","1","<img src='img/tf1_79_T1_ss3_md.jpeg'></img>","0","false",""
"","html-keyboard-response","173","252212","0.0-10.0-0.79","859","""event"",""trial"",""time""
""fullscreenenter"",""0"",""3043""
","
","
","""event"",""trial"",""time""
""fullscreenenter"",""0"",""3043""
","
","null","<div style=""font-size:60px;"">+</div>","","null","fixation","2021-04-12 15:10:35.696","","","","",""
"","mars-trial","174","253611","0.0-10.0-1.79","859","""event"",""trial"",""time""
""fullscreenenter"",""0"",""3043""
","
","
","""event"",""trial"",""time""
""fullscreenenter"",""0"",""3043""
","
","793.4099999984028","<img style='border: 4px solid darkgrey;' src='img/tf1_80_M_ss1.jpeg'></img>","2","","exp","","1","<img src='img/tf1_80_T1_ss1_md.jpeg'></img>","0","false",""
"","audio-button-response","175","256379","0.0-11.0","859","""event"",""trial"",""time""
""fullscreenenter"",""0"",""3043""
","
","
","""event"",""trial"",""time""
""fullscreenenter"",""0"",""3043""
","
","2765.7800000015413","audio/mars_instructions_slide5.wav","0","","","","","","","",""
