"success","trial_type","trial_index","time_elapsed","internal_node_id","subject_id","interactions","blur_events","focus_events","fullscreenenter_events","fullscreenexit_events","rt","stimulus","button_pressed","key_press","part","timestamp","unshuffled_button","correct_response","correct_button","correct","value"
"true","fullscreen","0","30263","0.0-0.0","A1068","""event"",""trial"",""time""
""fullscreenenter"",""0"",""29361""
","
","
","""event"",""trial"",""time""
""fullscreenenter"",""0"",""29361""
","
","","","","","","","","","","",""
"","pavlovia","1","30269","0.0-1.0","A1068","""event"",""trial"",""time""
""fullscreenenter"",""0"",""29361""
","
","
","""event"",""trial"",""time""
""fullscreenenter"",""0"",""29361""
","
","","","","","","","","","","",""
"","html-button-response","2","31270","0.0-2.0","A1068","""event"",""trial"",""time""
""fullscreenenter"",""0"",""29361""
","
","
","""event"",""trial"",""time""
""fullscreenenter"",""0"",""29361""
","
","1000.3750000614673","<p>Welcome! Press START to begin.</p><br>","0","","","","","","","",""
"","audio-button-response","3","45674","0.0-3.0","A1068","""event"",""trial"",""time""
""fullscreenenter"",""0"",""29361""
","
","
","""event"",""trial"",""time""
""fullscreenenter"",""0"",""29361""
","
","14399.255000054836","audio/mars_instructions_slide2.wav","0","","","","","","","",""
"","audio-button-response","4","48108","0.0-4.0","A1068","""event"",""trial"",""time""
""fullscreenenter"",""0"",""29361""
","
","
","""event"",""trial"",""time""
""fullscreenenter"",""0"",""29361""
","
","2433.004999998957","audio/mars_instructions_slide3.wav","0","","","","","","","",""
"","html-keyboard-response","5","48614","0.0-5.0-0.0","A1068","""event"",""trial"",""time""
""fullscreenenter"",""0"",""29361""
","
","
","""event"",""trial"",""time""
""fullscreenenter"",""0"",""29361""
","
","null","<div style=""font-size:60px;"">+</div>","","null","fixation","2021-04-01 09:45:55.218","","","","",""
"","mars-trial","6","57451","0.0-5.0-1.0","A1068","""event"",""trial"",""time""
""fullscreenenter"",""0"",""29361""
","
","
","""event"",""trial"",""time""
""fullscreenenter"",""0"",""29361""
","
","6722.480000113137","<img style='border: 4px solid darkgrey;' src='practice/pt1_M1.png'></img>","3","","practice","","0","<img src='practice/pt1_T1.png'></img>","0","true",""
"","html-keyboard-response","7","57955","0.0-6.0-0.0","A1068","""event"",""trial"",""time""
""fullscreenenter"",""0"",""29361""
","
","
","""event"",""trial"",""time""
""fullscreenenter"",""0"",""29361""
","
","null","<div style=""font-size:60px;"">+</div>","","null","fixation","2021-04-01 09:46:04.559","","","","",""
"","mars-trial","8","62186","0.0-6.0-1.0","A1068","""event"",""trial"",""time""
""fullscreenenter"",""0"",""29361""
","
","
","""event"",""trial"",""time""
""fullscreenenter"",""0"",""29361""
","
","2117.4499999033287","<img style='border: 4px solid darkgrey;' src='practice/pt2_M1.png'></img>","3","","practice","","0","<img src='practice/pt2_T1.png'></img>","0","true",""
"","html-keyboard-response","9","62688","0.0-7.0-0.0","A1068","""event"",""trial"",""time""
""fullscreenenter"",""0"",""29361""
","
","
","""event"",""trial"",""time""
""fullscreenenter"",""0"",""29361""
","
","null","<div style=""font-size:60px;"">+</div>","","null","fixation","2021-04-01 09:46:09.292","","","","",""
"","mars-trial","10","66025","0.0-7.0-1.0","A1068","""event"",""trial"",""time""
""fullscreenenter"",""0"",""29361""
","
","
","""event"",""trial"",""time""
""fullscreenenter"",""0"",""29361""
","
","1225.6550000747666","<img style='border: 4px solid darkgrey;' src='practice/pt3_M1.png'></img>","3","","practice","","0","<img src='practice/pt3_T1.png'></img>","0","true",""
"","audio-button-response","11","70058","0.0-8.0","A1068","""event"",""trial"",""time""
""fullscreenenter"",""0"",""29361""
","
","
","""event"",""trial"",""time""
""fullscreenenter"",""0"",""29361""
","
","4030.7299999985844","audio/mars_instructions_slide4.wav","0","","","","","","","",""
"","call-function","12","70059","0.0-9.0","A1068","""event"",""trial"",""time""
""fullscreenenter"",""0"",""29361""
","
","
","""event"",""trial"",""time""
""fullscreenenter"",""0"",""29361""
","
","","","","","","","","","","",""
"","html-keyboard-response","13","70560","0.0-10.0-0.0","A1068","""event"",""trial"",""time""
""fullscreenenter"",""0"",""29361""
","
","
","""event"",""trial"",""time""
""fullscreenenter"",""0"",""29361""
","
","null","<div style=""font-size:60px;"">+</div>","","null","fixation","2021-04-01 09:46:17.164","","","","",""
"","mars-trial","14","72579","0.0-10.0-1.0","A1068","""event"",""trial"",""time""
""fullscreenenter"",""0"",""29361""
","
","
","""event"",""trial"",""time""
""fullscreenenter"",""0"",""29361""
","
","1408.3450000034645","<img style='border: 4px solid darkgrey;' src='img/tf1_1_M_ss3.jpeg'></img>","2","","exp","","0","<img src='img/tf1_1_T1_ss3_md.jpeg'></img>","0","true",""
"","html-keyboard-response","15","73085","0.0-10.0-0.1","A1068","""event"",""trial"",""time""
""fullscreenenter"",""0"",""29361""
","
","
","""event"",""trial"",""time""
""fullscreenenter"",""0"",""29361""
","
","null","<div style=""font-size:60px;"">+</div>","","null","fixation","2021-04-01 09:46:19.689","","","","",""
"","mars-trial","16","76432","0.0-10.0-1.1","A1068","""event"",""trial"",""time""
""fullscreenenter"",""0"",""29361""
","
","
","""event"",""trial"",""time""
""fullscreenenter"",""0"",""29361""
","
","2735.1749999215826","<img style='border: 4px solid darkgrey;' src='img/tf1_2_M_ss1.jpeg'></img>","2","","exp","","0","<img src='img/tf1_2_T1_ss1_md.jpeg'></img>","0","true",""
"","html-keyboard-response","17","76936","0.0-10.0-0.2","A1068","""event"",""trial"",""time""
""fullscreenenter"",""0"",""29361""
","
","
","""event"",""trial"",""time""
""fullscreenenter"",""0"",""29361""
","
","null","<div style=""font-size:60px;"">+</div>","","null","fixation","2021-04-01 09:46:23.540","","","","",""
"","mars-trial","18","79524","0.0-10.0-1.2","A1068","""event"",""trial"",""time""
""fullscreenenter"",""0"",""29361""
","
","
","""event"",""trial"",""time""
""fullscreenenter"",""0"",""29361""
","
","1979.2550000129268","<img style='border: 4px solid darkgrey;' src='img/tf1_3_M_ss2.jpeg'></img>","2","","exp","","0","<img src='img/tf1_3_T1_ss2_md.jpeg'></img>","0","true",""
"","html-keyboard-response","19","80026","0.0-10.0-0.3","A1068","""event"",""trial"",""time""
""fullscreenenter"",""0"",""29361""
","
","
","""event"",""trial"",""time""
""fullscreenenter"",""0"",""29361""
","
","null","<div style=""font-size:60px;"">+</div>","","null","fixation","2021-04-01 09:46:26.630","","","","",""
"","mars-trial","20","83895","0.0-10.0-1.3","A1068","""event"",""trial"",""time""
""fullscreenenter"",""0"",""29361""
","
","
","""event"",""trial"",""time""
""fullscreenenter"",""0"",""29361""
","
","3259.874999988824","<img style='border: 4px solid darkgrey;' src='img/tf1_4_M_ss3.jpeg'></img>","1","","exp","","0","<img src='img/tf1_4_T1_ss3_md.jpeg'></img>","0","true",""
"","html-keyboard-response","21","84397","0.0-10.0-0.4","A1068","""event"",""trial"",""time""
""fullscreenenter"",""0"",""29361""
","
","
","""event"",""trial"",""time""
""fullscreenenter"",""0"",""29361""
","
","null","<div style=""font-size:60px;"">+</div>","","null","fixation","2021-04-01 09:46:31.002","","","","",""
"","mars-trial","22","86124","0.0-10.0-1.4","A1068","""event"",""trial"",""time""
""fullscreenenter"",""0"",""29361""
","
","
","""event"",""trial"",""time""
""fullscreenenter"",""0"",""29361""
","
","1121.3050000369549","<img style='border: 4px solid darkgrey;' src='img/tf1_5_M_ss1.jpeg'></img>","2","","exp","","0","<img src='img/tf1_5_T1_ss1_md.jpeg'></img>","0","true",""
"","html-keyboard-response","23","86630","0.0-10.0-0.5","A1068","""event"",""trial"",""time""
""fullscreenenter"",""0"",""29361""
","
","
","""event"",""trial"",""time""
""fullscreenenter"",""0"",""29361""
","
","null","<div style=""font-size:60px;"">+</div>","","null","fixation","2021-04-01 09:46:33.234","","","","",""
"","mars-trial","24","93030","0.0-10.0-1.5","A1068","""event"",""trial"",""time""
""fullscreenenter"",""0"",""29361""
","
","
","""event"",""trial"",""time""
""fullscreenenter"",""0"",""29361""
","
","5787.49500005506","<img style='border: 4px solid darkgrey;' src='img/tf1_6_M_ss2.jpeg'></img>","2","","exp","","3","<img src='img/tf1_6_T1_ss2_md.jpeg'></img>","0","false",""
"","html-keyboard-response","25","93534","0.0-10.0-0.6","A1068","""event"",""trial"",""time""
""fullscreenenter"",""0"",""29361""
","
","
","""event"",""trial"",""time""
""fullscreenenter"",""0"",""29361""
","
","null","<div style=""font-size:60px;"">+</div>","","null","fixation","2021-04-01 09:46:40.138","","","","",""
"","mars-trial","26","96571","0.0-10.0-1.6","A1068","""event"",""trial"",""time""
""fullscreenenter"",""0"",""29361""
","
","
","""event"",""trial"",""time""
""fullscreenenter"",""0"",""29361""
","
","2427.7550000697374","<img style='border: 4px solid darkgrey;' src='img/tf1_7_M_ss3.jpeg'></img>","3","","exp","","0","<img src='img/tf1_7_T1_ss3_md.jpeg'></img>","0","true",""
"","html-keyboard-response","27","97076","0.0-10.0-0.7","A1068","""event"",""trial"",""time""
""fullscreenenter"",""0"",""29361""
","
","
","""event"",""trial"",""time""
""fullscreenenter"",""0"",""29361""
","
","null","<div style=""font-size:60px;"">+</div>","","null","fixation","2021-04-01 09:46:43.680","","","","",""
"","mars-trial","28","103002","0.0-10.0-1.7","A1068","""event"",""trial"",""time""
""fullscreenenter"",""0"",""29361""
","
","
","""event"",""trial"",""time""
""fullscreenenter"",""0"",""29361""
","
","5316.455000080168","<img style='border: 4px solid darkgrey;' src='img/tf1_8_M_ss1.jpeg'></img>","0","","exp","","0","<img src='img/tf1_8_T1_ss1_md.jpeg'></img>","0","true",""
"","html-keyboard-response","29","103508","0.0-10.0-0.8","A1068","""event"",""trial"",""time""
""fullscreenenter"",""0"",""29361""
","
","
","""event"",""trial"",""time""
""fullscreenenter"",""0"",""29361""
","
","null","<div style=""font-size:60px;"">+</div>","","null","fixation","2021-04-01 09:46:50.112","","","","",""
"","mars-trial","30","105146","0.0-10.0-1.8","A1068","""event"",""trial"",""time""
""fullscreenenter"",""0"",""29361""
","
","
","""event"",""trial"",""time""
""fullscreenenter"",""0"",""29361""
","
","1033.7100001052022","<img style='border: 4px solid darkgrey;' src='img/tf1_9_M_ss2.jpeg'></img>","2","","exp","","3","<img src='img/tf1_9_T1_ss2_md.jpeg'></img>","0","false",""
"","html-keyboard-response","31","105652","0.0-10.0-0.9","A1068","""event"",""trial"",""time""
""fullscreenenter"",""0"",""29361""
","
","
","""event"",""trial"",""time""
""fullscreenenter"",""0"",""29361""
","
","null","<div style=""font-size:60px;"">+</div>","","null","fixation","2021-04-01 09:46:52.256","","","","",""
"","mars-trial","32","119554","0.0-10.0-1.9","A1068","""event"",""trial"",""time""
""fullscreenenter"",""0"",""29361""
","
","
","""event"",""trial"",""time""
""fullscreenenter"",""0"",""29361""
","
","13292.870000004768","<img style='border: 4px solid darkgrey;' src='img/tf1_10_M_ss3.jpeg'></img>","3","","exp","","3","<img src='img/tf1_10_T1_ss3_md.jpeg'></img>","0","false",""
"","html-keyboard-response","33","120061","0.0-10.0-0.10","A1068","""event"",""trial"",""time""
""fullscreenenter"",""0"",""29361""
","
","
","""event"",""trial"",""time""
""fullscreenenter"",""0"",""29361""
","
","null","<div style=""font-size:60px;"">+</div>","","null","fixation","2021-04-01 09:47:06.665","","","","",""
"","mars-trial","34","122966","0.0-10.0-1.10","A1068","""event"",""trial"",""time""
""fullscreenenter"",""0"",""29361""
","
","
","""event"",""trial"",""time""
""fullscreenenter"",""0"",""29361""
","
","2299.6099999872968","<img style='border: 4px solid darkgrey;' src='img/tf1_11_M_ss1.jpeg'></img>","0","","exp","","0","<img src='img/tf1_11_T1_ss1_md.jpeg'></img>","0","true",""
"","html-keyboard-response","35","123468","0.0-10.0-0.11","A1068","""event"",""trial"",""time""
""fullscreenenter"",""0"",""29361""
","
","
","""event"",""trial"",""time""
""fullscreenenter"",""0"",""29361""
","
","null","<div style=""font-size:60px;"">+</div>","","null","fixation","2021-04-01 09:47:10.072","","","","",""
"","mars-trial","36","127634","0.0-10.0-1.11","A1068","""event"",""trial"",""time""
""fullscreenenter"",""0"",""29361""
","
","
","""event"",""trial"",""time""
""fullscreenenter"",""0"",""29361""
","
","3560.414999956265","<img style='border: 4px solid darkgrey;' src='img/tf1_12_M_ss2.jpeg'></img>","2","","exp","","2","<img src='img/tf1_12_T1_ss2_md.jpeg'></img>","0","false",""
"","html-keyboard-response","37","128136","0.0-10.0-0.12","A1068","""event"",""trial"",""time""
""fullscreenenter"",""0"",""29361""
","
","
","""event"",""trial"",""time""
""fullscreenenter"",""0"",""29361""
","
","null","<div style=""font-size:60px;"">+</div>","","null","fixation","2021-04-01 09:47:14.740","","","","",""
"","mars-trial","38","129463","0.0-10.0-1.12","A1068","""event"",""trial"",""time""
""fullscreenenter"",""0"",""29361""
","
","
","""event"",""trial"",""time""
""fullscreenenter"",""0"",""29361""
","
","719.3100000731647","<img style='border: 4px solid darkgrey;' src='img/tf1_13_M_ss3.jpeg'></img>","1","","exp","","1","<img src='img/tf1_13_T1_ss3_md.jpeg'></img>","0","false",""
"","html-keyboard-response","39","129965","0.0-10.0-0.13","A1068","""event"",""trial"",""time""
""fullscreenenter"",""0"",""29361""
","
","
","""event"",""trial"",""time""
""fullscreenenter"",""0"",""29361""
","
","null","<div style=""font-size:60px;"">+</div>","","null","fixation","2021-04-01 09:47:16.569","","","","",""
"","mars-trial","40","131253","0.0-10.0-1.13","A1068","""event"",""trial"",""time""
""fullscreenenter"",""0"",""29361""
","
","
","""event"",""trial"",""time""
""fullscreenenter"",""0"",""29361""
","
","680.8149999706075","<img style='border: 4px solid darkgrey;' src='img/tf1_14_M_ss1.jpeg'></img>","0","","exp","","0","<img src='img/tf1_14_T1_ss1_md.jpeg'></img>","0","true",""
"","html-keyboard-response","41","131757","0.0-10.0-0.14","A1068","""event"",""trial"",""time""
""fullscreenenter"",""0"",""29361""
","
","
","""event"",""trial"",""time""
""fullscreenenter"",""0"",""29361""
","
","null","<div style=""font-size:60px;"">+</div>","","null","fixation","2021-04-01 09:47:18.361","","","","",""
"","mars-trial","42","133330","0.0-10.0-1.14","A1068","""event"",""trial"",""time""
""fullscreenenter"",""0"",""29361""
","
","
","""event"",""trial"",""time""
""fullscreenenter"",""0"",""29361""
","
","963.8150000246242","<img style='border: 4px solid darkgrey;' src='img/tf1_15_M_ss2.jpeg'></img>","3","","exp","","2","<img src='img/tf1_15_T1_ss2_md.jpeg'></img>","0","false",""
"","html-keyboard-response","43","133831","0.0-10.0-0.15","A1068","""event"",""trial"",""time""
""fullscreenenter"",""0"",""29361""
","
","
","""event"",""trial"",""time""
""fullscreenenter"",""0"",""29361""
","
","null","<div style=""font-size:60px;"">+</div>","","null","fixation","2021-04-01 09:47:20.435","","","","",""
"","mars-trial","44","135003","0.0-10.0-1.15","A1068","""event"",""trial"",""time""
""fullscreenenter"",""0"",""29361""
","
","
","""event"",""trial"",""time""
""fullscreenenter"",""0"",""29361""
","
","567.354999948293","<img style='border: 4px solid darkgrey;' src='img/tf1_16_M_ss3.jpeg'></img>","3","","exp","","2","<img src='img/tf1_16_T1_ss3_md.jpeg'></img>","0","false",""
"","html-keyboard-response","45","135506","0.0-10.0-0.16","A1068","""event"",""trial"",""time""
""fullscreenenter"",""0"",""29361""
","
","
","""event"",""trial"",""time""
""fullscreenenter"",""0"",""29361""
","
","null","<div style=""font-size:60px;"">+</div>","","null","fixation","2021-04-01 09:47:22.110","","","","",""
"","mars-trial","46","136577","0.0-10.0-1.16","A1068","""event"",""trial"",""time""
""fullscreenenter"",""0"",""29361""
","
","
","""event"",""trial"",""time""
""fullscreenenter"",""0"",""29361""
","
","465.02000000327826","<img style='border: 4px solid darkgrey;' src='img/tf1_17_M_ss1.jpeg'></img>","2","","exp","","2","<img src='img/tf1_17_T1_ss1_md.jpeg'></img>","0","false",""
"","html-keyboard-response","47","137078","0.0-10.0-0.17","A1068","""event"",""trial"",""time""
""fullscreenenter"",""0"",""29361""
","
","
","""event"",""trial"",""time""
""fullscreenenter"",""0"",""29361""
","
","null","<div style=""font-size:60px;"">+</div>","","null","fixation","2021-04-01 09:47:23.682","","","","",""
"","mars-trial","48","139769","0.0-10.0-1.17","A1068","""event"",""trial"",""time""
""fullscreenenter"",""0"",""29361""
","
","
","""event"",""trial"",""time""
""fullscreenenter"",""0"",""29361""
","
","2085.399999981746","<img style='border: 4px solid darkgrey;' src='img/tf1_18_M_ss2.jpeg'></img>","1","","exp","","0","<img src='img/tf1_18_T1_ss2_md.jpeg'></img>","0","true",""
"","html-keyboard-response","49","140272","0.0-10.0-0.18","A1068","""event"",""trial"",""time""
""fullscreenenter"",""0"",""29361""
","
","
","""event"",""trial"",""time""
""fullscreenenter"",""0"",""29361""
","
","null","<div style=""font-size:60px;"">+</div>","","null","fixation","2021-04-01 09:47:26.877","","","","",""
"","mars-trial","50","141674","0.0-10.0-1.18","A1068","""event"",""trial"",""time""
""fullscreenenter"",""0"",""29361""
","
","
","""event"",""trial"",""time""
""fullscreenenter"",""0"",""29361""
","
","793.5050000669435","<img style='border: 4px solid darkgrey;' src='img/tf1_19_M_ss3.jpeg'></img>","1","","exp","","2","<img src='img/tf1_19_T1_ss3_md.jpeg'></img>","0","false",""
"","html-keyboard-response","51","142177","0.0-10.0-0.19","A1068","""event"",""trial"",""time""
""fullscreenenter"",""0"",""29361""
","
","
","""event"",""trial"",""time""
""fullscreenenter"",""0"",""29361""
","
","null","<div style=""font-size:60px;"">+</div>","","null","fixation","2021-04-01 09:47:28.781","","","","",""
"","mars-trial","52","143392","0.0-10.0-1.19","A1068","""event"",""trial"",""time""
""fullscreenenter"",""0"",""29361""
","
","
","""event"",""trial"",""time""
""fullscreenenter"",""0"",""29361""
","
","610.964999999851","<img style='border: 4px solid darkgrey;' src='img/tf1_20_M_ss1.jpeg'></img>","2","","exp","","2","<img src='img/tf1_20_T1_ss1_md.jpeg'></img>","0","false",""
"","html-keyboard-response","53","143894","0.0-10.0-0.20","A1068","""event"",""trial"",""time""
""fullscreenenter"",""0"",""29361""
","
","
","""event"",""trial"",""time""
""fullscreenenter"",""0"",""29361""
","
","null","<div style=""font-size:60px;"">+</div>","","null","fixation","2021-04-01 09:47:30.498","","","","",""
"","mars-trial","54","145272","0.0-10.0-1.20","A1068","""event"",""trial"",""time""
""fullscreenenter"",""0"",""29361""
","
","
","""event"",""trial"",""time""
""fullscreenenter"",""0"",""29361""
","
","771.7749999137595","<img style='border: 4px solid darkgrey;' src='img/tf1_21_M_ss2.jpeg'></img>","1","","exp","","0","<img src='img/tf1_21_T1_ss2_md.jpeg'></img>","0","true",""
"","html-keyboard-response","55","145778","0.0-10.0-0.21","A1068","""event"",""trial"",""time""
""fullscreenenter"",""0"",""29361""
","
","
","""event"",""trial"",""time""
""fullscreenenter"",""0"",""29361""
","
","null","<div style=""font-size:60px;"">+</div>","","null","fixation","2021-04-01 09:47:32.382","","","","",""
"","mars-trial","56","150811","0.0-10.0-1.21","A1068","""event"",""trial"",""time""
""fullscreenenter"",""0"",""29361""
","
","
","""event"",""trial"",""time""
""fullscreenenter"",""0"",""29361""
","
","4424.895000061952","<img style='border: 4px solid darkgrey;' src='img/tf1_22_M_ss3.jpeg'></img>","2","","exp","","0","<img src='img/tf1_22_T1_ss3_md.jpeg'></img>","0","true",""
"","html-keyboard-response","57","151316","0.0-10.0-0.22","A1068","""event"",""trial"",""time""
""fullscreenenter"",""0"",""29361""
","
","
","""event"",""trial"",""time""
""fullscreenenter"",""0"",""29361""
","
","null","<div style=""font-size:60px;"">+</div>","","null","fixation","2021-04-01 09:47:37.920","","","","",""
"","mars-trial","58","153219","0.0-10.0-1.22","A1068","""event"",""trial"",""time""
""fullscreenenter"",""0"",""29361""
","
","
","""event"",""trial"",""time""
""fullscreenenter"",""0"",""29361""
","
","1293.3350000530481","<img style='border: 4px solid darkgrey;' src='img/tf1_23_M_ss1.jpeg'></img>","2","","exp","","3","<img src='img/tf1_23_T1_ss1_md.jpeg'></img>","0","false",""
"","html-keyboard-response","59","153721","0.0-10.0-0.23","A1068","""event"",""trial"",""time""
""fullscreenenter"",""0"",""29361""
","
","
","""event"",""trial"",""time""
""fullscreenenter"",""0"",""29361""
","
","null","<div style=""font-size:60px;"">+</div>","","null","fixation","2021-04-01 09:47:40.325","","","","",""
"","mars-trial","60","154741","0.0-10.0-1.23","A1068","""event"",""trial"",""time""
""fullscreenenter"",""0"",""29361""
","
","
","""event"",""trial"",""time""
""fullscreenenter"",""0"",""29361""
","
","415.1449999772012","<img style='border: 4px solid darkgrey;' src='img/tf1_24_M_ss2.jpeg'></img>","1","","exp","","3","<img src='img/tf1_24_T1_ss2_md.jpeg'></img>","0","false",""
"","html-keyboard-response","61","155247","0.0-10.0-0.24","A1068","""event"",""trial"",""time""
""fullscreenenter"",""0"",""29361""
","
","
","""event"",""trial"",""time""
""fullscreenenter"",""0"",""29361""
","
","null","<div style=""font-size:60px;"">+</div>","","null","fixation","2021-04-01 09:47:41.851","","","","",""
"","mars-trial","62","158903","0.0-10.0-1.24","A1068","""event"",""trial"",""time""
""fullscreenenter"",""0"",""29361""
","
","
","""event"",""trial"",""time""
""fullscreenenter"",""0"",""29361""
","
","3042.7599999820814","<img style='border: 4px solid darkgrey;' src='img/tf1_25_M_ss3.jpeg'></img>","2","","exp","","2","<img src='img/tf1_25_T1_ss3_md.jpeg'></img>","0","false",""
"","html-keyboard-response","63","159406","0.0-10.0-0.25","A1068","""event"",""trial"",""time""
""fullscreenenter"",""0"",""29361""
","
","
","""event"",""trial"",""time""
""fullscreenenter"",""0"",""29361""
","
","null","<div style=""font-size:60px;"">+</div>","","null","fixation","2021-04-01 09:47:46.010","","","","",""
"","mars-trial","64","160615","0.0-10.0-1.25","A1068","""event"",""trial"",""time""
""fullscreenenter"",""0"",""29361""
","
","
","""event"",""trial"",""time""
""fullscreenenter"",""0"",""29361""
","
","601.9050000468269","<img style='border: 4px solid darkgrey;' src='img/tf1_26_M_ss1.jpeg'></img>","1","","exp","","3","<img src='img/tf1_26_T1_ss1_md.jpeg'></img>","0","false",""
"","html-keyboard-response","65","161116","0.0-10.0-0.26","A1068","""event"",""trial"",""time""
""fullscreenenter"",""0"",""29361""
","
","
","""event"",""trial"",""time""
""fullscreenenter"",""0"",""29361""
","
","null","<div style=""font-size:60px;"">+</div>","","null","fixation","2021-04-01 09:47:47.720","","","","",""
"","mars-trial","66","162172","0.0-10.0-1.26","A1068","""event"",""trial"",""time""
""fullscreenenter"",""0"",""29361""
","
","
","""event"",""trial"",""time""
""fullscreenenter"",""0"",""29361""
","
","448.19000002462417","<img style='border: 4px solid darkgrey;' src='img/tf1_27_M_ss2.jpeg'></img>","0","","exp","","3","<img src='img/tf1_27_T1_ss2_md.jpeg'></img>","0","false",""
"","html-keyboard-response","67","162673","0.0-10.0-0.27","A1068","""event"",""trial"",""time""
""fullscreenenter"",""0"",""29361""
","
","
","""event"",""trial"",""time""
""fullscreenenter"",""0"",""29361""
","
","null","<div style=""font-size:60px;"">+</div>","","null","fixation","2021-04-01 09:47:49.277","","","","",""
"","mars-trial","68","163718","0.0-10.0-1.27","A1068","""event"",""trial"",""time""
""fullscreenenter"",""0"",""29361""
","
","
","""event"",""trial"",""time""
""fullscreenenter"",""0"",""29361""
","
","438.1099999882281","<img style='border: 4px solid darkgrey;' src='img/tf1_28_M_ss3.jpeg'></img>","1","","exp","","0","<img src='img/tf1_28_T1_ss3_md.jpeg'></img>","0","true",""
"","html-keyboard-response","69","164219","0.0-10.0-0.28","A1068","""event"",""trial"",""time""
""fullscreenenter"",""0"",""29361""
","
","
","""event"",""trial"",""time""
""fullscreenenter"",""0"",""29361""
","
","null","<div style=""font-size:60px;"">+</div>","","null","fixation","2021-04-01 09:47:50.823","","","","",""
"","mars-trial","70","165213","0.0-10.0-1.28","A1068","""event"",""trial"",""time""
""fullscreenenter"",""0"",""29361""
","
","
","""event"",""trial"",""time""
""fullscreenenter"",""0"",""29361""
","
","389.6599999861792","<img style='border: 4px solid darkgrey;' src='img/tf1_29_M_ss1.jpeg'></img>","2","","exp","","2","<img src='img/tf1_29_T1_ss1_md.jpeg'></img>","0","false",""
"","html-keyboard-response","71","165716","0.0-10.0-0.29","A1068","""event"",""trial"",""time""
""fullscreenenter"",""0"",""29361""
","
","
","""event"",""trial"",""time""
""fullscreenenter"",""0"",""29361""
","
","null","<div style=""font-size:60px;"">+</div>","","null","fixation","2021-04-01 09:47:52.320","","","","",""
"","mars-trial","72","166627","0.0-10.0-1.29","A1068","""event"",""trial"",""time""
""fullscreenenter"",""0"",""29361""
","
","
","""event"",""trial"",""time""
""fullscreenenter"",""0"",""29361""
","
","304.5299999648705","<img style='border: 4px solid darkgrey;' src='img/tf1_30_M_ss2.jpeg'></img>","1","","exp","","1","<img src='img/tf1_30_T1_ss2_md.jpeg'></img>","0","false",""
"","html-keyboard-response","73","167129","0.0-10.0-0.30","A1068","""event"",""trial"",""time""
""fullscreenenter"",""0"",""29361""
","
","
","""event"",""trial"",""time""
""fullscreenenter"",""0"",""29361""
","
","null","<div style=""font-size:60px;"">+</div>","","null","fixation","2021-04-01 09:47:53.733","","","","",""
"","mars-trial","74","168033","0.0-10.0-1.30","A1068","""event"",""trial"",""time""
""fullscreenenter"",""0"",""29361""
","
","
","""event"",""trial"",""time""
""fullscreenenter"",""0"",""29361""
","
","298.27000002842396","<img style='border: 4px solid darkgrey;' src='img/tf1_31_M_ss3.jpeg'></img>","3","","exp","","2","<img src='img/tf1_31_T1_ss3_md.jpeg'></img>","0","false",""
"","html-keyboard-response","75","168534","0.0-10.0-0.31","A1068","""event"",""trial"",""time""
""fullscreenenter"",""0"",""29361""
","
","
","""event"",""trial"",""time""
""fullscreenenter"",""0"",""29361""
","
","null","<div style=""font-size:60px;"">+</div>","","null","fixation","2021-04-01 09:47:55.138","","","","",""
"","mars-trial","76","170077","0.0-10.0-1.31","A1068","""event"",""trial"",""time""
""fullscreenenter"",""0"",""29361""
","
","
","""event"",""trial"",""time""
""fullscreenenter"",""0"",""29361""
","
","936.0400000587106","<img style='border: 4px solid darkgrey;' src='img/tf1_32_M_ss1.jpeg'></img>","3","","exp","","0","<img src='img/tf1_32_T1_ss1_md.jpeg'></img>","0","true",""
"","html-keyboard-response","77","170583","0.0-10.0-0.32","A1068","""event"",""trial"",""time""
""fullscreenenter"",""0"",""29361""
","
","
","""event"",""trial"",""time""
""fullscreenenter"",""0"",""29361""
","
","null","<div style=""font-size:60px;"">+</div>","","null","fixation","2021-04-01 09:47:57.187","","","","",""
"","mars-trial","78","171569","0.0-10.0-1.32","A1068","""event"",""trial"",""time""
""fullscreenenter"",""0"",""29361""
","
","
","""event"",""trial"",""time""
""fullscreenenter"",""0"",""29361""
","
","376.76499993540347","<img style='border: 4px solid darkgrey;' src='img/tf1_33_M_ss2.jpeg'></img>","3","","exp","","0","<img src='img/tf1_33_T1_ss2_md.jpeg'></img>","0","true",""
"","html-keyboard-response","79","172072","0.0-10.0-0.33","A1068","""event"",""trial"",""time""
""fullscreenenter"",""0"",""29361""
","
","
","""event"",""trial"",""time""
""fullscreenenter"",""0"",""29361""
","
","null","<div style=""font-size:60px;"">+</div>","","null","fixation","2021-04-01 09:47:58.676","","","","",""
"","mars-trial","80","173043","0.0-10.0-1.33","A1068","""event"",""trial"",""time""
""fullscreenenter"",""0"",""29361""
","
","
","""event"",""trial"",""time""
""fullscreenenter"",""0"",""29361""
","
","363.965000025928","<img style='border: 4px solid darkgrey;' src='img/tf1_34_M_ss3.jpeg'></img>","3","","exp","","0","<img src='img/tf1_34_T1_ss3_md.jpeg'></img>","0","true",""
"","html-keyboard-response","81","173549","0.0-10.0-0.34","A1068","""event"",""trial"",""time""
""fullscreenenter"",""0"",""29361""
","
","
","""event"",""trial"",""time""
""fullscreenenter"",""0"",""29361""
","
","null","<div style=""font-size:60px;"">+</div>","","null","fixation","2021-04-01 09:48:00.153","","","","",""
"","mars-trial","82","174399","0.0-10.0-1.34","A1068","""event"",""trial"",""time""
""fullscreenenter"",""0"",""29361""
","
","
","""event"",""trial"",""time""
""fullscreenenter"",""0"",""29361""
","
","242.09000007249415","<img style='border: 4px solid darkgrey;' src='img/tf1_35_M_ss1.jpeg'></img>","3","","exp","","3","<img src='img/tf1_35_T1_ss1_md.jpeg'></img>","0","false",""
"","html-keyboard-response","83","174902","0.0-10.0-0.35","A1068","""event"",""trial"",""time""
""fullscreenenter"",""0"",""29361""
","
","
","""event"",""trial"",""time""
""fullscreenenter"",""0"",""29361""
","
","null","<div style=""font-size:60px;"">+</div>","","null","fixation","2021-04-01 09:48:01.506","","","","",""
"","mars-trial","84","175936","0.0-10.0-1.35","A1068","""event"",""trial"",""time""
""fullscreenenter"",""0"",""29361""
","
","
","""event"",""trial"",""time""
""fullscreenenter"",""0"",""29361""
","
","420.53000000305474","<img style='border: 4px solid darkgrey;' src='img/tf1_36_M_ss2.jpeg'></img>","3","","exp","","2","<img src='img/tf1_36_T1_ss2_md.jpeg'></img>","0","false",""
"","html-keyboard-response","85","176437","0.0-10.0-0.36","A1068","""event"",""trial"",""time""
""fullscreenenter"",""0"",""29361""
","
","
","""event"",""trial"",""time""
""fullscreenenter"",""0"",""29361""
","
","null","<div style=""font-size:60px;"">+</div>","","null","fixation","2021-04-01 09:48:03.041","","","","",""
"","mars-trial","86","177302","0.0-10.0-1.36","A1068","""event"",""trial"",""time""
""fullscreenenter"",""0"",""29361""
","
","
","""event"",""trial"",""time""
""fullscreenenter"",""0"",""29361""
","
","257.1850001113489","<img style='border: 4px solid darkgrey;' src='img/tf1_37_M_ss3.jpeg'></img>","2","","exp","","3","<img src='img/tf1_37_T1_ss3_md.jpeg'></img>","0","false",""
"","html-keyboard-response","87","177803","0.0-10.0-0.37","A1068","""event"",""trial"",""time""
""fullscreenenter"",""0"",""29361""
","
","
","""event"",""trial"",""time""
""fullscreenenter"",""0"",""29361""
","
","null","<div style=""font-size:60px;"">+</div>","","null","fixation","2021-04-01 09:48:04.407","","","","",""
"","mars-trial","88","178618","0.0-10.0-1.37","A1068","""event"",""trial"",""time""
""fullscreenenter"",""0"",""29361""
","
","
","""event"",""trial"",""time""
""fullscreenenter"",""0"",""29361""
","
","211.3050000043586","<img style='border: 4px solid darkgrey;' src='img/tf1_38_M_ss1.jpeg'></img>","3","","exp","","1","<img src='img/tf1_38_T1_ss1_md.jpeg'></img>","0","false",""
"","html-keyboard-response","89","179120","0.0-10.0-0.38","A1068","""event"",""trial"",""time""
""fullscreenenter"",""0"",""29361""
","
","
","""event"",""trial"",""time""
""fullscreenenter"",""0"",""29361""
","
","null","<div style=""font-size:60px;"">+</div>","","null","fixation","2021-04-01 09:48:05.724","","","","",""
"","mars-trial","90","179945","0.0-10.0-1.38","A1068","""event"",""trial"",""time""
""fullscreenenter"",""0"",""29361""
","
","
","""event"",""trial"",""time""
""fullscreenenter"",""0"",""29361""
","
","213.1300000473857","<img style='border: 4px solid darkgrey;' src='img/tf1_39_M_ss2.jpeg'></img>","2","","exp","","3","<img src='img/tf1_39_T1_ss2_md.jpeg'></img>","0","false",""
"","html-keyboard-response","91","180446","0.0-10.0-0.39","A1068","""event"",""trial"",""time""
""fullscreenenter"",""0"",""29361""
","
","
","""event"",""trial"",""time""
""fullscreenenter"",""0"",""29361""
","
","null","<div style=""font-size:60px;"">+</div>","","null","fixation","2021-04-01 09:48:07.050","","","","",""
"","mars-trial","92","181328","0.0-10.0-1.39","A1068","""event"",""trial"",""time""
""fullscreenenter"",""0"",""29361""
","
","
","""event"",""trial"",""time""
""fullscreenenter"",""0"",""29361""
","
","273.9549999823794","<img style='border: 4px solid darkgrey;' src='img/tf1_40_M_ss3.jpeg'></img>","1","","exp","","1","<img src='img/tf1_40_T1_ss3_md.jpeg'></img>","0","false",""
"","html-keyboard-response","93","181830","0.0-10.0-0.40","A1068","""event"",""trial"",""time""
""fullscreenenter"",""0"",""29361""
","
","
","""event"",""trial"",""time""
""fullscreenenter"",""0"",""29361""
","
","null","<div style=""font-size:60px;"">+</div>","","null","fixation","2021-04-01 09:48:08.434","","","","",""
"","mars-trial","94","182665","0.0-10.0-1.40","A1068","""event"",""trial"",""time""
""fullscreenenter"",""0"",""29361""
","
","
","""event"",""trial"",""time""
""fullscreenenter"",""0"",""29361""
","
","225.8750000037253","<img style='border: 4px solid darkgrey;' src='img/tf1_41_M_ss1.jpeg'></img>","1","","exp","","2","<img src='img/tf1_41_T1_ss1_md.jpeg'></img>","0","false",""
"","html-keyboard-response","95","183168","0.0-10.0-0.41","A1068","""event"",""trial"",""time""
""fullscreenenter"",""0"",""29361""
","
","
","""event"",""trial"",""time""
""fullscreenenter"",""0"",""29361""
","
","null","<div style=""font-size:60px;"">+</div>","","null","fixation","2021-04-01 09:48:09.772","","","","",""
"","mars-trial","96","184684","0.0-10.0-1.41","A1068","""event"",""trial"",""time""
""fullscreenenter"",""0"",""29361""
","
","
","""event"",""trial"",""time""
""fullscreenenter"",""0"",""29361""
","
","911.2700000405312","<img style='border: 4px solid darkgrey;' src='img/tf1_42_M_ss2.jpeg'></img>","0","","exp","","3","<img src='img/tf1_42_T1_ss2_md.jpeg'></img>","0","false",""
"","html-keyboard-response","97","185186","0.0-10.0-0.42","A1068","""event"",""trial"",""time""
""fullscreenenter"",""0"",""29361""
","
","
","""event"",""trial"",""time""
""fullscreenenter"",""0"",""29361""
","
","null","<div style=""font-size:60px;"">+</div>","","null","fixation","2021-04-01 09:48:11.790","","","","",""
"","mars-trial","98","186391","0.0-10.0-1.42","A1068","""event"",""trial"",""time""
""fullscreenenter"",""0"",""29361""
","
","
","""event"",""trial"",""time""
""fullscreenenter"",""0"",""29361""
","
","595.8300000056624","<img style='border: 4px solid darkgrey;' src='img/tf1_43_M_ss3.jpeg'></img>","1","","exp","","1","<img src='img/tf1_43_T1_ss3_md.jpeg'></img>","0","false",""
"","html-keyboard-response","99","186893","0.0-10.0-0.43","A1068","""event"",""trial"",""time""
""fullscreenenter"",""0"",""29361""
","
","
","""event"",""trial"",""time""
""fullscreenenter"",""0"",""29361""
","
","null","<div style=""font-size:60px;"">+</div>","","null","fixation","2021-04-01 09:48:13.497","","","","",""
"","mars-trial","100","187653","0.0-10.0-1.43","A1068","""event"",""trial"",""time""
""fullscreenenter"",""0"",""29361""
","
","
","""event"",""trial"",""time""
""fullscreenenter"",""0"",""29361""
","
","155.27500002644956","<img style='border: 4px solid darkgrey;' src='img/tf1_44_M_ss1.jpeg'></img>","2","","exp","","3","<img src='img/tf1_44_T1_ss1_md.jpeg'></img>","0","false",""
"","html-keyboard-response","101","188156","0.0-10.0-0.44","A1068","""event"",""trial"",""time""
""fullscreenenter"",""0"",""29361""
","
","
","""event"",""trial"",""time""
""fullscreenenter"",""0"",""29361""
","
","null","<div style=""font-size:60px;"">+</div>","","null","fixation","2021-04-01 09:48:14.760","","","","",""
"","mars-trial","102","189258","0.0-10.0-1.44","A1068","""event"",""trial"",""time""
""fullscreenenter"",""0"",""29361""
","
","
","""event"",""trial"",""time""
""fullscreenenter"",""0"",""29361""
","
","494.1450000042096","<img style='border: 4px solid darkgrey;' src='img/tf1_45_M_ss2.jpeg'></img>","3","","exp","","1","<img src='img/tf1_45_T1_ss2_md.jpeg'></img>","0","false",""
"","html-keyboard-response","103","189760","0.0-10.0-0.45","A1068","""event"",""trial"",""time""
""fullscreenenter"",""0"",""29361""
","
","
","""event"",""trial"",""time""
""fullscreenenter"",""0"",""29361""
","
","null","<div style=""font-size:60px;"">+</div>","","null","fixation","2021-04-01 09:48:16.364","","","","",""
"","mars-trial","104","190710","0.0-10.0-1.45","A1068","""event"",""trial"",""time""
""fullscreenenter"",""0"",""29361""
","
","
","""event"",""trial"",""time""
""fullscreenenter"",""0"",""29361""
","
","340.31999995931983","<img style='border: 4px solid darkgrey;' src='img/tf1_46_M_ss3.jpeg'></img>","0","","exp","","2","<img src='img/tf1_46_T1_ss3_md.jpeg'></img>","0","false",""
"","html-keyboard-response","105","191211","0.0-10.0-0.46","A1068","""event"",""trial"",""time""
""fullscreenenter"",""0"",""29361""
","
","
","""event"",""trial"",""time""
""fullscreenenter"",""0"",""29361""
","
","null","<div style=""font-size:60px;"">+</div>","","null","fixation","2021-04-01 09:48:17.815","","","","",""
"","mars-trial","106","191977","0.0-10.0-1.46","A1068","""event"",""trial"",""time""
""fullscreenenter"",""0"",""29361""
","
","
","""event"",""trial"",""time""
""fullscreenenter"",""0"",""29361""
","
","162.75999997742474","<img style='border: 4px solid darkgrey;' src='img/tf1_47_M_ss1.jpeg'></img>","0","","exp","","0","<img src='img/tf1_47_T1_ss1_md.jpeg'></img>","0","true",""
"","html-keyboard-response","107","192479","0.0-10.0-0.47","A1068","""event"",""trial"",""time""
""fullscreenenter"",""0"",""29361""
","
","
","""event"",""trial"",""time""
""fullscreenenter"",""0"",""29361""
","
","null","<div style=""font-size:60px;"">+</div>","","null","fixation","2021-04-01 09:48:19.083","","","","",""
"","mars-trial","108","193493","0.0-10.0-1.47","A1068","""event"",""trial"",""time""
""fullscreenenter"",""0"",""29361""
","
","
","""event"",""trial"",""time""
""fullscreenenter"",""0"",""29361""
","
","409.47000007145107","<img style='border: 4px solid darkgrey;' src='img/tf1_48_M_ss2.jpeg'></img>","0","","exp","","0","<img src='img/tf1_48_T1_ss2_md.jpeg'></img>","0","true",""
"","html-keyboard-response","109","193996","0.0-10.0-0.48","A1068","""event"",""trial"",""time""
""fullscreenenter"",""0"",""29361""
","
","
","""event"",""trial"",""time""
""fullscreenenter"",""0"",""29361""
","
","null","<div style=""font-size:60px;"">+</div>","","null","fixation","2021-04-01 09:48:20.600","","","","",""
"","mars-trial","110","194752","0.0-10.0-1.48","A1068","""event"",""trial"",""time""
""fullscreenenter"",""0"",""29361""
","
","
","""event"",""trial"",""time""
""fullscreenenter"",""0"",""29361""
","
","145.96500003244728","<img style='border: 4px solid darkgrey;' src='img/tf1_49_M_ss3.jpeg'></img>","0","","exp","","1","<img src='img/tf1_49_T1_ss3_md.jpeg'></img>","0","false",""
"","html-keyboard-response","111","195255","0.0-10.0-0.49","A1068","""event"",""trial"",""time""
""fullscreenenter"",""0"",""29361""
","
","
","""event"",""trial"",""time""
""fullscreenenter"",""0"",""29361""
","
","null","<div style=""font-size:60px;"">+</div>","","null","fixation","2021-04-01 09:48:21.859","","","","",""
"","mars-trial","112","196622","0.0-10.0-1.49","A1068","""event"",""trial"",""time""
""fullscreenenter"",""0"",""29361""
","
","
","""event"",""trial"",""time""
""fullscreenenter"",""0"",""29361""
","
","760.0800000363961","<img style='border: 4px solid darkgrey;' src='img/tf1_50_M_ss1.jpeg'></img>","0","","exp","","0","<img src='img/tf1_50_T1_ss1_md.jpeg'></img>","0","true",""
"","html-keyboard-response","113","197124","0.0-10.0-0.50","A1068","""event"",""trial"",""time""
""fullscreenenter"",""0"",""29361""
","
","
","""event"",""trial"",""time""
""fullscreenenter"",""0"",""29361""
","
","null","<div style=""font-size:60px;"">+</div>","","null","fixation","2021-04-01 09:48:23.728","","","","",""
"","mars-trial","114","198132","0.0-10.0-1.50","A1068","""event"",""trial"",""time""
""fullscreenenter"",""0"",""29361""
","
","
","""event"",""trial"",""time""
""fullscreenenter"",""0"",""29361""
","
","401.5600000275299","<img style='border: 4px solid darkgrey;' src='img/tf1_51_M_ss2.jpeg'></img>","0","","exp","","2","<img src='img/tf1_51_T1_ss2_md.jpeg'></img>","0","false",""
"","html-keyboard-response","115","198634","0.0-10.0-0.51","A1068","""event"",""trial"",""time""
""fullscreenenter"",""0"",""29361""
","
","
","""event"",""trial"",""time""
""fullscreenenter"",""0"",""29361""
","
","null","<div style=""font-size:60px;"">+</div>","","null","fixation","2021-04-01 09:48:25.238","","","","",""
"","mars-trial","116","199487","0.0-10.0-1.51","A1068","""event"",""trial"",""time""
""fullscreenenter"",""0"",""29361""
","
","
","""event"",""trial"",""time""
""fullscreenenter"",""0"",""29361""
","
","242.80500004533678","<img style='border: 4px solid darkgrey;' src='img/tf1_52_M_ss3.jpeg'></img>","0","","exp","","3","<img src='img/tf1_52_T1_ss3_md.jpeg'></img>","0","false",""
"","html-keyboard-response","117","199992","0.0-10.0-0.52","A1068","""event"",""trial"",""time""
""fullscreenenter"",""0"",""29361""
","
","
","""event"",""trial"",""time""
""fullscreenenter"",""0"",""29361""
","
","null","<div style=""font-size:60px;"">+</div>","","null","fixation","2021-04-01 09:48:26.596","","","","",""
"","mars-trial","118","200915","0.0-10.0-1.52","A1068","""event"",""trial"",""time""
""fullscreenenter"",""0"",""29361""
","
","
","""event"",""trial"",""time""
""fullscreenenter"",""0"",""29361""
","
","315.62500004656613","<img style='border: 4px solid darkgrey;' src='img/tf1_53_M_ss1.jpeg'></img>","0","","exp","","3","<img src='img/tf1_53_T1_ss1_md.jpeg'></img>","0","false",""
"","html-keyboard-response","119","201418","0.0-10.0-0.53","A1068","""event"",""trial"",""time""
""fullscreenenter"",""0"",""29361""
","
","
","""event"",""trial"",""time""
""fullscreenenter"",""0"",""29361""
","
","null","<div style=""font-size:60px;"">+</div>","","null","fixation","2021-04-01 09:48:28.023","","","","",""
"","mars-trial","120","202337","0.0-10.0-1.53","A1068","""event"",""trial"",""time""
""fullscreenenter"",""0"",""29361""
","
","
","""event"",""trial"",""time""
""fullscreenenter"",""0"",""29361""
","
","312.9349999362603","<img style='border: 4px solid darkgrey;' src='img/tf1_54_M_ss2.jpeg'></img>","1","","exp","","0","<img src='img/tf1_54_T1_ss2_md.jpeg'></img>","0","true",""
"","html-keyboard-response","121","202841","0.0-10.0-0.54","A1068","""event"",""trial"",""time""
""fullscreenenter"",""0"",""29361""
","
","
","""event"",""trial"",""time""
""fullscreenenter"",""0"",""29361""
","
","null","<div style=""font-size:60px;"">+</div>","","null","fixation","2021-04-01 09:48:29.445","","","","",""
"","mars-trial","122","203739","0.0-10.0-1.54","A1068","""event"",""trial"",""time""
""fullscreenenter"",""0"",""29361""
","
","
","""event"",""trial"",""time""
""fullscreenenter"",""0"",""29361""
","
","286.88999998848885","<img style='border: 4px solid darkgrey;' src='img/tf1_55_M_ss3.jpeg'></img>","2","","exp","","1","<img src='img/tf1_55_T1_ss3_md.jpeg'></img>","0","false",""
"","html-keyboard-response","123","204241","0.0-10.0-0.55","A1068","""event"",""trial"",""time""
""fullscreenenter"",""0"",""29361""
","
","
","""event"",""trial"",""time""
""fullscreenenter"",""0"",""29361""
","
","null","<div style=""font-size:60px;"">+</div>","","null","fixation","2021-04-01 09:48:30.845","","","","",""
"","mars-trial","124","205124","0.0-10.0-1.55","A1068","""event"",""trial"",""time""
""fullscreenenter"",""0"",""29361""
","
","
","""event"",""trial"",""time""
""fullscreenenter"",""0"",""29361""
","
","272.51000003889203","<img style='border: 4px solid darkgrey;' src='img/tf1_56_M_ss1.jpeg'></img>","2","","exp","","1","<img src='img/tf1_56_T1_ss1_md.jpeg'></img>","0","false",""
"","html-keyboard-response","125","205626","0.0-10.0-0.56","A1068","""event"",""trial"",""time""
""fullscreenenter"",""0"",""29361""
","
","
","""event"",""trial"",""time""
""fullscreenenter"",""0"",""29361""
","
","null","<div style=""font-size:60px;"">+</div>","","null","fixation","2021-04-01 09:48:32.230","","","","",""
"","mars-trial","126","206676","0.0-10.0-1.56","A1068","""event"",""trial"",""time""
""fullscreenenter"",""0"",""29361""
","
","
","""event"",""trial"",""time""
""fullscreenenter"",""0"",""29361""
","
","442.61999998707324","<img style='border: 4px solid darkgrey;' src='img/tf1_57_M_ss2.jpeg'></img>","2","","exp","","2","<img src='img/tf1_57_T1_ss2_md.jpeg'></img>","0","false",""
"","html-keyboard-response","127","207178","0.0-10.0-0.57","A1068","""event"",""trial"",""time""
""fullscreenenter"",""0"",""29361""
","
","
","""event"",""trial"",""time""
""fullscreenenter"",""0"",""29361""
","
","null","<div style=""font-size:60px;"">+</div>","","null","fixation","2021-04-01 09:48:33.782","","","","",""
"","mars-trial","128","209021","0.0-10.0-1.57","A1068","""event"",""trial"",""time""
""fullscreenenter"",""0"",""29361""
","
","
","""event"",""trial"",""time""
""fullscreenenter"",""0"",""29361""
","
","1236.2149999244139","<img style='border: 4px solid darkgrey;' src='img/tf1_58_M_ss3.jpeg'></img>","2","","exp","","0","<img src='img/tf1_58_T1_ss3_md.jpeg'></img>","0","true",""
"","html-keyboard-response","129","209524","0.0-10.0-0.58","A1068","""event"",""trial"",""time""
""fullscreenenter"",""0"",""29361""
","
","
","""event"",""trial"",""time""
""fullscreenenter"",""0"",""29361""
","
","null","<div style=""font-size:60px;"">+</div>","","null","fixation","2021-04-01 09:48:36.128","","","","",""
"","mars-trial","130","210349","0.0-10.0-1.58","A1068","""event"",""trial"",""time""
""fullscreenenter"",""0"",""29361""
","
","
","""event"",""trial"",""time""
""fullscreenenter"",""0"",""29361""
","
","216.14499995484948","<img style='border: 4px solid darkgrey;' src='img/tf1_59_M_ss1.jpeg'></img>","3","","exp","","2","<img src='img/tf1_59_T1_ss1_md.jpeg'></img>","0","false",""
"","html-keyboard-response","131","210854","0.0-10.0-0.59","A1068","""event"",""trial"",""time""
""fullscreenenter"",""0"",""29361""
","
","
","""event"",""trial"",""time""
""fullscreenenter"",""0"",""29361""
","
","null","<div style=""font-size:60px;"">+</div>","","null","fixation","2021-04-01 09:48:37.458","","","","",""
"","mars-trial","132","211748","0.0-10.0-1.59","A1068","""event"",""trial"",""time""
""fullscreenenter"",""0"",""29361""
","
","
","""event"",""trial"",""time""
""fullscreenenter"",""0"",""29361""
","
","284.514999948442","<img style='border: 4px solid darkgrey;' src='img/tf1_60_M_ss2.jpeg'></img>","3","","exp","","1","<img src='img/tf1_60_T1_ss2_md.jpeg'></img>","0","false",""
"","html-keyboard-response","133","212249","0.0-10.0-0.60","A1068","""event"",""trial"",""time""
""fullscreenenter"",""0"",""29361""
","
","
","""event"",""trial"",""time""
""fullscreenenter"",""0"",""29361""
","
","null","<div style=""font-size:60px;"">+</div>","","null","fixation","2021-04-01 09:48:38.853","","","","",""
"","mars-trial","134","213216","0.0-10.0-1.60","A1068","""event"",""trial"",""time""
""fullscreenenter"",""0"",""29361""
","
","
","""event"",""trial"",""time""
""fullscreenenter"",""0"",""29361""
","
","359.4349999912083","<img style='border: 4px solid darkgrey;' src='img/tf1_61_M_ss3.jpeg'></img>","2","","exp","","2","<img src='img/tf1_61_T1_ss3_md.jpeg'></img>","0","false",""
"","html-keyboard-response","135","213718","0.0-10.0-0.61","A1068","""event"",""trial"",""time""
""fullscreenenter"",""0"",""29361""
","
","
","""event"",""trial"",""time""
""fullscreenenter"",""0"",""29361""
","
","null","<div style=""font-size:60px;"">+</div>","","null","fixation","2021-04-01 09:48:40.322","","","","",""
"","mars-trial","136","214649","0.0-10.0-1.61","A1068","""event"",""trial"",""time""
""fullscreenenter"",""0"",""29361""
","
","
","""event"",""trial"",""time""
""fullscreenenter"",""0"",""29361""
","
","322.52000004518777","<img style='border: 4px solid darkgrey;' src='img/tf1_62_M_ss1.jpeg'></img>","0","","exp","","0","<img src='img/tf1_62_T1_ss1_md.jpeg'></img>","0","true",""
"","html-keyboard-response","137","215155","0.0-10.0-0.62","A1068","""event"",""trial"",""time""
""fullscreenenter"",""0"",""29361""
","
","
","""event"",""trial"",""time""
""fullscreenenter"",""0"",""29361""
","
","null","<div style=""font-size:60px;"">+</div>","","null","fixation","2021-04-01 09:48:41.759","","","","",""
"","mars-trial","138","216156","0.0-10.0-1.62","A1068","""event"",""trial"",""time""
""fullscreenenter"",""0"",""29361""
","
","
","""event"",""trial"",""time""
""fullscreenenter"",""0"",""29361""
","
","388.8749999459833","<img style='border: 4px solid darkgrey;' src='img/tf1_63_M_ss2.jpeg'></img>","0","","exp","","0","<img src='img/tf1_63_T1_ss2_md.jpeg'></img>","0","true",""
"","html-keyboard-response","139","216659","0.0-10.0-0.63","A1068","""event"",""trial"",""time""
""fullscreenenter"",""0"",""29361""
","
","
","""event"",""trial"",""time""
""fullscreenenter"",""0"",""29361""
","
","null","<div style=""font-size:60px;"">+</div>","","null","fixation","2021-04-01 09:48:43.263","","","","",""
"","mars-trial","140","217437","0.0-10.0-1.63","A1068","""event"",""trial"",""time""
""fullscreenenter"",""0"",""29361""
","
","
","""event"",""trial"",""time""
""fullscreenenter"",""0"",""29361""
","
","167.63999999966472","<img style='border: 4px solid darkgrey;' src='img/tf1_64_M_ss3.jpeg'></img>","0","","exp","","2","<img src='img/tf1_64_T1_ss3_md.jpeg'></img>","0","false",""
"","html-keyboard-response","141","217942","0.0-10.0-0.64","A1068","""event"",""trial"",""time""
""fullscreenenter"",""0"",""29361""
","
","
","""event"",""trial"",""time""
""fullscreenenter"",""0"",""29361""
","
","null","<div style=""font-size:60px;"">+</div>","","null","fixation","2021-04-01 09:48:44.546","","","","",""
"","mars-trial","142","218869","0.0-10.0-1.64","A1068","""event"",""trial"",""time""
""fullscreenenter"",""0"",""29361""
","
","
","""event"",""trial"",""time""
""fullscreenenter"",""0"",""29361""
","
","316.1449999315664","<img style='border: 4px solid darkgrey;' src='img/tf1_65_M_ss1.jpeg'></img>","1","","exp","","0","<img src='img/tf1_65_T1_ss1_md.jpeg'></img>","0","true",""
"","html-keyboard-response","143","219371","0.0-10.0-0.65","A1068","""event"",""trial"",""time""
""fullscreenenter"",""0"",""29361""
","
","
","""event"",""trial"",""time""
""fullscreenenter"",""0"",""29361""
","
","null","<div style=""font-size:60px;"">+</div>","","null","fixation","2021-04-01 09:48:45.975","","","","",""
"","mars-trial","144","220419","0.0-10.0-1.65","A1068","""event"",""trial"",""time""
""fullscreenenter"",""0"",""29361""
","
","
","""event"",""trial"",""time""
""fullscreenenter"",""0"",""29361""
","
","440.70999999530613","<img style='border: 4px solid darkgrey;' src='img/tf1_66_M_ss2.jpeg'></img>","2","","exp","","1","<img src='img/tf1_66_T1_ss2_md.jpeg'></img>","0","false",""
"","html-keyboard-response","145","220921","0.0-10.0-0.66","A1068","""event"",""trial"",""time""
""fullscreenenter"",""0"",""29361""
","
","
","""event"",""trial"",""time""
""fullscreenenter"",""0"",""29361""
","
","null","<div style=""font-size:60px;"">+</div>","","null","fixation","2021-04-01 09:48:47.525","","","","",""
"","mars-trial","146","221767","0.0-10.0-1.66","A1068","""event"",""trial"",""time""
""fullscreenenter"",""0"",""29361""
","
","
","""event"",""trial"",""time""
""fullscreenenter"",""0"",""29361""
","
","241.22499988880008","<img style='border: 4px solid darkgrey;' src='img/tf1_67_M_ss3.jpeg'></img>","3","","exp","","3","<img src='img/tf1_67_T1_ss3_md.jpeg'></img>","0","false",""
"","html-keyboard-response","147","222271","0.0-10.0-0.67","A1068","""event"",""trial"",""time""
""fullscreenenter"",""0"",""29361""
","
","
","""event"",""trial"",""time""
""fullscreenenter"",""0"",""29361""
","
","null","<div style=""font-size:60px;"">+</div>","","null","fixation","2021-04-01 09:48:48.875","","","","",""
"","mars-trial","148","223161","0.0-10.0-1.67","A1068","""event"",""trial"",""time""
""fullscreenenter"",""0"",""29361""
","
","
","""event"",""trial"",""time""
""fullscreenenter"",""0"",""29361""
","
","279.9849999137223","<img style='border: 4px solid darkgrey;' src='img/tf1_68_M_ss1.jpeg'></img>","2","","exp","","1","<img src='img/tf1_68_T1_ss1_md.jpeg'></img>","0","false",""
"","html-keyboard-response","149","223666","0.0-10.0-0.68","A1068","""event"",""trial"",""time""
""fullscreenenter"",""0"",""29361""
","
","
","""event"",""trial"",""time""
""fullscreenenter"",""0"",""29361""
","
","null","<div style=""font-size:60px;"">+</div>","","null","fixation","2021-04-01 09:48:50.270","","","","",""
"","mars-trial","150","224583","0.0-10.0-1.68","A1068","""event"",""trial"",""time""
""fullscreenenter"",""0"",""29361""
","
","
","""event"",""trial"",""time""
""fullscreenenter"",""0"",""29361""
","
","312.7450000029057","<img style='border: 4px solid darkgrey;' src='img/tf1_69_M_ss2.jpeg'></img>","2","","exp","","2","<img src='img/tf1_69_T1_ss2_md.jpeg'></img>","0","false",""
"","html-keyboard-response","151","225087","0.0-10.0-0.69","A1068","""event"",""trial"",""time""
""fullscreenenter"",""0"",""29361""
","
","
","""event"",""trial"",""time""
""fullscreenenter"",""0"",""29361""
","
","null","<div style=""font-size:60px;"">+</div>","","null","fixation","2021-04-01 09:48:51.691","","","","",""
"","mars-trial","152","226100","0.0-10.0-1.69","A1068","""event"",""trial"",""time""
""fullscreenenter"",""0"",""29361""
","
","
","""event"",""trial"",""time""
""fullscreenenter"",""0"",""29361""
","
","405.849999981001","<img style='border: 4px solid darkgrey;' src='img/tf1_70_M_ss3.jpeg'></img>","1","","exp","","3","<img src='img/tf1_70_T1_ss3_md.jpeg'></img>","0","false",""
"","html-keyboard-response","153","226601","0.0-10.0-0.70","A1068","""event"",""trial"",""time""
""fullscreenenter"",""0"",""29361""
","
","
","""event"",""trial"",""time""
""fullscreenenter"",""0"",""29361""
","
","null","<div style=""font-size:60px;"">+</div>","","null","fixation","2021-04-01 09:48:53.205","","","","",""
"","mars-trial","154","228048","0.0-10.0-1.70","A1068","""event"",""trial"",""time""
""fullscreenenter"",""0"",""29361""
","
","
","""event"",""trial"",""time""
""fullscreenenter"",""0"",""29361""
","
","836.5800000028685","<img style='border: 4px solid darkgrey;' src='img/tf1_71_M_ss1.jpeg'></img>","1","","exp","","1","<img src='img/tf1_71_T1_ss1_md.jpeg'></img>","0","false",""
"","html-keyboard-response","155","228550","0.0-10.0-0.71","A1068","""event"",""trial"",""time""
""fullscreenenter"",""0"",""29361""
","
","
","""event"",""trial"",""time""
""fullscreenenter"",""0"",""29361""
","
","null","<div style=""font-size:60px;"">+</div>","","null","fixation","2021-04-01 09:48:55.155","","","","",""
"","mars-trial","156","229378","0.0-10.0-1.71","A1068","""event"",""trial"",""time""
""fullscreenenter"",""0"",""29361""
","
","
","""event"",""trial"",""time""
""fullscreenenter"",""0"",""29361""
","
","220.88999999687076","<img style='border: 4px solid darkgrey;' src='img/tf1_72_M_ss2.jpeg'></img>","0","","exp","","0","<img src='img/tf1_72_T1_ss2_md.jpeg'></img>","0","true",""
"","html-keyboard-response","157","229881","0.0-10.0-0.72","A1068","""event"",""trial"",""time""
""fullscreenenter"",""0"",""29361""
","
","
","""event"",""trial"",""time""
""fullscreenenter"",""0"",""29361""
","
","null","<div style=""font-size:60px;"">+</div>","","null","fixation","2021-04-01 09:48:56.485","","","","",""
"","mars-trial","158","230828","0.0-10.0-1.72","A1068","""event"",""trial"",""time""
""fullscreenenter"",""0"",""29361""
","
","
","""event"",""trial"",""time""
""fullscreenenter"",""0"",""29361""
","
","339.4149999367073","<img style='border: 4px solid darkgrey;' src='img/tf1_73_M_ss3.jpeg'></img>","1","","exp","","1","<img src='img/tf1_73_T1_ss3_md.jpeg'></img>","0","false",""
"","html-keyboard-response","159","231334","0.0-10.0-0.73","A1068","""event"",""trial"",""time""
""fullscreenenter"",""0"",""29361""
","
","
","""event"",""trial"",""time""
""fullscreenenter"",""0"",""29361""
","
","null","<div style=""font-size:60px;"">+</div>","","null","fixation","2021-04-01 09:48:57.938","","","","",""
"","mars-trial","160","232321","0.0-10.0-1.73","A1068","""event"",""trial"",""time""
""fullscreenenter"",""0"",""29361""
","
","
","""event"",""trial"",""time""
""fullscreenenter"",""0"",""29361""
","
","381.4150000689551","<img style='border: 4px solid darkgrey;' src='img/tf1_74_M_ss1.jpeg'></img>","2","","exp","","2","<img src='img/tf1_74_T1_ss1_md.jpeg'></img>","0","false",""
"","html-keyboard-response","161","232825","0.0-10.0-0.74","A1068","""event"",""trial"",""time""
""fullscreenenter"",""0"",""29361""
","
","
","""event"",""trial"",""time""
""fullscreenenter"",""0"",""29361""
","
","null","<div style=""font-size:60px;"">+</div>","","null","fixation","2021-04-01 09:48:59.429","","","","",""
"","mars-trial","162","233965","0.0-10.0-1.74","A1068","""event"",""trial"",""time""
""fullscreenenter"",""0"",""29361""
","
","
","""event"",""trial"",""time""
""fullscreenenter"",""0"",""29361""
","
","531.0649999883026","<img style='border: 4px solid darkgrey;' src='img/tf1_75_M_ss2.jpeg'></img>","3","","exp","","3","<img src='img/tf1_75_T1_ss2_md.jpeg'></img>","0","false",""
"","html-keyboard-response","163","234467","0.0-10.0-0.75","A1068","""event"",""trial"",""time""
""fullscreenenter"",""0"",""29361""
","
","
","""event"",""trial"",""time""
""fullscreenenter"",""0"",""29361""
","
","null","<div style=""font-size:60px;"">+</div>","","null","fixation","2021-04-01 09:49:01.071","","","","",""
"","mars-trial","164","235399","0.0-10.0-1.75","A1068","""event"",""trial"",""time""
""fullscreenenter"",""0"",""29361""
","
","
","""event"",""trial"",""time""
""fullscreenenter"",""0"",""29361""
","
","325.9550000075251","<img style='border: 4px solid darkgrey;' src='img/tf1_76_M_ss3.jpeg'></img>","1","","exp","","2","<img src='img/tf1_76_T1_ss3_md.jpeg'></img>","0","false",""
"","html-keyboard-response","165","235902","0.0-10.0-0.76","A1068","""event"",""trial"",""time""
""fullscreenenter"",""0"",""29361""
","
","
","""event"",""trial"",""time""
""fullscreenenter"",""0"",""29361""
","
","null","<div style=""font-size:60px;"">+</div>","","null","fixation","2021-04-01 09:49:02.506","","","","",""
"","mars-trial","166","236901","0.0-10.0-1.76","A1068","""event"",""trial"",""time""
""fullscreenenter"",""0"",""29361""
","
","
","""event"",""trial"",""time""
""fullscreenenter"",""0"",""29361""
","
","393.10999994631857","<img style='border: 4px solid darkgrey;' src='img/tf1_77_M_ss1.jpeg'></img>","2","","exp","","1","<img src='img/tf1_77_T1_ss1_md.jpeg'></img>","0","false",""
"","html-keyboard-response","167","237402","0.0-10.0-0.77","A1068","""event"",""trial"",""time""
""fullscreenenter"",""0"",""29361""
","
","
","""event"",""trial"",""time""
""fullscreenenter"",""0"",""29361""
","
","null","<div style=""font-size:60px;"">+</div>","","null","fixation","2021-04-01 09:49:04.006","","","","",""
"","mars-trial","168","239020","0.0-10.0-1.77","A1068","""event"",""trial"",""time""
""fullscreenenter"",""0"",""29361""
","
","
","""event"",""trial"",""time""
""fullscreenenter"",""0"",""29361""
","
","1012.8849999746308","<img style='border: 4px solid darkgrey;' src='img/tf1_78_M_ss2.jpeg'></img>","0","","exp","","0","<img src='img/tf1_78_T1_ss2_md.jpeg'></img>","0","true",""
"","html-keyboard-response","169","239521","0.0-10.0-0.78","A1068","""event"",""trial"",""time""
""fullscreenenter"",""0"",""29361""
","
","
","""event"",""trial"",""time""
""fullscreenenter"",""0"",""29361""
","
","null","<div style=""font-size:60px;"">+</div>","","null","fixation","2021-04-01 09:49:06.125","","","","",""
"","mars-trial","170","241250","0.0-10.0-1.78","A1068","""event"",""trial"",""time""
""fullscreenenter"",""0"",""29361""
","
","
","""event"",""trial"",""time""
""fullscreenenter"",""0"",""29361""
","
","1117.2099999384955","<img style='border: 4px solid darkgrey;' src='img/tf1_79_M_ss3.jpeg'></img>","2","","exp","","0","<img src='img/tf1_79_T1_ss3_md.jpeg'></img>","0","true",""
"","html-keyboard-response","171","241752","0.0-10.0-0.79","A1068","""event"",""trial"",""time""
""fullscreenenter"",""0"",""29361""
","
","
","""event"",""trial"",""time""
""fullscreenenter"",""0"",""29361""
","
","null","<div style=""font-size:60px;"">+</div>","","null","fixation","2021-04-01 09:49:08.356","","","","",""
"","mars-trial","172","243016","0.0-10.0-1.79","A1068","""event"",""trial"",""time""
""fullscreenenter"",""0"",""29361""
","
","
","""event"",""trial"",""time""
""fullscreenenter"",""0"",""29361""
","
","658.9000000385568","<img style='border: 4px solid darkgrey;' src='img/tf1_80_M_ss1.jpeg'></img>","2","","exp","","0","<img src='img/tf1_80_T1_ss1_md.jpeg'></img>","0","true",""
"","audio-button-response","173","245549","0.0-11.0","A1068","""event"",""trial"",""time""
""fullscreenenter"",""0"",""29361""
","
","
","""event"",""trial"",""time""
""fullscreenenter"",""0"",""29361""
","
","2531.349999946542","audio/mars_instructions_slide5.wav","0","","","","","","","",""
