"success","trial_type","trial_index","time_elapsed","internal_node_id","subject_id","interactions","blur_events","focus_events","fullscreenenter_events","fullscreenexit_events","rt","stimulus","button_pressed","key_press","part","timestamp","unshuffled_button","correct_response","correct_button","correct","value"
"true","fullscreen","0","3153","0.0-0.0","889","""event"",""trial"",""time""
""fullscreenenter"",""0"",""2156""
","
","
","""event"",""trial"",""time""
""fullscreenenter"",""0"",""2156""
","
","","","","","","","","","","",""
"","pavlovia","1","3159","0.0-1.0","889","""event"",""trial"",""time""
""fullscreenenter"",""0"",""2156""
","
","
","""event"",""trial"",""time""
""fullscreenenter"",""0"",""2156""
","
","","","","","","","","","","",""
"","html-button-response","2","5126","0.0-2.0","889","""event"",""trial"",""time""
""fullscreenenter"",""0"",""2156""
","
","
","""event"",""trial"",""time""
""fullscreenenter"",""0"",""2156""
","
","1966.3000000000466","<p>Welcome! Press START to begin.</p><br>","0","","","","","","","",""
"","audio-button-response","3","32284","0.0-3.0","889","""event"",""trial"",""time""
""fullscreenenter"",""0"",""2156""
","
","
","""event"",""trial"",""time""
""fullscreenenter"",""0"",""2156""
","
","27157.5","audio/mars_instructions_slide2.wav","0","","","","","","","",""
"","audio-button-response","4","47853","0.0-4.0","889","""event"",""trial"",""time""
""fullscreenenter"",""0"",""2156""
","
","
","""event"",""trial"",""time""
""fullscreenenter"",""0"",""2156""
","
","15566.59999999986","audio/mars_instructions_slide3.wav","0","","","","","","","",""
"","html-keyboard-response","5","48356","0.0-5.0-0.0","889","""event"",""trial"",""time""
""fullscreenenter"",""0"",""2156""
","
","
","""event"",""trial"",""time""
""fullscreenenter"",""0"",""2156""
","
","null","<div style=""font-size:60px;"">+</div>","","null","fixation","2021-08-11 12:48:51.689","","","","",""
"","mars-trial","6","54133","0.0-5.0-1.0","889","""event"",""trial"",""time""
""fullscreenenter"",""0"",""2156""
","
","
","""event"",""trial"",""time""
""fullscreenenter"",""0"",""2156""
","
","3662.5","<img style='border: 4px solid darkgrey;' src='practice/pt1_M1.png'></img>","2","","practice","","0","<img src='practice/pt1_T1.png'></img>","0","true",""
"","html-keyboard-response","7","54643","0.0-6.0-0.0","889","""event"",""trial"",""time""
""fullscreenenter"",""0"",""2156""
","
","
","""event"",""trial"",""time""
""fullscreenenter"",""0"",""2156""
","
","null","<div style=""font-size:60px;"">+</div>","","null","fixation","2021-08-11 12:48:57.976","","","","",""
"","mars-trial","8","58906","0.0-6.0-1.0","889","""event"",""trial"",""time""
""fullscreenenter"",""0"",""2156""
","
","
","""event"",""trial"",""time""
""fullscreenenter"",""0"",""2156""
","
","2140","<img style='border: 4px solid darkgrey;' src='practice/pt2_M1.png'></img>","3","","practice","","0","<img src='practice/pt2_T1.png'></img>","0","true",""
"","html-keyboard-response","9","59413","0.0-7.0-0.0","889","""event"",""trial"",""time""
""fullscreenenter"",""0"",""2156""
","
","
","""event"",""trial"",""time""
""fullscreenenter"",""0"",""2156""
","
","null","<div style=""font-size:60px;"">+</div>","","null","fixation","2021-08-11 12:49:02.746","","","","",""
"","mars-trial","10","63046","0.0-7.0-1.0","889","""event"",""trial"",""time""
""fullscreenenter"",""0"",""2156""
","
","
","""event"",""trial"",""time""
""fullscreenenter"",""0"",""2156""
","
","1519.1000000000931","<img style='border: 4px solid darkgrey;' src='practice/pt3_M1.png'></img>","1","","practice","","0","<img src='practice/pt3_T1.png'></img>","0","true",""
"","audio-button-response","11","67300","0.0-8.0","889","""event"",""trial"",""time""
""fullscreenenter"",""0"",""2156""
","
","
","""event"",""trial"",""time""
""fullscreenenter"",""0"",""2156""
","
","4251.09999999986","audio/mars_instructions_slide4.wav","0","","","","","","","",""
"","call-function","12","67301","0.0-9.0","889","""event"",""trial"",""time""
""fullscreenenter"",""0"",""2156""
","
","
","""event"",""trial"",""time""
""fullscreenenter"",""0"",""2156""
","
","","","","","","","","","","",""
"","html-keyboard-response","13","67812","0.0-10.0-0.0","889","""event"",""trial"",""time""
""fullscreenenter"",""0"",""2156""
","
","
","""event"",""trial"",""time""
""fullscreenenter"",""0"",""2156""
","
","null","<div style=""font-size:60px;"">+</div>","","null","fixation","2021-08-11 12:49:11.145","","","","",""
"","mars-trial","14","69871","0.0-10.0-1.0","889","""event"",""trial"",""time""
""fullscreenenter"",""0"",""2156""
","
","
","""event"",""trial"",""time""
""fullscreenenter"",""0"",""2156""
","
","1453.1000000000931","<img style='border: 4px solid darkgrey;' src='img/tf1_1_M_ss3.jpeg'></img>","3","","exp","","0","<img src='img/tf1_1_T1_ss3_md.jpeg'></img>","0","true",""
"","html-keyboard-response","15","70374","0.0-10.0-0.1","889","""event"",""trial"",""time""
""fullscreenenter"",""0"",""2156""
","
","
","""event"",""trial"",""time""
""fullscreenenter"",""0"",""2156""
","
","null","<div style=""font-size:60px;"">+</div>","","null","fixation","2021-08-11 12:49:13.707","","","","",""
"","mars-trial","16","73353","0.0-10.0-1.1","889","""event"",""trial"",""time""
""fullscreenenter"",""0"",""2156""
","
","
","""event"",""trial"",""time""
""fullscreenenter"",""0"",""2156""
","
","2366.100000000093","<img style='border: 4px solid darkgrey;' src='img/tf1_2_M_ss1.jpeg'></img>","2","","exp","","0","<img src='img/tf1_2_T1_ss1_md.jpeg'></img>","0","true",""
"","html-keyboard-response","17","73855","0.0-10.0-0.2","889","""event"",""trial"",""time""
""fullscreenenter"",""0"",""2156""
","
","
","""event"",""trial"",""time""
""fullscreenenter"",""0"",""2156""
","
","null","<div style=""font-size:60px;"">+</div>","","null","fixation","2021-08-11 12:49:17.188","","","","",""
"","mars-trial","18","76667","0.0-10.0-1.2","889","""event"",""trial"",""time""
""fullscreenenter"",""0"",""2156""
","
","
","""event"",""trial"",""time""
""fullscreenenter"",""0"",""2156""
","
","2206.8000000000466","<img style='border: 4px solid darkgrey;' src='img/tf1_3_M_ss2.jpeg'></img>","0","","exp","","0","<img src='img/tf1_3_T1_ss2_md.jpeg'></img>","0","true",""
"","html-keyboard-response","19","77169","0.0-10.0-0.3","889","""event"",""trial"",""time""
""fullscreenenter"",""0"",""2156""
","
","
","""event"",""trial"",""time""
""fullscreenenter"",""0"",""2156""
","
","null","<div style=""font-size:60px;"">+</div>","","null","fixation","2021-08-11 12:49:20.502","","","","",""
"","mars-trial","20","80360","0.0-10.0-1.3","889","""event"",""trial"",""time""
""fullscreenenter"",""0"",""2156""
","
","
","""event"",""trial"",""time""
""fullscreenenter"",""0"",""2156""
","
","2581.2000000001863","<img style='border: 4px solid darkgrey;' src='img/tf1_4_M_ss3.jpeg'></img>","1","","exp","","0","<img src='img/tf1_4_T1_ss3_md.jpeg'></img>","0","true",""
"","html-keyboard-response","21","80862","0.0-10.0-0.4","889","""event"",""trial"",""time""
""fullscreenenter"",""0"",""2156""
","
","
","""event"",""trial"",""time""
""fullscreenenter"",""0"",""2156""
","
","null","<div style=""font-size:60px;"">+</div>","","null","fixation","2021-08-11 12:49:24.195","","","","",""
"","mars-trial","22","83135","0.0-10.0-1.4","889","""event"",""trial"",""time""
""fullscreenenter"",""0"",""2156""
","
","
","""event"",""trial"",""time""
""fullscreenenter"",""0"",""2156""
","
","1667.1000000000931","<img style='border: 4px solid darkgrey;' src='img/tf1_5_M_ss1.jpeg'></img>","2","","exp","","0","<img src='img/tf1_5_T1_ss1_md.jpeg'></img>","0","true",""
"","html-keyboard-response","23","83643","0.0-10.0-0.5","889","""event"",""trial"",""time""
""fullscreenenter"",""0"",""2156""
","
","
","""event"",""trial"",""time""
""fullscreenenter"",""0"",""2156""
","
","null","<div style=""font-size:60px;"">+</div>","","null","fixation","2021-08-11 12:49:26.976","","","","",""
"","mars-trial","24","88993","0.0-10.0-1.5","889","""event"",""trial"",""time""
""fullscreenenter"",""0"",""2156""
","
","
","""event"",""trial"",""time""
""fullscreenenter"",""0"",""2156""
","
","4726.800000000047","<img style='border: 4px solid darkgrey;' src='img/tf1_6_M_ss2.jpeg'></img>","2","","exp","","2","<img src='img/tf1_6_T1_ss2_md.jpeg'></img>","0","false",""
"","html-keyboard-response","25","89502","0.0-10.0-0.6","889","""event"",""trial"",""time""
""fullscreenenter"",""0"",""2156""
","
","
","""event"",""trial"",""time""
""fullscreenenter"",""0"",""2156""
","
","null","<div style=""font-size:60px;"">+</div>","","null","fixation","2021-08-11 12:49:32.835","","","","",""
"","mars-trial","26","94692","0.0-10.0-1.6","889","""event"",""trial"",""time""
""fullscreenenter"",""0"",""2156""
","
","
","""event"",""trial"",""time""
""fullscreenenter"",""0"",""2156""
","
","4568.899999999907","<img style='border: 4px solid darkgrey;' src='img/tf1_7_M_ss3.jpeg'></img>","3","","exp","","0","<img src='img/tf1_7_T1_ss3_md.jpeg'></img>","0","true",""
"","html-keyboard-response","27","95195","0.0-10.0-0.7","889","""event"",""trial"",""time""
""fullscreenenter"",""0"",""2156""
","
","
","""event"",""trial"",""time""
""fullscreenenter"",""0"",""2156""
","
","null","<div style=""font-size:60px;"">+</div>","","null","fixation","2021-08-11 12:49:38.528","","","","",""
"","mars-trial","28","100770","0.0-10.0-1.7","889","""event"",""trial"",""time""
""fullscreenenter"",""0"",""2156""
","
","
","""event"",""trial"",""time""
""fullscreenenter"",""0"",""2156""
","
","4968.5","<img style='border: 4px solid darkgrey;' src='img/tf1_8_M_ss1.jpeg'></img>","0","","exp","","0","<img src='img/tf1_8_T1_ss1_md.jpeg'></img>","0","true",""
"","html-keyboard-response","29","101272","0.0-10.0-0.8","889","""event"",""trial"",""time""
""fullscreenenter"",""0"",""2156""
","
","
","""event"",""trial"",""time""
""fullscreenenter"",""0"",""2156""
","
","null","<div style=""font-size:60px;"">+</div>","","null","fixation","2021-08-11 12:49:44.605","","","","",""
"","mars-trial","30","106163","0.0-10.0-1.8","889","""event"",""trial"",""time""
""fullscreenenter"",""0"",""2156""
","
","
","""event"",""trial"",""time""
""fullscreenenter"",""0"",""2156""
","
","4284","<img style='border: 4px solid darkgrey;' src='img/tf1_9_M_ss2.jpeg'></img>","3","","exp","","0","<img src='img/tf1_9_T1_ss2_md.jpeg'></img>","0","true",""
"","html-keyboard-response","31","106665","0.0-10.0-0.9","889","""event"",""trial"",""time""
""fullscreenenter"",""0"",""2156""
","
","
","""event"",""trial"",""time""
""fullscreenenter"",""0"",""2156""
","
","null","<div style=""font-size:60px;"">+</div>","","null","fixation","2021-08-11 12:49:49.998","","","","",""
"","mars-trial","32","114668","0.0-10.0-1.9","889","""event"",""trial"",""time""
""fullscreenenter"",""0"",""2156""
","
","
","""event"",""trial"",""time""
""fullscreenenter"",""0"",""2156""
","
","7398","<img style='border: 4px solid darkgrey;' src='img/tf1_10_M_ss3.jpeg'></img>","3","","exp","","3","<img src='img/tf1_10_T1_ss3_md.jpeg'></img>","0","false",""
"","html-keyboard-response","33","115169","0.0-10.0-0.10","889","""event"",""trial"",""time""
""fullscreenenter"",""0"",""2156""
","
","
","""event"",""trial"",""time""
""fullscreenenter"",""0"",""2156""
","
","null","<div style=""font-size:60px;"">+</div>","","null","fixation","2021-08-11 12:49:58.502","","","","",""
"","mars-trial","34","121939","0.0-10.0-1.10","889","""event"",""trial"",""time""
""fullscreenenter"",""0"",""2156""
","
","
","""event"",""trial"",""time""
""fullscreenenter"",""0"",""2156""
","
","6162.5","<img style='border: 4px solid darkgrey;' src='img/tf1_11_M_ss1.jpeg'></img>","0","","exp","","3","<img src='img/tf1_11_T1_ss1_md.jpeg'></img>","0","false",""
"","html-keyboard-response","35","122441","0.0-10.0-0.11","889","""event"",""trial"",""time""
""fullscreenenter"",""0"",""2156""
","
","
","""event"",""trial"",""time""
""fullscreenenter"",""0"",""2156""
","
","null","<div style=""font-size:60px;"">+</div>","","null","fixation","2021-08-11 12:50:05.774","","","","",""
"","mars-trial","36","129462","0.0-10.0-1.11","889","""event"",""trial"",""time""
""fullscreenenter"",""0"",""2156""
","
","
","""event"",""trial"",""time""
""fullscreenenter"",""0"",""2156""
","
","6416.199999999953","<img style='border: 4px solid darkgrey;' src='img/tf1_12_M_ss2.jpeg'></img>","1","","exp","","1","<img src='img/tf1_12_T1_ss2_md.jpeg'></img>","0","false",""
"","html-keyboard-response","37","129964","0.0-10.0-0.12","889","""event"",""trial"",""time""
""fullscreenenter"",""0"",""2156""
","
","
","""event"",""trial"",""time""
""fullscreenenter"",""0"",""2156""
","
","null","<div style=""font-size:60px;"">+</div>","","null","fixation","2021-08-11 12:50:13.297","","","","",""
"","mars-trial","38","135193","0.0-10.0-1.12","889","""event"",""trial"",""time""
""fullscreenenter"",""0"",""2156""
","
","
","""event"",""trial"",""time""
""fullscreenenter"",""0"",""2156""
","
","4623.600000000093","<img style='border: 4px solid darkgrey;' src='img/tf1_13_M_ss3.jpeg'></img>","0","","exp","","2","<img src='img/tf1_13_T1_ss3_md.jpeg'></img>","0","false",""
"","html-keyboard-response","39","135695","0.0-10.0-0.13","889","""event"",""trial"",""time""
""fullscreenenter"",""0"",""2156""
","
","
","""event"",""trial"",""time""
""fullscreenenter"",""0"",""2156""
","
","null","<div style=""font-size:60px;"">+</div>","","null","fixation","2021-08-11 12:50:19.028","","","","",""
"","mars-trial","40","141287","0.0-10.0-1.13","889","""event"",""trial"",""time""
""fullscreenenter"",""0"",""2156""
","
","
","""event"",""trial"",""time""
""fullscreenenter"",""0"",""2156""
","
","4987.5","<img style='border: 4px solid darkgrey;' src='img/tf1_14_M_ss1.jpeg'></img>","1","","exp","","0","<img src='img/tf1_14_T1_ss1_md.jpeg'></img>","0","true",""
"","html-keyboard-response","41","141790","0.0-10.0-0.14","889","""event"",""trial"",""time""
""fullscreenenter"",""0"",""2156""
","
","
","""event"",""trial"",""time""
""fullscreenenter"",""0"",""2156""
","
","null","<div style=""font-size:60px;"">+</div>","","null","fixation","2021-08-11 12:50:25.123","","","","",""
"","mars-trial","42","146369","0.0-10.0-1.14","889","""event"",""trial"",""time""
""fullscreenenter"",""0"",""2156""
","
","
","""event"",""trial"",""time""
""fullscreenenter"",""0"",""2156""
","
","3974","<img style='border: 4px solid darkgrey;' src='img/tf1_15_M_ss2.jpeg'></img>","2","","exp","","3","<img src='img/tf1_15_T1_ss2_md.jpeg'></img>","0","false",""
"","html-keyboard-response","43","146872","0.0-10.0-0.15","889","""event"",""trial"",""time""
""fullscreenenter"",""0"",""2156""
","
","
","""event"",""trial"",""time""
""fullscreenenter"",""0"",""2156""
","
","null","<div style=""font-size:60px;"">+</div>","","null","fixation","2021-08-11 12:50:30.205","","","","",""
"","mars-trial","44","152560","0.0-10.0-1.15","889","""event"",""trial"",""time""
""fullscreenenter"",""0"",""2156""
","
","
","""event"",""trial"",""time""
""fullscreenenter"",""0"",""2156""
","
","5082.5","<img style='border: 4px solid darkgrey;' src='img/tf1_16_M_ss3.jpeg'></img>","0","","exp","","3","<img src='img/tf1_16_T1_ss3_md.jpeg'></img>","0","false",""
"","html-keyboard-response","45","153062","0.0-10.0-0.16","889","""event"",""trial"",""time""
""fullscreenenter"",""0"",""2156""
","
","
","""event"",""trial"",""time""
""fullscreenenter"",""0"",""2156""
","
","null","<div style=""font-size:60px;"">+</div>","","null","fixation","2021-08-11 12:50:36.395","","","","",""
"","mars-trial","46","159568","0.0-10.0-1.16","889","""event"",""trial"",""time""
""fullscreenenter"",""0"",""2156""
","
","
","""event"",""trial"",""time""
""fullscreenenter"",""0"",""2156""
","
","5900","<img style='border: 4px solid darkgrey;' src='img/tf1_17_M_ss1.jpeg'></img>","3","","exp","","1","<img src='img/tf1_17_T1_ss1_md.jpeg'></img>","0","false",""
"","html-keyboard-response","47","160070","0.0-10.0-0.17","889","""event"",""trial"",""time""
""fullscreenenter"",""0"",""2156""
","
","
","""event"",""trial"",""time""
""fullscreenenter"",""0"",""2156""
","
","null","<div style=""font-size:60px;"">+</div>","","null","fixation","2021-08-11 12:50:43.403","","","","",""
"","mars-trial","48","166265","0.0-10.0-1.17","889","""event"",""trial"",""time""
""fullscreenenter"",""0"",""2156""
","
","
","""event"",""trial"",""time""
""fullscreenenter"",""0"",""2156""
","
","5587.399999999907","<img style='border: 4px solid darkgrey;' src='img/tf1_18_M_ss2.jpeg'></img>","2","","exp","","2","<img src='img/tf1_18_T1_ss2_md.jpeg'></img>","0","false",""
"","html-keyboard-response","49","166767","0.0-10.0-0.18","889","""event"",""trial"",""time""
""fullscreenenter"",""0"",""2156""
","
","
","""event"",""trial"",""time""
""fullscreenenter"",""0"",""2156""
","
","null","<div style=""font-size:60px;"">+</div>","","null","fixation","2021-08-11 12:50:50.100","","","","",""
"","mars-trial","50","170377","0.0-10.0-1.18","889","""event"",""trial"",""time""
""fullscreenenter"",""0"",""2156""
","
","
","""event"",""trial"",""time""
""fullscreenenter"",""0"",""2156""
","
","3004.6999999999534","<img style='border: 4px solid darkgrey;' src='img/tf1_19_M_ss3.jpeg'></img>","2","","exp","","1","<img src='img/tf1_19_T1_ss3_md.jpeg'></img>","0","false",""
"","html-keyboard-response","51","170879","0.0-10.0-0.19","889","""event"",""trial"",""time""
""fullscreenenter"",""0"",""2156""
","
","
","""event"",""trial"",""time""
""fullscreenenter"",""0"",""2156""
","
","null","<div style=""font-size:60px;"">+</div>","","null","fixation","2021-08-11 12:50:54.212","","","","",""
"","mars-trial","52","177108","0.0-10.0-1.19","889","""event"",""trial"",""time""
""fullscreenenter"",""0"",""2156""
","
","
","""event"",""trial"",""time""
""fullscreenenter"",""0"",""2156""
","
","5624.5","<img style='border: 4px solid darkgrey;' src='img/tf1_20_M_ss1.jpeg'></img>","2","","exp","","3","<img src='img/tf1_20_T1_ss1_md.jpeg'></img>","0","false",""
"","html-keyboard-response","53","177610","0.0-10.0-0.20","889","""event"",""trial"",""time""
""fullscreenenter"",""0"",""2156""
","
","
","""event"",""trial"",""time""
""fullscreenenter"",""0"",""2156""
","
","null","<div style=""font-size:60px;"">+</div>","","null","fixation","2021-08-11 12:51:00.943","","","","",""
"","mars-trial","54","181436","0.0-10.0-1.20","889","""event"",""trial"",""time""
""fullscreenenter"",""0"",""2156""
","
","
","""event"",""trial"",""time""
""fullscreenenter"",""0"",""2156""
","
","3220.5999999998603","<img style='border: 4px solid darkgrey;' src='img/tf1_21_M_ss2.jpeg'></img>","3","","exp","","1","<img src='img/tf1_21_T1_ss2_md.jpeg'></img>","0","false",""
"","html-keyboard-response","55","181939","0.0-10.0-0.21","889","""event"",""trial"",""time""
""fullscreenenter"",""0"",""2156""
","
","
","""event"",""trial"",""time""
""fullscreenenter"",""0"",""2156""
","
","null","<div style=""font-size:60px;"">+</div>","","null","fixation","2021-08-11 12:51:05.272","","","","",""
"","mars-trial","56","186498","0.0-10.0-1.21","889","""event"",""trial"",""time""
""fullscreenenter"",""0"",""2156""
","
","
","""event"",""trial"",""time""
""fullscreenenter"",""0"",""2156""
","
","3952.0999999998603","<img style='border: 4px solid darkgrey;' src='img/tf1_22_M_ss3.jpeg'></img>","1","","exp","","3","<img src='img/tf1_22_T1_ss3_md.jpeg'></img>","0","false",""
"","html-keyboard-response","57","187000","0.0-10.0-0.22","889","""event"",""trial"",""time""
""fullscreenenter"",""0"",""2156""
","
","
","""event"",""trial"",""time""
""fullscreenenter"",""0"",""2156""
","
","null","<div style=""font-size:60px;"">+</div>","","null","fixation","2021-08-11 12:51:10.333","","","","",""
"","mars-trial","58","192361","0.0-10.0-1.22","889","""event"",""trial"",""time""
""fullscreenenter"",""0"",""2156""
","
","
","""event"",""trial"",""time""
""fullscreenenter"",""0"",""2156""
","
","4755.300000000047","<img style='border: 4px solid darkgrey;' src='img/tf1_23_M_ss1.jpeg'></img>","1","","exp","","0","<img src='img/tf1_23_T1_ss1_md.jpeg'></img>","0","true",""
"","html-keyboard-response","59","192862","0.0-10.0-0.23","889","""event"",""trial"",""time""
""fullscreenenter"",""0"",""2156""
","
","
","""event"",""trial"",""time""
""fullscreenenter"",""0"",""2156""
","
","null","<div style=""font-size:60px;"">+</div>","","null","fixation","2021-08-11 12:51:16.195","","","","",""
"","mars-trial","60","198394","0.0-10.0-1.23","889","""event"",""trial"",""time""
""fullscreenenter"",""0"",""2156""
","
","
","""event"",""trial"",""time""
""fullscreenenter"",""0"",""2156""
","
","4925.5","<img style='border: 4px solid darkgrey;' src='img/tf1_24_M_ss2.jpeg'></img>","2","","exp","","0","<img src='img/tf1_24_T1_ss2_md.jpeg'></img>","0","true",""
"","html-keyboard-response","61","198896","0.0-10.0-0.24","889","""event"",""trial"",""time""
""fullscreenenter"",""0"",""2156""
","
","
","""event"",""trial"",""time""
""fullscreenenter"",""0"",""2156""
","
","null","<div style=""font-size:60px;"">+</div>","","null","fixation","2021-08-11 12:51:22.229","","","","",""
"","mars-trial","62","202539","0.0-10.0-1.24","889","""event"",""trial"",""time""
""fullscreenenter"",""0"",""2156""
","
","
","""event"",""trial"",""time""
""fullscreenenter"",""0"",""2156""
","
","3038.600000000093","<img style='border: 4px solid darkgrey;' src='img/tf1_25_M_ss3.jpeg'></img>","3","","exp","","0","<img src='img/tf1_25_T1_ss3_md.jpeg'></img>","0","true",""
"","html-keyboard-response","63","203044","0.0-10.0-0.25","889","""event"",""trial"",""time""
""fullscreenenter"",""0"",""2156""
","
","
","""event"",""trial"",""time""
""fullscreenenter"",""0"",""2156""
","
","null","<div style=""font-size:60px;"">+</div>","","null","fixation","2021-08-11 12:51:26.377","","","","",""
"","mars-trial","64","209430","0.0-10.0-1.25","889","""event"",""trial"",""time""
""fullscreenenter"",""0"",""2156""
","
","
","""event"",""trial"",""time""
""fullscreenenter"",""0"",""2156""
","
","5780.300000000047","<img style='border: 4px solid darkgrey;' src='img/tf1_26_M_ss1.jpeg'></img>","3","","exp","","1","<img src='img/tf1_26_T1_ss1_md.jpeg'></img>","0","false",""
"","html-keyboard-response","65","209932","0.0-10.0-0.26","889","""event"",""trial"",""time""
""fullscreenenter"",""0"",""2156""
","
","
","""event"",""trial"",""time""
""fullscreenenter"",""0"",""2156""
","
","null","<div style=""font-size:60px;"">+</div>","","null","fixation","2021-08-11 12:51:33.265","","","","",""
"","mars-trial","66","213903","0.0-10.0-1.26","889","""event"",""trial"",""time""
""fullscreenenter"",""0"",""2156""
","
","
","""event"",""trial"",""time""
""fullscreenenter"",""0"",""2156""
","
","3365.8000000000466","<img style='border: 4px solid darkgrey;' src='img/tf1_27_M_ss2.jpeg'></img>","3","","exp","","2","<img src='img/tf1_27_T1_ss2_md.jpeg'></img>","0","false",""
"","html-keyboard-response","67","214404","0.0-10.0-0.27","889","""event"",""trial"",""time""
""fullscreenenter"",""0"",""2156""
","
","
","""event"",""trial"",""time""
""fullscreenenter"",""0"",""2156""
","
","null","<div style=""font-size:60px;"">+</div>","","null","fixation","2021-08-11 12:51:37.737","","","","",""
"","mars-trial","68","221631","0.0-10.0-1.27","889","""event"",""trial"",""time""
""fullscreenenter"",""0"",""2156""
","
","
","""event"",""trial"",""time""
""fullscreenenter"",""0"",""2156""
","
","6618.199999999953","<img style='border: 4px solid darkgrey;' src='img/tf1_28_M_ss3.jpeg'></img>","2","","exp","","0","<img src='img/tf1_28_T1_ss3_md.jpeg'></img>","0","true",""
"","html-keyboard-response","69","222132","0.0-10.0-0.28","889","""event"",""trial"",""time""
""fullscreenenter"",""0"",""2156""
","
","
","""event"",""trial"",""time""
""fullscreenenter"",""0"",""2156""
","
","null","<div style=""font-size:60px;"">+</div>","","null","fixation","2021-08-11 12:51:45.465","","","","",""
"","mars-trial","70","226007","0.0-10.0-1.28","889","""event"",""trial"",""time""
""fullscreenenter"",""0"",""2156""
","
","
","""event"",""trial"",""time""
""fullscreenenter"",""0"",""2156""
","
","3270.7999999998137","<img style='border: 4px solid darkgrey;' src='img/tf1_29_M_ss1.jpeg'></img>","1","","exp","","2","<img src='img/tf1_29_T1_ss1_md.jpeg'></img>","0","false",""
"","html-keyboard-response","71","226509","0.0-10.0-0.29","889","""event"",""trial"",""time""
""fullscreenenter"",""0"",""2156""
","
","
","""event"",""trial"",""time""
""fullscreenenter"",""0"",""2156""
","
","null","<div style=""font-size:60px;"">+</div>","","null","fixation","2021-08-11 12:51:49.842","","","","",""
"","mars-trial","72","230841","0.0-10.0-1.29","889","""event"",""trial"",""time""
""fullscreenenter"",""0"",""2156""
","
","
","""event"",""trial"",""time""
""fullscreenenter"",""0"",""2156""
","
","3727.1999999999534","<img style='border: 4px solid darkgrey;' src='img/tf1_30_M_ss2.jpeg'></img>","2","","exp","","0","<img src='img/tf1_30_T1_ss2_md.jpeg'></img>","0","true",""
"","html-keyboard-response","73","231344","0.0-10.0-0.30","889","""event"",""trial"",""time""
""fullscreenenter"",""0"",""2156""
","
","
","""event"",""trial"",""time""
""fullscreenenter"",""0"",""2156""
","
","null","<div style=""font-size:60px;"">+</div>","","null","fixation","2021-08-11 12:51:54.677","","","","",""
"","mars-trial","74","235462","0.0-10.0-1.30","889","""event"",""trial"",""time""
""fullscreenenter"",""0"",""2156""
","
","
","""event"",""trial"",""time""
""fullscreenenter"",""0"",""2156""
","
","3511.4000000001397","<img style='border: 4px solid darkgrey;' src='img/tf1_31_M_ss3.jpeg'></img>","2","","exp","","1","<img src='img/tf1_31_T1_ss3_md.jpeg'></img>","0","false",""
"","html-keyboard-response","75","235964","0.0-10.0-0.31","889","""event"",""trial"",""time""
""fullscreenenter"",""0"",""2156""
","
","
","""event"",""trial"",""time""
""fullscreenenter"",""0"",""2156""
","
","null","<div style=""font-size:60px;"">+</div>","","null","fixation","2021-08-11 12:51:59.297","","","","",""
"","mars-trial","76","244229","0.0-10.0-1.31","889","""event"",""trial"",""time""
""fullscreenenter"",""0"",""2156""
","
","
","""event"",""trial"",""time""
""fullscreenenter"",""0"",""2156""
","
","7660.40000000014","<img style='border: 4px solid darkgrey;' src='img/tf1_32_M_ss1.jpeg'></img>","1","","exp","","3","<img src='img/tf1_32_T1_ss1_md.jpeg'></img>","0","false",""
"","html-keyboard-response","77","244731","0.0-10.0-0.32","889","""event"",""trial"",""time""
""fullscreenenter"",""0"",""2156""
","
","
","""event"",""trial"",""time""
""fullscreenenter"",""0"",""2156""
","
","null","<div style=""font-size:60px;"">+</div>","","null","fixation","2021-08-11 12:52:08.064","","","","",""
"","mars-trial","78","249011","0.0-10.0-1.32","889","""event"",""trial"",""time""
""fullscreenenter"",""0"",""2156""
","
","
","""event"",""trial"",""time""
""fullscreenenter"",""0"",""2156""
","
","3677.600000000093","<img style='border: 4px solid darkgrey;' src='img/tf1_33_M_ss2.jpeg'></img>","3","","exp","","0","<img src='img/tf1_33_T1_ss2_md.jpeg'></img>","0","true",""
"","html-keyboard-response","79","249512","0.0-10.0-0.33","889","""event"",""trial"",""time""
""fullscreenenter"",""0"",""2156""
","
","
","""event"",""trial"",""time""
""fullscreenenter"",""0"",""2156""
","
","null","<div style=""font-size:60px;"">+</div>","","null","fixation","2021-08-11 12:52:12.845","","","","",""
"","mars-trial","80","255879","0.0-10.0-1.33","889","""event"",""trial"",""time""
""fullscreenenter"",""0"",""2156""
","
","
","""event"",""trial"",""time""
""fullscreenenter"",""0"",""2156""
","
","5763.399999999907","<img style='border: 4px solid darkgrey;' src='img/tf1_34_M_ss3.jpeg'></img>","2","","exp","","3","<img src='img/tf1_34_T1_ss3_md.jpeg'></img>","0","false",""
"","html-keyboard-response","81","256380","0.0-10.0-0.34","889","""event"",""trial"",""time""
""fullscreenenter"",""0"",""2156""
","
","
","""event"",""trial"",""time""
""fullscreenenter"",""0"",""2156""
","
","null","<div style=""font-size:60px;"">+</div>","","null","fixation","2021-08-11 12:52:19.713","","","","",""
"","mars-trial","82","259556","0.0-10.0-1.34","889","""event"",""trial"",""time""
""fullscreenenter"",""0"",""2156""
","
","
","""event"",""trial"",""time""
""fullscreenenter"",""0"",""2156""
","
","2569.600000000093","<img style='border: 4px solid darkgrey;' src='img/tf1_35_M_ss1.jpeg'></img>","2","","exp","","2","<img src='img/tf1_35_T1_ss1_md.jpeg'></img>","0","false",""
"","html-keyboard-response","83","260057","0.0-10.0-0.35","889","""event"",""trial"",""time""
""fullscreenenter"",""0"",""2156""
","
","
","""event"",""trial"",""time""
""fullscreenenter"",""0"",""2156""
","
","null","<div style=""font-size:60px;"">+</div>","","null","fixation","2021-08-11 12:52:23.390","","","","",""
"","mars-trial","84","262845","0.0-10.0-1.35","889","""event"",""trial"",""time""
""fullscreenenter"",""0"",""2156""
","
","
","""event"",""trial"",""time""
""fullscreenenter"",""0"",""2156""
","
","2182.600000000093","<img style='border: 4px solid darkgrey;' src='img/tf1_36_M_ss2.jpeg'></img>","3","","exp","","2","<img src='img/tf1_36_T1_ss2_md.jpeg'></img>","0","false",""
"","html-keyboard-response","85","263347","0.0-10.0-0.36","889","""event"",""trial"",""time""
""fullscreenenter"",""0"",""2156""
","
","
","""event"",""trial"",""time""
""fullscreenenter"",""0"",""2156""
","
","null","<div style=""font-size:60px;"">+</div>","","null","fixation","2021-08-11 12:52:26.680","","","","",""
"","mars-trial","86","268311","0.0-10.0-1.36","889","""event"",""trial"",""time""
""fullscreenenter"",""0"",""2156""
","
","
","""event"",""trial"",""time""
""fullscreenenter"",""0"",""2156""
","
","4356.799999999814","<img style='border: 4px solid darkgrey;' src='img/tf1_37_M_ss3.jpeg'></img>","3","","exp","","2","<img src='img/tf1_37_T1_ss3_md.jpeg'></img>","0","false",""
"","html-keyboard-response","87","268813","0.0-10.0-0.37","889","""event"",""trial"",""time""
""fullscreenenter"",""0"",""2156""
","
","
","""event"",""trial"",""time""
""fullscreenenter"",""0"",""2156""
","
","null","<div style=""font-size:60px;"">+</div>","","null","fixation","2021-08-11 12:52:32.146","","","","",""
"","mars-trial","88","272938","0.0-10.0-1.37","889","""event"",""trial"",""time""
""fullscreenenter"",""0"",""2156""
","
","
","""event"",""trial"",""time""
""fullscreenenter"",""0"",""2156""
","
","3522.100000000093","<img style='border: 4px solid darkgrey;' src='img/tf1_38_M_ss1.jpeg'></img>","0","","exp","","0","<img src='img/tf1_38_T1_ss1_md.jpeg'></img>","0","true",""
"","html-keyboard-response","89","273441","0.0-10.0-0.38","889","""event"",""trial"",""time""
""fullscreenenter"",""0"",""2156""
","
","
","""event"",""trial"",""time""
""fullscreenenter"",""0"",""2156""
","
","null","<div style=""font-size:60px;"">+</div>","","null","fixation","2021-08-11 12:52:36.774","","","","",""
"","mars-trial","90","276846","0.0-10.0-1.38","889","""event"",""trial"",""time""
""fullscreenenter"",""0"",""2156""
","
","
","""event"",""trial"",""time""
""fullscreenenter"",""0"",""2156""
","
","2798.899999999907","<img style='border: 4px solid darkgrey;' src='img/tf1_39_M_ss2.jpeg'></img>","2","","exp","","1","<img src='img/tf1_39_T1_ss2_md.jpeg'></img>","0","false",""
"","html-keyboard-response","91","277348","0.0-10.0-0.39","889","""event"",""trial"",""time""
""fullscreenenter"",""0"",""2156""
","
","
","""event"",""trial"",""time""
""fullscreenenter"",""0"",""2156""
","
","null","<div style=""font-size:60px;"">+</div>","","null","fixation","2021-08-11 12:52:40.681","","","","",""
"","mars-trial","92","283342","0.0-10.0-1.39","889","""event"",""trial"",""time""
""fullscreenenter"",""0"",""2156""
","
","
","""event"",""trial"",""time""
""fullscreenenter"",""0"",""2156""
","
","5388","<img style='border: 4px solid darkgrey;' src='img/tf1_40_M_ss3.jpeg'></img>","3","","exp","","3","<img src='img/tf1_40_T1_ss3_md.jpeg'></img>","0","false",""
"","html-keyboard-response","93","283843","0.0-10.0-0.40","889","""event"",""trial"",""time""
""fullscreenenter"",""0"",""2156""
","
","
","""event"",""trial"",""time""
""fullscreenenter"",""0"",""2156""
","
","null","<div style=""font-size:60px;"">+</div>","","null","fixation","2021-08-11 12:52:47.176","","","","",""
"","mars-trial","94","286768","0.0-10.0-1.40","889","""event"",""trial"",""time""
""fullscreenenter"",""0"",""2156""
","
","
","""event"",""trial"",""time""
""fullscreenenter"",""0"",""2156""
","
","2318.5","<img style='border: 4px solid darkgrey;' src='img/tf1_41_M_ss1.jpeg'></img>","3","","exp","","0","<img src='img/tf1_41_T1_ss1_md.jpeg'></img>","0","true",""
"","html-keyboard-response","95","287273","0.0-10.0-0.41","889","""event"",""trial"",""time""
""fullscreenenter"",""0"",""2156""
","
","
","""event"",""trial"",""time""
""fullscreenenter"",""0"",""2156""
","
","null","<div style=""font-size:60px;"">+</div>","","null","fixation","2021-08-11 12:52:50.606","","","","",""
"","mars-trial","96","292021","0.0-10.0-1.41","889","""event"",""trial"",""time""
""fullscreenenter"",""0"",""2156""
","
","
","""event"",""trial"",""time""
""fullscreenenter"",""0"",""2156""
","
","4143.299999999814","<img style='border: 4px solid darkgrey;' src='img/tf1_42_M_ss2.jpeg'></img>","3","","exp","","2","<img src='img/tf1_42_T1_ss2_md.jpeg'></img>","0","false",""
"","html-keyboard-response","97","292523","0.0-10.0-0.42","889","""event"",""trial"",""time""
""fullscreenenter"",""0"",""2156""
","
","
","""event"",""trial"",""time""
""fullscreenenter"",""0"",""2156""
","
","null","<div style=""font-size:60px;"">+</div>","","null","fixation","2021-08-11 12:52:55.856","","","","",""
"","mars-trial","98","298391","0.0-10.0-1.42","889","""event"",""trial"",""time""
""fullscreenenter"",""0"",""2156""
","
","
","""event"",""trial"",""time""
""fullscreenenter"",""0"",""2156""
","
","5265.299999999814","<img style='border: 4px solid darkgrey;' src='img/tf1_43_M_ss3.jpeg'></img>","2","","exp","","0","<img src='img/tf1_43_T1_ss3_md.jpeg'></img>","0","true",""
"","html-keyboard-response","99","298893","0.0-10.0-0.43","889","""event"",""trial"",""time""
""fullscreenenter"",""0"",""2156""
","
","
","""event"",""trial"",""time""
""fullscreenenter"",""0"",""2156""
","
","null","<div style=""font-size:60px;"">+</div>","","null","fixation","2021-08-11 12:53:02.226","","","","",""
"","mars-trial","100","305191","0.0-10.0-1.43","889","""event"",""trial"",""time""
""fullscreenenter"",""0"",""2156""
","
","
","""event"",""trial"",""time""
""fullscreenenter"",""0"",""2156""
","
","5694.100000000093","<img style='border: 4px solid darkgrey;' src='img/tf1_44_M_ss1.jpeg'></img>","2","","exp","","1","<img src='img/tf1_44_T1_ss1_md.jpeg'></img>","0","false",""
"","html-keyboard-response","101","305693","0.0-10.0-0.44","889","""event"",""trial"",""time""
""fullscreenenter"",""0"",""2156""
","
","
","""event"",""trial"",""time""
""fullscreenenter"",""0"",""2156""
","
","null","<div style=""font-size:60px;"">+</div>","","null","fixation","2021-08-11 12:53:09.026","","","","",""
"","mars-trial","102","309705","0.0-10.0-1.44","889","""event"",""trial"",""time""
""fullscreenenter"",""0"",""2156""
","
","
","""event"",""trial"",""time""
""fullscreenenter"",""0"",""2156""
","
","3407.399999999907","<img style='border: 4px solid darkgrey;' src='img/tf1_45_M_ss2.jpeg'></img>","2","","exp","","0","<img src='img/tf1_45_T1_ss2_md.jpeg'></img>","0","true",""
"","html-keyboard-response","103","310207","0.0-10.0-0.45","889","""event"",""trial"",""time""
""fullscreenenter"",""0"",""2156""
","
","
","""event"",""trial"",""time""
""fullscreenenter"",""0"",""2156""
","
","null","<div style=""font-size:60px;"">+</div>","","null","fixation","2021-08-11 12:53:13.540","","","","",""
"","mars-trial","104","315198","0.0-10.0-1.45","889","""event"",""trial"",""time""
""fullscreenenter"",""0"",""2156""
","
","
","""event"",""trial"",""time""
""fullscreenenter"",""0"",""2156""
","
","4386.90000000014","<img style='border: 4px solid darkgrey;' src='img/tf1_46_M_ss3.jpeg'></img>","3","","exp","","3","<img src='img/tf1_46_T1_ss3_md.jpeg'></img>","0","false",""
"","html-keyboard-response","105","315700","0.0-10.0-0.46","889","""event"",""trial"",""time""
""fullscreenenter"",""0"",""2156""
","
","
","""event"",""trial"",""time""
""fullscreenenter"",""0"",""2156""
","
","null","<div style=""font-size:60px;"">+</div>","","null","fixation","2021-08-11 12:53:19.033","","","","",""
"","mars-trial","106","322958","0.0-10.0-1.46","889","""event"",""trial"",""time""
""fullscreenenter"",""0"",""2156""
","
","
","""event"",""trial"",""time""
""fullscreenenter"",""0"",""2156""
","
","6654.399999999907","<img style='border: 4px solid darkgrey;' src='img/tf1_47_M_ss1.jpeg'></img>","2","","exp","","1","<img src='img/tf1_47_T1_ss1_md.jpeg'></img>","0","false",""
"","html-keyboard-response","107","323459","0.0-10.0-0.47","889","""event"",""trial"",""time""
""fullscreenenter"",""0"",""2156""
","
","
","""event"",""trial"",""time""
""fullscreenenter"",""0"",""2156""
","
","null","<div style=""font-size:60px;"">+</div>","","null","fixation","2021-08-11 12:53:26.792","","","","",""
"","mars-trial","108","328008","0.0-10.0-1.47","889","""event"",""trial"",""time""
""fullscreenenter"",""0"",""2156""
","
","
","""event"",""trial"",""time""
""fullscreenenter"",""0"",""2156""
","
","3943.399999999907","<img style='border: 4px solid darkgrey;' src='img/tf1_48_M_ss2.jpeg'></img>","3","","exp","","0","<img src='img/tf1_48_T1_ss2_md.jpeg'></img>","0","true",""
"","html-keyboard-response","109","328509","0.0-10.0-0.48","889","""event"",""trial"",""time""
""fullscreenenter"",""0"",""2156""
","
","
","""event"",""trial"",""time""
""fullscreenenter"",""0"",""2156""
","
","null","<div style=""font-size:60px;"">+</div>","","null","fixation","2021-08-11 12:53:31.843","","","","",""
"","mars-trial","110","334185","0.0-10.0-1.48","889","""event"",""trial"",""time""
""fullscreenenter"",""0"",""2156""
","
","
","""event"",""trial"",""time""
""fullscreenenter"",""0"",""2156""
","
","5070.899999999907","<img style='border: 4px solid darkgrey;' src='img/tf1_49_M_ss3.jpeg'></img>","0","","exp","","0","<img src='img/tf1_49_T1_ss3_md.jpeg'></img>","0","true",""
"","html-keyboard-response","111","334688","0.0-10.0-0.49","889","""event"",""trial"",""time""
""fullscreenenter"",""0"",""2156""
","
","
","""event"",""trial"",""time""
""fullscreenenter"",""0"",""2156""
","
","null","<div style=""font-size:60px;"">+</div>","","null","fixation","2021-08-11 12:53:38.021","","","","",""
"","mars-trial","112","340628","0.0-10.0-1.49","889","""event"",""trial"",""time""
""fullscreenenter"",""0"",""2156""
","
","
","""event"",""trial"",""time""
""fullscreenenter"",""0"",""2156""
","
","5335.600000000093","<img style='border: 4px solid darkgrey;' src='img/tf1_50_M_ss1.jpeg'></img>","1","","exp","","1","<img src='img/tf1_50_T1_ss1_md.jpeg'></img>","0","false",""
"","html-keyboard-response","113","341129","0.0-10.0-0.50","889","""event"",""trial"",""time""
""fullscreenenter"",""0"",""2156""
","
","
","""event"",""trial"",""time""
""fullscreenenter"",""0"",""2156""
","
","null","<div style=""font-size:60px;"">+</div>","","null","fixation","2021-08-11 12:53:44.462","","","","",""
"","mars-trial","114","345282","0.0-10.0-1.50","889","""event"",""trial"",""time""
""fullscreenenter"",""0"",""2156""
","
","
","""event"",""trial"",""time""
""fullscreenenter"",""0"",""2156""
","
","3548.100000000093","<img style='border: 4px solid darkgrey;' src='img/tf1_51_M_ss2.jpeg'></img>","2","","exp","","3","<img src='img/tf1_51_T1_ss2_md.jpeg'></img>","0","false",""
"","html-keyboard-response","115","345783","0.0-10.0-0.51","889","""event"",""trial"",""time""
""fullscreenenter"",""0"",""2156""
","
","
","""event"",""trial"",""time""
""fullscreenenter"",""0"",""2156""
","
","null","<div style=""font-size:60px;"">+</div>","","null","fixation","2021-08-11 12:53:49.116","","","","",""
"","mars-trial","116","349055","0.0-10.0-1.51","889","""event"",""trial"",""time""
""fullscreenenter"",""0"",""2156""
","
","
","""event"",""trial"",""time""
""fullscreenenter"",""0"",""2156""
","
","2667.100000000093","<img style='border: 4px solid darkgrey;' src='img/tf1_52_M_ss3.jpeg'></img>","3","","exp","","3","<img src='img/tf1_52_T1_ss3_md.jpeg'></img>","0","false",""
"","html-keyboard-response","117","349556","0.0-10.0-0.52","889","""event"",""trial"",""time""
""fullscreenenter"",""0"",""2156""
","
","
","""event"",""trial"",""time""
""fullscreenenter"",""0"",""2156""
","
","null","<div style=""font-size:60px;"">+</div>","","null","fixation","2021-08-11 12:53:52.889","","","","",""
"","mars-trial","118","352910","0.0-10.0-1.52","889","""event"",""trial"",""time""
""fullscreenenter"",""0"",""2156""
","
","
","""event"",""trial"",""time""
""fullscreenenter"",""0"",""2156""
","
","2746.5999999998603","<img style='border: 4px solid darkgrey;' src='img/tf1_53_M_ss1.jpeg'></img>","1","","exp","","2","<img src='img/tf1_53_T1_ss1_md.jpeg'></img>","0","false",""
"","html-keyboard-response","119","353412","0.0-10.0-0.53","889","""event"",""trial"",""time""
""fullscreenenter"",""0"",""2156""
","
","
","""event"",""trial"",""time""
""fullscreenenter"",""0"",""2156""
","
","null","<div style=""font-size:60px;"">+</div>","","null","fixation","2021-08-11 12:53:56.745","","","","",""
"","mars-trial","120","355861","0.0-10.0-1.53","889","""event"",""trial"",""time""
""fullscreenenter"",""0"",""2156""
","
","
","""event"",""trial"",""time""
""fullscreenenter"",""0"",""2156""
","
","1843.8000000000466","<img style='border: 4px solid darkgrey;' src='img/tf1_54_M_ss2.jpeg'></img>","2","","exp","","2","<img src='img/tf1_54_T1_ss2_md.jpeg'></img>","0","false",""
"","html-keyboard-response","121","356363","0.0-10.0-0.54","889","""event"",""trial"",""time""
""fullscreenenter"",""0"",""2156""
","
","
","""event"",""trial"",""time""
""fullscreenenter"",""0"",""2156""
","
","null","<div style=""font-size:60px;"">+</div>","","null","fixation","2021-08-11 12:53:59.696","","","","",""
"","mars-trial","122","357680","0.0-10.0-1.54","889","""event"",""trial"",""time""
""fullscreenenter"",""0"",""2156""
","
","
","""event"",""trial"",""time""
""fullscreenenter"",""0"",""2156""
","
","710.9000000001397","<img style='border: 4px solid darkgrey;' src='img/tf1_55_M_ss3.jpeg'></img>","0","","exp","","0","<img src='img/tf1_55_T1_ss3_md.jpeg'></img>","0","true",""
"","html-keyboard-response","123","358181","0.0-10.0-0.55","889","""event"",""trial"",""time""
""fullscreenenter"",""0"",""2156""
","
","
","""event"",""trial"",""time""
""fullscreenenter"",""0"",""2156""
","
","null","<div style=""font-size:60px;"">+</div>","","null","fixation","2021-08-11 12:54:01.514","","","","",""
"","mars-trial","124","359920","0.0-10.0-1.55","889","""event"",""trial"",""time""
""fullscreenenter"",""0"",""2156""
","
","
","""event"",""trial"",""time""
""fullscreenenter"",""0"",""2156""
","
","1132.8000000000466","<img style='border: 4px solid darkgrey;' src='img/tf1_56_M_ss1.jpeg'></img>","1","","exp","","2","<img src='img/tf1_56_T1_ss1_md.jpeg'></img>","0","false",""
"","html-keyboard-response","125","360421","0.0-10.0-0.56","889","""event"",""trial"",""time""
""fullscreenenter"",""0"",""2156""
","
","
","""event"",""trial"",""time""
""fullscreenenter"",""0"",""2156""
","
","null","<div style=""font-size:60px;"">+</div>","","null","fixation","2021-08-11 12:54:03.754","","","","",""
"","mars-trial","126","363741","0.0-10.0-1.56","889","""event"",""trial"",""time""
""fullscreenenter"",""0"",""2156""
","
","
","""event"",""trial"",""time""
""fullscreenenter"",""0"",""2156""
","
","2714","<img style='border: 4px solid darkgrey;' src='img/tf1_57_M_ss2.jpeg'></img>","3","","exp","","0","<img src='img/tf1_57_T1_ss2_md.jpeg'></img>","0","true",""
"","html-keyboard-response","127","364243","0.0-10.0-0.57","889","""event"",""trial"",""time""
""fullscreenenter"",""0"",""2156""
","
","
","""event"",""trial"",""time""
""fullscreenenter"",""0"",""2156""
","
","null","<div style=""font-size:60px;"">+</div>","","null","fixation","2021-08-11 12:54:07.576","","","","",""
"","mars-trial","128","369161","0.0-10.0-1.57","889","""event"",""trial"",""time""
""fullscreenenter"",""0"",""2156""
","
","
","""event"",""trial"",""time""
""fullscreenenter"",""0"",""2156""
","
","4311.899999999907","<img style='border: 4px solid darkgrey;' src='img/tf1_58_M_ss3.jpeg'></img>","1","","exp","","2","<img src='img/tf1_58_T1_ss3_md.jpeg'></img>","0","false",""
"","html-keyboard-response","129","369663","0.0-10.0-0.58","889","""event"",""trial"",""time""
""fullscreenenter"",""0"",""2156""
","
","
","""event"",""trial"",""time""
""fullscreenenter"",""0"",""2156""
","
","null","<div style=""font-size:60px;"">+</div>","","null","fixation","2021-08-11 12:54:12.996","","","","",""
"","mars-trial","130","374423","0.0-10.0-1.58","889","""event"",""trial"",""time""
""fullscreenenter"",""0"",""2156""
","
","
","""event"",""trial"",""time""
""fullscreenenter"",""0"",""2156""
","
","4152","<img style='border: 4px solid darkgrey;' src='img/tf1_59_M_ss1.jpeg'></img>","2","","exp","","3","<img src='img/tf1_59_T1_ss1_md.jpeg'></img>","0","false",""
"","html-keyboard-response","131","374924","0.0-10.0-0.59","889","""event"",""trial"",""time""
""fullscreenenter"",""0"",""2156""
","
","
","""event"",""trial"",""time""
""fullscreenenter"",""0"",""2156""
","
","null","<div style=""font-size:60px;"">+</div>","","null","fixation","2021-08-11 12:54:18.257","","","","",""
"","mars-trial","132","376444","0.0-10.0-1.59","889","""event"",""trial"",""time""
""fullscreenenter"",""0"",""2156""
","
","
","""event"",""trial"",""time""
""fullscreenenter"",""0"",""2156""
","
","917.3000000000466","<img style='border: 4px solid darkgrey;' src='img/tf1_60_M_ss2.jpeg'></img>","2","","exp","","3","<img src='img/tf1_60_T1_ss2_md.jpeg'></img>","0","false",""
"","html-keyboard-response","133","376946","0.0-10.0-0.60","889","""event"",""trial"",""time""
""fullscreenenter"",""0"",""2156""
","
","
","""event"",""trial"",""time""
""fullscreenenter"",""0"",""2156""
","
","null","<div style=""font-size:60px;"">+</div>","","null","fixation","2021-08-11 12:54:20.279","","","","",""
"","mars-trial","134","384717","0.0-10.0-1.60","889","""event"",""trial"",""time""
""fullscreenenter"",""0"",""2156""
","
","
","""event"",""trial"",""time""
""fullscreenenter"",""0"",""2156""
","
","7165.90000000014","<img style='border: 4px solid darkgrey;' src='img/tf1_61_M_ss3.jpeg'></img>","3","","exp","","2","<img src='img/tf1_61_T1_ss3_md.jpeg'></img>","0","false",""
"","html-keyboard-response","135","385218","0.0-10.0-0.61","889","""event"",""trial"",""time""
""fullscreenenter"",""0"",""2156""
","
","
","""event"",""trial"",""time""
""fullscreenenter"",""0"",""2156""
","
","null","<div style=""font-size:60px;"">+</div>","","null","fixation","2021-08-11 12:54:28.551","","","","",""
"","mars-trial","136","389923","0.0-10.0-1.61","889","""event"",""trial"",""time""
""fullscreenenter"",""0"",""2156""
","
","
","""event"",""trial"",""time""
""fullscreenenter"",""0"",""2156""
","
","4100.300000000047","<img style='border: 4px solid darkgrey;' src='img/tf1_62_M_ss1.jpeg'></img>","1","","exp","","1","<img src='img/tf1_62_T1_ss1_md.jpeg'></img>","0","false",""
"","html-keyboard-response","137","390424","0.0-10.0-0.62","889","""event"",""trial"",""time""
""fullscreenenter"",""0"",""2156""
","
","
","""event"",""trial"",""time""
""fullscreenenter"",""0"",""2156""
","
","null","<div style=""font-size:60px;"">+</div>","","null","fixation","2021-08-11 12:54:33.757","","","","",""
"","mars-trial","138","394359","0.0-10.0-1.62","889","""event"",""trial"",""time""
""fullscreenenter"",""0"",""2156""
","
","
","""event"",""trial"",""time""
""fullscreenenter"",""0"",""2156""
","
","3328.9000000001397","<img style='border: 4px solid darkgrey;' src='img/tf1_63_M_ss2.jpeg'></img>","3","","exp","","1","<img src='img/tf1_63_T1_ss2_md.jpeg'></img>","0","false",""
"","html-keyboard-response","139","394861","0.0-10.0-0.63","889","""event"",""trial"",""time""
""fullscreenenter"",""0"",""2156""
","
","
","""event"",""trial"",""time""
""fullscreenenter"",""0"",""2156""
","
","null","<div style=""font-size:60px;"">+</div>","","null","fixation","2021-08-11 12:54:38.194","","","","",""
"","mars-trial","140","401553","0.0-10.0-1.63","889","""event"",""trial"",""time""
""fullscreenenter"",""0"",""2156""
","
","
","""event"",""trial"",""time""
""fullscreenenter"",""0"",""2156""
","
","6087.5","<img style='border: 4px solid darkgrey;' src='img/tf1_64_M_ss3.jpeg'></img>","2","","exp","","1","<img src='img/tf1_64_T1_ss3_md.jpeg'></img>","0","false",""
"","html-keyboard-response","141","402055","0.0-10.0-0.64","889","""event"",""trial"",""time""
""fullscreenenter"",""0"",""2156""
","
","
","""event"",""trial"",""time""
""fullscreenenter"",""0"",""2156""
","
","null","<div style=""font-size:60px;"">+</div>","","null","fixation","2021-08-11 12:54:45.388","","","","",""
"","mars-trial","142","409975","0.0-10.0-1.64","889","""event"",""trial"",""time""
""fullscreenenter"",""0"",""2156""
","
","
","""event"",""trial"",""time""
""fullscreenenter"",""0"",""2156""
","
","7315.399999999907","<img style='border: 4px solid darkgrey;' src='img/tf1_65_M_ss1.jpeg'></img>","2","","exp","","0","<img src='img/tf1_65_T1_ss1_md.jpeg'></img>","0","true",""
"","html-keyboard-response","143","410477","0.0-10.0-0.65","889","""event"",""trial"",""time""
""fullscreenenter"",""0"",""2156""
","
","
","""event"",""trial"",""time""
""fullscreenenter"",""0"",""2156""
","
","null","<div style=""font-size:60px;"">+</div>","","null","fixation","2021-08-11 12:54:53.810","","","","",""
"","mars-trial","144","416722","0.0-10.0-1.65","889","""event"",""trial"",""time""
""fullscreenenter"",""0"",""2156""
","
","
","""event"",""trial"",""time""
""fullscreenenter"",""0"",""2156""
","
","5639.300000000047","<img style='border: 4px solid darkgrey;' src='img/tf1_66_M_ss2.jpeg'></img>","0","","exp","","2","<img src='img/tf1_66_T1_ss2_md.jpeg'></img>","0","false",""
"","html-keyboard-response","145","417224","0.0-10.0-0.66","889","""event"",""trial"",""time""
""fullscreenenter"",""0"",""2156""
","
","
","""event"",""trial"",""time""
""fullscreenenter"",""0"",""2156""
","
","null","<div style=""font-size:60px;"">+</div>","","null","fixation","2021-08-11 12:55:00.557","","","","",""
"","mars-trial","146","426051","0.0-10.0-1.66","889","""event"",""trial"",""time""
""fullscreenenter"",""0"",""2156""
","
","
","""event"",""trial"",""time""
""fullscreenenter"",""0"",""2156""
","
","8223.799999999814","<img style='border: 4px solid darkgrey;' src='img/tf1_67_M_ss3.jpeg'></img>","0","","exp","","2","<img src='img/tf1_67_T1_ss3_md.jpeg'></img>","0","false",""
"","html-keyboard-response","147","426553","0.0-10.0-0.67","889","""event"",""trial"",""time""
""fullscreenenter"",""0"",""2156""
","
","
","""event"",""trial"",""time""
""fullscreenenter"",""0"",""2156""
","
","null","<div style=""font-size:60px;"">+</div>","","null","fixation","2021-08-11 12:55:09.886","","","","",""
"","mars-trial","148","430159","0.0-10.0-1.67","889","""event"",""trial"",""time""
""fullscreenenter"",""0"",""2156""
","
","
","""event"",""trial"",""time""
""fullscreenenter"",""0"",""2156""
","
","3001.6999999999534","<img style='border: 4px solid darkgrey;' src='img/tf1_68_M_ss1.jpeg'></img>","0","","exp","","0","<img src='img/tf1_68_T1_ss1_md.jpeg'></img>","0","true",""
"","html-keyboard-response","149","430661","0.0-10.0-0.68","889","""event"",""trial"",""time""
""fullscreenenter"",""0"",""2156""
","
","
","""event"",""trial"",""time""
""fullscreenenter"",""0"",""2156""
","
","null","<div style=""font-size:60px;"">+</div>","","null","fixation","2021-08-11 12:55:13.994","","","","",""
"","mars-trial","150","435304","0.0-10.0-1.68","889","""event"",""trial"",""time""
""fullscreenenter"",""0"",""2156""
","
","
","""event"",""trial"",""time""
""fullscreenenter"",""0"",""2156""
","
","4024.8000000000466","<img style='border: 4px solid darkgrey;' src='img/tf1_69_M_ss2.jpeg'></img>","1","","exp","","3","<img src='img/tf1_69_T1_ss2_md.jpeg'></img>","0","false",""
"","html-keyboard-response","151","435806","0.0-10.0-0.69","889","""event"",""trial"",""time""
""fullscreenenter"",""0"",""2156""
","
","
","""event"",""trial"",""time""
""fullscreenenter"",""0"",""2156""
","
","null","<div style=""font-size:60px;"">+</div>","","null","fixation","2021-08-11 12:55:19.139","","","","",""
"","mars-trial","152","440172","0.0-10.0-1.69","889","""event"",""trial"",""time""
""fullscreenenter"",""0"",""2156""
","
","
","""event"",""trial"",""time""
""fullscreenenter"",""0"",""2156""
","
","3761.899999999907","<img style='border: 4px solid darkgrey;' src='img/tf1_70_M_ss3.jpeg'></img>","2","","exp","","3","<img src='img/tf1_70_T1_ss3_md.jpeg'></img>","0","false",""
"","html-keyboard-response","153","440674","0.0-10.0-0.70","889","""event"",""trial"",""time""
""fullscreenenter"",""0"",""2156""
","
","
","""event"",""trial"",""time""
""fullscreenenter"",""0"",""2156""
","
","null","<div style=""font-size:60px;"">+</div>","","null","fixation","2021-08-11 12:55:24.007","","","","",""
"","mars-trial","154","443277","0.0-10.0-1.70","889","""event"",""trial"",""time""
""fullscreenenter"",""0"",""2156""
","
","
","""event"",""trial"",""time""
""fullscreenenter"",""0"",""2156""
","
","1995.6999999999534","<img style='border: 4px solid darkgrey;' src='img/tf1_71_M_ss1.jpeg'></img>","2","","exp","","1","<img src='img/tf1_71_T1_ss1_md.jpeg'></img>","0","false",""
"","html-keyboard-response","155","443782","0.0-10.0-0.71","889","""event"",""trial"",""time""
""fullscreenenter"",""0"",""2156""
","
","
","""event"",""trial"",""time""
""fullscreenenter"",""0"",""2156""
","
","null","<div style=""font-size:60px;"">+</div>","","null","fixation","2021-08-11 12:55:27.115","","","","",""
"","mars-trial","156","449520","0.0-10.0-1.71","889","""event"",""trial"",""time""
""fullscreenenter"",""0"",""2156""
","
","
","""event"",""trial"",""time""
""fullscreenenter"",""0"",""2156""
","
","5133.5","<img style='border: 4px solid darkgrey;' src='img/tf1_72_M_ss2.jpeg'></img>","3","","exp","","1","<img src='img/tf1_72_T1_ss2_md.jpeg'></img>","0","false",""
"","html-keyboard-response","157","450021","0.0-10.0-0.72","889","""event"",""trial"",""time""
""fullscreenenter"",""0"",""2156""
","
","
","""event"",""trial"",""time""
""fullscreenenter"",""0"",""2156""
","
","null","<div style=""font-size:60px;"">+</div>","","null","fixation","2021-08-11 12:55:33.355","","","","",""
"","mars-trial","158","454967","0.0-10.0-1.72","889","""event"",""trial"",""time""
""fullscreenenter"",""0"",""2156""
","
","
","""event"",""trial"",""time""
""fullscreenenter"",""0"",""2156""
","
","4338.600000000093","<img style='border: 4px solid darkgrey;' src='img/tf1_73_M_ss3.jpeg'></img>","0","","exp","","0","<img src='img/tf1_73_T1_ss3_md.jpeg'></img>","0","true",""
"","html-keyboard-response","159","455469","0.0-10.0-0.73","889","""event"",""trial"",""time""
""fullscreenenter"",""0"",""2156""
","
","
","""event"",""trial"",""time""
""fullscreenenter"",""0"",""2156""
","
","null","<div style=""font-size:60px;"">+</div>","","null","fixation","2021-08-11 12:55:38.802","","","","",""
"","mars-trial","160","462132","0.0-10.0-1.73","889","""event"",""trial"",""time""
""fullscreenenter"",""0"",""2156""
","
","
","""event"",""trial"",""time""
""fullscreenenter"",""0"",""2156""
","
","6059.399999999907","<img style='border: 4px solid darkgrey;' src='img/tf1_74_M_ss1.jpeg'></img>","3","","exp","","3","<img src='img/tf1_74_T1_ss1_md.jpeg'></img>","0","false",""
"","html-keyboard-response","161","462633","0.0-10.0-0.74","889","""event"",""trial"",""time""
""fullscreenenter"",""0"",""2156""
","
","
","""event"",""trial"",""time""
""fullscreenenter"",""0"",""2156""
","
","null","<div style=""font-size:60px;"">+</div>","","null","fixation","2021-08-11 12:55:45.966","","","","",""
"","mars-trial","162","467215","0.0-10.0-1.74","889","""event"",""trial"",""time""
""fullscreenenter"",""0"",""2156""
","
","
","""event"",""trial"",""time""
""fullscreenenter"",""0"",""2156""
","
","3969.0999999998603","<img style='border: 4px solid darkgrey;' src='img/tf1_75_M_ss2.jpeg'></img>","2","","exp","","2","<img src='img/tf1_75_T1_ss2_md.jpeg'></img>","0","false",""
"","html-keyboard-response","163","467721","0.0-10.0-0.75","889","""event"",""trial"",""time""
""fullscreenenter"",""0"",""2156""
","
","
","""event"",""trial"",""time""
""fullscreenenter"",""0"",""2156""
","
","null","<div style=""font-size:60px;"">+</div>","","null","fixation","2021-08-11 12:55:51.054","","","","",""
"","mars-trial","164","473493","0.0-10.0-1.75","889","""event"",""trial"",""time""
""fullscreenenter"",""0"",""2156""
","
","
","""event"",""trial"",""time""
""fullscreenenter"",""0"",""2156""
","
","5166.100000000093","<img style='border: 4px solid darkgrey;' src='img/tf1_76_M_ss3.jpeg'></img>","3","","exp","","1","<img src='img/tf1_76_T1_ss3_md.jpeg'></img>","0","false",""
"","html-keyboard-response","165","473995","0.0-10.0-0.76","889","""event"",""trial"",""time""
""fullscreenenter"",""0"",""2156""
","
","
","""event"",""trial"",""time""
""fullscreenenter"",""0"",""2156""
","
","null","<div style=""font-size:60px;"">+</div>","","null","fixation","2021-08-11 12:55:57.328","","","","",""
"","mars-trial","166","480791","0.0-10.0-1.76","889","""event"",""trial"",""time""
""fullscreenenter"",""0"",""2156""
","
","
","""event"",""trial"",""time""
""fullscreenenter"",""0"",""2156""
","
","6190.800000000047","<img style='border: 4px solid darkgrey;' src='img/tf1_77_M_ss1.jpeg'></img>","3","","exp","","1","<img src='img/tf1_77_T1_ss1_md.jpeg'></img>","0","false",""
"","html-keyboard-response","167","481293","0.0-10.0-0.77","889","""event"",""trial"",""time""
""fullscreenenter"",""0"",""2156""
","
","
","""event"",""trial"",""time""
""fullscreenenter"",""0"",""2156""
","
","null","<div style=""font-size:60px;"">+</div>","","null","fixation","2021-08-11 12:56:04.626","","","","",""
"","mars-trial","168","485033","0.0-10.0-1.77","889","""event"",""trial"",""time""
""fullscreenenter"",""0"",""2156""
","
","
","""event"",""trial"",""time""
""fullscreenenter"",""0"",""2156""
","
","3136.3000000000466","<img style='border: 4px solid darkgrey;' src='img/tf1_78_M_ss2.jpeg'></img>","3","","exp","","2","<img src='img/tf1_78_T1_ss2_md.jpeg'></img>","0","false",""
"","html-keyboard-response","169","485534","0.0-10.0-0.78","889","""event"",""trial"",""time""
""fullscreenenter"",""0"",""2156""
","
","
","""event"",""trial"",""time""
""fullscreenenter"",""0"",""2156""
","
","null","<div style=""font-size:60px;"">+</div>","","null","fixation","2021-08-11 12:56:08.867","","","","",""
"","mars-trial","170","492104","0.0-10.0-1.78","889","""event"",""trial"",""time""
""fullscreenenter"",""0"",""2156""
","
","
","""event"",""trial"",""time""
""fullscreenenter"",""0"",""2156""
","
","5963.5","<img style='border: 4px solid darkgrey;' src='img/tf1_79_M_ss3.jpeg'></img>","3","","exp","","0","<img src='img/tf1_79_T1_ss3_md.jpeg'></img>","0","true",""
"","html-keyboard-response","171","492607","0.0-10.0-0.79","889","""event"",""trial"",""time""
""fullscreenenter"",""0"",""2156""
","
","
","""event"",""trial"",""time""
""fullscreenenter"",""0"",""2156""
","
","null","<div style=""font-size:60px;"">+</div>","","null","fixation","2021-08-11 12:56:15.940","","","","",""
"","mars-trial","172","497600","0.0-10.0-1.79","889","""event"",""trial"",""time""
""fullscreenenter"",""0"",""2156""
","
","
","""event"",""trial"",""time""
""fullscreenenter"",""0"",""2156""
","
","4387.5","<img style='border: 4px solid darkgrey;' src='img/tf1_80_M_ss1.jpeg'></img>","0","","exp","","3","<img src='img/tf1_80_T1_ss1_md.jpeg'></img>","0","false",""
"","audio-button-response","173","501049","0.0-11.0","889","""event"",""trial"",""time""
""fullscreenenter"",""0"",""2156""
","
","
","""event"",""trial"",""time""
""fullscreenenter"",""0"",""2156""
","
","3446.6999999999534","audio/mars_instructions_slide5.wav","0","","","","","","","",""
