"success","trial_type","trial_index","time_elapsed","internal_node_id","subject_id","interactions","blur_events","focus_events","fullscreenenter_events","fullscreenexit_events","rt","stimulus","button_pressed","key_press","part","timestamp","unshuffled_button","correct_response","correct_button","correct","value"
"true","fullscreen","0","3859","0.0-0.0","646","""event"",""trial"",""time""
""fullscreenenter"",""0"",""2864""
","
","
","""event"",""trial"",""time""
""fullscreenenter"",""0"",""2864""
","
","","","","","","","","","","",""
"","pavlovia","1","3867","0.0-1.0","646","""event"",""trial"",""time""
""fullscreenenter"",""0"",""2864""
","
","
","""event"",""trial"",""time""
""fullscreenenter"",""0"",""2864""
","
","","","","","","","","","","",""
"","html-button-response","2","5758","0.0-2.0","646","""event"",""trial"",""time""
""fullscreenenter"",""0"",""2864""
""blur"",""3"",""17527""
""focus"",""3"",""17531""
""fullscreenexit"",""3"",""17531""
""blur"",""3"",""27466""
""focus"",""3"",""27467""
""blur"",""3"",""34037""
""focus"",""3"",""34039""
","""event"",""trial"",""time""
""blur"",""3"",""17527""
""blur"",""3"",""27466""
""blur"",""3"",""34037""
","""event"",""trial"",""time""
""focus"",""3"",""17531""
""focus"",""3"",""27467""
""focus"",""3"",""34039""
","""event"",""trial"",""time""
""fullscreenenter"",""0"",""2864""
","""event"",""trial"",""time""
""fullscreenexit"",""3"",""17531""
","1888.699999988079","<p>Welcome! Press START to begin.</p><br>","0","","","","","","","",""
"","audio-button-response","3","44654","0.0-3.0","646","""event"",""trial"",""time""
""fullscreenenter"",""0"",""2864""
""blur"",""3"",""17527""
""focus"",""3"",""17531""
""fullscreenexit"",""3"",""17531""
""blur"",""3"",""27466""
""focus"",""3"",""27467""
""blur"",""3"",""34037""
""focus"",""3"",""34039""
","""event"",""trial"",""time""
""blur"",""3"",""17527""
""blur"",""3"",""27466""
""blur"",""3"",""34037""
","""event"",""trial"",""time""
""focus"",""3"",""17531""
""focus"",""3"",""27467""
""focus"",""3"",""34039""
","""event"",""trial"",""time""
""fullscreenenter"",""0"",""2864""
","""event"",""trial"",""time""
""fullscreenexit"",""3"",""17531""
","38893.79999998212","audio/mars_instructions_slide2.wav","0","","","","","","","",""
"","audio-button-response","4","46155","0.0-4.0","646","""event"",""trial"",""time""
""fullscreenenter"",""0"",""2864""
""blur"",""3"",""17527""
""focus"",""3"",""17531""
""fullscreenexit"",""3"",""17531""
""blur"",""3"",""27466""
""focus"",""3"",""27467""
""blur"",""3"",""34037""
""focus"",""3"",""34039""
","""event"",""trial"",""time""
""blur"",""3"",""17527""
""blur"",""3"",""27466""
""blur"",""3"",""34037""
","""event"",""trial"",""time""
""focus"",""3"",""17531""
""focus"",""3"",""27467""
""focus"",""3"",""34039""
","""event"",""trial"",""time""
""fullscreenenter"",""0"",""2864""
","""event"",""trial"",""time""
""fullscreenexit"",""3"",""17531""
","1496.5999999940395","audio/mars_instructions_slide3.wav","0","","","","","","","",""
"","html-keyboard-response","5","46659","0.0-5.0-0.0","646","""event"",""trial"",""time""
""fullscreenenter"",""0"",""2864""
""blur"",""3"",""17527""
""focus"",""3"",""17531""
""fullscreenexit"",""3"",""17531""
""blur"",""3"",""27466""
""focus"",""3"",""27467""
""blur"",""3"",""34037""
""focus"",""3"",""34039""
","""event"",""trial"",""time""
""blur"",""3"",""17527""
""blur"",""3"",""27466""
""blur"",""3"",""34037""
","""event"",""trial"",""time""
""focus"",""3"",""17531""
""focus"",""3"",""27467""
""focus"",""3"",""34039""
","""event"",""trial"",""time""
""fullscreenenter"",""0"",""2864""
","""event"",""trial"",""time""
""fullscreenexit"",""3"",""17531""
","null","<div style=""font-size:60px;"">+</div>","","null","fixation","2021-06-23 18:18:56.075","","","","",""
"","mars-trial","6","51180","0.0-5.0-1.0","646","""event"",""trial"",""time""
""fullscreenenter"",""0"",""2864""
""blur"",""3"",""17527""
""focus"",""3"",""17531""
""fullscreenexit"",""3"",""17531""
""blur"",""3"",""27466""
""focus"",""3"",""27467""
""blur"",""3"",""34037""
""focus"",""3"",""34039""
","""event"",""trial"",""time""
""blur"",""3"",""17527""
""blur"",""3"",""27466""
""blur"",""3"",""34037""
","""event"",""trial"",""time""
""focus"",""3"",""17531""
""focus"",""3"",""27467""
""focus"",""3"",""34039""
","""event"",""trial"",""time""
""fullscreenenter"",""0"",""2864""
","""event"",""trial"",""time""
""fullscreenexit"",""3"",""17531""
","2404.5999999940395","<img style='border: 4px solid darkgrey;' src='practice/pt1_M1.png'></img>","0","","practice","","3","<img src='practice/pt1_T1.png'></img>","0","false",""
"","html-keyboard-response","7","51686","0.0-5.1-0.1","646","""event"",""trial"",""time""
""fullscreenenter"",""0"",""2864""
""blur"",""3"",""17527""
""focus"",""3"",""17531""
""fullscreenexit"",""3"",""17531""
""blur"",""3"",""27466""
""focus"",""3"",""27467""
""blur"",""3"",""34037""
""focus"",""3"",""34039""
","""event"",""trial"",""time""
""blur"",""3"",""17527""
""blur"",""3"",""27466""
""blur"",""3"",""34037""
","""event"",""trial"",""time""
""focus"",""3"",""17531""
""focus"",""3"",""27467""
""focus"",""3"",""34039""
","""event"",""trial"",""time""
""fullscreenenter"",""0"",""2864""
","""event"",""trial"",""time""
""fullscreenexit"",""3"",""17531""
","null","<div style=""font-size:60px;"">+</div>","","null","fixation","2021-06-23 18:19:01.102","","","","",""
"","mars-trial","8","58028","0.0-5.1-1.1","646","""event"",""trial"",""time""
""fullscreenenter"",""0"",""2864""
""blur"",""3"",""17527""
""focus"",""3"",""17531""
""fullscreenexit"",""3"",""17531""
""blur"",""3"",""27466""
""focus"",""3"",""27467""
""blur"",""3"",""34037""
""focus"",""3"",""34039""
","""event"",""trial"",""time""
""blur"",""3"",""17527""
""blur"",""3"",""27466""
""blur"",""3"",""34037""
","""event"",""trial"",""time""
""focus"",""3"",""17531""
""focus"",""3"",""27467""
""focus"",""3"",""34039""
","""event"",""trial"",""time""
""fullscreenenter"",""0"",""2864""
","""event"",""trial"",""time""
""fullscreenexit"",""3"",""17531""
","4231.5999999940395","<img style='border: 4px solid darkgrey;' src='practice/pt1_M1.png'></img>","1","","practice","","2","<img src='practice/pt1_T1.png'></img>","0","false",""
"","html-keyboard-response","9","58532","0.0-5.2-0.2","646","""event"",""trial"",""time""
""fullscreenenter"",""0"",""2864""
""blur"",""3"",""17527""
""focus"",""3"",""17531""
""fullscreenexit"",""3"",""17531""
""blur"",""3"",""27466""
""focus"",""3"",""27467""
""blur"",""3"",""34037""
""focus"",""3"",""34039""
","""event"",""trial"",""time""
""blur"",""3"",""17527""
""blur"",""3"",""27466""
""blur"",""3"",""34037""
","""event"",""trial"",""time""
""focus"",""3"",""17531""
""focus"",""3"",""27467""
""focus"",""3"",""34039""
","""event"",""trial"",""time""
""fullscreenenter"",""0"",""2864""
","""event"",""trial"",""time""
""fullscreenexit"",""3"",""17531""
","null","<div style=""font-size:60px;"">+</div>","","null","fixation","2021-06-23 18:19:07.948","","","","",""
"","mars-trial","10","64318","0.0-5.2-1.2","646","""event"",""trial"",""time""
""fullscreenenter"",""0"",""2864""
""blur"",""3"",""17527""
""focus"",""3"",""17531""
""fullscreenexit"",""3"",""17531""
""blur"",""3"",""27466""
""focus"",""3"",""27467""
""blur"",""3"",""34037""
""focus"",""3"",""34039""
","""event"",""trial"",""time""
""blur"",""3"",""17527""
""blur"",""3"",""27466""
""blur"",""3"",""34037""
","""event"",""trial"",""time""
""focus"",""3"",""17531""
""focus"",""3"",""27467""
""focus"",""3"",""34039""
","""event"",""trial"",""time""
""fullscreenenter"",""0"",""2864""
","""event"",""trial"",""time""
""fullscreenexit"",""3"",""17531""
","3676.4000000059605","<img style='border: 4px solid darkgrey;' src='practice/pt1_M1.png'></img>","2","","practice","","0","<img src='practice/pt1_T1.png'></img>","0","true",""
"","html-keyboard-response","11","64820","0.0-6.0-0.0","646","""event"",""trial"",""time""
""fullscreenenter"",""0"",""2864""
""blur"",""3"",""17527""
""focus"",""3"",""17531""
""fullscreenexit"",""3"",""17531""
""blur"",""3"",""27466""
""focus"",""3"",""27467""
""blur"",""3"",""34037""
""focus"",""3"",""34039""
","""event"",""trial"",""time""
""blur"",""3"",""17527""
""blur"",""3"",""27466""
""blur"",""3"",""34037""
","""event"",""trial"",""time""
""focus"",""3"",""17531""
""focus"",""3"",""27467""
""focus"",""3"",""34039""
","""event"",""trial"",""time""
""fullscreenenter"",""0"",""2864""
","""event"",""trial"",""time""
""fullscreenexit"",""3"",""17531""
","null","<div style=""font-size:60px;"">+</div>","","null","fixation","2021-06-23 18:19:14.236","","","","",""
"","mars-trial","12","69606","0.0-6.0-1.0","646","""event"",""trial"",""time""
""fullscreenenter"",""0"",""2864""
""blur"",""3"",""17527""
""focus"",""3"",""17531""
""fullscreenexit"",""3"",""17531""
""blur"",""3"",""27466""
""focus"",""3"",""27467""
""blur"",""3"",""34037""
""focus"",""3"",""34039""
","""event"",""trial"",""time""
""blur"",""3"",""17527""
""blur"",""3"",""27466""
""blur"",""3"",""34037""
","""event"",""trial"",""time""
""focus"",""3"",""17531""
""focus"",""3"",""27467""
""focus"",""3"",""34039""
","""event"",""trial"",""time""
""fullscreenenter"",""0"",""2864""
","""event"",""trial"",""time""
""fullscreenexit"",""3"",""17531""
","2675","<img style='border: 4px solid darkgrey;' src='practice/pt2_M1.png'></img>","3","","practice","","0","<img src='practice/pt2_T1.png'></img>","0","true",""
"","html-keyboard-response","13","70108","0.0-7.0-0.0","646","""event"",""trial"",""time""
""fullscreenenter"",""0"",""2864""
""blur"",""3"",""17527""
""focus"",""3"",""17531""
""fullscreenexit"",""3"",""17531""
""blur"",""3"",""27466""
""focus"",""3"",""27467""
""blur"",""3"",""34037""
""focus"",""3"",""34039""
","""event"",""trial"",""time""
""blur"",""3"",""17527""
""blur"",""3"",""27466""
""blur"",""3"",""34037""
","""event"",""trial"",""time""
""focus"",""3"",""17531""
""focus"",""3"",""27467""
""focus"",""3"",""34039""
","""event"",""trial"",""time""
""fullscreenenter"",""0"",""2864""
","""event"",""trial"",""time""
""fullscreenexit"",""3"",""17531""
","null","<div style=""font-size:60px;"">+</div>","","null","fixation","2021-06-23 18:19:19.524","","","","",""
"","mars-trial","14","73578","0.0-7.0-1.0","646","""event"",""trial"",""time""
""fullscreenenter"",""0"",""2864""
""blur"",""3"",""17527""
""focus"",""3"",""17531""
""fullscreenexit"",""3"",""17531""
""blur"",""3"",""27466""
""focus"",""3"",""27467""
""blur"",""3"",""34037""
""focus"",""3"",""34039""
","""event"",""trial"",""time""
""blur"",""3"",""17527""
""blur"",""3"",""27466""
""blur"",""3"",""34037""
","""event"",""trial"",""time""
""focus"",""3"",""17531""
""focus"",""3"",""27467""
""focus"",""3"",""34039""
","""event"",""trial"",""time""
""fullscreenenter"",""0"",""2864""
","""event"",""trial"",""time""
""fullscreenexit"",""3"",""17531""
","1361.0999999940395","<img style='border: 4px solid darkgrey;' src='practice/pt3_M1.png'></img>","2","","practice","","0","<img src='practice/pt3_T1.png'></img>","0","true",""
"","audio-button-response","15","75330","0.0-8.0","646","""event"",""trial"",""time""
""fullscreenenter"",""0"",""2864""
""blur"",""3"",""17527""
""focus"",""3"",""17531""
""fullscreenexit"",""3"",""17531""
""blur"",""3"",""27466""
""focus"",""3"",""27467""
""blur"",""3"",""34037""
""focus"",""3"",""34039""
","""event"",""trial"",""time""
""blur"",""3"",""17527""
""blur"",""3"",""27466""
""blur"",""3"",""34037""
","""event"",""trial"",""time""
""focus"",""3"",""17531""
""focus"",""3"",""27467""
""focus"",""3"",""34039""
","""event"",""trial"",""time""
""fullscreenenter"",""0"",""2864""
","""event"",""trial"",""time""
""fullscreenexit"",""3"",""17531""
","1747.5999999940395","audio/mars_instructions_slide4.wav","0","","","","","","","",""
"","call-function","16","75331","0.0-9.0","646","""event"",""trial"",""time""
""fullscreenenter"",""0"",""2864""
""blur"",""3"",""17527""
""focus"",""3"",""17531""
""fullscreenexit"",""3"",""17531""
""blur"",""3"",""27466""
""focus"",""3"",""27467""
""blur"",""3"",""34037""
""focus"",""3"",""34039""
","""event"",""trial"",""time""
""blur"",""3"",""17527""
""blur"",""3"",""27466""
""blur"",""3"",""34037""
","""event"",""trial"",""time""
""focus"",""3"",""17531""
""focus"",""3"",""27467""
""focus"",""3"",""34039""
","""event"",""trial"",""time""
""fullscreenenter"",""0"",""2864""
","""event"",""trial"",""time""
""fullscreenexit"",""3"",""17531""
","","","","","","","","","","",""
"","html-keyboard-response","17","75834","0.0-10.0-0.0","646","""event"",""trial"",""time""
""fullscreenenter"",""0"",""2864""
""blur"",""3"",""17527""
""focus"",""3"",""17531""
""fullscreenexit"",""3"",""17531""
""blur"",""3"",""27466""
""focus"",""3"",""27467""
""blur"",""3"",""34037""
""focus"",""3"",""34039""
","""event"",""trial"",""time""
""blur"",""3"",""17527""
""blur"",""3"",""27466""
""blur"",""3"",""34037""
","""event"",""trial"",""time""
""focus"",""3"",""17531""
""focus"",""3"",""27467""
""focus"",""3"",""34039""
","""event"",""trial"",""time""
""fullscreenenter"",""0"",""2864""
","""event"",""trial"",""time""
""fullscreenexit"",""3"",""17531""
","null","<div style=""font-size:60px;"">+</div>","","null","fixation","2021-06-23 18:19:25.250","","","","",""
"","mars-trial","18","78552","0.0-10.0-1.0","646","""event"",""trial"",""time""
""fullscreenenter"",""0"",""2864""
""blur"",""3"",""17527""
""focus"",""3"",""17531""
""fullscreenexit"",""3"",""17531""
""blur"",""3"",""27466""
""focus"",""3"",""27467""
""blur"",""3"",""34037""
""focus"",""3"",""34039""
","""event"",""trial"",""time""
""blur"",""3"",""17527""
""blur"",""3"",""27466""
""blur"",""3"",""34037""
","""event"",""trial"",""time""
""focus"",""3"",""17531""
""focus"",""3"",""27467""
""focus"",""3"",""34039""
","""event"",""trial"",""time""
""fullscreenenter"",""0"",""2864""
","""event"",""trial"",""time""
""fullscreenexit"",""3"",""17531""
","2106.5999999940395","<img style='border: 4px solid darkgrey;' src='img/tf1_1_M_ss3.jpeg'></img>","3","","exp","","0","<img src='img/tf1_1_T1_ss3_md.jpeg'></img>","0","true",""
"","html-keyboard-response","19","79061","0.0-10.0-0.1","646","""event"",""trial"",""time""
""fullscreenenter"",""0"",""2864""
""blur"",""3"",""17527""
""focus"",""3"",""17531""
""fullscreenexit"",""3"",""17531""
""blur"",""3"",""27466""
""focus"",""3"",""27467""
""blur"",""3"",""34037""
""focus"",""3"",""34039""
","""event"",""trial"",""time""
""blur"",""3"",""17527""
""blur"",""3"",""27466""
""blur"",""3"",""34037""
","""event"",""trial"",""time""
""focus"",""3"",""17531""
""focus"",""3"",""27467""
""focus"",""3"",""34039""
","""event"",""trial"",""time""
""fullscreenenter"",""0"",""2864""
","""event"",""trial"",""time""
""fullscreenexit"",""3"",""17531""
","null","<div style=""font-size:60px;"">+</div>","","null","fixation","2021-06-23 18:19:28.477","","","","",""
"","mars-trial","20","81072","0.0-10.0-1.1","646","""event"",""trial"",""time""
""fullscreenenter"",""0"",""2864""
""blur"",""3"",""17527""
""focus"",""3"",""17531""
""fullscreenexit"",""3"",""17531""
""blur"",""3"",""27466""
""focus"",""3"",""27467""
""blur"",""3"",""34037""
""focus"",""3"",""34039""
","""event"",""trial"",""time""
""blur"",""3"",""17527""
""blur"",""3"",""27466""
""blur"",""3"",""34037""
","""event"",""trial"",""time""
""focus"",""3"",""17531""
""focus"",""3"",""27467""
""focus"",""3"",""34039""
","""event"",""trial"",""time""
""fullscreenenter"",""0"",""2864""
","""event"",""trial"",""time""
""fullscreenexit"",""3"",""17531""
","1402","<img style='border: 4px solid darkgrey;' src='img/tf1_2_M_ss1.jpeg'></img>","3","","exp","","2","<img src='img/tf1_2_T1_ss1_md.jpeg'></img>","0","false",""
"","html-keyboard-response","21","81577","0.0-10.0-0.2","646","""event"",""trial"",""time""
""fullscreenenter"",""0"",""2864""
""blur"",""3"",""17527""
""focus"",""3"",""17531""
""fullscreenexit"",""3"",""17531""
""blur"",""3"",""27466""
""focus"",""3"",""27467""
""blur"",""3"",""34037""
""focus"",""3"",""34039""
","""event"",""trial"",""time""
""blur"",""3"",""17527""
""blur"",""3"",""27466""
""blur"",""3"",""34037""
","""event"",""trial"",""time""
""focus"",""3"",""17531""
""focus"",""3"",""27467""
""focus"",""3"",""34039""
","""event"",""trial"",""time""
""fullscreenenter"",""0"",""2864""
","""event"",""trial"",""time""
""fullscreenexit"",""3"",""17531""
","null","<div style=""font-size:60px;"">+</div>","","null","fixation","2021-06-23 18:19:30.993","","","","",""
"","mars-trial","22","86213","0.0-10.0-1.2","646","""event"",""trial"",""time""
""fullscreenenter"",""0"",""2864""
""blur"",""3"",""17527""
""focus"",""3"",""17531""
""fullscreenexit"",""3"",""17531""
""blur"",""3"",""27466""
""focus"",""3"",""27467""
""blur"",""3"",""34037""
""focus"",""3"",""34039""
","""event"",""trial"",""time""
""blur"",""3"",""17527""
""blur"",""3"",""27466""
""blur"",""3"",""34037""
","""event"",""trial"",""time""
""focus"",""3"",""17531""
""focus"",""3"",""27467""
""focus"",""3"",""34039""
","""event"",""trial"",""time""
""fullscreenenter"",""0"",""2864""
","""event"",""trial"",""time""
""fullscreenexit"",""3"",""17531""
","4026.600000023842","<img style='border: 4px solid darkgrey;' src='img/tf1_3_M_ss2.jpeg'></img>","2","","exp","","0","<img src='img/tf1_3_T1_ss2_md.jpeg'></img>","0","true",""
"","html-keyboard-response","23","86720","0.0-10.0-0.3","646","""event"",""trial"",""time""
""fullscreenenter"",""0"",""2864""
""blur"",""3"",""17527""
""focus"",""3"",""17531""
""fullscreenexit"",""3"",""17531""
""blur"",""3"",""27466""
""focus"",""3"",""27467""
""blur"",""3"",""34037""
""focus"",""3"",""34039""
","""event"",""trial"",""time""
""blur"",""3"",""17527""
""blur"",""3"",""27466""
""blur"",""3"",""34037""
","""event"",""trial"",""time""
""focus"",""3"",""17531""
""focus"",""3"",""27467""
""focus"",""3"",""34039""
","""event"",""trial"",""time""
""fullscreenenter"",""0"",""2864""
","""event"",""trial"",""time""
""fullscreenexit"",""3"",""17531""
","null","<div style=""font-size:60px;"">+</div>","","null","fixation","2021-06-23 18:19:36.136","","","","",""
"","mars-trial","24","90970","0.0-10.0-1.3","646","""event"",""trial"",""time""
""fullscreenenter"",""0"",""2864""
""blur"",""3"",""17527""
""focus"",""3"",""17531""
""fullscreenexit"",""3"",""17531""
""blur"",""3"",""27466""
""focus"",""3"",""27467""
""blur"",""3"",""34037""
""focus"",""3"",""34039""
","""event"",""trial"",""time""
""blur"",""3"",""17527""
""blur"",""3"",""27466""
""blur"",""3"",""34037""
","""event"",""trial"",""time""
""focus"",""3"",""17531""
""focus"",""3"",""27467""
""focus"",""3"",""34039""
","""event"",""trial"",""time""
""fullscreenenter"",""0"",""2864""
","""event"",""trial"",""time""
""fullscreenexit"",""3"",""17531""
","3637.7000000178814","<img style='border: 4px solid darkgrey;' src='img/tf1_4_M_ss3.jpeg'></img>","3","","exp","","0","<img src='img/tf1_4_T1_ss3_md.jpeg'></img>","0","true",""
"","html-keyboard-response","25","91476","0.0-10.0-0.4","646","""event"",""trial"",""time""
""fullscreenenter"",""0"",""2864""
""blur"",""3"",""17527""
""focus"",""3"",""17531""
""fullscreenexit"",""3"",""17531""
""blur"",""3"",""27466""
""focus"",""3"",""27467""
""blur"",""3"",""34037""
""focus"",""3"",""34039""
","""event"",""trial"",""time""
""blur"",""3"",""17527""
""blur"",""3"",""27466""
""blur"",""3"",""34037""
","""event"",""trial"",""time""
""focus"",""3"",""17531""
""focus"",""3"",""27467""
""focus"",""3"",""34039""
","""event"",""trial"",""time""
""fullscreenenter"",""0"",""2864""
","""event"",""trial"",""time""
""fullscreenexit"",""3"",""17531""
","null","<div style=""font-size:60px;"">+</div>","","null","fixation","2021-06-23 18:19:40.893","","","","",""
"","mars-trial","26","94356","0.0-10.0-1.4","646","""event"",""trial"",""time""
""fullscreenenter"",""0"",""2864""
""blur"",""3"",""17527""
""focus"",""3"",""17531""
""fullscreenexit"",""3"",""17531""
""blur"",""3"",""27466""
""focus"",""3"",""27467""
""blur"",""3"",""34037""
""focus"",""3"",""34039""
","""event"",""trial"",""time""
""blur"",""3"",""17527""
""blur"",""3"",""27466""
""blur"",""3"",""34037""
","""event"",""trial"",""time""
""focus"",""3"",""17531""
""focus"",""3"",""27467""
""focus"",""3"",""34039""
","""event"",""trial"",""time""
""fullscreenenter"",""0"",""2864""
","""event"",""trial"",""time""
""fullscreenexit"",""3"",""17531""
","2267.9000000059605","<img style='border: 4px solid darkgrey;' src='img/tf1_5_M_ss1.jpeg'></img>","3","","exp","","0","<img src='img/tf1_5_T1_ss1_md.jpeg'></img>","0","true",""
"","html-keyboard-response","27","94860","0.0-10.0-0.5","646","""event"",""trial"",""time""
""fullscreenenter"",""0"",""2864""
""blur"",""3"",""17527""
""focus"",""3"",""17531""
""fullscreenexit"",""3"",""17531""
""blur"",""3"",""27466""
""focus"",""3"",""27467""
""blur"",""3"",""34037""
""focus"",""3"",""34039""
","""event"",""trial"",""time""
""blur"",""3"",""17527""
""blur"",""3"",""27466""
""blur"",""3"",""34037""
","""event"",""trial"",""time""
""focus"",""3"",""17531""
""focus"",""3"",""27467""
""focus"",""3"",""34039""
","""event"",""trial"",""time""
""fullscreenenter"",""0"",""2864""
","""event"",""trial"",""time""
""fullscreenexit"",""3"",""17531""
","null","<div style=""font-size:60px;"">+</div>","","null","fixation","2021-06-23 18:19:44.276","","","","",""
"","mars-trial","28","104815","0.0-10.0-1.5","646","""event"",""trial"",""time""
""fullscreenenter"",""0"",""2864""
""blur"",""3"",""17527""
""focus"",""3"",""17531""
""fullscreenexit"",""3"",""17531""
""blur"",""3"",""27466""
""focus"",""3"",""27467""
""blur"",""3"",""34037""
""focus"",""3"",""34039""
","""event"",""trial"",""time""
""blur"",""3"",""17527""
""blur"",""3"",""27466""
""blur"",""3"",""34037""
","""event"",""trial"",""time""
""focus"",""3"",""17531""
""focus"",""3"",""27467""
""focus"",""3"",""34039""
","""event"",""trial"",""time""
""fullscreenenter"",""0"",""2864""
","""event"",""trial"",""time""
""fullscreenexit"",""3"",""17531""
","9341.90000000596","<img style='border: 4px solid darkgrey;' src='img/tf1_6_M_ss2.jpeg'></img>","3","","exp","","1","<img src='img/tf1_6_T1_ss2_md.jpeg'></img>","0","false",""
"","html-keyboard-response","29","105319","0.0-10.0-0.6","646","""event"",""trial"",""time""
""fullscreenenter"",""0"",""2864""
""blur"",""3"",""17527""
""focus"",""3"",""17531""
""fullscreenexit"",""3"",""17531""
""blur"",""3"",""27466""
""focus"",""3"",""27467""
""blur"",""3"",""34037""
""focus"",""3"",""34039""
","""event"",""trial"",""time""
""blur"",""3"",""17527""
""blur"",""3"",""27466""
""blur"",""3"",""34037""
","""event"",""trial"",""time""
""focus"",""3"",""17531""
""focus"",""3"",""27467""
""focus"",""3"",""34039""
","""event"",""trial"",""time""
""fullscreenenter"",""0"",""2864""
","""event"",""trial"",""time""
""fullscreenexit"",""3"",""17531""
","null","<div style=""font-size:60px;"">+</div>","","null","fixation","2021-06-23 18:19:54.735","","","","",""
"","mars-trial","30","106454","0.0-10.0-1.6","646","""event"",""trial"",""time""
""fullscreenenter"",""0"",""2864""
""blur"",""3"",""17527""
""focus"",""3"",""17531""
""fullscreenexit"",""3"",""17531""
""blur"",""3"",""27466""
""focus"",""3"",""27467""
""blur"",""3"",""34037""
""focus"",""3"",""34039""
","""event"",""trial"",""time""
""blur"",""3"",""17527""
""blur"",""3"",""27466""
""blur"",""3"",""34037""
","""event"",""trial"",""time""
""focus"",""3"",""17531""
""focus"",""3"",""27467""
""focus"",""3"",""34039""
","""event"",""trial"",""time""
""fullscreenenter"",""0"",""2864""
","""event"",""trial"",""time""
""fullscreenexit"",""3"",""17531""
","525","<img style='border: 4px solid darkgrey;' src='img/tf1_7_M_ss3.jpeg'></img>","2","","exp","","3","<img src='img/tf1_7_T1_ss3_md.jpeg'></img>","0","false",""
"","html-keyboard-response","31","106960","0.0-10.0-0.7","646","""event"",""trial"",""time""
""fullscreenenter"",""0"",""2864""
""blur"",""3"",""17527""
""focus"",""3"",""17531""
""fullscreenexit"",""3"",""17531""
""blur"",""3"",""27466""
""focus"",""3"",""27467""
""blur"",""3"",""34037""
""focus"",""3"",""34039""
","""event"",""trial"",""time""
""blur"",""3"",""17527""
""blur"",""3"",""27466""
""blur"",""3"",""34037""
","""event"",""trial"",""time""
""focus"",""3"",""17531""
""focus"",""3"",""27467""
""focus"",""3"",""34039""
","""event"",""trial"",""time""
""fullscreenenter"",""0"",""2864""
","""event"",""trial"",""time""
""fullscreenexit"",""3"",""17531""
","null","<div style=""font-size:60px;"">+</div>","","null","fixation","2021-06-23 18:19:56.376","","","","",""
"","mars-trial","32","110021","0.0-10.0-1.7","646","""event"",""trial"",""time""
""fullscreenenter"",""0"",""2864""
""blur"",""3"",""17527""
""focus"",""3"",""17531""
""fullscreenexit"",""3"",""17531""
""blur"",""3"",""27466""
""focus"",""3"",""27467""
""blur"",""3"",""34037""
""focus"",""3"",""34039""
","""event"",""trial"",""time""
""blur"",""3"",""17527""
""blur"",""3"",""27466""
""blur"",""3"",""34037""
","""event"",""trial"",""time""
""focus"",""3"",""17531""
""focus"",""3"",""27467""
""focus"",""3"",""34039""
","""event"",""trial"",""time""
""fullscreenenter"",""0"",""2864""
","""event"",""trial"",""time""
""fullscreenexit"",""3"",""17531""
","2453.5","<img style='border: 4px solid darkgrey;' src='img/tf1_8_M_ss1.jpeg'></img>","1","","exp","","1","<img src='img/tf1_8_T1_ss1_md.jpeg'></img>","0","false",""
"","html-keyboard-response","33","110524","0.0-10.0-0.8","646","""event"",""trial"",""time""
""fullscreenenter"",""0"",""2864""
""blur"",""3"",""17527""
""focus"",""3"",""17531""
""fullscreenexit"",""3"",""17531""
""blur"",""3"",""27466""
""focus"",""3"",""27467""
""blur"",""3"",""34037""
""focus"",""3"",""34039""
","""event"",""trial"",""time""
""blur"",""3"",""17527""
""blur"",""3"",""27466""
""blur"",""3"",""34037""
","""event"",""trial"",""time""
""focus"",""3"",""17531""
""focus"",""3"",""27467""
""focus"",""3"",""34039""
","""event"",""trial"",""time""
""fullscreenenter"",""0"",""2864""
","""event"",""trial"",""time""
""fullscreenexit"",""3"",""17531""
","null","<div style=""font-size:60px;"">+</div>","","null","fixation","2021-06-23 18:19:59.940","","","","",""
"","mars-trial","34","113488","0.0-10.0-1.8","646","""event"",""trial"",""time""
""fullscreenenter"",""0"",""2864""
""blur"",""3"",""17527""
""focus"",""3"",""17531""
""fullscreenexit"",""3"",""17531""
""blur"",""3"",""27466""
""focus"",""3"",""27467""
""blur"",""3"",""34037""
""focus"",""3"",""34039""
","""event"",""trial"",""time""
""blur"",""3"",""17527""
""blur"",""3"",""27466""
""blur"",""3"",""34037""
","""event"",""trial"",""time""
""focus"",""3"",""17531""
""focus"",""3"",""27467""
""focus"",""3"",""34039""
","""event"",""trial"",""time""
""fullscreenenter"",""0"",""2864""
","""event"",""trial"",""time""
""fullscreenexit"",""3"",""17531""
","2349.600000023842","<img style='border: 4px solid darkgrey;' src='img/tf1_9_M_ss2.jpeg'></img>","2","","exp","","2","<img src='img/tf1_9_T1_ss2_md.jpeg'></img>","0","false",""
"","html-keyboard-response","35","113991","0.0-10.0-0.9","646","""event"",""trial"",""time""
""fullscreenenter"",""0"",""2864""
""blur"",""3"",""17527""
""focus"",""3"",""17531""
""fullscreenexit"",""3"",""17531""
""blur"",""3"",""27466""
""focus"",""3"",""27467""
""blur"",""3"",""34037""
""focus"",""3"",""34039""
","""event"",""trial"",""time""
""blur"",""3"",""17527""
""blur"",""3"",""27466""
""blur"",""3"",""34037""
","""event"",""trial"",""time""
""focus"",""3"",""17531""
""focus"",""3"",""27467""
""focus"",""3"",""34039""
","""event"",""trial"",""time""
""fullscreenenter"",""0"",""2864""
","""event"",""trial"",""time""
""fullscreenexit"",""3"",""17531""
","null","<div style=""font-size:60px;"">+</div>","","null","fixation","2021-06-23 18:20:03.407","","","","",""
"","mars-trial","36","115751","0.0-10.0-1.9","646","""event"",""trial"",""time""
""fullscreenenter"",""0"",""2864""
""blur"",""3"",""17527""
""focus"",""3"",""17531""
""fullscreenexit"",""3"",""17531""
""blur"",""3"",""27466""
""focus"",""3"",""27467""
""blur"",""3"",""34037""
""focus"",""3"",""34039""
","""event"",""trial"",""time""
""blur"",""3"",""17527""
""blur"",""3"",""27466""
""blur"",""3"",""34037""
","""event"",""trial"",""time""
""focus"",""3"",""17531""
""focus"",""3"",""27467""
""focus"",""3"",""34039""
","""event"",""trial"",""time""
""fullscreenenter"",""0"",""2864""
","""event"",""trial"",""time""
""fullscreenexit"",""3"",""17531""
","1147.0999999940395","<img style='border: 4px solid darkgrey;' src='img/tf1_10_M_ss3.jpeg'></img>","2","","exp","","3","<img src='img/tf1_10_T1_ss3_md.jpeg'></img>","0","false",""
"","html-keyboard-response","37","116254","0.0-10.0-0.10","646","""event"",""trial"",""time""
""fullscreenenter"",""0"",""2864""
""blur"",""3"",""17527""
""focus"",""3"",""17531""
""fullscreenexit"",""3"",""17531""
""blur"",""3"",""27466""
""focus"",""3"",""27467""
""blur"",""3"",""34037""
""focus"",""3"",""34039""
","""event"",""trial"",""time""
""blur"",""3"",""17527""
""blur"",""3"",""27466""
""blur"",""3"",""34037""
","""event"",""trial"",""time""
""focus"",""3"",""17531""
""focus"",""3"",""27467""
""focus"",""3"",""34039""
","""event"",""trial"",""time""
""fullscreenenter"",""0"",""2864""
","""event"",""trial"",""time""
""fullscreenexit"",""3"",""17531""
","null","<div style=""font-size:60px;"">+</div>","","null","fixation","2021-06-23 18:20:05.670","","","","",""
"","mars-trial","38","117399","0.0-10.0-1.10","646","""event"",""trial"",""time""
""fullscreenenter"",""0"",""2864""
""blur"",""3"",""17527""
""focus"",""3"",""17531""
""fullscreenexit"",""3"",""17531""
""blur"",""3"",""27466""
""focus"",""3"",""27467""
""blur"",""3"",""34037""
""focus"",""3"",""34039""
","""event"",""trial"",""time""
""blur"",""3"",""17527""
""blur"",""3"",""27466""
""blur"",""3"",""34037""
","""event"",""trial"",""time""
""focus"",""3"",""17531""
""focus"",""3"",""27467""
""focus"",""3"",""34039""
","""event"",""trial"",""time""
""fullscreenenter"",""0"",""2864""
","""event"",""trial"",""time""
""fullscreenexit"",""3"",""17531""
","532.5999999940395","<img style='border: 4px solid darkgrey;' src='img/tf1_11_M_ss1.jpeg'></img>","1","","exp","","0","<img src='img/tf1_11_T1_ss1_md.jpeg'></img>","0","true",""
"","html-keyboard-response","39","117904","0.0-10.0-0.11","646","""event"",""trial"",""time""
""fullscreenenter"",""0"",""2864""
""blur"",""3"",""17527""
""focus"",""3"",""17531""
""fullscreenexit"",""3"",""17531""
""blur"",""3"",""27466""
""focus"",""3"",""27467""
""blur"",""3"",""34037""
""focus"",""3"",""34039""
","""event"",""trial"",""time""
""blur"",""3"",""17527""
""blur"",""3"",""27466""
""blur"",""3"",""34037""
","""event"",""trial"",""time""
""focus"",""3"",""17531""
""focus"",""3"",""27467""
""focus"",""3"",""34039""
","""event"",""trial"",""time""
""fullscreenenter"",""0"",""2864""
","""event"",""trial"",""time""
""fullscreenexit"",""3"",""17531""
","null","<div style=""font-size:60px;"">+</div>","","null","fixation","2021-06-23 18:20:07.320","","","","",""
"","mars-trial","40","119051","0.0-10.0-1.11","646","""event"",""trial"",""time""
""fullscreenenter"",""0"",""2864""
""blur"",""3"",""17527""
""focus"",""3"",""17531""
""fullscreenexit"",""3"",""17531""
""blur"",""3"",""27466""
""focus"",""3"",""27467""
""blur"",""3"",""34037""
""focus"",""3"",""34039""
","""event"",""trial"",""time""
""blur"",""3"",""17527""
""blur"",""3"",""27466""
""blur"",""3"",""34037""
","""event"",""trial"",""time""
""focus"",""3"",""17531""
""focus"",""3"",""27467""
""focus"",""3"",""34039""
","""event"",""trial"",""time""
""fullscreenenter"",""0"",""2864""
","""event"",""trial"",""time""
""fullscreenexit"",""3"",""17531""
","534.5","<img style='border: 4px solid darkgrey;' src='img/tf1_12_M_ss2.jpeg'></img>","0","","exp","","3","<img src='img/tf1_12_T1_ss2_md.jpeg'></img>","0","false",""
"","html-keyboard-response","41","119554","0.0-10.0-0.12","646","""event"",""trial"",""time""
""fullscreenenter"",""0"",""2864""
""blur"",""3"",""17527""
""focus"",""3"",""17531""
""fullscreenexit"",""3"",""17531""
""blur"",""3"",""27466""
""focus"",""3"",""27467""
""blur"",""3"",""34037""
""focus"",""3"",""34039""
","""event"",""trial"",""time""
""blur"",""3"",""17527""
""blur"",""3"",""27466""
""blur"",""3"",""34037""
","""event"",""trial"",""time""
""focus"",""3"",""17531""
""focus"",""3"",""27467""
""focus"",""3"",""34039""
","""event"",""trial"",""time""
""fullscreenenter"",""0"",""2864""
","""event"",""trial"",""time""
""fullscreenexit"",""3"",""17531""
","null","<div style=""font-size:60px;"">+</div>","","null","fixation","2021-06-23 18:20:08.970","","","","",""
"","mars-trial","42","120805","0.0-10.0-1.12","646","""event"",""trial"",""time""
""fullscreenenter"",""0"",""2864""
""blur"",""3"",""17527""
""focus"",""3"",""17531""
""fullscreenexit"",""3"",""17531""
""blur"",""3"",""27466""
""focus"",""3"",""27467""
""blur"",""3"",""34037""
""focus"",""3"",""34039""
","""event"",""trial"",""time""
""blur"",""3"",""17527""
""blur"",""3"",""27466""
""blur"",""3"",""34037""
","""event"",""trial"",""time""
""focus"",""3"",""17531""
""focus"",""3"",""27467""
""focus"",""3"",""34039""
","""event"",""trial"",""time""
""fullscreenenter"",""0"",""2864""
","""event"",""trial"",""time""
""fullscreenexit"",""3"",""17531""
","637.5999999940395","<img style='border: 4px solid darkgrey;' src='img/tf1_13_M_ss3.jpeg'></img>","2","","exp","","3","<img src='img/tf1_13_T1_ss3_md.jpeg'></img>","0","false",""
"","html-keyboard-response","43","121312","0.0-10.0-0.13","646","""event"",""trial"",""time""
""fullscreenenter"",""0"",""2864""
""blur"",""3"",""17527""
""focus"",""3"",""17531""
""fullscreenexit"",""3"",""17531""
""blur"",""3"",""27466""
""focus"",""3"",""27467""
""blur"",""3"",""34037""
""focus"",""3"",""34039""
","""event"",""trial"",""time""
""blur"",""3"",""17527""
""blur"",""3"",""27466""
""blur"",""3"",""34037""
","""event"",""trial"",""time""
""focus"",""3"",""17531""
""focus"",""3"",""27467""
""focus"",""3"",""34039""
","""event"",""trial"",""time""
""fullscreenenter"",""0"",""2864""
","""event"",""trial"",""time""
""fullscreenexit"",""3"",""17531""
","null","<div style=""font-size:60px;"">+</div>","","null","fixation","2021-06-23 18:20:10.728","","","","",""
"","mars-trial","44","122402","0.0-10.0-1.13","646","""event"",""trial"",""time""
""fullscreenenter"",""0"",""2864""
""blur"",""3"",""17527""
""focus"",""3"",""17531""
""fullscreenexit"",""3"",""17531""
""blur"",""3"",""27466""
""focus"",""3"",""27467""
""blur"",""3"",""34037""
""focus"",""3"",""34039""
","""event"",""trial"",""time""
""blur"",""3"",""17527""
""blur"",""3"",""27466""
""blur"",""3"",""34037""
","""event"",""trial"",""time""
""focus"",""3"",""17531""
""focus"",""3"",""27467""
""focus"",""3"",""34039""
","""event"",""trial"",""time""
""fullscreenenter"",""0"",""2864""
","""event"",""trial"",""time""
""fullscreenexit"",""3"",""17531""
","483.80000001192093","<img style='border: 4px solid darkgrey;' src='img/tf1_14_M_ss1.jpeg'></img>","3","","exp","","3","<img src='img/tf1_14_T1_ss1_md.jpeg'></img>","0","false",""
"","html-keyboard-response","45","122905","0.0-10.0-0.14","646","""event"",""trial"",""time""
""fullscreenenter"",""0"",""2864""
""blur"",""3"",""17527""
""focus"",""3"",""17531""
""fullscreenexit"",""3"",""17531""
""blur"",""3"",""27466""
""focus"",""3"",""27467""
""blur"",""3"",""34037""
""focus"",""3"",""34039""
","""event"",""trial"",""time""
""blur"",""3"",""17527""
""blur"",""3"",""27466""
""blur"",""3"",""34037""
","""event"",""trial"",""time""
""focus"",""3"",""17531""
""focus"",""3"",""27467""
""focus"",""3"",""34039""
","""event"",""trial"",""time""
""fullscreenenter"",""0"",""2864""
","""event"",""trial"",""time""
""fullscreenexit"",""3"",""17531""
","null","<div style=""font-size:60px;"">+</div>","","null","fixation","2021-06-23 18:20:12.321","","","","",""
"","mars-trial","46","123903","0.0-10.0-1.14","646","""event"",""trial"",""time""
""fullscreenenter"",""0"",""2864""
""blur"",""3"",""17527""
""focus"",""3"",""17531""
""fullscreenexit"",""3"",""17531""
""blur"",""3"",""27466""
""focus"",""3"",""27467""
""blur"",""3"",""34037""
""focus"",""3"",""34039""
","""event"",""trial"",""time""
""blur"",""3"",""17527""
""blur"",""3"",""27466""
""blur"",""3"",""34037""
","""event"",""trial"",""time""
""focus"",""3"",""17531""
""focus"",""3"",""27467""
""focus"",""3"",""34039""
","""event"",""trial"",""time""
""fullscreenenter"",""0"",""2864""
","""event"",""trial"",""time""
""fullscreenexit"",""3"",""17531""
","389.5","<img style='border: 4px solid darkgrey;' src='img/tf1_15_M_ss2.jpeg'></img>","1","","exp","","0","<img src='img/tf1_15_T1_ss2_md.jpeg'></img>","0","true",""
"","html-keyboard-response","47","124405","0.0-10.0-0.15","646","""event"",""trial"",""time""
""fullscreenenter"",""0"",""2864""
""blur"",""3"",""17527""
""focus"",""3"",""17531""
""fullscreenexit"",""3"",""17531""
""blur"",""3"",""27466""
""focus"",""3"",""27467""
""blur"",""3"",""34037""
""focus"",""3"",""34039""
","""event"",""trial"",""time""
""blur"",""3"",""17527""
""blur"",""3"",""27466""
""blur"",""3"",""34037""
","""event"",""trial"",""time""
""focus"",""3"",""17531""
""focus"",""3"",""27467""
""focus"",""3"",""34039""
","""event"",""trial"",""time""
""fullscreenenter"",""0"",""2864""
","""event"",""trial"",""time""
""fullscreenexit"",""3"",""17531""
","null","<div style=""font-size:60px;"">+</div>","","null","fixation","2021-06-23 18:20:13.821","","","","",""
"","mars-trial","48","128256","0.0-10.0-1.15","646","""event"",""trial"",""time""
""fullscreenenter"",""0"",""2864""
""blur"",""3"",""17527""
""focus"",""3"",""17531""
""fullscreenexit"",""3"",""17531""
""blur"",""3"",""27466""
""focus"",""3"",""27467""
""blur"",""3"",""34037""
""focus"",""3"",""34039""
","""event"",""trial"",""time""
""blur"",""3"",""17527""
""blur"",""3"",""27466""
""blur"",""3"",""34037""
","""event"",""trial"",""time""
""focus"",""3"",""17531""
""focus"",""3"",""27467""
""focus"",""3"",""34039""
","""event"",""trial"",""time""
""fullscreenenter"",""0"",""2864""
","""event"",""trial"",""time""
""fullscreenexit"",""3"",""17531""
","3243.2999999821186","<img style='border: 4px solid darkgrey;' src='img/tf1_16_M_ss3.jpeg'></img>","3","","exp","","1","<img src='img/tf1_16_T1_ss3_md.jpeg'></img>","0","false",""
"","html-keyboard-response","49","128761","0.0-10.0-0.16","646","""event"",""trial"",""time""
""fullscreenenter"",""0"",""2864""
""blur"",""3"",""17527""
""focus"",""3"",""17531""
""fullscreenexit"",""3"",""17531""
""blur"",""3"",""27466""
""focus"",""3"",""27467""
""blur"",""3"",""34037""
""focus"",""3"",""34039""
","""event"",""trial"",""time""
""blur"",""3"",""17527""
""blur"",""3"",""27466""
""blur"",""3"",""34037""
","""event"",""trial"",""time""
""focus"",""3"",""17531""
""focus"",""3"",""27467""
""focus"",""3"",""34039""
","""event"",""trial"",""time""
""fullscreenenter"",""0"",""2864""
","""event"",""trial"",""time""
""fullscreenexit"",""3"",""17531""
","null","<div style=""font-size:60px;"">+</div>","","null","fixation","2021-06-23 18:20:18.178","","","","",""
"","mars-trial","50","130486","0.0-10.0-1.16","646","""event"",""trial"",""time""
""fullscreenenter"",""0"",""2864""
""blur"",""3"",""17527""
""focus"",""3"",""17531""
""fullscreenexit"",""3"",""17531""
""blur"",""3"",""27466""
""focus"",""3"",""27467""
""blur"",""3"",""34037""
""focus"",""3"",""34039""
","""event"",""trial"",""time""
""blur"",""3"",""17527""
""blur"",""3"",""27466""
""blur"",""3"",""34037""
","""event"",""trial"",""time""
""focus"",""3"",""17531""
""focus"",""3"",""27467""
""focus"",""3"",""34039""
","""event"",""trial"",""time""
""fullscreenenter"",""0"",""2864""
","""event"",""trial"",""time""
""fullscreenexit"",""3"",""17531""
","1117.300000011921","<img style='border: 4px solid darkgrey;' src='img/tf1_17_M_ss1.jpeg'></img>","0","","exp","","0","<img src='img/tf1_17_T1_ss1_md.jpeg'></img>","0","true",""
"","html-keyboard-response","51","130991","0.0-10.0-0.17","646","""event"",""trial"",""time""
""fullscreenenter"",""0"",""2864""
""blur"",""3"",""17527""
""focus"",""3"",""17531""
""fullscreenexit"",""3"",""17531""
""blur"",""3"",""27466""
""focus"",""3"",""27467""
""blur"",""3"",""34037""
""focus"",""3"",""34039""
","""event"",""trial"",""time""
""blur"",""3"",""17527""
""blur"",""3"",""27466""
""blur"",""3"",""34037""
","""event"",""trial"",""time""
""focus"",""3"",""17531""
""focus"",""3"",""27467""
""focus"",""3"",""34039""
","""event"",""trial"",""time""
""fullscreenenter"",""0"",""2864""
","""event"",""trial"",""time""
""fullscreenexit"",""3"",""17531""
","null","<div style=""font-size:60px;"">+</div>","","null","fixation","2021-06-23 18:20:20.407","","","","",""
"","mars-trial","52","132442","0.0-10.0-1.17","646","""event"",""trial"",""time""
""fullscreenenter"",""0"",""2864""
""blur"",""3"",""17527""
""focus"",""3"",""17531""
""fullscreenexit"",""3"",""17531""
""blur"",""3"",""27466""
""focus"",""3"",""27467""
""blur"",""3"",""34037""
""focus"",""3"",""34039""
","""event"",""trial"",""time""
""blur"",""3"",""17527""
""blur"",""3"",""27466""
""blur"",""3"",""34037""
","""event"",""trial"",""time""
""focus"",""3"",""17531""
""focus"",""3"",""27467""
""focus"",""3"",""34039""
","""event"",""trial"",""time""
""fullscreenenter"",""0"",""2864""
","""event"",""trial"",""time""
""fullscreenexit"",""3"",""17531""
","843.4000000059605","<img style='border: 4px solid darkgrey;' src='img/tf1_18_M_ss2.jpeg'></img>","2","","exp","","2","<img src='img/tf1_18_T1_ss2_md.jpeg'></img>","0","false",""
"","html-keyboard-response","53","132944","0.0-10.0-0.18","646","""event"",""trial"",""time""
""fullscreenenter"",""0"",""2864""
""blur"",""3"",""17527""
""focus"",""3"",""17531""
""fullscreenexit"",""3"",""17531""
""blur"",""3"",""27466""
""focus"",""3"",""27467""
""blur"",""3"",""34037""
""focus"",""3"",""34039""
","""event"",""trial"",""time""
""blur"",""3"",""17527""
""blur"",""3"",""27466""
""blur"",""3"",""34037""
","""event"",""trial"",""time""
""focus"",""3"",""17531""
""focus"",""3"",""27467""
""focus"",""3"",""34039""
","""event"",""trial"",""time""
""fullscreenenter"",""0"",""2864""
","""event"",""trial"",""time""
""fullscreenexit"",""3"",""17531""
","null","<div style=""font-size:60px;"">+</div>","","null","fixation","2021-06-23 18:20:22.360","","","","",""
"","mars-trial","54","134047","0.0-10.0-1.18","646","""event"",""trial"",""time""
""fullscreenenter"",""0"",""2864""
""blur"",""3"",""17527""
""focus"",""3"",""17531""
""fullscreenexit"",""3"",""17531""
""blur"",""3"",""27466""
""focus"",""3"",""27467""
""blur"",""3"",""34037""
""focus"",""3"",""34039""
","""event"",""trial"",""time""
""blur"",""3"",""17527""
""blur"",""3"",""27466""
""blur"",""3"",""34037""
","""event"",""trial"",""time""
""focus"",""3"",""17531""
""focus"",""3"",""27467""
""focus"",""3"",""34039""
","""event"",""trial"",""time""
""fullscreenenter"",""0"",""2864""
","""event"",""trial"",""time""
""fullscreenexit"",""3"",""17531""
","496.40000000596046","<img style='border: 4px solid darkgrey;' src='img/tf1_19_M_ss3.jpeg'></img>","1","","exp","","3","<img src='img/tf1_19_T1_ss3_md.jpeg'></img>","0","false",""
"","html-keyboard-response","55","134551","0.0-10.0-0.19","646","""event"",""trial"",""time""
""fullscreenenter"",""0"",""2864""
""blur"",""3"",""17527""
""focus"",""3"",""17531""
""fullscreenexit"",""3"",""17531""
""blur"",""3"",""27466""
""focus"",""3"",""27467""
""blur"",""3"",""34037""
""focus"",""3"",""34039""
","""event"",""trial"",""time""
""blur"",""3"",""17527""
""blur"",""3"",""27466""
""blur"",""3"",""34037""
","""event"",""trial"",""time""
""focus"",""3"",""17531""
""focus"",""3"",""27467""
""focus"",""3"",""34039""
","""event"",""trial"",""time""
""fullscreenenter"",""0"",""2864""
","""event"",""trial"",""time""
""fullscreenexit"",""3"",""17531""
","null","<div style=""font-size:60px;"">+</div>","","null","fixation","2021-06-23 18:20:23.967","","","","",""
"","mars-trial","56","135700","0.0-10.0-1.19","646","""event"",""trial"",""time""
""fullscreenenter"",""0"",""2864""
""blur"",""3"",""17527""
""focus"",""3"",""17531""
""fullscreenexit"",""3"",""17531""
""blur"",""3"",""27466""
""focus"",""3"",""27467""
""blur"",""3"",""34037""
""focus"",""3"",""34039""
","""event"",""trial"",""time""
""blur"",""3"",""17527""
""blur"",""3"",""27466""
""blur"",""3"",""34037""
","""event"",""trial"",""time""
""focus"",""3"",""17531""
""focus"",""3"",""27467""
""focus"",""3"",""34039""
","""event"",""trial"",""time""
""fullscreenenter"",""0"",""2864""
","""event"",""trial"",""time""
""fullscreenexit"",""3"",""17531""
","541.3999999761581","<img style='border: 4px solid darkgrey;' src='img/tf1_20_M_ss1.jpeg'></img>","3","","exp","","2","<img src='img/tf1_20_T1_ss1_md.jpeg'></img>","0","false",""
"","html-keyboard-response","57","136203","0.0-10.0-0.20","646","""event"",""trial"",""time""
""fullscreenenter"",""0"",""2864""
""blur"",""3"",""17527""
""focus"",""3"",""17531""
""fullscreenexit"",""3"",""17531""
""blur"",""3"",""27466""
""focus"",""3"",""27467""
""blur"",""3"",""34037""
""focus"",""3"",""34039""
","""event"",""trial"",""time""
""blur"",""3"",""17527""
""blur"",""3"",""27466""
""blur"",""3"",""34037""
","""event"",""trial"",""time""
""focus"",""3"",""17531""
""focus"",""3"",""27467""
""focus"",""3"",""34039""
","""event"",""trial"",""time""
""fullscreenenter"",""0"",""2864""
","""event"",""trial"",""time""
""fullscreenexit"",""3"",""17531""
","null","<div style=""font-size:60px;"">+</div>","","null","fixation","2021-06-23 18:20:25.619","","","","",""
"","mars-trial","58","137475","0.0-10.0-1.20","646","""event"",""trial"",""time""
""fullscreenenter"",""0"",""2864""
""blur"",""3"",""17527""
""focus"",""3"",""17531""
""fullscreenexit"",""3"",""17531""
""blur"",""3"",""27466""
""focus"",""3"",""27467""
""blur"",""3"",""34037""
""focus"",""3"",""34039""
","""event"",""trial"",""time""
""blur"",""3"",""17527""
""blur"",""3"",""27466""
""blur"",""3"",""34037""
","""event"",""trial"",""time""
""focus"",""3"",""17531""
""focus"",""3"",""27467""
""focus"",""3"",""34039""
","""event"",""trial"",""time""
""fullscreenenter"",""0"",""2864""
","""event"",""trial"",""time""
""fullscreenexit"",""3"",""17531""
","663.9000000059605","<img style='border: 4px solid darkgrey;' src='img/tf1_21_M_ss2.jpeg'></img>","0","","exp","","1","<img src='img/tf1_21_T1_ss2_md.jpeg'></img>","0","false",""
"","html-keyboard-response","59","137977","0.0-10.0-0.21","646","""event"",""trial"",""time""
""fullscreenenter"",""0"",""2864""
""blur"",""3"",""17527""
""focus"",""3"",""17531""
""fullscreenexit"",""3"",""17531""
""blur"",""3"",""27466""
""focus"",""3"",""27467""
""blur"",""3"",""34037""
""focus"",""3"",""34039""
","""event"",""trial"",""time""
""blur"",""3"",""17527""
""blur"",""3"",""27466""
""blur"",""3"",""34037""
","""event"",""trial"",""time""
""focus"",""3"",""17531""
""focus"",""3"",""27467""
""focus"",""3"",""34039""
","""event"",""trial"",""time""
""fullscreenenter"",""0"",""2864""
","""event"",""trial"",""time""
""fullscreenexit"",""3"",""17531""
","null","<div style=""font-size:60px;"">+</div>","","null","fixation","2021-06-23 18:20:27.393","","","","",""
"","mars-trial","60","139167","0.0-10.0-1.21","646","""event"",""trial"",""time""
""fullscreenenter"",""0"",""2864""
""blur"",""3"",""17527""
""focus"",""3"",""17531""
""fullscreenexit"",""3"",""17531""
""blur"",""3"",""27466""
""focus"",""3"",""27467""
""blur"",""3"",""34037""
""focus"",""3"",""34039""
","""event"",""trial"",""time""
""blur"",""3"",""17527""
""blur"",""3"",""27466""
""blur"",""3"",""34037""
","""event"",""trial"",""time""
""focus"",""3"",""17531""
""focus"",""3"",""27467""
""focus"",""3"",""34039""
","""event"",""trial"",""time""
""fullscreenenter"",""0"",""2864""
","""event"",""trial"",""time""
""fullscreenexit"",""3"",""17531""
","578.1000000238419","<img style='border: 4px solid darkgrey;' src='img/tf1_22_M_ss3.jpeg'></img>","2","","exp","","3","<img src='img/tf1_22_T1_ss3_md.jpeg'></img>","0","false",""
"","html-keyboard-response","61","139669","0.0-10.0-0.22","646","""event"",""trial"",""time""
""fullscreenenter"",""0"",""2864""
""blur"",""3"",""17527""
""focus"",""3"",""17531""
""fullscreenexit"",""3"",""17531""
""blur"",""3"",""27466""
""focus"",""3"",""27467""
""blur"",""3"",""34037""
""focus"",""3"",""34039""
","""event"",""trial"",""time""
""blur"",""3"",""17527""
""blur"",""3"",""27466""
""blur"",""3"",""34037""
","""event"",""trial"",""time""
""focus"",""3"",""17531""
""focus"",""3"",""27467""
""focus"",""3"",""34039""
","""event"",""trial"",""time""
""fullscreenenter"",""0"",""2864""
","""event"",""trial"",""time""
""fullscreenexit"",""3"",""17531""
","null","<div style=""font-size:60px;"">+</div>","","null","fixation","2021-06-23 18:20:29.085","","","","",""
"","mars-trial","62","140714","0.0-10.0-1.22","646","""event"",""trial"",""time""
""fullscreenenter"",""0"",""2864""
""blur"",""3"",""17527""
""focus"",""3"",""17531""
""fullscreenexit"",""3"",""17531""
""blur"",""3"",""27466""
""focus"",""3"",""27467""
""blur"",""3"",""34037""
""focus"",""3"",""34039""
","""event"",""trial"",""time""
""blur"",""3"",""17527""
""blur"",""3"",""27466""
""blur"",""3"",""34037""
","""event"",""trial"",""time""
""focus"",""3"",""17531""
""focus"",""3"",""27467""
""focus"",""3"",""34039""
","""event"",""trial"",""time""
""fullscreenenter"",""0"",""2864""
","""event"",""trial"",""time""
""fullscreenexit"",""3"",""17531""
","433.59999999403954","<img style='border: 4px solid darkgrey;' src='img/tf1_23_M_ss1.jpeg'></img>","1","","exp","","3","<img src='img/tf1_23_T1_ss1_md.jpeg'></img>","0","false",""
"","html-keyboard-response","63","141217","0.0-10.0-0.23","646","""event"",""trial"",""time""
""fullscreenenter"",""0"",""2864""
""blur"",""3"",""17527""
""focus"",""3"",""17531""
""fullscreenexit"",""3"",""17531""
""blur"",""3"",""27466""
""focus"",""3"",""27467""
""blur"",""3"",""34037""
""focus"",""3"",""34039""
","""event"",""trial"",""time""
""blur"",""3"",""17527""
""blur"",""3"",""27466""
""blur"",""3"",""34037""
","""event"",""trial"",""time""
""focus"",""3"",""17531""
""focus"",""3"",""27467""
""focus"",""3"",""34039""
","""event"",""trial"",""time""
""fullscreenenter"",""0"",""2864""
","""event"",""trial"",""time""
""fullscreenexit"",""3"",""17531""
","null","<div style=""font-size:60px;"">+</div>","","null","fixation","2021-06-23 18:20:30.634","","","","",""
"","mars-trial","64","142746","0.0-10.0-1.23","646","""event"",""trial"",""time""
""fullscreenenter"",""0"",""2864""
""blur"",""3"",""17527""
""focus"",""3"",""17531""
""fullscreenexit"",""3"",""17531""
""blur"",""3"",""27466""
""focus"",""3"",""27467""
""blur"",""3"",""34037""
""focus"",""3"",""34039""
","""event"",""trial"",""time""
""blur"",""3"",""17527""
""blur"",""3"",""27466""
""blur"",""3"",""34037""
","""event"",""trial"",""time""
""focus"",""3"",""17531""
""focus"",""3"",""27467""
""focus"",""3"",""34039""
","""event"",""trial"",""time""
""fullscreenenter"",""0"",""2864""
","""event"",""trial"",""time""
""fullscreenexit"",""3"",""17531""
","921.5999999940395","<img style='border: 4px solid darkgrey;' src='img/tf1_24_M_ss2.jpeg'></img>","3","","exp","","1","<img src='img/tf1_24_T1_ss2_md.jpeg'></img>","0","false",""
"","html-keyboard-response","65","143248","0.0-10.0-0.24","646","""event"",""trial"",""time""
""fullscreenenter"",""0"",""2864""
""blur"",""3"",""17527""
""focus"",""3"",""17531""
""fullscreenexit"",""3"",""17531""
""blur"",""3"",""27466""
""focus"",""3"",""27467""
""blur"",""3"",""34037""
""focus"",""3"",""34039""
","""event"",""trial"",""time""
""blur"",""3"",""17527""
""blur"",""3"",""27466""
""blur"",""3"",""34037""
","""event"",""trial"",""time""
""focus"",""3"",""17531""
""focus"",""3"",""27467""
""focus"",""3"",""34039""
","""event"",""trial"",""time""
""fullscreenenter"",""0"",""2864""
","""event"",""trial"",""time""
""fullscreenexit"",""3"",""17531""
","null","<div style=""font-size:60px;"">+</div>","","null","fixation","2021-06-23 18:20:32.664","","","","",""
"","mars-trial","66","144727","0.0-10.0-1.24","646","""event"",""trial"",""time""
""fullscreenenter"",""0"",""2864""
""blur"",""3"",""17527""
""focus"",""3"",""17531""
""fullscreenexit"",""3"",""17531""
""blur"",""3"",""27466""
""focus"",""3"",""27467""
""blur"",""3"",""34037""
""focus"",""3"",""34039""
","""event"",""trial"",""time""
""blur"",""3"",""17527""
""blur"",""3"",""27466""
""blur"",""3"",""34037""
","""event"",""trial"",""time""
""focus"",""3"",""17531""
""focus"",""3"",""27467""
""focus"",""3"",""34039""
","""event"",""trial"",""time""
""fullscreenenter"",""0"",""2864""
","""event"",""trial"",""time""
""fullscreenexit"",""3"",""17531""
","869","<img style='border: 4px solid darkgrey;' src='img/tf1_25_M_ss3.jpeg'></img>","0","","exp","","2","<img src='img/tf1_25_T1_ss3_md.jpeg'></img>","0","false",""
"","html-keyboard-response","67","145229","0.0-10.0-0.25","646","""event"",""trial"",""time""
""fullscreenenter"",""0"",""2864""
""blur"",""3"",""17527""
""focus"",""3"",""17531""
""fullscreenexit"",""3"",""17531""
""blur"",""3"",""27466""
""focus"",""3"",""27467""
""blur"",""3"",""34037""
""focus"",""3"",""34039""
","""event"",""trial"",""time""
""blur"",""3"",""17527""
""blur"",""3"",""27466""
""blur"",""3"",""34037""
","""event"",""trial"",""time""
""focus"",""3"",""17531""
""focus"",""3"",""27467""
""focus"",""3"",""34039""
","""event"",""trial"",""time""
""fullscreenenter"",""0"",""2864""
","""event"",""trial"",""time""
""fullscreenexit"",""3"",""17531""
","null","<div style=""font-size:60px;"">+</div>","","null","fixation","2021-06-23 18:20:34.645","","","","",""
"","mars-trial","68","146441","0.0-10.0-1.25","646","""event"",""trial"",""time""
""fullscreenenter"",""0"",""2864""
""blur"",""3"",""17527""
""focus"",""3"",""17531""
""fullscreenexit"",""3"",""17531""
""blur"",""3"",""27466""
""focus"",""3"",""27467""
""blur"",""3"",""34037""
""focus"",""3"",""34039""
","""event"",""trial"",""time""
""blur"",""3"",""17527""
""blur"",""3"",""27466""
""blur"",""3"",""34037""
","""event"",""trial"",""time""
""focus"",""3"",""17531""
""focus"",""3"",""27467""
""focus"",""3"",""34039""
","""event"",""trial"",""time""
""fullscreenenter"",""0"",""2864""
","""event"",""trial"",""time""
""fullscreenexit"",""3"",""17531""
","602.5","<img style='border: 4px solid darkgrey;' src='img/tf1_26_M_ss1.jpeg'></img>","2","","exp","","0","<img src='img/tf1_26_T1_ss1_md.jpeg'></img>","0","true",""
"","html-keyboard-response","69","146946","0.0-10.0-0.26","646","""event"",""trial"",""time""
""fullscreenenter"",""0"",""2864""
""blur"",""3"",""17527""
""focus"",""3"",""17531""
""fullscreenexit"",""3"",""17531""
""blur"",""3"",""27466""
""focus"",""3"",""27467""
""blur"",""3"",""34037""
""focus"",""3"",""34039""
","""event"",""trial"",""time""
""blur"",""3"",""17527""
""blur"",""3"",""27466""
""blur"",""3"",""34037""
","""event"",""trial"",""time""
""focus"",""3"",""17531""
""focus"",""3"",""27467""
""focus"",""3"",""34039""
","""event"",""trial"",""time""
""fullscreenenter"",""0"",""2864""
","""event"",""trial"",""time""
""fullscreenexit"",""3"",""17531""
","null","<div style=""font-size:60px;"">+</div>","","null","fixation","2021-06-23 18:20:36.362","","","","",""
"","mars-trial","70","148079","0.0-10.0-1.26","646","""event"",""trial"",""time""
""fullscreenenter"",""0"",""2864""
""blur"",""3"",""17527""
""focus"",""3"",""17531""
""fullscreenexit"",""3"",""17531""
""blur"",""3"",""27466""
""focus"",""3"",""27467""
""blur"",""3"",""34037""
""focus"",""3"",""34039""
","""event"",""trial"",""time""
""blur"",""3"",""17527""
""blur"",""3"",""27466""
""blur"",""3"",""34037""
","""event"",""trial"",""time""
""focus"",""3"",""17531""
""focus"",""3"",""27467""
""focus"",""3"",""34039""
","""event"",""trial"",""time""
""fullscreenenter"",""0"",""2864""
","""event"",""trial"",""time""
""fullscreenexit"",""3"",""17531""
","521.5","<img style='border: 4px solid darkgrey;' src='img/tf1_27_M_ss2.jpeg'></img>","1","","exp","","2","<img src='img/tf1_27_T1_ss2_md.jpeg'></img>","0","false",""
"","html-keyboard-response","71","148583","0.0-10.0-0.27","646","""event"",""trial"",""time""
""fullscreenenter"",""0"",""2864""
""blur"",""3"",""17527""
""focus"",""3"",""17531""
""fullscreenexit"",""3"",""17531""
""blur"",""3"",""27466""
""focus"",""3"",""27467""
""blur"",""3"",""34037""
""focus"",""3"",""34039""
","""event"",""trial"",""time""
""blur"",""3"",""17527""
""blur"",""3"",""27466""
""blur"",""3"",""34037""
","""event"",""trial"",""time""
""focus"",""3"",""17531""
""focus"",""3"",""27467""
""focus"",""3"",""34039""
","""event"",""trial"",""time""
""fullscreenenter"",""0"",""2864""
","""event"",""trial"",""time""
""fullscreenexit"",""3"",""17531""
","null","<div style=""font-size:60px;"">+</div>","","null","fixation","2021-06-23 18:20:37.999","","","","",""
"","mars-trial","72","149865","0.0-10.0-1.27","646","""event"",""trial"",""time""
""fullscreenenter"",""0"",""2864""
""blur"",""3"",""17527""
""focus"",""3"",""17531""
""fullscreenexit"",""3"",""17531""
""blur"",""3"",""27466""
""focus"",""3"",""27467""
""blur"",""3"",""34037""
""focus"",""3"",""34039""
","""event"",""trial"",""time""
""blur"",""3"",""17527""
""blur"",""3"",""27466""
""blur"",""3"",""34037""
","""event"",""trial"",""time""
""focus"",""3"",""17531""
""focus"",""3"",""27467""
""focus"",""3"",""34039""
","""event"",""trial"",""time""
""fullscreenenter"",""0"",""2864""
","""event"",""trial"",""time""
""fullscreenexit"",""3"",""17531""
","674.7999999821186","<img style='border: 4px solid darkgrey;' src='img/tf1_28_M_ss3.jpeg'></img>","3","","exp","","3","<img src='img/tf1_28_T1_ss3_md.jpeg'></img>","0","false",""
"","html-keyboard-response","73","150368","0.0-10.0-0.28","646","""event"",""trial"",""time""
""fullscreenenter"",""0"",""2864""
""blur"",""3"",""17527""
""focus"",""3"",""17531""
""fullscreenexit"",""3"",""17531""
""blur"",""3"",""27466""
""focus"",""3"",""27467""
""blur"",""3"",""34037""
""focus"",""3"",""34039""
","""event"",""trial"",""time""
""blur"",""3"",""17527""
""blur"",""3"",""27466""
""blur"",""3"",""34037""
","""event"",""trial"",""time""
""focus"",""3"",""17531""
""focus"",""3"",""27467""
""focus"",""3"",""34039""
","""event"",""trial"",""time""
""fullscreenenter"",""0"",""2864""
","""event"",""trial"",""time""
""fullscreenexit"",""3"",""17531""
","null","<div style=""font-size:60px;"">+</div>","","null","fixation","2021-06-23 18:20:39.784","","","","",""
"","mars-trial","74","151746","0.0-10.0-1.28","646","""event"",""trial"",""time""
""fullscreenenter"",""0"",""2864""
""blur"",""3"",""17527""
""focus"",""3"",""17531""
""fullscreenexit"",""3"",""17531""
""blur"",""3"",""27466""
""focus"",""3"",""27467""
""blur"",""3"",""34037""
""focus"",""3"",""34039""
","""event"",""trial"",""time""
""blur"",""3"",""17527""
""blur"",""3"",""27466""
""blur"",""3"",""34037""
","""event"",""trial"",""time""
""focus"",""3"",""17531""
""focus"",""3"",""27467""
""focus"",""3"",""34039""
","""event"",""trial"",""time""
""fullscreenenter"",""0"",""2864""
","""event"",""trial"",""time""
""fullscreenexit"",""3"",""17531""
","769.4000000059605","<img style='border: 4px solid darkgrey;' src='img/tf1_29_M_ss1.jpeg'></img>","0","","exp","","2","<img src='img/tf1_29_T1_ss1_md.jpeg'></img>","0","false",""
"","html-keyboard-response","75","152249","0.0-10.0-0.29","646","""event"",""trial"",""time""
""fullscreenenter"",""0"",""2864""
""blur"",""3"",""17527""
""focus"",""3"",""17531""
""fullscreenexit"",""3"",""17531""
""blur"",""3"",""27466""
""focus"",""3"",""27467""
""blur"",""3"",""34037""
""focus"",""3"",""34039""
","""event"",""trial"",""time""
""blur"",""3"",""17527""
""blur"",""3"",""27466""
""blur"",""3"",""34037""
","""event"",""trial"",""time""
""focus"",""3"",""17531""
""focus"",""3"",""27467""
""focus"",""3"",""34039""
","""event"",""trial"",""time""
""fullscreenenter"",""0"",""2864""
","""event"",""trial"",""time""
""fullscreenexit"",""3"",""17531""
","null","<div style=""font-size:60px;"">+</div>","","null","fixation","2021-06-23 18:20:41.665","","","","",""
"","mars-trial","76","153206","0.0-10.0-1.29","646","""event"",""trial"",""time""
""fullscreenenter"",""0"",""2864""
""blur"",""3"",""17527""
""focus"",""3"",""17531""
""fullscreenexit"",""3"",""17531""
""blur"",""3"",""27466""
""focus"",""3"",""27467""
""blur"",""3"",""34037""
""focus"",""3"",""34039""
","""event"",""trial"",""time""
""blur"",""3"",""17527""
""blur"",""3"",""27466""
""blur"",""3"",""34037""
","""event"",""trial"",""time""
""focus"",""3"",""17531""
""focus"",""3"",""27467""
""focus"",""3"",""34039""
","""event"",""trial"",""time""
""fullscreenenter"",""0"",""2864""
","""event"",""trial"",""time""
""fullscreenexit"",""3"",""17531""
","349.19999998807907","<img style='border: 4px solid darkgrey;' src='img/tf1_30_M_ss2.jpeg'></img>","2","","exp","","3","<img src='img/tf1_30_T1_ss2_md.jpeg'></img>","0","false",""
"","html-keyboard-response","77","153709","0.0-10.0-0.30","646","""event"",""trial"",""time""
""fullscreenenter"",""0"",""2864""
""blur"",""3"",""17527""
""focus"",""3"",""17531""
""fullscreenexit"",""3"",""17531""
""blur"",""3"",""27466""
""focus"",""3"",""27467""
""blur"",""3"",""34037""
""focus"",""3"",""34039""
","""event"",""trial"",""time""
""blur"",""3"",""17527""
""blur"",""3"",""27466""
""blur"",""3"",""34037""
","""event"",""trial"",""time""
""focus"",""3"",""17531""
""focus"",""3"",""27467""
""focus"",""3"",""34039""
","""event"",""trial"",""time""
""fullscreenenter"",""0"",""2864""
","""event"",""trial"",""time""
""fullscreenexit"",""3"",""17531""
","null","<div style=""font-size:60px;"">+</div>","","null","fixation","2021-06-23 18:20:43.125","","","","",""
"","mars-trial","78","154657","0.0-10.0-1.30","646","""event"",""trial"",""time""
""fullscreenenter"",""0"",""2864""
""blur"",""3"",""17527""
""focus"",""3"",""17531""
""fullscreenexit"",""3"",""17531""
""blur"",""3"",""27466""
""focus"",""3"",""27467""
""blur"",""3"",""34037""
""focus"",""3"",""34039""
","""event"",""trial"",""time""
""blur"",""3"",""17527""
""blur"",""3"",""27466""
""blur"",""3"",""34037""
","""event"",""trial"",""time""
""focus"",""3"",""17531""
""focus"",""3"",""27467""
""focus"",""3"",""34039""
","""event"",""trial"",""time""
""fullscreenenter"",""0"",""2864""
","""event"",""trial"",""time""
""fullscreenexit"",""3"",""17531""
","338.80000001192093","<img style='border: 4px solid darkgrey;' src='img/tf1_31_M_ss3.jpeg'></img>","1","","exp","","3","<img src='img/tf1_31_T1_ss3_md.jpeg'></img>","0","false",""
"","html-keyboard-response","79","155160","0.0-10.0-0.31","646","""event"",""trial"",""time""
""fullscreenenter"",""0"",""2864""
""blur"",""3"",""17527""
""focus"",""3"",""17531""
""fullscreenexit"",""3"",""17531""
""blur"",""3"",""27466""
""focus"",""3"",""27467""
""blur"",""3"",""34037""
""focus"",""3"",""34039""
","""event"",""trial"",""time""
""blur"",""3"",""17527""
""blur"",""3"",""27466""
""blur"",""3"",""34037""
","""event"",""trial"",""time""
""focus"",""3"",""17531""
""focus"",""3"",""27467""
""focus"",""3"",""34039""
","""event"",""trial"",""time""
""fullscreenenter"",""0"",""2864""
","""event"",""trial"",""time""
""fullscreenexit"",""3"",""17531""
","null","<div style=""font-size:60px;"">+</div>","","null","fixation","2021-06-23 18:20:44.576","","","","",""
"","mars-trial","80","156094","0.0-10.0-1.31","646","""event"",""trial"",""time""
""fullscreenenter"",""0"",""2864""
""blur"",""3"",""17527""
""focus"",""3"",""17531""
""fullscreenexit"",""3"",""17531""
""blur"",""3"",""27466""
""focus"",""3"",""27467""
""blur"",""3"",""34037""
""focus"",""3"",""34039""
","""event"",""trial"",""time""
""blur"",""3"",""17527""
""blur"",""3"",""27466""
""blur"",""3"",""34037""
","""event"",""trial"",""time""
""focus"",""3"",""17531""
""focus"",""3"",""27467""
""focus"",""3"",""34039""
","""event"",""trial"",""time""
""fullscreenenter"",""0"",""2864""
","""event"",""trial"",""time""
""fullscreenexit"",""3"",""17531""
","325.10000002384186","<img style='border: 4px solid darkgrey;' src='img/tf1_32_M_ss1.jpeg'></img>","3","","exp","","1","<img src='img/tf1_32_T1_ss1_md.jpeg'></img>","0","false",""
"","html-keyboard-response","81","156598","0.0-10.0-0.32","646","""event"",""trial"",""time""
""fullscreenenter"",""0"",""2864""
""blur"",""3"",""17527""
""focus"",""3"",""17531""
""fullscreenexit"",""3"",""17531""
""blur"",""3"",""27466""
""focus"",""3"",""27467""
""blur"",""3"",""34037""
""focus"",""3"",""34039""
","""event"",""trial"",""time""
""blur"",""3"",""17527""
""blur"",""3"",""27466""
""blur"",""3"",""34037""
","""event"",""trial"",""time""
""focus"",""3"",""17531""
""focus"",""3"",""27467""
""focus"",""3"",""34039""
","""event"",""trial"",""time""
""fullscreenenter"",""0"",""2864""
","""event"",""trial"",""time""
""fullscreenexit"",""3"",""17531""
","null","<div style=""font-size:60px;"">+</div>","","null","fixation","2021-06-23 18:20:46.014","","","","",""
"","mars-trial","82","157668","0.0-10.0-1.32","646","""event"",""trial"",""time""
""fullscreenenter"",""0"",""2864""
""blur"",""3"",""17527""
""focus"",""3"",""17531""
""fullscreenexit"",""3"",""17531""
""blur"",""3"",""27466""
""focus"",""3"",""27467""
""blur"",""3"",""34037""
""focus"",""3"",""34039""
","""event"",""trial"",""time""
""blur"",""3"",""17527""
""blur"",""3"",""27466""
""blur"",""3"",""34037""
","""event"",""trial"",""time""
""focus"",""3"",""17531""
""focus"",""3"",""27467""
""focus"",""3"",""34039""
","""event"",""trial"",""time""
""fullscreenenter"",""0"",""2864""
","""event"",""trial"",""time""
""fullscreenexit"",""3"",""17531""
","463.09999999403954","<img style='border: 4px solid darkgrey;' src='img/tf1_33_M_ss2.jpeg'></img>","0","","exp","","1","<img src='img/tf1_33_T1_ss2_md.jpeg'></img>","0","false",""
"","html-keyboard-response","83","158171","0.0-10.0-0.33","646","""event"",""trial"",""time""
""fullscreenenter"",""0"",""2864""
""blur"",""3"",""17527""
""focus"",""3"",""17531""
""fullscreenexit"",""3"",""17531""
""blur"",""3"",""27466""
""focus"",""3"",""27467""
""blur"",""3"",""34037""
""focus"",""3"",""34039""
","""event"",""trial"",""time""
""blur"",""3"",""17527""
""blur"",""3"",""27466""
""blur"",""3"",""34037""
","""event"",""trial"",""time""
""focus"",""3"",""17531""
""focus"",""3"",""27467""
""focus"",""3"",""34039""
","""event"",""trial"",""time""
""fullscreenenter"",""0"",""2864""
","""event"",""trial"",""time""
""fullscreenexit"",""3"",""17531""
","null","<div style=""font-size:60px;"">+</div>","","null","fixation","2021-06-23 18:20:47.587","","","","",""
"","mars-trial","84","159152","0.0-10.0-1.33","646","""event"",""trial"",""time""
""fullscreenenter"",""0"",""2864""
""blur"",""3"",""17527""
""focus"",""3"",""17531""
""fullscreenexit"",""3"",""17531""
""blur"",""3"",""27466""
""focus"",""3"",""27467""
""blur"",""3"",""34037""
""focus"",""3"",""34039""
","""event"",""trial"",""time""
""blur"",""3"",""17527""
""blur"",""3"",""27466""
""blur"",""3"",""34037""
","""event"",""trial"",""time""
""focus"",""3"",""17531""
""focus"",""3"",""27467""
""focus"",""3"",""34039""
","""event"",""trial"",""time""
""fullscreenenter"",""0"",""2864""
","""event"",""trial"",""time""
""fullscreenexit"",""3"",""17531""
","368.90000000596046","<img style='border: 4px solid darkgrey;' src='img/tf1_34_M_ss3.jpeg'></img>","1","","exp","","3","<img src='img/tf1_34_T1_ss3_md.jpeg'></img>","0","false",""
"","html-keyboard-response","85","159657","0.0-10.0-0.34","646","""event"",""trial"",""time""
""fullscreenenter"",""0"",""2864""
""blur"",""3"",""17527""
""focus"",""3"",""17531""
""fullscreenexit"",""3"",""17531""
""blur"",""3"",""27466""
""focus"",""3"",""27467""
""blur"",""3"",""34037""
""focus"",""3"",""34039""
","""event"",""trial"",""time""
""blur"",""3"",""17527""
""blur"",""3"",""27466""
""blur"",""3"",""34037""
","""event"",""trial"",""time""
""focus"",""3"",""17531""
""focus"",""3"",""27467""
""focus"",""3"",""34039""
","""event"",""trial"",""time""
""fullscreenenter"",""0"",""2864""
","""event"",""trial"",""time""
""fullscreenexit"",""3"",""17531""
","null","<div style=""font-size:60px;"">+</div>","","null","fixation","2021-06-23 18:20:49.073","","","","",""
"","mars-trial","86","160803","0.0-10.0-1.34","646","""event"",""trial"",""time""
""fullscreenenter"",""0"",""2864""
""blur"",""3"",""17527""
""focus"",""3"",""17531""
""fullscreenexit"",""3"",""17531""
""blur"",""3"",""27466""
""focus"",""3"",""27467""
""blur"",""3"",""34037""
""focus"",""3"",""34039""
","""event"",""trial"",""time""
""blur"",""3"",""17527""
""blur"",""3"",""27466""
""blur"",""3"",""34037""
","""event"",""trial"",""time""
""focus"",""3"",""17531""
""focus"",""3"",""27467""
""focus"",""3"",""34039""
","""event"",""trial"",""time""
""fullscreenenter"",""0"",""2864""
","""event"",""trial"",""time""
""fullscreenexit"",""3"",""17531""
","539.2000000178814","<img style='border: 4px solid darkgrey;' src='img/tf1_35_M_ss1.jpeg'></img>","1","","exp","","0","<img src='img/tf1_35_T1_ss1_md.jpeg'></img>","0","true",""
"","html-keyboard-response","87","161310","0.0-10.0-0.35","646","""event"",""trial"",""time""
""fullscreenenter"",""0"",""2864""
""blur"",""3"",""17527""
""focus"",""3"",""17531""
""fullscreenexit"",""3"",""17531""
""blur"",""3"",""27466""
""focus"",""3"",""27467""
""blur"",""3"",""34037""
""focus"",""3"",""34039""
","""event"",""trial"",""time""
""blur"",""3"",""17527""
""blur"",""3"",""27466""
""blur"",""3"",""34037""
","""event"",""trial"",""time""
""focus"",""3"",""17531""
""focus"",""3"",""27467""
""focus"",""3"",""34039""
","""event"",""trial"",""time""
""fullscreenenter"",""0"",""2864""
","""event"",""trial"",""time""
""fullscreenexit"",""3"",""17531""
","null","<div style=""font-size:60px;"">+</div>","","null","fixation","2021-06-23 18:20:50.726","","","","",""
"","mars-trial","88","162378","0.0-10.0-1.35","646","""event"",""trial"",""time""
""fullscreenenter"",""0"",""2864""
""blur"",""3"",""17527""
""focus"",""3"",""17531""
""fullscreenexit"",""3"",""17531""
""blur"",""3"",""27466""
""focus"",""3"",""27467""
""blur"",""3"",""34037""
""focus"",""3"",""34039""
","""event"",""trial"",""time""
""blur"",""3"",""17527""
""blur"",""3"",""27466""
""blur"",""3"",""34037""
","""event"",""trial"",""time""
""focus"",""3"",""17531""
""focus"",""3"",""27467""
""focus"",""3"",""34039""
","""event"",""trial"",""time""
""fullscreenenter"",""0"",""2864""
","""event"",""trial"",""time""
""fullscreenexit"",""3"",""17531""
","458.69999998807907","<img style='border: 4px solid darkgrey;' src='img/tf1_36_M_ss2.jpeg'></img>","1","","exp","","2","<img src='img/tf1_36_T1_ss2_md.jpeg'></img>","0","false",""
"","html-keyboard-response","89","162881","0.0-10.0-0.36","646","""event"",""trial"",""time""
""fullscreenenter"",""0"",""2864""
""blur"",""3"",""17527""
""focus"",""3"",""17531""
""fullscreenexit"",""3"",""17531""
""blur"",""3"",""27466""
""focus"",""3"",""27467""
""blur"",""3"",""34037""
""focus"",""3"",""34039""
","""event"",""trial"",""time""
""blur"",""3"",""17527""
""blur"",""3"",""27466""
""blur"",""3"",""34037""
","""event"",""trial"",""time""
""focus"",""3"",""17531""
""focus"",""3"",""27467""
""focus"",""3"",""34039""
","""event"",""trial"",""time""
""fullscreenenter"",""0"",""2864""
","""event"",""trial"",""time""
""fullscreenexit"",""3"",""17531""
","null","<div style=""font-size:60px;"">+</div>","","null","fixation","2021-06-23 18:20:52.297","","","","",""
"","mars-trial","90","163774","0.0-10.0-1.36","646","""event"",""trial"",""time""
""fullscreenenter"",""0"",""2864""
""blur"",""3"",""17527""
""focus"",""3"",""17531""
""fullscreenexit"",""3"",""17531""
""blur"",""3"",""27466""
""focus"",""3"",""27467""
""blur"",""3"",""34037""
""focus"",""3"",""34039""
","""event"",""trial"",""time""
""blur"",""3"",""17527""
""blur"",""3"",""27466""
""blur"",""3"",""34037""
","""event"",""trial"",""time""
""focus"",""3"",""17531""
""focus"",""3"",""27467""
""focus"",""3"",""34039""
","""event"",""trial"",""time""
""fullscreenenter"",""0"",""2864""
","""event"",""trial"",""time""
""fullscreenexit"",""3"",""17531""
","283.7000000178814","<img style='border: 4px solid darkgrey;' src='img/tf1_37_M_ss3.jpeg'></img>","1","","exp","","1","<img src='img/tf1_37_T1_ss3_md.jpeg'></img>","0","false",""
"","html-keyboard-response","91","164278","0.0-10.0-0.37","646","""event"",""trial"",""time""
""fullscreenenter"",""0"",""2864""
""blur"",""3"",""17527""
""focus"",""3"",""17531""
""fullscreenexit"",""3"",""17531""
""blur"",""3"",""27466""
""focus"",""3"",""27467""
""blur"",""3"",""34037""
""focus"",""3"",""34039""
","""event"",""trial"",""time""
""blur"",""3"",""17527""
""blur"",""3"",""27466""
""blur"",""3"",""34037""
","""event"",""trial"",""time""
""focus"",""3"",""17531""
""focus"",""3"",""27467""
""focus"",""3"",""34039""
","""event"",""trial"",""time""
""fullscreenenter"",""0"",""2864""
","""event"",""trial"",""time""
""fullscreenexit"",""3"",""17531""
","null","<div style=""font-size:60px;"">+</div>","","null","fixation","2021-06-23 18:20:53.694","","","","",""
"","mars-trial","92","165470","0.0-10.0-1.37","646","""event"",""trial"",""time""
""fullscreenenter"",""0"",""2864""
""blur"",""3"",""17527""
""focus"",""3"",""17531""
""fullscreenexit"",""3"",""17531""
""blur"",""3"",""27466""
""focus"",""3"",""27467""
""blur"",""3"",""34037""
""focus"",""3"",""34039""
","""event"",""trial"",""time""
""blur"",""3"",""17527""
""blur"",""3"",""27466""
""blur"",""3"",""34037""
","""event"",""trial"",""time""
""focus"",""3"",""17531""
""focus"",""3"",""27467""
""focus"",""3"",""34039""
","""event"",""trial"",""time""
""fullscreenenter"",""0"",""2864""
","""event"",""trial"",""time""
""fullscreenexit"",""3"",""17531""
","578.0999999940395","<img style='border: 4px solid darkgrey;' src='img/tf1_38_M_ss1.jpeg'></img>","2","","exp","","3","<img src='img/tf1_38_T1_ss1_md.jpeg'></img>","0","false",""
"","html-keyboard-response","93","165976","0.0-10.0-0.38","646","""event"",""trial"",""time""
""fullscreenenter"",""0"",""2864""
""blur"",""3"",""17527""
""focus"",""3"",""17531""
""fullscreenexit"",""3"",""17531""
""blur"",""3"",""27466""
""focus"",""3"",""27467""
""blur"",""3"",""34037""
""focus"",""3"",""34039""
","""event"",""trial"",""time""
""blur"",""3"",""17527""
""blur"",""3"",""27466""
""blur"",""3"",""34037""
","""event"",""trial"",""time""
""focus"",""3"",""17531""
""focus"",""3"",""27467""
""focus"",""3"",""34039""
","""event"",""trial"",""time""
""fullscreenenter"",""0"",""2864""
","""event"",""trial"",""time""
""fullscreenexit"",""3"",""17531""
","null","<div style=""font-size:60px;"">+</div>","","null","fixation","2021-06-23 18:20:55.392","","","","",""
"","mars-trial","94","167203","0.0-10.0-1.38","646","""event"",""trial"",""time""
""fullscreenenter"",""0"",""2864""
""blur"",""3"",""17527""
""focus"",""3"",""17531""
""fullscreenexit"",""3"",""17531""
""blur"",""3"",""27466""
""focus"",""3"",""27467""
""blur"",""3"",""34037""
""focus"",""3"",""34039""
","""event"",""trial"",""time""
""blur"",""3"",""17527""
""blur"",""3"",""27466""
""blur"",""3"",""34037""
","""event"",""trial"",""time""
""focus"",""3"",""17531""
""focus"",""3"",""27467""
""focus"",""3"",""34039""
","""event"",""trial"",""time""
""fullscreenenter"",""0"",""2864""
","""event"",""trial"",""time""
""fullscreenexit"",""3"",""17531""
","612.7000000178814","<img style='border: 4px solid darkgrey;' src='img/tf1_39_M_ss2.jpeg'></img>","3","","exp","","0","<img src='img/tf1_39_T1_ss2_md.jpeg'></img>","0","true",""
"","html-keyboard-response","95","167709","0.0-10.0-0.39","646","""event"",""trial"",""time""
""fullscreenenter"",""0"",""2864""
""blur"",""3"",""17527""
""focus"",""3"",""17531""
""fullscreenexit"",""3"",""17531""
""blur"",""3"",""27466""
""focus"",""3"",""27467""
""blur"",""3"",""34037""
""focus"",""3"",""34039""
","""event"",""trial"",""time""
""blur"",""3"",""17527""
""blur"",""3"",""27466""
""blur"",""3"",""34037""
","""event"",""trial"",""time""
""focus"",""3"",""17531""
""focus"",""3"",""27467""
""focus"",""3"",""34039""
","""event"",""trial"",""time""
""fullscreenenter"",""0"",""2864""
","""event"",""trial"",""time""
""fullscreenexit"",""3"",""17531""
","null","<div style=""font-size:60px;"">+</div>","","null","fixation","2021-06-23 18:20:57.125","","","","",""
"","mars-trial","96","169166","0.0-10.0-1.39","646","""event"",""trial"",""time""
""fullscreenenter"",""0"",""2864""
""blur"",""3"",""17527""
""focus"",""3"",""17531""
""fullscreenexit"",""3"",""17531""
""blur"",""3"",""27466""
""focus"",""3"",""27467""
""blur"",""3"",""34037""
""focus"",""3"",""34039""
","""event"",""trial"",""time""
""blur"",""3"",""17527""
""blur"",""3"",""27466""
""blur"",""3"",""34037""
","""event"",""trial"",""time""
""focus"",""3"",""17531""
""focus"",""3"",""27467""
""focus"",""3"",""34039""
","""event"",""trial"",""time""
""fullscreenenter"",""0"",""2864""
","""event"",""trial"",""time""
""fullscreenexit"",""3"",""17531""
","849.0999999940395","<img style='border: 4px solid darkgrey;' src='img/tf1_40_M_ss3.jpeg'></img>","1","","exp","","3","<img src='img/tf1_40_T1_ss3_md.jpeg'></img>","0","false",""
"","html-keyboard-response","97","169668","0.0-10.0-0.40","646","""event"",""trial"",""time""
""fullscreenenter"",""0"",""2864""
""blur"",""3"",""17527""
""focus"",""3"",""17531""
""fullscreenexit"",""3"",""17531""
""blur"",""3"",""27466""
""focus"",""3"",""27467""
""blur"",""3"",""34037""
""focus"",""3"",""34039""
","""event"",""trial"",""time""
""blur"",""3"",""17527""
""blur"",""3"",""27466""
""blur"",""3"",""34037""
","""event"",""trial"",""time""
""focus"",""3"",""17531""
""focus"",""3"",""27467""
""focus"",""3"",""34039""
","""event"",""trial"",""time""
""fullscreenenter"",""0"",""2864""
","""event"",""trial"",""time""
""fullscreenexit"",""3"",""17531""
","null","<div style=""font-size:60px;"">+</div>","","null","fixation","2021-06-23 18:20:59.084","","","","",""
"","mars-trial","98","170787","0.0-10.0-1.40","646","""event"",""trial"",""time""
""fullscreenenter"",""0"",""2864""
""blur"",""3"",""17527""
""focus"",""3"",""17531""
""fullscreenexit"",""3"",""17531""
""blur"",""3"",""27466""
""focus"",""3"",""27467""
""blur"",""3"",""34037""
""focus"",""3"",""34039""
","""event"",""trial"",""time""
""blur"",""3"",""17527""
""blur"",""3"",""27466""
""blur"",""3"",""34037""
","""event"",""trial"",""time""
""focus"",""3"",""17531""
""focus"",""3"",""27467""
""focus"",""3"",""34039""
","""event"",""trial"",""time""
""fullscreenenter"",""0"",""2864""
","""event"",""trial"",""time""
""fullscreenexit"",""3"",""17531""
","509.5","<img style='border: 4px solid darkgrey;' src='img/tf1_41_M_ss1.jpeg'></img>","0","","exp","","1","<img src='img/tf1_41_T1_ss1_md.jpeg'></img>","0","false",""
"","html-keyboard-response","99","171290","0.0-10.0-0.41","646","""event"",""trial"",""time""
""fullscreenenter"",""0"",""2864""
""blur"",""3"",""17527""
""focus"",""3"",""17531""
""fullscreenexit"",""3"",""17531""
""blur"",""3"",""27466""
""focus"",""3"",""27467""
""blur"",""3"",""34037""
""focus"",""3"",""34039""
","""event"",""trial"",""time""
""blur"",""3"",""17527""
""blur"",""3"",""27466""
""blur"",""3"",""34037""
","""event"",""trial"",""time""
""focus"",""3"",""17531""
""focus"",""3"",""27467""
""focus"",""3"",""34039""
","""event"",""trial"",""time""
""fullscreenenter"",""0"",""2864""
","""event"",""trial"",""time""
""fullscreenexit"",""3"",""17531""
","null","<div style=""font-size:60px;"">+</div>","","null","fixation","2021-06-23 18:21:00.706","","","","",""
"","mars-trial","100","172402","0.0-10.0-1.41","646","""event"",""trial"",""time""
""fullscreenenter"",""0"",""2864""
""blur"",""3"",""17527""
""focus"",""3"",""17531""
""fullscreenexit"",""3"",""17531""
""blur"",""3"",""27466""
""focus"",""3"",""27467""
""blur"",""3"",""34037""
""focus"",""3"",""34039""
","""event"",""trial"",""time""
""blur"",""3"",""17527""
""blur"",""3"",""27466""
""blur"",""3"",""34037""
","""event"",""trial"",""time""
""focus"",""3"",""17531""
""focus"",""3"",""27467""
""focus"",""3"",""34039""
","""event"",""trial"",""time""
""fullscreenenter"",""0"",""2864""
","""event"",""trial"",""time""
""fullscreenexit"",""3"",""17531""
","501.19999998807907","<img style='border: 4px solid darkgrey;' src='img/tf1_42_M_ss2.jpeg'></img>","1","","exp","","1","<img src='img/tf1_42_T1_ss2_md.jpeg'></img>","0","false",""
"","html-keyboard-response","101","172906","0.0-10.0-0.42","646","""event"",""trial"",""time""
""fullscreenenter"",""0"",""2864""
""blur"",""3"",""17527""
""focus"",""3"",""17531""
""fullscreenexit"",""3"",""17531""
""blur"",""3"",""27466""
""focus"",""3"",""27467""
""blur"",""3"",""34037""
""focus"",""3"",""34039""
","""event"",""trial"",""time""
""blur"",""3"",""17527""
""blur"",""3"",""27466""
""blur"",""3"",""34037""
","""event"",""trial"",""time""
""focus"",""3"",""17531""
""focus"",""3"",""27467""
""focus"",""3"",""34039""
","""event"",""trial"",""time""
""fullscreenenter"",""0"",""2864""
","""event"",""trial"",""time""
""fullscreenexit"",""3"",""17531""
","null","<div style=""font-size:60px;"">+</div>","","null","fixation","2021-06-23 18:21:02.322","","","","",""
"","mars-trial","102","173806","0.0-10.0-1.42","646","""event"",""trial"",""time""
""fullscreenenter"",""0"",""2864""
""blur"",""3"",""17527""
""focus"",""3"",""17531""
""fullscreenexit"",""3"",""17531""
""blur"",""3"",""27466""
""focus"",""3"",""27467""
""blur"",""3"",""34037""
""focus"",""3"",""34039""
","""event"",""trial"",""time""
""blur"",""3"",""17527""
""blur"",""3"",""27466""
""blur"",""3"",""34037""
","""event"",""trial"",""time""
""focus"",""3"",""17531""
""focus"",""3"",""27467""
""focus"",""3"",""34039""
","""event"",""trial"",""time""
""fullscreenenter"",""0"",""2864""
","""event"",""trial"",""time""
""fullscreenexit"",""3"",""17531""
","288.90000000596046","<img style='border: 4px solid darkgrey;' src='img/tf1_43_M_ss3.jpeg'></img>","2","","exp","","1","<img src='img/tf1_43_T1_ss3_md.jpeg'></img>","0","false",""
"","html-keyboard-response","103","174309","0.0-10.0-0.43","646","""event"",""trial"",""time""
""fullscreenenter"",""0"",""2864""
""blur"",""3"",""17527""
""focus"",""3"",""17531""
""fullscreenexit"",""3"",""17531""
""blur"",""3"",""27466""
""focus"",""3"",""27467""
""blur"",""3"",""34037""
""focus"",""3"",""34039""
","""event"",""trial"",""time""
""blur"",""3"",""17527""
""blur"",""3"",""27466""
""blur"",""3"",""34037""
","""event"",""trial"",""time""
""focus"",""3"",""17531""
""focus"",""3"",""27467""
""focus"",""3"",""34039""
","""event"",""trial"",""time""
""fullscreenenter"",""0"",""2864""
","""event"",""trial"",""time""
""fullscreenexit"",""3"",""17531""
","null","<div style=""font-size:60px;"">+</div>","","null","fixation","2021-06-23 18:21:03.725","","","","",""
"","mars-trial","104","175069","0.0-10.0-1.43","646","""event"",""trial"",""time""
""fullscreenenter"",""0"",""2864""
""blur"",""3"",""17527""
""focus"",""3"",""17531""
""fullscreenexit"",""3"",""17531""
""blur"",""3"",""27466""
""focus"",""3"",""27467""
""blur"",""3"",""34037""
""focus"",""3"",""34039""
","""event"",""trial"",""time""
""blur"",""3"",""17527""
""blur"",""3"",""27466""
""blur"",""3"",""34037""
","""event"",""trial"",""time""
""focus"",""3"",""17531""
""focus"",""3"",""27467""
""focus"",""3"",""34039""
","""event"",""trial"",""time""
""fullscreenenter"",""0"",""2864""
","""event"",""trial"",""time""
""fullscreenexit"",""3"",""17531""
","144.89999997615814","<img style='border: 4px solid darkgrey;' src='img/tf1_44_M_ss1.jpeg'></img>","2","","exp","","2","<img src='img/tf1_44_T1_ss1_md.jpeg'></img>","0","false",""
"","html-keyboard-response","105","175571","0.0-10.0-0.44","646","""event"",""trial"",""time""
""fullscreenenter"",""0"",""2864""
""blur"",""3"",""17527""
""focus"",""3"",""17531""
""fullscreenexit"",""3"",""17531""
""blur"",""3"",""27466""
""focus"",""3"",""27467""
""blur"",""3"",""34037""
""focus"",""3"",""34039""
","""event"",""trial"",""time""
""blur"",""3"",""17527""
""blur"",""3"",""27466""
""blur"",""3"",""34037""
","""event"",""trial"",""time""
""focus"",""3"",""17531""
""focus"",""3"",""27467""
""focus"",""3"",""34039""
","""event"",""trial"",""time""
""fullscreenenter"",""0"",""2864""
","""event"",""trial"",""time""
""fullscreenexit"",""3"",""17531""
","null","<div style=""font-size:60px;"">+</div>","","null","fixation","2021-06-23 18:21:04.987","","","","",""
"","mars-trial","106","176597","0.0-10.0-1.44","646","""event"",""trial"",""time""
""fullscreenenter"",""0"",""2864""
""blur"",""3"",""17527""
""focus"",""3"",""17531""
""fullscreenexit"",""3"",""17531""
""blur"",""3"",""27466""
""focus"",""3"",""27467""
""blur"",""3"",""34037""
""focus"",""3"",""34039""
","""event"",""trial"",""time""
""blur"",""3"",""17527""
""blur"",""3"",""27466""
""blur"",""3"",""34037""
","""event"",""trial"",""time""
""focus"",""3"",""17531""
""focus"",""3"",""27467""
""focus"",""3"",""34039""
","""event"",""trial"",""time""
""fullscreenenter"",""0"",""2864""
","""event"",""trial"",""time""
""fullscreenexit"",""3"",""17531""
","413.59999999403954","<img style='border: 4px solid darkgrey;' src='img/tf1_45_M_ss2.jpeg'></img>","2","","exp","","2","<img src='img/tf1_45_T1_ss2_md.jpeg'></img>","0","false",""
"","html-keyboard-response","107","177100","0.0-10.0-0.45","646","""event"",""trial"",""time""
""fullscreenenter"",""0"",""2864""
""blur"",""3"",""17527""
""focus"",""3"",""17531""
""fullscreenexit"",""3"",""17531""
""blur"",""3"",""27466""
""focus"",""3"",""27467""
""blur"",""3"",""34037""
""focus"",""3"",""34039""
","""event"",""trial"",""time""
""blur"",""3"",""17527""
""blur"",""3"",""27466""
""blur"",""3"",""34037""
","""event"",""trial"",""time""
""focus"",""3"",""17531""
""focus"",""3"",""27467""
""focus"",""3"",""34039""
","""event"",""trial"",""time""
""fullscreenenter"",""0"",""2864""
","""event"",""trial"",""time""
""fullscreenexit"",""3"",""17531""
","null","<div style=""font-size:60px;"">+</div>","","null","fixation","2021-06-23 18:21:06.517","","","","",""
"","mars-trial","108","178019","0.0-10.0-1.45","646","""event"",""trial"",""time""
""fullscreenenter"",""0"",""2864""
""blur"",""3"",""17527""
""focus"",""3"",""17531""
""fullscreenexit"",""3"",""17531""
""blur"",""3"",""27466""
""focus"",""3"",""27467""
""blur"",""3"",""34037""
""focus"",""3"",""34039""
","""event"",""trial"",""time""
""blur"",""3"",""17527""
""blur"",""3"",""27466""
""blur"",""3"",""34037""
","""event"",""trial"",""time""
""focus"",""3"",""17531""
""focus"",""3"",""27467""
""focus"",""3"",""34039""
","""event"",""trial"",""time""
""fullscreenenter"",""0"",""2864""
","""event"",""trial"",""time""
""fullscreenexit"",""3"",""17531""
","308.40000000596046","<img style='border: 4px solid darkgrey;' src='img/tf1_46_M_ss3.jpeg'></img>","2","","exp","","3","<img src='img/tf1_46_T1_ss3_md.jpeg'></img>","0","false",""
"","html-keyboard-response","109","178521","0.0-10.0-0.46","646","""event"",""trial"",""time""
""fullscreenenter"",""0"",""2864""
""blur"",""3"",""17527""
""focus"",""3"",""17531""
""fullscreenexit"",""3"",""17531""
""blur"",""3"",""27466""
""focus"",""3"",""27467""
""blur"",""3"",""34037""
""focus"",""3"",""34039""
","""event"",""trial"",""time""
""blur"",""3"",""17527""
""blur"",""3"",""27466""
""blur"",""3"",""34037""
","""event"",""trial"",""time""
""focus"",""3"",""17531""
""focus"",""3"",""27467""
""focus"",""3"",""34039""
","""event"",""trial"",""time""
""fullscreenenter"",""0"",""2864""
","""event"",""trial"",""time""
""fullscreenexit"",""3"",""17531""
","null","<div style=""font-size:60px;"">+</div>","","null","fixation","2021-06-23 18:21:07.937","","","","",""
"","mars-trial","110","179394","0.0-10.0-1.46","646","""event"",""trial"",""time""
""fullscreenenter"",""0"",""2864""
""blur"",""3"",""17527""
""focus"",""3"",""17531""
""fullscreenexit"",""3"",""17531""
""blur"",""3"",""27466""
""focus"",""3"",""27467""
""blur"",""3"",""34037""
""focus"",""3"",""34039""
","""event"",""trial"",""time""
""blur"",""3"",""17527""
""blur"",""3"",""27466""
""blur"",""3"",""34037""
","""event"",""trial"",""time""
""focus"",""3"",""17531""
""focus"",""3"",""27467""
""focus"",""3"",""34039""
","""event"",""trial"",""time""
""fullscreenenter"",""0"",""2864""
","""event"",""trial"",""time""
""fullscreenexit"",""3"",""17531""
","262.59999999403954","<img style='border: 4px solid darkgrey;' src='img/tf1_47_M_ss1.jpeg'></img>","2","","exp","","1","<img src='img/tf1_47_T1_ss1_md.jpeg'></img>","0","false",""
"","html-keyboard-response","111","179901","0.0-10.0-0.47","646","""event"",""trial"",""time""
""fullscreenenter"",""0"",""2864""
""blur"",""3"",""17527""
""focus"",""3"",""17531""
""fullscreenexit"",""3"",""17531""
""blur"",""3"",""27466""
""focus"",""3"",""27467""
""blur"",""3"",""34037""
""focus"",""3"",""34039""
","""event"",""trial"",""time""
""blur"",""3"",""17527""
""blur"",""3"",""27466""
""blur"",""3"",""34037""
","""event"",""trial"",""time""
""focus"",""3"",""17531""
""focus"",""3"",""27467""
""focus"",""3"",""34039""
","""event"",""trial"",""time""
""fullscreenenter"",""0"",""2864""
","""event"",""trial"",""time""
""fullscreenexit"",""3"",""17531""
","null","<div style=""font-size:60px;"">+</div>","","null","fixation","2021-06-23 18:21:09.317","","","","",""
"","mars-trial","112","180718","0.0-10.0-1.47","646","""event"",""trial"",""time""
""fullscreenenter"",""0"",""2864""
""blur"",""3"",""17527""
""focus"",""3"",""17531""
""fullscreenexit"",""3"",""17531""
""blur"",""3"",""27466""
""focus"",""3"",""27467""
""blur"",""3"",""34037""
""focus"",""3"",""34039""
","""event"",""trial"",""time""
""blur"",""3"",""17527""
""blur"",""3"",""27466""
""blur"",""3"",""34037""
","""event"",""trial"",""time""
""focus"",""3"",""17531""
""focus"",""3"",""27467""
""focus"",""3"",""34039""
","""event"",""trial"",""time""
""fullscreenenter"",""0"",""2864""
","""event"",""trial"",""time""
""fullscreenexit"",""3"",""17531""
","205.40000000596046","<img style='border: 4px solid darkgrey;' src='img/tf1_48_M_ss2.jpeg'></img>","2","","exp","","2","<img src='img/tf1_48_T1_ss2_md.jpeg'></img>","0","false",""
"","html-keyboard-response","113","181224","0.0-10.0-0.48","646","""event"",""trial"",""time""
""fullscreenenter"",""0"",""2864""
""blur"",""3"",""17527""
""focus"",""3"",""17531""
""fullscreenexit"",""3"",""17531""
""blur"",""3"",""27466""
""focus"",""3"",""27467""
""blur"",""3"",""34037""
""focus"",""3"",""34039""
","""event"",""trial"",""time""
""blur"",""3"",""17527""
""blur"",""3"",""27466""
""blur"",""3"",""34037""
","""event"",""trial"",""time""
""focus"",""3"",""17531""
""focus"",""3"",""27467""
""focus"",""3"",""34039""
","""event"",""trial"",""time""
""fullscreenenter"",""0"",""2864""
","""event"",""trial"",""time""
""fullscreenexit"",""3"",""17531""
","null","<div style=""font-size:60px;"">+</div>","","null","fixation","2021-06-23 18:21:10.640","","","","",""
"","mars-trial","114","182414","0.0-10.0-1.48","646","""event"",""trial"",""time""
""fullscreenenter"",""0"",""2864""
""blur"",""3"",""17527""
""focus"",""3"",""17531""
""fullscreenexit"",""3"",""17531""
""blur"",""3"",""27466""
""focus"",""3"",""27467""
""blur"",""3"",""34037""
""focus"",""3"",""34039""
","""event"",""trial"",""time""
""blur"",""3"",""17527""
""blur"",""3"",""27466""
""blur"",""3"",""34037""
","""event"",""trial"",""time""
""focus"",""3"",""17531""
""focus"",""3"",""27467""
""focus"",""3"",""34039""
","""event"",""trial"",""time""
""fullscreenenter"",""0"",""2864""
","""event"",""trial"",""time""
""fullscreenexit"",""3"",""17531""
","581.3000000119209","<img style='border: 4px solid darkgrey;' src='img/tf1_49_M_ss3.jpeg'></img>","0","","exp","","0","<img src='img/tf1_49_T1_ss3_md.jpeg'></img>","0","true",""
"","html-keyboard-response","115","182916","0.0-10.0-0.49","646","""event"",""trial"",""time""
""fullscreenenter"",""0"",""2864""
""blur"",""3"",""17527""
""focus"",""3"",""17531""
""fullscreenexit"",""3"",""17531""
""blur"",""3"",""27466""
""focus"",""3"",""27467""
""blur"",""3"",""34037""
""focus"",""3"",""34039""
","""event"",""trial"",""time""
""blur"",""3"",""17527""
""blur"",""3"",""27466""
""blur"",""3"",""34037""
","""event"",""trial"",""time""
""focus"",""3"",""17531""
""focus"",""3"",""27467""
""focus"",""3"",""34039""
","""event"",""trial"",""time""
""fullscreenenter"",""0"",""2864""
","""event"",""trial"",""time""
""fullscreenexit"",""3"",""17531""
","null","<div style=""font-size:60px;"">+</div>","","null","fixation","2021-06-23 18:21:12.332","","","","",""
"","mars-trial","116","183849","0.0-10.0-1.49","646","""event"",""trial"",""time""
""fullscreenenter"",""0"",""2864""
""blur"",""3"",""17527""
""focus"",""3"",""17531""
""fullscreenexit"",""3"",""17531""
""blur"",""3"",""27466""
""focus"",""3"",""27467""
""blur"",""3"",""34037""
""focus"",""3"",""34039""
","""event"",""trial"",""time""
""blur"",""3"",""17527""
""blur"",""3"",""27466""
""blur"",""3"",""34037""
","""event"",""trial"",""time""
""focus"",""3"",""17531""
""focus"",""3"",""27467""
""focus"",""3"",""34039""
","""event"",""trial"",""time""
""fullscreenenter"",""0"",""2864""
","""event"",""trial"",""time""
""fullscreenexit"",""3"",""17531""
","326.30000001192093","<img style='border: 4px solid darkgrey;' src='img/tf1_50_M_ss1.jpeg'></img>","3","","exp","","3","<img src='img/tf1_50_T1_ss1_md.jpeg'></img>","0","false",""
"","html-keyboard-response","117","184354","0.0-10.0-0.50","646","""event"",""trial"",""time""
""fullscreenenter"",""0"",""2864""
""blur"",""3"",""17527""
""focus"",""3"",""17531""
""fullscreenexit"",""3"",""17531""
""blur"",""3"",""27466""
""focus"",""3"",""27467""
""blur"",""3"",""34037""
""focus"",""3"",""34039""
","""event"",""trial"",""time""
""blur"",""3"",""17527""
""blur"",""3"",""27466""
""blur"",""3"",""34037""
","""event"",""trial"",""time""
""focus"",""3"",""17531""
""focus"",""3"",""27467""
""focus"",""3"",""34039""
","""event"",""trial"",""time""
""fullscreenenter"",""0"",""2864""
","""event"",""trial"",""time""
""fullscreenexit"",""3"",""17531""
","null","<div style=""font-size:60px;"">+</div>","","null","fixation","2021-06-23 18:21:13.770","","","","",""
"","mars-trial","118","185664","0.0-10.0-1.50","646","""event"",""trial"",""time""
""fullscreenenter"",""0"",""2864""
""blur"",""3"",""17527""
""focus"",""3"",""17531""
""fullscreenexit"",""3"",""17531""
""blur"",""3"",""27466""
""focus"",""3"",""27467""
""blur"",""3"",""34037""
""focus"",""3"",""34039""
","""event"",""trial"",""time""
""blur"",""3"",""17527""
""blur"",""3"",""27466""
""blur"",""3"",""34037""
","""event"",""trial"",""time""
""focus"",""3"",""17531""
""focus"",""3"",""27467""
""focus"",""3"",""34039""
","""event"",""trial"",""time""
""fullscreenenter"",""0"",""2864""
","""event"",""trial"",""time""
""fullscreenexit"",""3"",""17531""
","703","<img style='border: 4px solid darkgrey;' src='img/tf1_51_M_ss2.jpeg'></img>","0","","exp","","2","<img src='img/tf1_51_T1_ss2_md.jpeg'></img>","0","false",""
"","html-keyboard-response","119","186166","0.0-10.0-0.51","646","""event"",""trial"",""time""
""fullscreenenter"",""0"",""2864""
""blur"",""3"",""17527""
""focus"",""3"",""17531""
""fullscreenexit"",""3"",""17531""
""blur"",""3"",""27466""
""focus"",""3"",""27467""
""blur"",""3"",""34037""
""focus"",""3"",""34039""
","""event"",""trial"",""time""
""blur"",""3"",""17527""
""blur"",""3"",""27466""
""blur"",""3"",""34037""
","""event"",""trial"",""time""
""focus"",""3"",""17531""
""focus"",""3"",""27467""
""focus"",""3"",""34039""
","""event"",""trial"",""time""
""fullscreenenter"",""0"",""2864""
","""event"",""trial"",""time""
""fullscreenexit"",""3"",""17531""
","null","<div style=""font-size:60px;"">+</div>","","null","fixation","2021-06-23 18:21:15.582","","","","",""
"","mars-trial","120","187179","0.0-10.0-1.51","646","""event"",""trial"",""time""
""fullscreenenter"",""0"",""2864""
""blur"",""3"",""17527""
""focus"",""3"",""17531""
""fullscreenexit"",""3"",""17531""
""blur"",""3"",""27466""
""focus"",""3"",""27467""
""blur"",""3"",""34037""
""focus"",""3"",""34039""
","""event"",""trial"",""time""
""blur"",""3"",""17527""
""blur"",""3"",""27466""
""blur"",""3"",""34037""
","""event"",""trial"",""time""
""focus"",""3"",""17531""
""focus"",""3"",""27467""
""focus"",""3"",""34039""
","""event"",""trial"",""time""
""fullscreenenter"",""0"",""2864""
","""event"",""trial"",""time""
""fullscreenexit"",""3"",""17531""
","405.69999998807907","<img style='border: 4px solid darkgrey;' src='img/tf1_52_M_ss3.jpeg'></img>","2","","exp","","1","<img src='img/tf1_52_T1_ss3_md.jpeg'></img>","0","false",""
"","html-keyboard-response","121","187683","0.0-10.0-0.52","646","""event"",""trial"",""time""
""fullscreenenter"",""0"",""2864""
""blur"",""3"",""17527""
""focus"",""3"",""17531""
""fullscreenexit"",""3"",""17531""
""blur"",""3"",""27466""
""focus"",""3"",""27467""
""blur"",""3"",""34037""
""focus"",""3"",""34039""
","""event"",""trial"",""time""
""blur"",""3"",""17527""
""blur"",""3"",""27466""
""blur"",""3"",""34037""
","""event"",""trial"",""time""
""focus"",""3"",""17531""
""focus"",""3"",""27467""
""focus"",""3"",""34039""
","""event"",""trial"",""time""
""fullscreenenter"",""0"",""2864""
","""event"",""trial"",""time""
""fullscreenexit"",""3"",""17531""
","null","<div style=""font-size:60px;"">+</div>","","null","fixation","2021-06-23 18:21:17.100","","","","",""
"","mars-trial","122","189929","0.0-10.0-1.52","646","""event"",""trial"",""time""
""fullscreenenter"",""0"",""2864""
""blur"",""3"",""17527""
