"success","trial_type","trial_index","time_elapsed","internal_node_id","subject_id","interactions","blur_events","focus_events","fullscreenenter_events","fullscreenexit_events","rt","stimulus","button_pressed","key_press","part","timestamp","unshuffled_button","correct_response","correct_button","correct","value"
"true","fullscreen","0","3405","0.0-0.0","A367","""event"",""trial"",""time""
""fullscreenenter"",""0"",""2411""
","
","
","""event"",""trial"",""time""
""fullscreenenter"",""0"",""2411""
","
","","","","","","","","","","",""
"","pavlovia","1","3411","0.0-1.0","A367","""event"",""trial"",""time""
""fullscreenenter"",""0"",""2411""
","
","
","""event"",""trial"",""time""
""fullscreenenter"",""0"",""2411""
","
","","","","","","","","","","",""
"","html-button-response","2","5205","0.0-2.0","A367","""event"",""trial"",""time""
""fullscreenenter"",""0"",""2411""
","
","
","""event"",""trial"",""time""
""fullscreenenter"",""0"",""2411""
","
","1793.4000000059605","<p>Welcome! Press START to begin.</p><br>","0","","","","","","","",""
"","audio-button-response","3","13740","0.0-3.0","A367","""event"",""trial"",""time""
""fullscreenenter"",""0"",""2411""
","
","
","""event"",""trial"",""time""
""fullscreenenter"",""0"",""2411""
","
","8533.09999999404","audio/mars_instructions_slide2.wav","0","","","","","","","",""
"","audio-button-response","4","17517","0.0-4.0","A367","""event"",""trial"",""time""
""fullscreenenter"",""0"",""2411""
","
","
","""event"",""trial"",""time""
""fullscreenenter"",""0"",""2411""
","
","3775.4000000059605","audio/mars_instructions_slide3.wav","0","","","","","","","",""
"","html-keyboard-response","5","18022","0.0-5.0-0.0","A367","""event"",""trial"",""time""
""fullscreenenter"",""0"",""2411""
","
","
","""event"",""trial"",""time""
""fullscreenenter"",""0"",""2411""
","
","null","<div style=""font-size:60px;"">+</div>","","null","fixation","2021-07-01 03:24:52.183","","","","",""
"","mars-trial","6","22623","0.0-5.0-1.0","A367","""event"",""trial"",""time""
""fullscreenenter"",""0"",""2411""
","
","
","""event"",""trial"",""time""
""fullscreenenter"",""0"",""2411""
","
","2489.7000000029802","<img style='border: 4px solid darkgrey;' src='practice/pt1_M1.png'></img>","2","","practice","","3","<img src='practice/pt1_T1.png'></img>","0","false",""
"","html-keyboard-response","7","23135","0.0-5.1-0.1","A367","""event"",""trial"",""time""
""fullscreenenter"",""0"",""2411""
","
","
","""event"",""trial"",""time""
""fullscreenenter"",""0"",""2411""
","
","null","<div style=""font-size:60px;"">+</div>","","null","fixation","2021-07-01 03:24:57.296","","","","",""
"","mars-trial","8","27056","0.0-5.1-1.1","A367","""event"",""trial"",""time""
""fullscreenenter"",""0"",""2411""
","
","
","""event"",""trial"",""time""
""fullscreenenter"",""0"",""2411""
","
","1791","<img style='border: 4px solid darkgrey;' src='practice/pt1_M1.png'></img>","0","","practice","","0","<img src='practice/pt1_T1.png'></img>","0","true",""
"","html-keyboard-response","9","27575","0.0-6.0-0.0","A367","""event"",""trial"",""time""
""fullscreenenter"",""0"",""2411""
","
","
","""event"",""trial"",""time""
""fullscreenenter"",""0"",""2411""
","
","null","<div style=""font-size:60px;"">+</div>","","null","fixation","2021-07-01 03:25:01.736","","","","",""
"","mars-trial","10","30951","0.0-6.0-1.0","A367","""event"",""trial"",""time""
""fullscreenenter"",""0"",""2411""
","
","
","""event"",""trial"",""time""
""fullscreenenter"",""0"",""2411""
","
","1261","<img style='border: 4px solid darkgrey;' src='practice/pt2_M1.png'></img>","3","","practice","","0","<img src='practice/pt2_T1.png'></img>","0","true",""
"","html-keyboard-response","11","31465","0.0-7.0-0.0","A367","""event"",""trial"",""time""
""fullscreenenter"",""0"",""2411""
","
","
","""event"",""trial"",""time""
""fullscreenenter"",""0"",""2411""
","
","null","<div style=""font-size:60px;"">+</div>","","null","fixation","2021-07-01 03:25:05.627","","","","",""
"","mars-trial","12","34736","0.0-7.0-1.0","A367","""event"",""trial"",""time""
""fullscreenenter"",""0"",""2411""
","
","
","""event"",""trial"",""time""
""fullscreenenter"",""0"",""2411""
","
","1136.7000000029802","<img style='border: 4px solid darkgrey;' src='practice/pt3_M1.png'></img>","0","","practice","","0","<img src='practice/pt3_T1.png'></img>","0","true",""
"","audio-button-response","13","36036","0.0-8.0","A367","""event"",""trial"",""time""
""fullscreenenter"",""0"",""2411""
","
","
","""event"",""trial"",""time""
""fullscreenenter"",""0"",""2411""
","
","1297.8999999910593","audio/mars_instructions_slide4.wav","0","","","","","","","",""
"","call-function","14","36036","0.0-9.0","A367","""event"",""trial"",""time""
""fullscreenenter"",""0"",""2411""
","
","
","""event"",""trial"",""time""
""fullscreenenter"",""0"",""2411""
","
","","","","","","","","","","",""
"","html-keyboard-response","15","36546","0.0-10.0-0.0","A367","""event"",""trial"",""time""
""fullscreenenter"",""0"",""2411""
","
","
","""event"",""trial"",""time""
""fullscreenenter"",""0"",""2411""
","
","null","<div style=""font-size:60px;"">+</div>","","null","fixation","2021-07-01 03:25:10.707","","","","",""
"","mars-trial","16","39232","0.0-10.0-1.0","A367","""event"",""trial"",""time""
""fullscreenenter"",""0"",""2411""
","
","
","""event"",""trial"",""time""
""fullscreenenter"",""0"",""2411""
","
","2064.800000011921","<img style='border: 4px solid darkgrey;' src='img/tf1_1_M_ss3.jpeg'></img>","1","","exp","","0","<img src='img/tf1_1_T1_ss3_md.jpeg'></img>","0","true",""
"","html-keyboard-response","17","39735","0.0-10.0-0.1","A367","""event"",""trial"",""time""
""fullscreenenter"",""0"",""2411""
","
","
","""event"",""trial"",""time""
""fullscreenenter"",""0"",""2411""
","
","null","<div style=""font-size:60px;"">+</div>","","null","fixation","2021-07-01 03:25:13.896","","","","",""
"","mars-trial","18","44656","0.0-10.0-1.1","A367","""event"",""trial"",""time""
""fullscreenenter"",""0"",""2411""
","
","
","""event"",""trial"",""time""
""fullscreenenter"",""0"",""2411""
","
","4302.899999991059","<img style='border: 4px solid darkgrey;' src='img/tf1_2_M_ss1.jpeg'></img>","1","","exp","","0","<img src='img/tf1_2_T1_ss1_md.jpeg'></img>","0","true",""
"","html-keyboard-response","19","45165","0.0-10.0-0.2","A367","""event"",""trial"",""time""
""fullscreenenter"",""0"",""2411""
","
","
","""event"",""trial"",""time""
""fullscreenenter"",""0"",""2411""
","
","null","<div style=""font-size:60px;"">+</div>","","null","fixation","2021-07-01 03:25:19.326","","","","",""
"","mars-trial","20","47405","0.0-10.0-1.2","A367","""event"",""trial"",""time""
""fullscreenenter"",""0"",""2411""
","
","
","""event"",""trial"",""time""
""fullscreenenter"",""0"",""2411""
","
","1624.3999999910593","<img style='border: 4px solid darkgrey;' src='img/tf1_3_M_ss2.jpeg'></img>","1","","exp","","0","<img src='img/tf1_3_T1_ss2_md.jpeg'></img>","0","true",""
"","html-keyboard-response","21","47920","0.0-10.0-0.3","A367","""event"",""trial"",""time""
""fullscreenenter"",""0"",""2411""
","
","
","""event"",""trial"",""time""
""fullscreenenter"",""0"",""2411""
","
","null","<div style=""font-size:60px;"">+</div>","","null","fixation","2021-07-01 03:25:22.081","","","","",""
"","mars-trial","22","51366","0.0-10.0-1.3","A367","""event"",""trial"",""time""
""fullscreenenter"",""0"",""2411""
","
","
","""event"",""trial"",""time""
""fullscreenenter"",""0"",""2411""
","
","2826","<img style='border: 4px solid darkgrey;' src='img/tf1_4_M_ss3.jpeg'></img>","0","","exp","","0","<img src='img/tf1_4_T1_ss3_md.jpeg'></img>","0","true",""
"","html-keyboard-response","23","51875","0.0-10.0-0.4","A367","""event"",""trial"",""time""
""fullscreenenter"",""0"",""2411""
","
","
","""event"",""trial"",""time""
""fullscreenenter"",""0"",""2411""
","
","null","<div style=""font-size:60px;"">+</div>","","null","fixation","2021-07-01 03:25:26.036","","","","",""
"","mars-trial","24","53566","0.0-10.0-1.4","A367","""event"",""trial"",""time""
""fullscreenenter"",""0"",""2411""
","
","
","""event"",""trial"",""time""
""fullscreenenter"",""0"",""2411""
","
","1071.5","<img style='border: 4px solid darkgrey;' src='img/tf1_5_M_ss1.jpeg'></img>","3","","exp","","0","<img src='img/tf1_5_T1_ss1_md.jpeg'></img>","0","true",""
"","html-keyboard-response","25","54075","0.0-10.0-0.5","A367","""event"",""trial"",""time""
""fullscreenenter"",""0"",""2411""
","
","
","""event"",""trial"",""time""
""fullscreenenter"",""0"",""2411""
","
","null","<div style=""font-size:60px;"">+</div>","","null","fixation","2021-07-01 03:25:28.236","","","","",""
"","mars-trial","26","60046","0.0-10.0-1.5","A367","""event"",""trial"",""time""
""fullscreenenter"",""0"",""2411""
","
","
","""event"",""trial"",""time""
""fullscreenenter"",""0"",""2411""
","
","5347.70000000298","<img style='border: 4px solid darkgrey;' src='img/tf1_6_M_ss2.jpeg'></img>","3","","exp","","0","<img src='img/tf1_6_T1_ss2_md.jpeg'></img>","0","true",""
"","html-keyboard-response","27","60555","0.0-10.0-0.6","A367","""event"",""trial"",""time""
""fullscreenenter"",""0"",""2411""
","
","
","""event"",""trial"",""time""
""fullscreenenter"",""0"",""2411""
","
","null","<div style=""font-size:60px;"">+</div>","","null","fixation","2021-07-01 03:25:34.716","","","","",""
"","mars-trial","28","64115","0.0-10.0-1.6","A367","""event"",""trial"",""time""
""fullscreenenter"",""0"",""2411""
","
","
","""event"",""trial"",""time""
""fullscreenenter"",""0"",""2411""
","
","2932.5","<img style='border: 4px solid darkgrey;' src='img/tf1_7_M_ss3.jpeg'></img>","1","","exp","","0","<img src='img/tf1_7_T1_ss3_md.jpeg'></img>","0","true",""
"","html-keyboard-response","29","64626","0.0-10.0-0.7","A367","""event"",""trial"",""time""
""fullscreenenter"",""0"",""2411""
","
","
","""event"",""trial"",""time""
""fullscreenenter"",""0"",""2411""
","
","null","<div style=""font-size:60px;"">+</div>","","null","fixation","2021-07-01 03:25:38.787","","","","",""
"","mars-trial","30","67831","0.0-10.0-1.7","A367","""event"",""trial"",""time""
""fullscreenenter"",""0"",""2411""
","
","
","""event"",""trial"",""time""
""fullscreenenter"",""0"",""2411""
","
","2583.5","<img style='border: 4px solid darkgrey;' src='img/tf1_8_M_ss1.jpeg'></img>","2","","exp","","0","<img src='img/tf1_8_T1_ss1_md.jpeg'></img>","0","true",""
"","html-keyboard-response","31","68348","0.0-10.0-0.8","A367","""event"",""trial"",""time""
""fullscreenenter"",""0"",""2411""
","
","
","""event"",""trial"",""time""
""fullscreenenter"",""0"",""2411""
","
","null","<div style=""font-size:60px;"">+</div>","","null","fixation","2021-07-01 03:25:42.509","","","","",""
"","mars-trial","32","72590","0.0-10.0-1.8","A367","""event"",""trial"",""time""
""fullscreenenter"",""0"",""2411""
","
","
","""event"",""trial"",""time""
""fullscreenenter"",""0"",""2411""
","
","3629.300000011921","<img style='border: 4px solid darkgrey;' src='img/tf1_9_M_ss2.jpeg'></img>","0","","exp","","0","<img src='img/tf1_9_T1_ss2_md.jpeg'></img>","0","true",""
"","html-keyboard-response","33","73098","0.0-10.0-0.9","A367","""event"",""trial"",""time""
""fullscreenenter"",""0"",""2411""
","
","
","""event"",""trial"",""time""
""fullscreenenter"",""0"",""2411""
","
","null","<div style=""font-size:60px;"">+</div>","","null","fixation","2021-07-01 03:25:47.259","","","","",""
"","mars-trial","34","85952","0.0-10.0-1.9","A367","""event"",""trial"",""time""
""fullscreenenter"",""0"",""2411""
","
","
","""event"",""trial"",""time""
""fullscreenenter"",""0"",""2411""
","
","12243.90000000596","<img style='border: 4px solid darkgrey;' src='img/tf1_10_M_ss3.jpeg'></img>","0","","exp","","0","<img src='img/tf1_10_T1_ss3_md.jpeg'></img>","0","true",""
"","html-keyboard-response","35","86462","0.0-10.0-0.10","A367","""event"",""trial"",""time""
""fullscreenenter"",""0"",""2411""
","
","
","""event"",""trial"",""time""
""fullscreenenter"",""0"",""2411""
","
","null","<div style=""font-size:60px;"">+</div>","","null","fixation","2021-07-01 03:26:00.623","","","","",""
"","mars-trial","36","101249","0.0-10.0-1.10","A367","""event"",""trial"",""time""
""fullscreenenter"",""0"",""2411""
","
","
","""event"",""trial"",""time""
""fullscreenenter"",""0"",""2411""
","
","14172.29999999702","<img style='border: 4px solid darkgrey;' src='img/tf1_11_M_ss1.jpeg'></img>","1","","exp","","2","<img src='img/tf1_11_T1_ss1_md.jpeg'></img>","0","false",""
"","html-keyboard-response","37","101755","0.0-10.0-0.11","A367","""event"",""trial"",""time""
""fullscreenenter"",""0"",""2411""
","
","
","""event"",""trial"",""time""
""fullscreenenter"",""0"",""2411""
","
","null","<div style=""font-size:60px;"">+</div>","","null","fixation","2021-07-01 03:26:15.916","","","","",""
"","mars-trial","38","111906","0.0-10.0-1.11","A367","""event"",""trial"",""time""
""fullscreenenter"",""0"",""2411""
","
","
","""event"",""trial"",""time""
""fullscreenenter"",""0"",""2411""
","
","9532.800000011921","<img style='border: 4px solid darkgrey;' src='img/tf1_12_M_ss2.jpeg'></img>","2","","exp","","1","<img src='img/tf1_12_T1_ss2_md.jpeg'></img>","0","false",""
"","html-keyboard-response","39","112411","0.0-10.0-0.12","A367","""event"",""trial"",""time""
""fullscreenenter"",""0"",""2411""
","
","
","""event"",""trial"",""time""
""fullscreenenter"",""0"",""2411""
","
","null","<div style=""font-size:60px;"">+</div>","","null","fixation","2021-07-01 03:26:26.572","","","","",""
"","mars-trial","40","122744","0.0-10.0-1.12","A367","""event"",""trial"",""time""
""fullscreenenter"",""0"",""2411""
","
","
","""event"",""trial"",""time""
""fullscreenenter"",""0"",""2411""
","
","9712.90000000596","<img style='border: 4px solid darkgrey;' src='img/tf1_13_M_ss3.jpeg'></img>","2","","exp","","2","<img src='img/tf1_13_T1_ss3_md.jpeg'></img>","0","false",""
"","html-keyboard-response","41","123255","0.0-10.0-0.13","A367","""event"",""trial"",""time""
""fullscreenenter"",""0"",""2411""
","
","
","""event"",""trial"",""time""
""fullscreenenter"",""0"",""2411""
","
","null","<div style=""font-size:60px;"">+</div>","","null","fixation","2021-07-01 03:26:37.417","","","","",""
"","mars-trial","42","140085","0.0-10.0-1.13","A367","""event"",""trial"",""time""
""fullscreenenter"",""0"",""2411""
","
","
","""event"",""trial"",""time""
""fullscreenenter"",""0"",""2411""
","
","16211.09999999404","<img style='border: 4px solid darkgrey;' src='img/tf1_14_M_ss1.jpeg'></img>","0","","exp","","1","<img src='img/tf1_14_T1_ss1_md.jpeg'></img>","0","false",""
"","html-keyboard-response","43","140603","0.0-10.0-0.14","A367","""event"",""trial"",""time""
""fullscreenenter"",""0"",""2411""
","
","
","""event"",""trial"",""time""
""fullscreenenter"",""0"",""2411""
","
","null","<div style=""font-size:60px;"">+</div>","","null","fixation","2021-07-01 03:26:54.764","","","","",""
"","mars-trial","44","144461","0.0-10.0-1.14","A367","""event"",""trial"",""time""
""fullscreenenter"",""0"",""2411""
","
","
","""event"",""trial"",""time""
""fullscreenenter"",""0"",""2411""
","
","3246.2000000029802","<img style='border: 4px solid darkgrey;' src='img/tf1_15_M_ss2.jpeg'></img>","0","","exp","","0","<img src='img/tf1_15_T1_ss2_md.jpeg'></img>","0","true",""
"","html-keyboard-response","45","144969","0.0-10.0-0.15","A367","""event"",""trial"",""time""
""fullscreenenter"",""0"",""2411""
","
","
","""event"",""trial"",""time""
""fullscreenenter"",""0"",""2411""
","
","null","<div style=""font-size:60px;"">+</div>","","null","fixation","2021-07-01 03:26:59.131","","","","",""
"","mars-trial","46","156992","0.0-10.0-1.15","A367","""event"",""trial"",""time""
""fullscreenenter"",""0"",""2411""
","
","
","""event"",""trial"",""time""
""fullscreenenter"",""0"",""2411""
","
","11398.29999999702","<img style='border: 4px solid darkgrey;' src='img/tf1_16_M_ss3.jpeg'></img>","1","","exp","","0","<img src='img/tf1_16_T1_ss3_md.jpeg'></img>","0","true",""
"","html-keyboard-response","47","157500","0.0-10.0-0.16","A367","""event"",""trial"",""time""
""fullscreenenter"",""0"",""2411""
","
","
","""event"",""trial"",""time""
""fullscreenenter"",""0"",""2411""
","
","null","<div style=""font-size:60px;"">+</div>","","null","fixation","2021-07-01 03:27:11.661","","","","",""
"","mars-trial","48","172304","0.0-10.0-1.16","A367","""event"",""trial"",""time""
""fullscreenenter"",""0"",""2411""
","
","
","""event"",""trial"",""time""
""fullscreenenter"",""0"",""2411""
","
","14175.5","<img style='border: 4px solid darkgrey;' src='img/tf1_17_M_ss1.jpeg'></img>","2","","exp","","2","<img src='img/tf1_17_T1_ss1_md.jpeg'></img>","0","false",""
"","html-keyboard-response","49","172822","0.0-10.0-0.17","A367","""event"",""trial"",""time""
""fullscreenenter"",""0"",""2411""
","
","
","""event"",""trial"",""time""
""fullscreenenter"",""0"",""2411""
","
","null","<div style=""font-size:60px;"">+</div>","","null","fixation","2021-07-01 03:27:26.983","","","","",""
"","mars-trial","50","175027","0.0-10.0-1.17","A367","""event"",""trial"",""time""
""fullscreenenter"",""0"",""2411""
","
","
","""event"",""trial"",""time""
""fullscreenenter"",""0"",""2411""
","
","1591.2000000029802","<img style='border: 4px solid darkgrey;' src='img/tf1_18_M_ss2.jpeg'></img>","1","","exp","","2","<img src='img/tf1_18_T1_ss2_md.jpeg'></img>","0","false",""
"","html-keyboard-response","51","175543","0.0-10.0-0.18","A367","""event"",""trial"",""time""
""fullscreenenter"",""0"",""2411""
","
","
","""event"",""trial"",""time""
""fullscreenenter"",""0"",""2411""
","
","null","<div style=""font-size:60px;"">+</div>","","null","fixation","2021-07-01 03:27:29.704","","","","",""
"","mars-trial","52","183329","0.0-10.0-1.18","A367","""event"",""trial"",""time""
""fullscreenenter"",""0"",""2411""
","
","
","""event"",""trial"",""time""
""fullscreenenter"",""0"",""2411""
","
","7176.79999999702","<img style='border: 4px solid darkgrey;' src='img/tf1_19_M_ss3.jpeg'></img>","2","","exp","","3","<img src='img/tf1_19_T1_ss3_md.jpeg'></img>","0","false",""
"","html-keyboard-response","53","183841","0.0-10.0-0.19","A367","""event"",""trial"",""time""
""fullscreenenter"",""0"",""2411""
","
","
","""event"",""trial"",""time""
""fullscreenenter"",""0"",""2411""
","
","null","<div style=""font-size:60px;"">+</div>","","null","fixation","2021-07-01 03:27:38.002","","","","",""
"","mars-trial","54","205781","0.0-10.0-1.19","A367","""event"",""trial"",""time""
""fullscreenenter"",""0"",""2411""
","
","
","""event"",""trial"",""time""
""fullscreenenter"",""0"",""2411""
","
","21318.89999999106","<img style='border: 4px solid darkgrey;' src='img/tf1_20_M_ss1.jpeg'></img>","1","","exp","","0","<img src='img/tf1_20_T1_ss1_md.jpeg'></img>","0","true",""
"","html-keyboard-response","55","206290","0.0-10.0-0.20","A367","""event"",""trial"",""time""
""fullscreenenter"",""0"",""2411""
","
","
","""event"",""trial"",""time""
""fullscreenenter"",""0"",""2411""
","
","null","<div style=""font-size:60px;"">+</div>","","null","fixation","2021-07-01 03:28:00.451","","","","",""
"","mars-trial","56","210226","0.0-10.0-1.20","A367","""event"",""trial"",""time""
""fullscreenenter"",""0"",""2411""
","
","
","""event"",""trial"",""time""
""fullscreenenter"",""0"",""2411""
","
","3314.2999999970198","<img style='border: 4px solid darkgrey;' src='img/tf1_21_M_ss2.jpeg'></img>","3","","exp","","1","<img src='img/tf1_21_T1_ss2_md.jpeg'></img>","0","false",""
"","html-keyboard-response","57","210739","0.0-10.0-0.21","A367","""event"",""trial"",""time""
""fullscreenenter"",""0"",""2411""
","
","
","""event"",""trial"",""time""
""fullscreenenter"",""0"",""2411""
","
","null","<div style=""font-size:60px;"">+</div>","","null","fixation","2021-07-01 03:28:04.900","","","","",""
"","mars-trial","58","218143","0.0-10.0-1.21","A367","""event"",""trial"",""time""
""fullscreenenter"",""0"",""2411""
","
","
","""event"",""trial"",""time""
""fullscreenenter"",""0"",""2411""
","
","6786.0999999940395","<img style='border: 4px solid darkgrey;' src='img/tf1_22_M_ss3.jpeg'></img>","0","","exp","","3","<img src='img/tf1_22_T1_ss3_md.jpeg'></img>","0","false",""
"","html-keyboard-response","59","218649","0.0-10.0-0.22","A367","""event"",""trial"",""time""
""fullscreenenter"",""0"",""2411""
","
","
","""event"",""trial"",""time""
""fullscreenenter"",""0"",""2411""
","
","null","<div style=""font-size:60px;"">+</div>","","null","fixation","2021-07-01 03:28:12.810","","","","",""
"","mars-trial","60","233789","0.0-10.0-1.22","A367","""event"",""trial"",""time""
""fullscreenenter"",""0"",""2411""
","
","
","""event"",""trial"",""time""
""fullscreenenter"",""0"",""2411""
","
","14523.20000000298","<img style='border: 4px solid darkgrey;' src='img/tf1_23_M_ss1.jpeg'></img>","0","","exp","","0","<img src='img/tf1_23_T1_ss1_md.jpeg'></img>","0","true",""
"","html-keyboard-response","61","234298","0.0-10.0-0.23","A367","""event"",""trial"",""time""
""fullscreenenter"",""0"",""2411""
","
","
","""event"",""trial"",""time""
""fullscreenenter"",""0"",""2411""
","
","null","<div style=""font-size:60px;"">+</div>","","null","fixation","2021-07-01 03:28:28.459","","","","",""
"","mars-trial","62","248392","0.0-10.0-1.23","A367","""event"",""trial"",""time""
""fullscreenenter"",""0"",""2411""
","
","
","""event"",""trial"",""time""
""fullscreenenter"",""0"",""2411""
","
","13484.29999999702","<img style='border: 4px solid darkgrey;' src='img/tf1_24_M_ss2.jpeg'></img>","3","","exp","","3","<img src='img/tf1_24_T1_ss2_md.jpeg'></img>","0","false",""
"","html-keyboard-response","63","248900","0.0-10.0-0.24","A367","""event"",""trial"",""time""
""fullscreenenter"",""0"",""2411""
","
","
","""event"",""trial"",""time""
""fullscreenenter"",""0"",""2411""
","
","null","<div style=""font-size:60px;"">+</div>","","null","fixation","2021-07-01 03:28:43.061","","","","",""
"","mars-trial","64","252311","0.0-10.0-1.24","A367","""event"",""trial"",""time""
""fullscreenenter"",""0"",""2411""
","
","
","""event"",""trial"",""time""
""fullscreenenter"",""0"",""2411""
","
","2793.0999999940395","<img style='border: 4px solid darkgrey;' src='img/tf1_25_M_ss3.jpeg'></img>","1","","exp","","2","<img src='img/tf1_25_T1_ss3_md.jpeg'></img>","0","false",""
"","html-keyboard-response","65","252816","0.0-10.0-0.25","A367","""event"",""trial"",""time""
""fullscreenenter"",""0"",""2411""
","
","
","""event"",""trial"",""time""
""fullscreenenter"",""0"",""2411""
","
","null","<div style=""font-size:60px;"">+</div>","","null","fixation","2021-07-01 03:28:46.977","","","","",""
"","mars-trial","66","254352","0.0-10.0-1.25","A367","""event"",""trial"",""time""
""fullscreenenter"",""0"",""2411""
","
","
","""event"",""trial"",""time""
""fullscreenenter"",""0"",""2411""
","
","918.1999999880791","<img style='border: 4px solid darkgrey;' src='img/tf1_26_M_ss1.jpeg'></img>","2","","exp","","0","<img src='img/tf1_26_T1_ss1_md.jpeg'></img>","0","true",""
"","html-keyboard-response","67","254854","0.0-10.0-0.26","A367","""event"",""trial"",""time""
""fullscreenenter"",""0"",""2411""
","
","
","""event"",""trial"",""time""
""fullscreenenter"",""0"",""2411""
","
","null","<div style=""font-size:60px;"">+</div>","","null","fixation","2021-07-01 03:28:49.015","","","","",""
"","mars-trial","68","258624","0.0-10.0-1.26","A367","""event"",""trial"",""time""
""fullscreenenter"",""0"",""2411""
","
","
","""event"",""trial"",""time""
""fullscreenenter"",""0"",""2411""
","
","3157.2999999970198","<img style='border: 4px solid darkgrey;' src='img/tf1_27_M_ss2.jpeg'></img>","0","","exp","","0","<img src='img/tf1_27_T1_ss2_md.jpeg'></img>","0","true",""
"","html-keyboard-response","69","259129","0.0-10.0-0.27","A367","""event"",""trial"",""time""
""fullscreenenter"",""0"",""2411""
","
","
","""event"",""trial"",""time""
""fullscreenenter"",""0"",""2411""
","
","null","<div style=""font-size:60px;"">+</div>","","null","fixation","2021-07-01 03:28:53.290","","","","",""
"","mars-trial","70","269903","0.0-10.0-1.27","A367","""event"",""trial"",""time""
""fullscreenenter"",""0"",""2411""
","
","
","""event"",""trial"",""time""
""fullscreenenter"",""0"",""2411""
","
","10162.10000000894","<img style='border: 4px solid darkgrey;' src='img/tf1_28_M_ss3.jpeg'></img>","0","","exp","","0","<img src='img/tf1_28_T1_ss3_md.jpeg'></img>","0","true",""
"","html-keyboard-response","71","270408","0.0-10.0-0.28","A367","""event"",""trial"",""time""
""fullscreenenter"",""0"",""2411""
","
","
","""event"",""trial"",""time""
""fullscreenenter"",""0"",""2411""
","
","null","<div style=""font-size:60px;"">+</div>","","null","fixation","2021-07-01 03:29:04.569","","","","",""
"","mars-trial","72","284304","0.0-10.0-1.28","A367","""event"",""trial"",""time""
""fullscreenenter"",""0"",""2411""
","
","
","""event"",""trial"",""time""
""fullscreenenter"",""0"",""2411""
","
","13276.5","<img style='border: 4px solid darkgrey;' src='img/tf1_29_M_ss1.jpeg'></img>","0","","exp","","0","<img src='img/tf1_29_T1_ss1_md.jpeg'></img>","0","true",""
"","html-keyboard-response","73","284818","0.0-10.0-0.29","A367","""event"",""trial"",""time""
""fullscreenenter"",""0"",""2411""
","
","
","""event"",""trial"",""time""
""fullscreenenter"",""0"",""2411""
","
","null","<div style=""font-size:60px;"">+</div>","","null","fixation","2021-07-01 03:29:18.979","","","","",""
"","mars-trial","74","293292","0.0-10.0-1.29","A367","""event"",""trial"",""time""
""fullscreenenter"",""0"",""2411""
","
","
","""event"",""trial"",""time""
""fullscreenenter"",""0"",""2411""
","
","7863.4000000059605","<img style='border: 4px solid darkgrey;' src='img/tf1_30_M_ss2.jpeg'></img>","3","","exp","","1","<img src='img/tf1_30_T1_ss2_md.jpeg'></img>","0","false",""
"","html-keyboard-response","75","293800","0.0-10.0-0.30","A367","""event"",""trial"",""time""
""fullscreenenter"",""0"",""2411""
","
","
","""event"",""trial"",""time""
""fullscreenenter"",""0"",""2411""
","
","null","<div style=""font-size:60px;"">+</div>","","null","fixation","2021-07-01 03:29:27.961","","","","",""
"","mars-trial","76","295680","0.0-10.0-1.30","A367","""event"",""trial"",""time""
""fullscreenenter"",""0"",""2411""
","
","
","""event"",""trial"",""time""
""fullscreenenter"",""0"",""2411""
","
","1259.7000000029802","<img style='border: 4px solid darkgrey;' src='img/tf1_31_M_ss3.jpeg'></img>","1","","exp","","2","<img src='img/tf1_31_T1_ss3_md.jpeg'></img>","0","false",""
"","html-keyboard-response","77","296182","0.0-10.0-0.31","A367","""event"",""trial"",""time""
""fullscreenenter"",""0"",""2411""
","
","
","""event"",""trial"",""time""
""fullscreenenter"",""0"",""2411""
","
","null","<div style=""font-size:60px;"">+</div>","","null","fixation","2021-07-01 03:29:30.343","","","","",""
"","mars-trial","78","302131","0.0-10.0-1.31","A367","""event"",""trial"",""time""
""fullscreenenter"",""0"",""2411""
","
","
","""event"",""trial"",""time""
""fullscreenenter"",""0"",""2411""
","
","5333.0999999940395","<img style='border: 4px solid darkgrey;' src='img/tf1_32_M_ss1.jpeg'></img>","0","","exp","","2","<img src='img/tf1_32_T1_ss1_md.jpeg'></img>","0","false",""
"","html-keyboard-response","79","302644","0.0-10.0-0.32","A367","""event"",""trial"",""time""
""fullscreenenter"",""0"",""2411""
","
","
","""event"",""trial"",""time""
""fullscreenenter"",""0"",""2411""
","
","null","<div style=""font-size:60px;"">+</div>","","null","fixation","2021-07-01 03:29:36.805","","","","",""
"","mars-trial","80","306492","0.0-10.0-1.32","A367","""event"",""trial"",""time""
""fullscreenenter"",""0"",""2411""
","
","
","""event"",""trial"",""time""
""fullscreenenter"",""0"",""2411""
","
","3239.2000000029802","<img style='border: 4px solid darkgrey;' src='img/tf1_33_M_ss2.jpeg'></img>","2","","exp","","0","<img src='img/tf1_33_T1_ss2_md.jpeg'></img>","0","true",""
"","html-keyboard-response","81","307000","0.0-10.0-0.33","A367","""event"",""trial"",""time""
""fullscreenenter"",""0"",""2411""
","
","
","""event"",""trial"",""time""
""fullscreenenter"",""0"",""2411""
","
","null","<div style=""font-size:60px;"">+</div>","","null","fixation","2021-07-01 03:29:41.161","","","","",""
"","mars-trial","82","318513","0.0-10.0-1.33","A367","""event"",""trial"",""time""
""fullscreenenter"",""0"",""2411""
","
","
","""event"",""trial"",""time""
""fullscreenenter"",""0"",""2411""
","
","10904.70000000298","<img style='border: 4px solid darkgrey;' src='img/tf1_34_M_ss3.jpeg'></img>","2","","exp","","1","<img src='img/tf1_34_T1_ss3_md.jpeg'></img>","0","false",""
"","html-keyboard-response","83","319019","0.0-10.0-0.34","A367","""event"",""trial"",""time""
""fullscreenenter"",""0"",""2411""
","
","
","""event"",""trial"",""time""
""fullscreenenter"",""0"",""2411""
","
","null","<div style=""font-size:60px;"">+</div>","","null","fixation","2021-07-01 03:29:53.180","","","","",""
"","mars-trial","84","320815","0.0-10.0-1.34","A367","""event"",""trial"",""time""
""fullscreenenter"",""0"",""2411""
","
","
","""event"",""trial"",""time""
""fullscreenenter"",""0"",""2411""
","
","1179.0999999940395","<img style='border: 4px solid darkgrey;' src='img/tf1_35_M_ss1.jpeg'></img>","1","","exp","","0","<img src='img/tf1_35_T1_ss1_md.jpeg'></img>","0","true",""
"","html-keyboard-response","85","321323","0.0-10.0-0.35","A367","""event"",""trial"",""time""
""fullscreenenter"",""0"",""2411""
","
","
","""event"",""trial"",""time""
""fullscreenenter"",""0"",""2411""
","
","null","<div style=""font-size:60px;"">+</div>","","null","fixation","2021-07-01 03:29:55.484","","","","",""
"","mars-trial","86","324286","0.0-10.0-1.35","A367","""event"",""trial"",""time""
""fullscreenenter"",""0"",""2411""
","
","
","""event"",""trial"",""time""
""fullscreenenter"",""0"",""2411""
","
","2338.2000000029802","<img style='border: 4px solid darkgrey;' src='img/tf1_36_M_ss2.jpeg'></img>","0","","exp","","0","<img src='img/tf1_36_T1_ss2_md.jpeg'></img>","0","true",""
"","html-keyboard-response","87","324800","0.0-10.0-0.36","A367","""event"",""trial"",""time""
""fullscreenenter"",""0"",""2411""
","
","
","""event"",""trial"",""time""
""fullscreenenter"",""0"",""2411""
","
","null","<div style=""font-size:60px;"">+</div>","","null","fixation","2021-07-01 03:29:58.961","","","","",""
"","mars-trial","88","327007","0.0-10.0-1.36","A367","""event"",""trial"",""time""
""fullscreenenter"",""0"",""2411""
","
","
","""event"",""trial"",""time""
""fullscreenenter"",""0"",""2411""
","
","1596.7999999970198","<img style='border: 4px solid darkgrey;' src='img/tf1_37_M_ss3.jpeg'></img>","3","","exp","","0","<img src='img/tf1_37_T1_ss3_md.jpeg'></img>","0","true",""
"","html-keyboard-response","89","327516","0.0-10.0-0.37","A367","""event"",""trial"",""time""
""fullscreenenter"",""0"",""2411""
","
","
","""event"",""trial"",""time""
""fullscreenenter"",""0"",""2411""
","
","null","<div style=""font-size:60px;"">+</div>","","null","fixation","2021-07-01 03:30:01.678","","","","",""
"","mars-trial","90","334638","0.0-10.0-1.37","A367","""event"",""trial"",""time""
""fullscreenenter"",""0"",""2411""
","
","
","""event"",""trial"",""time""
""fullscreenenter"",""0"",""2411""
","
","6506.29999999702","<img style='border: 4px solid darkgrey;' src='img/tf1_38_M_ss1.jpeg'></img>","1","","exp","","0","<img src='img/tf1_38_T1_ss1_md.jpeg'></img>","0","true",""
"","html-keyboard-response","91","335142","0.0-10.0-0.38","A367","""event"",""trial"",""time""
""fullscreenenter"",""0"",""2411""
","
","
","""event"",""trial"",""time""
""fullscreenenter"",""0"",""2411""
","
","null","<div style=""font-size:60px;"">+</div>","","null","fixation","2021-07-01 03:30:09.303","","","","",""
"","mars-trial","92","340996","0.0-10.0-1.38","A367","""event"",""trial"",""time""
""fullscreenenter"",""0"",""2411""
","
","
","""event"",""trial"",""time""
""fullscreenenter"",""0"",""2411""
","
","5238.5999999940395","<img style='border: 4px solid darkgrey;' src='img/tf1_39_M_ss2.jpeg'></img>","0","","exp","","1","<img src='img/tf1_39_T1_ss2_md.jpeg'></img>","0","false",""
"","html-keyboard-response","93","341510","0.0-10.0-0.39","A367","""event"",""trial"",""time""
""fullscreenenter"",""0"",""2411""
","
","
","""event"",""trial"",""time""
""fullscreenenter"",""0"",""2411""
","
","null","<div style=""font-size:60px;"">+</div>","","null","fixation","2021-07-01 03:30:15.671","","","","",""
"","mars-trial","94","352881","0.0-10.0-1.39","A367","""event"",""trial"",""time""
""fullscreenenter"",""0"",""2411""
","
","
","""event"",""trial"",""time""
""fullscreenenter"",""0"",""2411""
","
","10754.70000000298","<img style='border: 4px solid darkgrey;' src='img/tf1_40_M_ss3.jpeg'></img>","2","","exp","","0","<img src='img/tf1_40_T1_ss3_md.jpeg'></img>","0","true",""
"","html-keyboard-response","95","353393","0.0-10.0-0.40","A367","""event"",""trial"",""time""
""fullscreenenter"",""0"",""2411""
","
","
","""event"",""trial"",""time""
""fullscreenenter"",""0"",""2411""
","
","null","<div style=""font-size:60px;"">+</div>","","null","fixation","2021-07-01 03:30:27.554","","","","",""
"","mars-trial","96","356995","0.0-10.0-1.40","A367","""event"",""trial"",""time""
""fullscreenenter"",""0"",""2411""
","
","
","""event"",""trial"",""time""
""fullscreenenter"",""0"",""2411""
","
","2986.699999988079","<img style='border: 4px solid darkgrey;' src='img/tf1_41_M_ss1.jpeg'></img>","1","","exp","","0","<img src='img/tf1_41_T1_ss1_md.jpeg'></img>","0","true",""
"","html-keyboard-response","97","357506","0.0-10.0-0.41","A367","""event"",""trial"",""time""
""fullscreenenter"",""0"",""2411""
","
","
","""event"",""trial"",""time""
""fullscreenenter"",""0"",""2411""
","
","null","<div style=""font-size:60px;"">+</div>","","null","fixation","2021-07-01 03:30:31.667","","","","",""
"","mars-trial","98","359401","0.0-10.0-1.41","A367","""event"",""trial"",""time""
""fullscreenenter"",""0"",""2411""
","
","
","""event"",""trial"",""time""
""fullscreenenter"",""0"",""2411""
","
","1286","<img style='border: 4px solid darkgrey;' src='img/tf1_42_M_ss2.jpeg'></img>","0","","exp","","2","<img src='img/tf1_42_T1_ss2_md.jpeg'></img>","0","false",""
"","html-keyboard-response","99","359906","0.0-10.0-0.42","A367","""event"",""trial"",""time""
""fullscreenenter"",""0"",""2411""
","
","
","""event"",""trial"",""time""
""fullscreenenter"",""0"",""2411""
","
","null","<div style=""font-size:60px;"">+</div>","","null","fixation","2021-07-01 03:30:34.067","","","","",""
"","mars-trial","100","361579","0.0-10.0-1.42","A367","""event"",""trial"",""time""
""fullscreenenter"",""0"",""2411""
","
","
","""event"",""trial"",""time""
""fullscreenenter"",""0"",""2411""
","
","1061.2000000029802","<img style='border: 4px solid darkgrey;' src='img/tf1_43_M_ss3.jpeg'></img>","1","","exp","","2","<img src='img/tf1_43_T1_ss3_md.jpeg'></img>","0","false",""
"","html-keyboard-response","101","362087","0.0-10.0-0.43","A367","""event"",""trial"",""time""
""fullscreenenter"",""0"",""2411""
","
","
","""event"",""trial"",""time""
""fullscreenenter"",""0"",""2411""
","
","null","<div style=""font-size:60px;"">+</div>","","null","fixation","2021-07-01 03:30:36.248","","","","",""
"","mars-trial","102","366017","0.0-10.0-1.43","A367","""event"",""trial"",""time""
""fullscreenenter"",""0"",""2411""
","
","
","""event"",""trial"",""time""
""fullscreenenter"",""0"",""2411""
","
","3319.4000000059605","<img style='border: 4px solid darkgrey;' src='img/tf1_44_M_ss1.jpeg'></img>","3","","exp","","1","<img src='img/tf1_44_T1_ss1_md.jpeg'></img>","0","false",""
"","html-keyboard-response","103","366528","0.0-10.0-0.44","A367","""event"",""trial"",""time""
""fullscreenenter"",""0"",""2411""
","
","
","""event"",""trial"",""time""
""fullscreenenter"",""0"",""2411""
","
","null","<div style=""font-size:60px;"">+</div>","","null","fixation","2021-07-01 03:30:40.689","","","","",""
"","mars-trial","104","368381","0.0-10.0-1.44","A367","""event"",""trial"",""time""
""fullscreenenter"",""0"",""2411""
","
","
","""event"",""trial"",""time""
""fullscreenenter"",""0"",""2411""
","
","1230.2000000029802","<img style='border: 4px solid darkgrey;' src='img/tf1_45_M_ss2.jpeg'></img>","1","","exp","","1","<img src='img/tf1_45_T1_ss2_md.jpeg'></img>","0","false",""
"","html-keyboard-response","105","368892","0.0-10.0-0.45","A367","""event"",""trial"",""time""
""fullscreenenter"",""0"",""2411""
","
","
","""event"",""trial"",""time""
""fullscreenenter"",""0"",""2411""
","
","null","<div style=""font-size:60px;"">+</div>","","null","fixation","2021-07-01 03:30:43.053","","","","",""
"","mars-trial","106","377664","0.0-10.0-1.45","A367","""event"",""trial"",""time""
""fullscreenenter"",""0"",""2411""
","
","
","""event"",""trial"",""time""
""fullscreenenter"",""0"",""2411""
","
","8153","<img style='border: 4px solid darkgrey;' src='img/tf1_46_M_ss3.jpeg'></img>","2","","exp","","0","<img src='img/tf1_46_T1_ss3_md.jpeg'></img>","0","true",""
"","html-keyboard-response","107","378169","0.0-10.0-0.46","A367","""event"",""trial"",""time""
""fullscreenenter"",""0"",""2411""
","
","
","""event"",""trial"",""time""
""fullscreenenter"",""0"",""2411""
","
","null","<div style=""font-size:60px;"">+</div>","","null","fixation","2021-07-01 03:30:52.330","","","","",""
"","mars-trial","108","387252","0.0-10.0-1.46","A367","""event"",""trial"",""time""
""fullscreenenter"",""0"",""2411""
","
","
","""event"",""trial"",""time""
""fullscreenenter"",""0"",""2411""
","
","8462.5","<img style='border: 4px solid darkgrey;' src='img/tf1_47_M_ss1.jpeg'></img>","1","","exp","","3","<img src='img/tf1_47_T1_ss1_md.jpeg'></img>","0","false",""
"","html-keyboard-response","109","387754","0.0-10.0-0.47","A367","""event"",""trial"",""time""
""fullscreenenter"",""0"",""2411""
","
","
","""event"",""trial"",""time""
""fullscreenenter"",""0"",""2411""
","
","null","<div style=""font-size:60px;"">+</div>","","null","fixation","2021-07-01 03:31:01.915","","","","",""
"","mars-trial","110","389189","0.0-10.0-1.47","A367","""event"",""trial"",""time""
""fullscreenenter"",""0"",""2411""
","
","
","""event"",""trial"",""time""
""fullscreenenter"",""0"",""2411""
","
","825","<img style='border: 4px solid darkgrey;' src='img/tf1_48_M_ss2.jpeg'></img>","0","","exp","","2","<img src='img/tf1_48_T1_ss2_md.jpeg'></img>","0","false",""
"","html-keyboard-response","111","389694","0.0-10.0-0.48","A367","""event"",""trial"",""time""
""fullscreenenter"",""0"",""2411""
","
","
","""event"",""trial"",""time""
""fullscreenenter"",""0"",""2411""
","
","null","<div style=""font-size:60px;"">+</div>","","null","fixation","2021-07-01 03:31:03.855","","","","",""
"","mars-trial","112","395789","0.0-10.0-1.48","A367","""event"",""trial"",""time""
""fullscreenenter"",""0"",""2411""
","
","
","""event"",""trial"",""time""
""fullscreenenter"",""0"",""2411""
","
","5481.70000000298","<img style='border: 4px solid darkgrey;' src='img/tf1_49_M_ss3.jpeg'></img>","3","","exp","","0","<img src='img/tf1_49_T1_ss3_md.jpeg'></img>","0","true",""
"","html-keyboard-response","113","396301","0.0-10.0-0.49","A367","""event"",""trial"",""time""
""fullscreenenter"",""0"",""2411""
","
","
","""event"",""trial"",""time""
""fullscreenenter"",""0"",""2411""
","
","null","<div style=""font-size:60px;"">+</div>","","null","fixation","2021-07-01 03:31:10.462","","","","",""
"","mars-trial","114","402465","0.0-10.0-1.49","A367","""event"",""trial"",""time""
""fullscreenenter"",""0"",""2411""
","
","
","""event"",""trial"",""time""
""fullscreenenter"",""0"",""2411""
","
","5538.79999999702","<img style='border: 4px solid darkgrey;' src='img/tf1_50_M_ss1.jpeg'></img>","1","","exp","","1","<img src='img/tf1_50_T1_ss1_md.jpeg'></img>","0","false",""
"","html-keyboard-response","115","402973","0.0-10.0-0.50","A367","""event"",""trial"",""time""
""fullscreenenter"",""0"",""2411""
","
","
","""event"",""trial"",""time""
""fullscreenenter"",""0"",""2411""
","
","null","<div style=""font-size:60px;"">+</div>","","null","fixation","2021-07-01 03:31:17.134","","","","",""
"","mars-trial","116","404693","0.0-10.0-1.50","A367","""event"",""trial"",""time""
""fullscreenenter"",""0"",""2411""
","
","
","""event"",""trial"",""time""
""fullscreenenter"",""0"",""2411""
","
","1113.5","<img style='border: 4px solid darkgrey;' src='img/tf1_51_M_ss2.jpeg'></img>","2","","exp","","3","<img src='img/tf1_51_T1_ss2_md.jpeg'></img>","0","false",""
"","html-keyboard-response","117","405206","0.0-10.0-0.51","A367","""event"",""trial"",""time""
""fullscreenenter"",""0"",""2411""
","
","
","""event"",""trial"",""time""
""fullscreenenter"",""0"",""2411""
","
","null","<div style=""font-size:60px;"">+</div>","","null","fixation","2021-07-01 03:31:19.368","","","","",""
"","mars-trial","118","411119","0.0-10.0-1.51","A367","""event"",""trial"",""time""
""fullscreenenter"",""0"",""2411""
","
","
","""event"",""trial"",""time""
""fullscreenenter"",""0"",""2411""
","
","5295.5","<img style='border: 4px solid darkgrey;' src='img/tf1_52_M_ss3.jpeg'></img>","1","","exp","","1","<img src='img/tf1_52_T1_ss3_md.jpeg'></img>","0","false",""
"","html-keyboard-response","119","411621","0.0-10.0-0.52","A367","""event"",""trial"",""time""
""fullscreenenter"",""0"",""2411""
","
","
","""event"",""trial"",""time""
""fullscreenenter"",""0"",""2411""
","
","null","<div style=""font-size:60px;"">+</div>","","null","fixation","2021-07-01 03:31:25.782","","","","",""
"","mars-trial","120","413513","0.0-10.0-1.52","A367","""event"",""trial"",""time""
""fullscreenenter"",""0"",""2411""
","
","
","""event"",""trial"",""time""
""fullscreenenter"",""0"",""2411""
","
","1270.7000000029802","<img style='border: 4px solid darkgrey;' src='img/tf1_53_M_ss1.jpeg'></img>","0","","exp","","2","<img src='img/tf1_53_T1_ss1_md.jpeg'></img>","0","false",""
"","html-keyboard-response","121","414014","0.0-10.0-0.53","A367","""event"",""trial"",""time""
""fullscreenenter"",""0"",""2411""
","
","
","""event"",""trial"",""time""
""fullscreenenter"",""0"",""2411""
","
","null","<div style=""font-size:60px;"">+</div>","","null","fixation","2021-07-01 03:31:28.175","","","","",""
"","mars-trial","122","421732","0.0-10.0-1.53","A367","""event"",""trial"",""time""
""fullscreenenter"",""0"",""2411""
","
","
","""event"",""trial"",""time""
""fullscreenenter"",""0"",""2411""
","
","7103.79999999702","<img style='border: 4px solid darkgrey;' src='img/tf1_54_M_ss2.jpeg'></img>","3","","exp","","3","<img src='img/tf1_54_T1_ss2_md.jpeg'></img>","0","false",""
"","html-keyboard-response","123","422249","0.0-10.0-0.54","A367","""event"",""trial"",""time""
""fullscreenenter"",""0"",""2411""
","
","
","""event"",""trial"",""time""
""fullscreenenter"",""0"",""2411""
","
","null","<div style=""font-size:60px;"">+</div>","","null","fixation","2021-07-01 03:31:36.410","","","","",""
"","mars-trial","124","434633","0.0-10.0-1.54","A367","""event"",""trial"",""time""
""fullscreenenter"",""0"",""2411""
","
","
","""event"",""trial"",""time""
""fullscreenenter"",""0"",""2411""
","
","11761.5","<img style='border: 4px solid darkgrey;' src='img/tf1_55_M_ss3.jpeg'></img>","1","","exp","","3","<img src='img/tf1_55_T1_ss3_md.jpeg'></img>","0","false",""
"","html-keyboard-response","125","435134","0.0-10.0-0.55","A367","""event"",""trial"",""time""
""fullscreenenter"",""0"",""2411""
","
","
","""event"",""trial"",""time""
""fullscreenenter"",""0"",""2411""
","
","null","<div style=""font-size:60px;"">+</div>","","null","fixation","2021-07-01 03:31:49.296","","","","",""
"","mars-trial","126","443485","0.0-10.0-1.55","A367","""event"",""trial"",""time""
""fullscreenenter"",""0"",""2411""
","
","
","""event"",""trial"",""time""
""fullscreenenter"",""0"",""2411""
","
","7738.79999999702","<img style='border: 4px solid darkgrey;' src='img/tf1_56_M_ss1.jpeg'></img>","2","","exp","","1","<img src='img/tf1_56_T1_ss1_md.jpeg'></img>","0","false",""
"","html-keyboard-response","127","443993","0.0-10.0-0.56","A367","""event"",""trial"",""time""
""fullscreenenter"",""0"",""2411""
","
","
","""event"",""trial"",""time""
""fullscreenenter"",""0"",""2411""
","
","null","<div style=""font-size:60px;"">+</div>","","null","fixation","2021-07-01 03:31:58.154","","","","",""
"","mars-trial","128","449531","0.0-10.0-1.56","A367","""event"",""trial"",""time""
""fullscreenenter"",""0"",""2411""
","
","
","""event"",""trial"",""time""
""fullscreenenter"",""0"",""2411""
","
","4924.9000000059605","<img style='border: 4px solid darkgrey;' src='img/tf1_57_M_ss2.jpeg'></img>","1","","exp","","0","<img src='img/tf1_57_T1_ss2_md.jpeg'></img>","0","true",""
"","html-keyboard-response","129","450036","0.0-10.0-0.57","A367","""event"",""trial"",""time""
""fullscreenenter"",""0"",""2411""
","
","
","""event"",""trial"",""time""
""fullscreenenter"",""0"",""2411""
","
","null","<div style=""font-size:60px;"">+</div>","","null","fixation","2021-07-01 03:32:04.197","","","","",""
"","mars-trial","130","462874","0.0-10.0-1.57","A367","""event"",""trial"",""time""
""fullscreenenter"",""0"",""2411""
","
","
","""event"",""trial"",""time""
""fullscreenenter"",""0"",""2411""
","
","12217.90000000596","<img style='border: 4px solid darkgrey;' src='img/tf1_58_M_ss3.jpeg'></img>","2","","exp","","1","<img src='img/tf1_58_T1_ss3_md.jpeg'></img>","0","false",""
"","html-keyboard-response","131","463377","0.0-10.0-0.58","A367","""event"",""trial"",""time""
""fullscreenenter"",""0"",""2411""
","
","
","""event"",""trial"",""time""
""fullscreenenter"",""0"",""2411""
","
","null","<div style=""font-size:60px;"">+</div>","","null","fixation","2021-07-01 03:32:17.538","","","","",""
"","mars-trial","132","465100","0.0-10.0-1.58","A367","""event"",""trial"",""time""
""fullscreenenter"",""0"",""2411""
","
","
","""event"",""trial"",""time""
""fullscreenenter"",""0"",""2411""
","
","1111.5999999940395","<img style='border: 4px solid darkgrey;' src='img/tf1_59_M_ss1.jpeg'></img>","1","","exp","","1","<img src='img/tf1_59_T1_ss1_md.jpeg'></img>","0","false",""
"","html-keyboard-response","133","465607","0.0-10.0-0.59","A367","""event"",""trial"",""time""
""fullscreenenter"",""0"",""2411""
","
","
","""event"",""trial"",""time""
""fullscreenenter"",""0"",""2411""
","
","null","<div style=""font-size:60px;"">+</div>","","null","fixation","2021-07-01 03:32:19.768","","","","",""
"","mars-trial","134","467027","0.0-10.0-1.59","A367","""event"",""trial"",""time""
""fullscreenenter"",""0"",""2411""
","
","
","""event"",""trial"",""time""
""fullscreenenter"",""0"",""2411""
","
","808.0999999940395","<img style='border: 4px solid darkgrey;' src='img/tf1_60_M_ss2.jpeg'></img>","0","","exp","","3","<img src='img/tf1_60_T1_ss2_md.jpeg'></img>","0","false",""
"","html-keyboard-response","135","467536","0.0-10.0-0.60","A367","""event"",""trial"",""time""
""fullscreenenter"",""0"",""2411""
","
","
","""event"",""trial"",""time""
""fullscreenenter"",""0"",""2411""
","
","null","<div style=""font-size:60px;"">+</div>","","null","fixation","2021-07-01 03:32:21.697","","","","",""
"","mars-trial","136","468585","0.0-10.0-1.60","A367","""event"",""trial"",""time""
""fullscreenenter"",""0"",""2411""
","
","
","""event"",""trial"",""time""
""fullscreenenter"",""0"",""2411""
","
","433.5","<img style='border: 4px solid darkgrey;' src='img/tf1_61_M_ss3.jpeg'></img>","1","","exp","","3","<img src='img/tf1_61_T1_ss3_md.jpeg'></img>","0","false",""
"","html-keyboard-response","137","469088","0.0-10.0-0.61","A367","""event"",""trial"",""time""
""fullscreenenter"",""0"",""2411""
","
","
","""event"",""trial"",""time""
""fullscreenenter"",""0"",""2411""
","
","null","<div style=""font-size:60px;"">+</div>","","null","fixation","2021-07-01 03:32:23.249","","","","",""
"","mars-trial","138","470451","0.0-10.0-1.61","A367","""event"",""trial"",""time""
""fullscreenenter"",""0"",""2411""
","
","
","""event"",""trial"",""time""
""fullscreenenter"",""0"",""2411""
","
","747","<img style='border: 4px solid darkgrey;' src='img/tf1_62_M_ss1.jpeg'></img>","2","","exp","","0","<img src='img/tf1_62_T1_ss1_md.jpeg'></img>","0","true",""
"","html-keyboard-response","139","470958","0.0-10.0-0.62","A367","""event"",""trial"",""time""
""fullscreenenter"",""0"",""2411""
","
","
","""event"",""trial"",""time""
""fullscreenenter"",""0"",""2411""
","
","null","<div style=""font-size:60px;"">+</div>","","null","fixation","2021-07-01 03:32:25.119","","","","",""
"","mars-trial","140","472382","0.0-10.0-1.62","A367","""event"",""trial"",""time""
""fullscreenenter"",""0"",""2411""
","
","
","""event"",""trial"",""time""
""fullscreenenter"",""0"",""2411""
","
","811.8000000119209","<img style='border: 4px solid darkgrey;' src='img/tf1_63_M_ss2.jpeg'></img>","1","","exp","","2","<img src='img/tf1_63_T1_ss2_md.jpeg'></img>","0","false",""
"","html-keyboard-response","141","472890","0.0-10.0-0.63","A367","""event"",""trial"",""time""
""fullscreenenter"",""0"",""2411""
","
","
","""event"",""trial"",""time""
""fullscreenenter"",""0"",""2411""
","
","null","<div style=""font-size:60px;"">+</div>","","null","fixation","2021-07-01 03:32:27.051","","","","",""
"","mars-trial","142","475580","0.0-10.0-1.63","A367","""event"",""trial"",""time""
""fullscreenenter"",""0"",""2411""
","
","
","""event"",""trial"",""time""
""fullscreenenter"",""0"",""2411""
","
","2063.3999999910593","<img style='border: 4px solid darkgrey;' src='img/tf1_64_M_ss3.jpeg'></img>","2","","exp","","3","<img src='img/tf1_64_T1_ss3_md.jpeg'></img>","0","false",""
"","html-keyboard-response","143","476093","0.0-10.0-0.64","A367","""event"",""trial"",""time""
""fullscreenenter"",""0"",""2411""
","
","
","""event"",""trial"",""time""
""fullscreenenter"",""0"",""2411""
","
","null","<div style=""font-size:60px;"">+</div>","","null","fixation","2021-07-01 03:32:30.254","","","","",""
"","mars-trial","144","477459","0.0-10.0-1.64","A367","""event"",""trial"",""time""
""fullscreenenter"",""0"",""2411""
","
","
","""event"",""trial"",""time""
""fullscreenenter"",""0"",""2411""
","
","758.5999999940395","<img style='border: 4px solid darkgrey;' src='img/tf1_65_M_ss1.jpeg'></img>","0","","exp","","1","<img src='img/tf1_65_T1_ss1_md.jpeg'></img>","0","false",""
"","html-keyboard-response","145","477966","0.0-10.0-0.65","A367","""event"",""trial"",""time""
""fullscreenenter"",""0"",""2411""
","
","
","""event"",""trial"",""time""
""fullscreenenter"",""0"",""2411""
","
","null","<div style=""font-size:60px;"">+</div>","","null","fixation","2021-07-01 03:32:32.127","","","","",""
"","mars-trial","146","479442","0.0-10.0-1.65","A367","""event"",""trial"",""time""
""fullscreenenter"",""0"",""2411""
","
","
","""event"",""trial"",""time""
""fullscreenenter"",""0"",""2411""
","
","864.1000000089407","<img style='border: 4px solid darkgrey;' src='img/tf1_66_M_ss2.jpeg'></img>","3","","exp","","2","<img src='img/tf1_66_T1_ss2_md.jpeg'></img>","0","false",""
"","html-keyboard-response","147","479945","0.0-10.0-0.66","A367","""event"",""trial"",""time""
""fullscreenenter"",""0"",""2411""
","
","
","""event"",""trial"",""time""
""fullscreenenter"",""0"",""2411""
","
","null","<div style=""font-size:60px;"">+</div>","","null","fixation","2021-07-01 03:32:34.106","","","","",""
"","mars-trial","148","489642","0.0-10.0-1.66","A367","""event"",""trial"",""time""
""fullscreenenter"",""0"",""2411""
","
","
","""event"",""trial"",""time""
""fullscreenenter"",""0"",""2411""
","
","9085.29999999702","<img style='border: 4px solid darkgrey;' src='img/tf1_67_M_ss3.jpeg'></img>","1","","exp","","0","<img src='img/tf1_67_T1_ss3_md.jpeg'></img>","0","true",""
"","html-keyboard-response","149","490144","0.0-10.0-0.67","A367","""event"",""trial"",""time""
""fullscreenenter"",""0"",""2411""
","
","
","""event"",""trial"",""time""
""fullscreenenter"",""0"",""2411""
","
","null","<div style=""font-size:60px;"">+</div>","","null","fixation","2021-07-01 03:32:44.305","","","","",""
"","mars-trial","150","492495","0.0-10.0-1.67","A367","""event"",""trial"",""time""
""fullscreenenter"",""0"",""2411""
","
","
","""event"",""trial"",""time""
""fullscreenenter"",""0"",""2411""
","
","1727.2999999970198","<img style='border: 4px solid darkgrey;' src='img/tf1_68_M_ss1.jpeg'></img>","3","","exp","","0","<img src='img/tf1_68_T1_ss1_md.jpeg'></img>","0","true",""
"","html-keyboard-response","151","493004","0.0-10.0-0.68","A367","""event"",""trial"",""time""
""fullscreenenter"",""0"",""2411""
","
","
","""event"",""trial"",""time""
""fullscreenenter"",""0"",""2411""
","
","null","<div style=""font-size:60px;"">+</div>","","null","fixation","2021-07-01 03:32:47.165","","","","",""
"","mars-trial","152","502631","0.0-10.0-1.68","A367","""event"",""trial"",""time""
""fullscreenenter"",""0"",""2411""
","
","
","""event"",""trial"",""time""
""fullscreenenter"",""0"",""2411""
","
","9021.10000000894","<img style='border: 4px solid darkgrey;' src='img/tf1_69_M_ss2.jpeg'></img>","2","","exp","","1","<img src='img/tf1_69_T1_ss2_md.jpeg'></img>","0","false",""
"","html-keyboard-response","153","503136","0.0-10.0-0.69","A367","""event"",""trial"",""time""
""fullscreenenter"",""0"",""2411""
","
","
","""event"",""trial"",""time""
""fullscreenenter"",""0"",""2411""
","
","null","<div style=""font-size:60px;"">+</div>","","null","fixation","2021-07-01 03:32:57.297","","","","",""
"","mars-trial","154","508856","0.0-10.0-1.69","A367","""event"",""trial"",""time""
""fullscreenenter"",""0"",""2411""
","
","
","""event"",""trial"",""time""
""fullscreenenter"",""0"",""2411""
","
","5102.20000000298","<img style='border: 4px solid darkgrey;' src='img/tf1_70_M_ss3.jpeg'></img>","3","","exp","","0","<img src='img/tf1_70_T1_ss3_md.jpeg'></img>","0","true",""
"","html-keyboard-response","155","509367","0.0-10.0-0.70","A367","""event"",""trial"",""time""
""fullscreenenter"",""0"",""2411""
","
","
","""event"",""trial"",""time""
""fullscreenenter"",""0"",""2411""
","
","null","<div style=""font-size:60px;"">+</div>","","null","fixation","2021-07-01 03:33:03.528","","","","",""
"","mars-trial","156","513240","0.0-10.0-1.70","A367","""event"",""trial"",""time""
""fullscreenenter"",""0"",""2411""
","
","
","""event"",""trial"",""time""
""fullscreenenter"",""0"",""2411""
","
","3244.7999999970198","<img style='border: 4px solid darkgrey;' src='img/tf1_71_M_ss1.jpeg'></img>","2","","exp","","0","<img src='img/tf1_71_T1_ss1_md.jpeg'></img>","0","true",""
"","html-keyboard-response","157","513748","0.0-10.0-0.71","A367","""event"",""trial"",""time""
""fullscreenenter"",""0"",""2411""
","
","
","""event"",""trial"",""time""
""fullscreenenter"",""0"",""2411""
","
","null","<div style=""font-size:60px;"">+</div>","","null","fixation","2021-07-01 03:33:07.909","","","","",""
"","mars-trial","158","516044","0.0-10.0-1.71","A367","""event"",""trial"",""time""
""fullscreenenter"",""0"",""2411""
","
","
","""event"",""trial"",""time""
""fullscreenenter"",""0"",""2411""
","
","","","","","exp","","","<img src='img/tf1_72_T1_ss2_md.jpeg'></img>","0","false",""
"","html-keyboard-response","159","516546","0.0-10.0-0.72","A367","""event"",""trial"",""time""
""fullscreenenter"",""0"",""2411""
","
","
","""event"",""trial"",""time""
""fullscreenenter"",""0"",""2411""
","
","null","<div style=""font-size:60px;"">+</div>","","null","fixation","2021-07-01 03:33:10.708","","","","",""
"","audio-button-response","160","520415","0.0-11.0","A367","""event"",""trial"",""time""
""fullscreenenter"",""0"",""2411""
","
","
","""event"",""trial"",""time""
""fullscreenenter"",""0"",""2411""
","
","3766","audio/mars_instructions_slide5.wav","0","","","","","","","",""
