"success","trial_type","trial_index","time_elapsed","internal_node_id","subject_id","interactions","blur_events","focus_events","fullscreenenter_events","fullscreenexit_events","rt","stimulus","button_pressed","key_press","part","timestamp","unshuffled_button","correct_response","correct_button","correct","value"
"true","fullscreen","0","3786","0.0-0.0","582","
","
","
","
","
","","","","","","","","","","",""
"","pavlovia","1","3788","0.0-1.0","582","
","
","
","
","
","","","","","","","","","","",""
"","html-button-response","2","5496","0.0-2.0","582","
","
","
","
","
","1706","<p>Welcome! Press START to begin.</p><br>","0","","","","","","","",""
"","audio-button-response","3","19489","0.0-3.0","582","
","
","
","
","
","13988","audio/mars_instructions_slide2.wav","0","","","","","","","",""
"","audio-button-response","4","34839","0.0-4.0","582","
","
","
","
","
","15348","audio/mars_instructions_slide3.wav","0","","","","","","","",""
"","html-keyboard-response","5","35341","0.0-5.0-0.0","582","
","
","
","
","
","null","<div style=""font-size:60px;"">+</div>","","null","fixation","2021-06-20 17:10:20.628","","","","",""
"","mars-trial","6","45833","0.0-5.0-1.0","582","
","
","
","
","
","8386","<img style='border: 4px solid darkgrey;' src='practice/pt1_M1.png'></img>","3","","practice","","0","<img src='practice/pt1_T1.png'></img>","0","true",""
"","html-keyboard-response","7","46336","0.0-6.0-0.0","582","
","
","
","
","
","null","<div style=""font-size:60px;"">+</div>","","null","fixation","2021-06-20 17:10:31.623","","","","",""
"","mars-trial","8","52232","0.0-6.0-1.0","582","
","
","
","
","
","3792.0000000000073","<img style='border: 4px solid darkgrey;' src='practice/pt2_M1.png'></img>","0","","practice","","0","<img src='practice/pt2_T1.png'></img>","0","true",""
"","html-keyboard-response","9","52735","0.0-7.0-0.0","582","
","
","
","
","
","null","<div style=""font-size:60px;"">+</div>","","null","fixation","2021-06-20 17:10:38.022","","","","",""
"","mars-trial","10","56504","0.0-7.0-1.0","582","
","
","
","
","
","1665","<img style='border: 4px solid darkgrey;' src='practice/pt3_M1.png'></img>","1","","practice","","0","<img src='practice/pt3_T1.png'></img>","0","true",""
"","audio-button-response","11","59766","0.0-8.0","582","
","
","
","
","
","3261.9999999999927","audio/mars_instructions_slide4.wav","0","","","","","","","",""
"","call-function","12","59767","0.0-9.0","582","
","
","
","
","
","","","","","","","","","","",""
"","html-keyboard-response","13","60268","0.0-10.0-0.0","582","
","
","
","
","
","null","<div style=""font-size:60px;"">+</div>","","null","fixation","2021-06-20 17:10:45.555","","","","",""
"","mars-trial","14","62396","0.0-10.0-1.0","582","
","
","
","
","
","1524","<img style='border: 4px solid darkgrey;' src='img/tf1_1_M_ss3.jpeg'></img>","3","","exp","","0","<img src='img/tf1_1_T1_ss3_md.jpeg'></img>","0","true",""
"","html-keyboard-response","15","62898","0.0-10.0-0.1","582","
","
","
","
","
","null","<div style=""font-size:60px;"">+</div>","","null","fixation","2021-06-20 17:10:48.185","","","","",""
"","mars-trial","16","65980","0.0-10.0-1.1","582","
","
","
","
","
","2479.0000000000146","<img style='border: 4px solid darkgrey;' src='img/tf1_2_M_ss1.jpeg'></img>","2","","exp","","0","<img src='img/tf1_2_T1_ss1_md.jpeg'></img>","0","true",""
"","html-keyboard-response","17","66482","0.0-10.0-0.2","582","
","
","
","
","
","null","<div style=""font-size:60px;"">+</div>","","null","fixation","2021-06-20 17:10:51.769","","","","",""
"","mars-trial","18","70203","0.0-10.0-1.2","582","
","
","
","
","
","3118","<img style='border: 4px solid darkgrey;' src='img/tf1_3_M_ss2.jpeg'></img>","1","","exp","","0","<img src='img/tf1_3_T1_ss2_md.jpeg'></img>","0","true",""
"","html-keyboard-response","19","70705","0.0-10.0-0.3","582","
","
","
","
","
","null","<div style=""font-size:60px;"">+</div>","","null","fixation","2021-06-20 17:10:55.992","","","","",""
"","mars-trial","20","75020","0.0-10.0-1.3","582","
","
","
","
","
","3711","<img style='border: 4px solid darkgrey;' src='img/tf1_4_M_ss3.jpeg'></img>","1","","exp","","0","<img src='img/tf1_4_T1_ss3_md.jpeg'></img>","0","true",""
"","html-keyboard-response","21","75522","0.0-10.0-0.4","582","
","
","
","
","
","null","<div style=""font-size:60px;"">+</div>","","null","fixation","2021-06-20 17:11:00.809","","","","",""
"","mars-trial","22","77964","0.0-10.0-1.4","582","
","
","
","
","
","1838","<img style='border: 4px solid darkgrey;' src='img/tf1_5_M_ss1.jpeg'></img>","3","","exp","","0","<img src='img/tf1_5_T1_ss1_md.jpeg'></img>","0","true",""
"","html-keyboard-response","23","78466","0.0-10.0-0.5","582","
","
","
","
","
","null","<div style=""font-size:60px;"">+</div>","","null","fixation","2021-06-20 17:11:03.753","","","","",""
"","mars-trial","24","89684","0.0-10.0-1.5","582","
","
","
","
","
","10614","<img style='border: 4px solid darkgrey;' src='img/tf1_6_M_ss2.jpeg'></img>","0","","exp","","0","<img src='img/tf1_6_T1_ss2_md.jpeg'></img>","0","true",""
"","html-keyboard-response","25","90186","0.0-10.0-0.6","582","
","
","
","
","
","null","<div style=""font-size:60px;"">+</div>","","null","fixation","2021-06-20 17:11:15.473","","","","",""
"","mars-trial","26","96908","0.0-10.0-1.6","582","
","
","
","
","
","6118","<img style='border: 4px solid darkgrey;' src='img/tf1_7_M_ss3.jpeg'></img>","3","","exp","","0","<img src='img/tf1_7_T1_ss3_md.jpeg'></img>","0","true",""
"","html-keyboard-response","27","97410","0.0-10.0-0.7","582","
","
","
","
","
","null","<div style=""font-size:60px;"">+</div>","","null","fixation","2021-06-20 17:11:22.697","","","","",""
"","mars-trial","28","103372","0.0-10.0-1.7","582","
","
","
","
","
","5358","<img style='border: 4px solid darkgrey;' src='img/tf1_8_M_ss1.jpeg'></img>","1","","exp","","0","<img src='img/tf1_8_T1_ss1_md.jpeg'></img>","0","true",""
"","html-keyboard-response","29","103874","0.0-10.0-0.8","582","
","
","
","
","
","null","<div style=""font-size:60px;"">+</div>","","null","fixation","2021-06-20 17:11:29.161","","","","",""
"","mars-trial","30","111636","0.0-10.0-1.8","582","
","
","
","
","
","7158","<img style='border: 4px solid darkgrey;' src='img/tf1_9_M_ss2.jpeg'></img>","3","","exp","","0","<img src='img/tf1_9_T1_ss2_md.jpeg'></img>","0","true",""
"","html-keyboard-response","31","112138","0.0-10.0-0.9","582","
","
","
","
","
","null","<div style=""font-size:60px;"">+</div>","","null","fixation","2021-06-20 17:11:37.425","","","","",""
"","mars-trial","32","141373","0.0-10.0-1.9","582","
","
","
","
","
","28631","<img style='border: 4px solid darkgrey;' src='img/tf1_10_M_ss3.jpeg'></img>","2","","exp","","1","<img src='img/tf1_10_T1_ss3_md.jpeg'></img>","0","false",""
"","html-keyboard-response","33","141874","0.0-10.0-0.10","582","
","
","
","
","
","null","<div style=""font-size:60px;"">+</div>","","null","fixation","2021-06-20 17:12:07.162","","","","",""
"","mars-trial","34","154548","0.0-10.0-1.10","582","
","
","
","
","
","12070","<img style='border: 4px solid darkgrey;' src='img/tf1_11_M_ss1.jpeg'></img>","1","","exp","","1","<img src='img/tf1_11_T1_ss1_md.jpeg'></img>","0","false",""
"","html-keyboard-response","35","155049","0.0-10.0-0.11","582","
","
","
","
","
","null","<div style=""font-size:60px;"">+</div>","","null","fixation","2021-06-20 17:12:20.336","","","","",""
"","mars-trial","36","167748","0.0-10.0-1.11","582","
","
","
","
","
","12096","<img style='border: 4px solid darkgrey;' src='img/tf1_12_M_ss2.jpeg'></img>","1","","exp","","2","<img src='img/tf1_12_T1_ss2_md.jpeg'></img>","0","false",""
"","html-keyboard-response","37","168249","0.0-10.0-0.12","582","
","
","
","
","
","null","<div style=""font-size:60px;"">+</div>","","null","fixation","2021-06-20 17:12:33.536","","","","",""
"","mars-trial","38","176507","0.0-10.0-1.12","582","
","
","
","
","
","7655","<img style='border: 4px solid darkgrey;' src='img/tf1_13_M_ss3.jpeg'></img>","2","","exp","","1","<img src='img/tf1_13_T1_ss3_md.jpeg'></img>","0","false",""
"","html-keyboard-response","39","177009","0.0-10.0-0.13","582","
","
","
","
","
","null","<div style=""font-size:60px;"">+</div>","","null","fixation","2021-06-20 17:12:42.296","","","","",""
"","mars-trial","40","182748","0.0-10.0-1.13","582","
","
","
","
","
","5135","<img style='border: 4px solid darkgrey;' src='img/tf1_14_M_ss1.jpeg'></img>","1","","exp","","1","<img src='img/tf1_14_T1_ss1_md.jpeg'></img>","0","false",""
"","html-keyboard-response","41","183249","0.0-10.0-0.14","582","
","
","
","
","
","null","<div style=""font-size:60px;"">+</div>","","null","fixation","2021-06-20 17:12:48.537","","","","",""
"","mars-trial","42","186972","0.0-10.0-1.14","582","
","
","
","
","
","3119","<img style='border: 4px solid darkgrey;' src='img/tf1_15_M_ss2.jpeg'></img>","2","","exp","","3","<img src='img/tf1_15_T1_ss2_md.jpeg'></img>","0","false",""
"","html-keyboard-response","43","187474","0.0-10.0-0.15","582","
","
","
","
","
","null","<div style=""font-size:60px;"">+</div>","","null","fixation","2021-06-20 17:12:52.761","","","","",""
"","mars-trial","44","190292","0.0-10.0-1.15","582","
","
","
","
","
","2214","<img style='border: 4px solid darkgrey;' src='img/tf1_16_M_ss3.jpeg'></img>","3","","exp","","2","<img src='img/tf1_16_T1_ss3_md.jpeg'></img>","0","false",""
"","html-keyboard-response","45","190793","0.0-10.0-0.16","582","
","
","
","
","
","null","<div style=""font-size:60px;"">+</div>","","null","fixation","2021-06-20 17:12:56.080","","","","",""
"","mars-trial","46","197100","0.0-10.0-1.16","582","
","
","
","
","
","5703","<img style='border: 4px solid darkgrey;' src='img/tf1_17_M_ss1.jpeg'></img>","1","","exp","","2","<img src='img/tf1_17_T1_ss1_md.jpeg'></img>","0","false",""
"","html-keyboard-response","47","197602","0.0-10.0-0.17","582","
","
","
","
","
","null","<div style=""font-size:60px;"">+</div>","","null","fixation","2021-06-20 17:13:02.889","","","","",""
"","mars-trial","48","199676","0.0-10.0-1.17","582","
","
","
","
","
","1470","<img style='border: 4px solid darkgrey;' src='img/tf1_18_M_ss2.jpeg'></img>","1","","exp","","3","<img src='img/tf1_18_T1_ss2_md.jpeg'></img>","0","false",""
"","html-keyboard-response","49","200178","0.0-10.0-0.18","582","
","
","
","
","
","null","<div style=""font-size:60px;"">+</div>","","null","fixation","2021-06-20 17:13:05.465","","","","",""
"","mars-trial","50","211140","0.0-10.0-1.18","582","
","
","
","
","
","10358","<img style='border: 4px solid darkgrey;' src='img/tf1_19_M_ss3.jpeg'></img>","2","","exp","","0","<img src='img/tf1_19_T1_ss3_md.jpeg'></img>","0","true",""
"","html-keyboard-response","51","211642","0.0-10.0-0.19","582","
","
","
","
","
","null","<div style=""font-size:60px;"">+</div>","","null","fixation","2021-06-20 17:13:16.929","","","","",""
"","mars-trial","52","214148","0.0-10.0-1.19","582","
","
","
","
","
","1903.000000000029","<img style='border: 4px solid darkgrey;' src='img/tf1_20_M_ss1.jpeg'></img>","2","","exp","","3","<img src='img/tf1_20_T1_ss1_md.jpeg'></img>","0","false",""
"","html-keyboard-response","53","214650","0.0-10.0-0.20","582","
","
","
","
","
","null","<div style=""font-size:60px;"">+</div>","","null","fixation","2021-06-20 17:13:19.937","","","","",""
"","mars-trial","54","217012","0.0-10.0-1.20","582","
","
","
","
","
","1759","<img style='border: 4px solid darkgrey;' src='img/tf1_21_M_ss2.jpeg'></img>","2","","exp","","2","<img src='img/tf1_21_T1_ss2_md.jpeg'></img>","0","false",""
"","html-keyboard-response","55","217513","0.0-10.0-0.21","582","
","
","
","
","
","null","<div style=""font-size:60px;"">+</div>","","null","fixation","2021-06-20 17:13:22.800","","","","",""
"","mars-trial","56","223140","0.0-10.0-1.21","582","
","
","
","
","
","5023","<img style='border: 4px solid darkgrey;' src='img/tf1_22_M_ss3.jpeg'></img>","0","","exp","","3","<img src='img/tf1_22_T1_ss3_md.jpeg'></img>","0","false",""
"","html-keyboard-response","57","223642","0.0-10.0-0.22","582","
","
","
","
","
","null","<div style=""font-size:60px;"">+</div>","","null","fixation","2021-06-20 17:13:28.929","","","","",""
"","mars-trial","58","227908","0.0-10.0-1.22","582","
","
","
","
","
","3662","<img style='border: 4px solid darkgrey;' src='img/tf1_23_M_ss1.jpeg'></img>","2","","exp","","0","<img src='img/tf1_23_T1_ss1_md.jpeg'></img>","0","true",""
"","html-keyboard-response","59","228409","0.0-10.0-0.23","582","
","
","
","
","
","null","<div style=""font-size:60px;"">+</div>","","null","fixation","2021-06-20 17:13:33.696","","","","",""
"","mars-trial","60","234029","0.0-10.0-1.23","582","
","
","
","
","
","5015","<img style='border: 4px solid darkgrey;' src='img/tf1_24_M_ss2.jpeg'></img>","3","","exp","","1","<img src='img/tf1_24_T1_ss2_md.jpeg'></img>","0","false",""
"","html-keyboard-response","61","234530","0.0-10.0-0.24","582","
","
","
","
","
","null","<div style=""font-size:60px;"">+</div>","","null","fixation","2021-06-20 17:13:39.817","","","","",""
"","mars-trial","62","238957","0.0-10.0-1.24","582","
","
","
","
","
","3823","<img style='border: 4px solid darkgrey;' src='img/tf1_25_M_ss3.jpeg'></img>","0","","exp","","0","<img src='img/tf1_25_T1_ss3_md.jpeg'></img>","0","true",""
"","html-keyboard-response","63","239459","0.0-10.0-0.25","582","
","
","
","
","
","null","<div style=""font-size:60px;"">+</div>","","null","fixation","2021-06-20 17:13:44.746","","","","",""
"","mars-trial","64","245780","0.0-10.0-1.25","582","
","
","
","
","
","5718","<img style='border: 4px solid darkgrey;' src='img/tf1_26_M_ss1.jpeg'></img>","3","","exp","","0","<img src='img/tf1_26_T1_ss1_md.jpeg'></img>","0","true",""
"","html-keyboard-response","65","246281","0.0-10.0-0.26","582","
","
","
","
","
","null","<div style=""font-size:60px;"">+</div>","","null","fixation","2021-06-20 17:13:51.568","","","","",""
"","mars-trial","66","251684","0.0-10.0-1.26","582","
","
","
","
","
","4800.000000000029","<img style='border: 4px solid darkgrey;' src='img/tf1_27_M_ss2.jpeg'></img>","3","","exp","","2","<img src='img/tf1_27_T1_ss2_md.jpeg'></img>","0","false",""
"","html-keyboard-response","67","252186","0.0-10.0-0.27","582","
","
","
","
","
","null","<div style=""font-size:60px;"">+</div>","","null","fixation","2021-06-20 17:13:57.473","","","","",""
"","mars-trial","68","255260","0.0-10.0-1.27","582","
","
","
","
","
","2470","<img style='border: 4px solid darkgrey;' src='img/tf1_28_M_ss3.jpeg'></img>","2","","exp","","3","<img src='img/tf1_28_T1_ss3_md.jpeg'></img>","0","false",""
"","html-keyboard-response","69","255762","0.0-10.0-0.28","582","
","
","
","
","
","null","<div style=""font-size:60px;"">+</div>","","null","fixation","2021-06-20 17:14:01.049","","","","",""
"","mars-trial","70","260868","0.0-10.0-1.28","582","
","
","
","
","
","4502.999999999971","<img style='border: 4px solid darkgrey;' src='img/tf1_29_M_ss1.jpeg'></img>","3","","exp","","1","<img src='img/tf1_29_T1_ss1_md.jpeg'></img>","0","false",""
"","html-keyboard-response","71","261370","0.0-10.0-0.29","582","
","
","
","
","
","null","<div style=""font-size:60px;"">+</div>","","null","fixation","2021-06-20 17:14:06.657","","","","",""
"","mars-trial","72","266733","0.0-10.0-1.29","582","
","
","
","
","
","4758","<img style='border: 4px solid darkgrey;' src='img/tf1_30_M_ss2.jpeg'></img>","1","","exp","","3","<img src='img/tf1_30_T1_ss2_md.jpeg'></img>","0","false",""
"","html-keyboard-response","73","267235","0.0-10.0-0.30","582","
","
","
","
","
","null","<div style=""font-size:60px;"">+</div>","","null","fixation","2021-06-20 17:14:12.522","","","","",""
"","mars-trial","74","270629","0.0-10.0-1.30","582","
","
","
","
","
","2789","<img style='border: 4px solid darkgrey;' src='img/tf1_31_M_ss3.jpeg'></img>","3","","exp","","0","<img src='img/tf1_31_T1_ss3_md.jpeg'></img>","0","true",""
"","html-keyboard-response","75","271131","0.0-10.0-0.31","582","
","
","
","
","
","null","<div style=""font-size:60px;"">+</div>","","null","fixation","2021-06-20 17:14:16.418","","","","",""
"","mars-trial","76","272700","0.0-10.0-1.31","582","
","
","
","
","
","964.9999999999418","<img style='border: 4px solid darkgrey;' src='img/tf1_32_M_ss1.jpeg'></img>","2","","exp","","0","<img src='img/tf1_32_T1_ss1_md.jpeg'></img>","0","true",""
"","html-keyboard-response","77","273202","0.0-10.0-0.32","582","
","
","
","
","
","null","<div style=""font-size:60px;"">+</div>","","null","fixation","2021-06-20 17:14:18.489","","","","",""
"","mars-trial","78","276492","0.0-10.0-1.32","582","
","
","
","
","
","2686","<img style='border: 4px solid darkgrey;' src='img/tf1_33_M_ss2.jpeg'></img>","2","","exp","","2","<img src='img/tf1_33_T1_ss2_md.jpeg'></img>","0","false",""
"","html-keyboard-response","79","276994","0.0-10.0-0.33","582","
","
","
","
","
","null","<div style=""font-size:60px;"">+</div>","","null","fixation","2021-06-20 17:14:22.281","","","","",""
"","mars-trial","80","278173","0.0-10.0-1.33","582","
","
","
","
","
","575","<img style='border: 4px solid darkgrey;' src='img/tf1_34_M_ss3.jpeg'></img>","2","","exp","","1","<img src='img/tf1_34_T1_ss3_md.jpeg'></img>","0","false",""
"","html-keyboard-response","81","278674","0.0-10.0-0.34","582","
","
","
","
","
","null","<div style=""font-size:60px;"">+</div>","","null","fixation","2021-06-20 17:14:23.962","","","","",""
"","mars-trial","82","279516","0.0-10.0-1.34","582","
","
","
","
","
","238","<img style='border: 4px solid darkgrey;' src='img/tf1_35_M_ss1.jpeg'></img>","3","","exp","","1","<img src='img/tf1_35_T1_ss1_md.jpeg'></img>","0","false",""
"","html-keyboard-response","83","280018","0.0-10.0-0.35","582","
","
","
","
","
","null","<div style=""font-size:60px;"">+</div>","","null","fixation","2021-06-20 17:14:25.305","","","","",""
"","mars-trial","84","283836","0.0-10.0-1.35","582","
","
","
","
","
","3214","<img style='border: 4px solid darkgrey;' src='img/tf1_36_M_ss2.jpeg'></img>","2","","exp","","3","<img src='img/tf1_36_T1_ss2_md.jpeg'></img>","0","false",""
"","html-keyboard-response","85","284337","0.0-10.0-0.36","582","
","
","
","
","
","null","<div style=""font-size:60px;"">+</div>","","null","fixation","2021-06-20 17:14:29.624","","","","",""
"","mars-trial","86","287699","0.0-10.0-1.36","582","
","
","
","
","
","2761","<img style='border: 4px solid darkgrey;' src='img/tf1_37_M_ss3.jpeg'></img>","1","","exp","","3","<img src='img/tf1_37_T1_ss3_md.jpeg'></img>","0","false",""
"","html-keyboard-response","87","288201","0.0-10.0-0.37","582","
","
","
","
","
","null","<div style=""font-size:60px;"">+</div>","","null","fixation","2021-06-20 17:14:33.488","","","","",""
"","mars-trial","88","292564","0.0-10.0-1.37","582","
","
","
","
","
","3760","<img style='border: 4px solid darkgrey;' src='img/tf1_38_M_ss1.jpeg'></img>","0","","exp","","0","<img src='img/tf1_38_T1_ss1_md.jpeg'></img>","0","true",""
"","html-keyboard-response","89","293065","0.0-10.0-0.38","582","
","
","
","
","
","null","<div style=""font-size:60px;"">+</div>","","null","fixation","2021-06-20 17:14:38.353","","","","",""
"","mars-trial","90","295669","0.0-10.0-1.38","582","
","
","
","
","
","1999","<img style='border: 4px solid darkgrey;' src='img/tf1_39_M_ss2.jpeg'></img>","2","","exp","","3","<img src='img/tf1_39_T1_ss2_md.jpeg'></img>","0","false",""
"","html-keyboard-response","91","296170","0.0-10.0-0.39","582","
","
","
","
","
","null","<div style=""font-size:60px;"">+</div>","","null","fixation","2021-06-20 17:14:41.457","","","","",""
"","mars-trial","92","298852","0.0-10.0-1.39","582","
","
","
","
","
","2078","<img style='border: 4px solid darkgrey;' src='img/tf1_40_M_ss3.jpeg'></img>","3","","exp","","3","<img src='img/tf1_40_T1_ss3_md.jpeg'></img>","0","false",""
"","html-keyboard-response","93","299354","0.0-10.0-0.40","582","
","
","
","
","
","null","<div style=""font-size:60px;"">+</div>","","null","fixation","2021-06-20 17:14:44.641","","","","",""
"","mars-trial","94","302339","0.0-10.0-1.40","582","
","
","
","
","
","2382","<img style='border: 4px solid darkgrey;' src='img/tf1_41_M_ss1.jpeg'></img>","1","","exp","","0","<img src='img/tf1_41_T1_ss1_md.jpeg'></img>","0","true",""
"","html-keyboard-response","95","302841","0.0-10.0-0.41","582","
","
","
","
","
","null","<div style=""font-size:60px;"">+</div>","","null","fixation","2021-06-20 17:14:48.128","","","","",""
"","mars-trial","96","304333","0.0-10.0-1.41","582","
","
","
","
","
","887","<img style='border: 4px solid darkgrey;' src='img/tf1_42_M_ss2.jpeg'></img>","1","","exp","","2","<img src='img/tf1_42_T1_ss2_md.jpeg'></img>","0","false",""
"","html-keyboard-response","97","304834","0.0-10.0-0.42","582","
","
","
","
","
","null","<div style=""font-size:60px;"">+</div>","","null","fixation","2021-06-20 17:14:50.121","","","","",""
"","mars-trial","98","307996","0.0-10.0-1.42","582","
","
","
","
","
","2558.999999999942","<img style='border: 4px solid darkgrey;' src='img/tf1_43_M_ss3.jpeg'></img>","3","","exp","","3","<img src='img/tf1_43_T1_ss3_md.jpeg'></img>","0","false",""
"","html-keyboard-response","99","308498","0.0-10.0-0.43","582","
","
","
","
","
","null","<div style=""font-size:60px;"">+</div>","","null","fixation","2021-06-20 17:14:53.785","","","","",""
"","mars-trial","100","311844","0.0-10.0-1.43","582","
","
","
","
","
","2743","<img style='border: 4px solid darkgrey;' src='img/tf1_44_M_ss1.jpeg'></img>","0","","exp","","1","<img src='img/tf1_44_T1_ss1_md.jpeg'></img>","0","false",""
"","html-keyboard-response","101","312346","0.0-10.0-0.44","582","
","
","
","
","
","null","<div style=""font-size:60px;"">+</div>","","null","fixation","2021-06-20 17:14:57.633","","","","",""
"","mars-trial","102","317964","0.0-10.0-1.44","582","
","
","
","
","
","5014","<img style='border: 4px solid darkgrey;' src='img/tf1_45_M_ss2.jpeg'></img>","0","","exp","","2","<img src='img/tf1_45_T1_ss2_md.jpeg'></img>","0","false",""
"","html-keyboard-response","103","318465","0.0-10.0-0.45","582","
","
","
","
","
","null","<div style=""font-size:60px;"">+</div>","","null","fixation","2021-06-20 17:15:03.752","","","","",""
"","mars-trial","104","330667","0.0-10.0-1.45","582","
","
","
","
","
","11599","<img style='border: 4px solid darkgrey;' src='img/tf1_46_M_ss3.jpeg'></img>","0","","exp","","3","<img src='img/tf1_46_T1_ss3_md.jpeg'></img>","0","false",""
"","html-keyboard-response","105","331169","0.0-10.0-0.46","582","
","
","
","
","
","null","<div style=""font-size:60px;"">+</div>","","null","fixation","2021-06-20 17:15:16.456","","","","",""
"","mars-trial","106","333044","0.0-10.0-1.46","582","
","
","
","
","
","1271","<img style='border: 4px solid darkgrey;' src='img/tf1_47_M_ss1.jpeg'></img>","3","","exp","","0","<img src='img/tf1_47_T1_ss1_md.jpeg'></img>","0","true",""
"","html-keyboard-response","107","333546","0.0-10.0-0.47","582","
","
","
","
","
","null","<div style=""font-size:60px;"">+</div>","","null","fixation","2021-06-20 17:15:18.833","","","","",""
"","mars-trial","108","337379","0.0-10.0-1.47","582","
","
","
","
","
","3230","<img style='border: 4px solid darkgrey;' src='img/tf1_48_M_ss2.jpeg'></img>","3","","exp","","2","<img src='img/tf1_48_T1_ss2_md.jpeg'></img>","0","false",""
"","html-keyboard-response","109","337881","0.0-10.0-0.48","582","
","
","
","
","
","null","<div style=""font-size:60px;"">+</div>","","null","fixation","2021-06-20 17:15:23.168","","","","",""
"","mars-trial","110","344820","0.0-10.0-1.48","582","
","
","
","
","
","6336","<img style='border: 4px solid darkgrey;' src='img/tf1_49_M_ss3.jpeg'></img>","1","","exp","","0","<img src='img/tf1_49_T1_ss3_md.jpeg'></img>","0","true",""
"","html-keyboard-response","111","345322","0.0-10.0-0.49","582","
","
","
","
","
","null","<div style=""font-size:60px;"">+</div>","","null","fixation","2021-06-20 17:15:30.609","","","","",""
"","mars-trial","112","354620","0.0-10.0-1.49","582","
","
","
","
","
","8694.999999999942","<img style='border: 4px solid darkgrey;' src='img/tf1_50_M_ss1.jpeg'></img>","1","","exp","","0","<img src='img/tf1_50_T1_ss1_md.jpeg'></img>","0","true",""
"","html-keyboard-response","113","355121","0.0-10.0-0.50","582","
","
","
","
","
","null","<div style=""font-size:60px;"">+</div>","","null","fixation","2021-06-20 17:15:40.408","","","","",""
"","mars-trial","114","356676","0.0-10.0-1.50","582","
","
","
","
","
","951","<img style='border: 4px solid darkgrey;' src='img/tf1_51_M_ss2.jpeg'></img>","1","","exp","","2","<img src='img/tf1_51_T1_ss2_md.jpeg'></img>","0","false",""
"","html-keyboard-response","115","357178","0.0-10.0-0.51","582","
","
","
","
","
","null","<div style=""font-size:60px;"">+</div>","","null","fixation","2021-06-20 17:15:42.465","","","","",""
"","mars-trial","116","358700","0.0-10.0-1.51","582","
","
","
","
","
","918","<img style='border: 4px solid darkgrey;' src='img/tf1_52_M_ss3.jpeg'></img>","2","","exp","","1","<img src='img/tf1_52_T1_ss3_md.jpeg'></img>","0","false",""
"","html-keyboard-response","117","359202","0.0-10.0-0.52","582","
","
","
","
","
","null","<div style=""font-size:60px;"">+</div>","","null","fixation","2021-06-20 17:15:44.489","","","","",""
"","mars-trial","118","360812","0.0-10.0-1.52","582","
","
","
","
","
","1008.0000000000582","<img style='border: 4px solid darkgrey;' src='img/tf1_53_M_ss1.jpeg'></img>","0","","exp","","1","<img src='img/tf1_53_T1_ss1_md.jpeg'></img>","0","false",""
"","html-keyboard-response","119","361314","0.0-10.0-0.53","582","
","
","
","
","
","null","<div style=""font-size:60px;"">+</div>","","null","fixation","2021-06-20 17:15:46.601","","","","",""
"","mars-trial","120","363308","0.0-10.0-1.53","582","
","
","
","
","
","1390","<img style='border: 4px solid darkgrey;' src='img/tf1_54_M_ss2.jpeg'></img>","3","","exp","","1","<img src='img/tf1_54_T1_ss2_md.jpeg'></img>","0","false",""
"","html-keyboard-response","121","363810","0.0-10.0-0.54","582","
","
","
","
","
","null","<div style=""font-size:60px;"">+</div>","","null","fixation","2021-06-20 17:15:49.097","","","","",""
"","mars-trial","122","366340","0.0-10.0-1.54","582","
","
","
","
","
","1926","<img style='border: 4px solid darkgrey;' src='img/tf1_55_M_ss3.jpeg'></img>","1","","exp","","1","<img src='img/tf1_55_T1_ss3_md.jpeg'></img>","0","false",""
"","html-keyboard-response","123","366842","0.0-10.0-0.55","582","
","
","
","
","
","null","<div style=""font-size:60px;"">+</div>","","null","fixation","2021-06-20 17:15:52.129","","","","",""
"","mars-trial","124","373700","0.0-10.0-1.55","582","
","
","
","
","
","6255","<img style='border: 4px solid darkgrey;' src='img/tf1_56_M_ss1.jpeg'></img>","2","","exp","","0","<img src='img/tf1_56_T1_ss1_md.jpeg'></img>","0","true",""
"","html-keyboard-response","125","374202","0.0-10.0-0.56","582","
","
","
","
","
","null","<div style=""font-size:60px;"">+</div>","","null","fixation","2021-06-20 17:15:59.489","","","","",""
"","mars-trial","126","382259","0.0-10.0-1.56","582","
","
","
","
","
","7455","<img style='border: 4px solid darkgrey;' src='img/tf1_57_M_ss2.jpeg'></img>","3","","exp","","0","<img src='img/tf1_57_T1_ss2_md.jpeg'></img>","0","true",""
"","html-keyboard-response","127","382761","0.0-10.0-0.57","582","
","
","
","
","
","null","<div style=""font-size:60px;"">+</div>","","null","fixation","2021-06-20 17:16:08.048","","","","",""
"","mars-trial","128","390859","0.0-10.0-1.57","582","
","
","
","
","
","7495.000000000058","<img style='border: 4px solid darkgrey;' src='img/tf1_58_M_ss3.jpeg'></img>","2","","exp","","1","<img src='img/tf1_58_T1_ss3_md.jpeg'></img>","0","false",""
"","html-keyboard-response","129","391361","0.0-10.0-0.58","582","
","
","
","
","
","null","<div style=""font-size:60px;"">+</div>","","null","fixation","2021-06-20 17:16:16.648","","","","",""
"","mars-trial","130","392684","0.0-10.0-1.58","582","
","
","
","
","
","719","<img style='border: 4px solid darkgrey;' src='img/tf1_59_M_ss1.jpeg'></img>","2","","exp","","1","<img src='img/tf1_59_T1_ss1_md.jpeg'></img>","0","false",""
"","html-keyboard-response","131","393186","0.0-10.0-0.59","582","
","
","
","
","
","null","<div style=""font-size:60px;"">+</div>","","null","fixation","2021-06-20 17:16:18.473","","","","",""
"","mars-trial","132","394004","0.0-10.0-1.59","582","
","
","
","
","
","214","<img style='border: 4px solid darkgrey;' src='img/tf1_60_M_ss2.jpeg'></img>","3","","exp","","0","<img src='img/tf1_60_T1_ss2_md.jpeg'></img>","0","true",""
"","html-keyboard-response","133","394505","0.0-10.0-0.60","582","
","
","
","
","
","null","<div style=""font-size:60px;"">+</div>","","null","fixation","2021-06-20 17:16:19.792","","","","",""
"","mars-trial","134","395892","0.0-10.0-1.60","582","
","
","
","
","
","783","<img style='border: 4px solid darkgrey;' src='img/tf1_61_M_ss3.jpeg'></img>","3","","exp","","1","<img src='img/tf1_61_T1_ss3_md.jpeg'></img>","0","false",""
"","html-keyboard-response","135","396394","0.0-10.0-0.61","582","
","
","
","
","
","null","<div style=""font-size:60px;"">+</div>","","null","fixation","2021-06-20 17:16:21.681","","","","",""
"","mars-trial","136","397652","0.0-10.0-1.61","582","
","
","
","
","
","654.9999999999418","<img style='border: 4px solid darkgrey;' src='img/tf1_62_M_ss1.jpeg'></img>","1","","exp","","3","<img src='img/tf1_62_T1_ss1_md.jpeg'></img>","0","false",""
"","html-keyboard-response","137","398154","0.0-10.0-0.62","582","
","
","
","
","
","null","<div style=""font-size:60px;"">+</div>","","null","fixation","2021-06-20 17:16:23.442","","","","",""
"","mars-trial","138","399940","0.0-10.0-1.62","582","
","
","
","
","
","1182","<img style='border: 4px solid darkgrey;' src='img/tf1_63_M_ss2.jpeg'></img>","2","","exp","","3","<img src='img/tf1_63_T1_ss2_md.jpeg'></img>","0","false",""
"","html-keyboard-response","139","400442","0.0-10.0-0.63","582","
","
","
","
","
","null","<div style=""font-size:60px;"">+</div>","","null","fixation","2021-06-20 17:16:25.729","","","","",""
"","mars-trial","140","401988","0.0-10.0-1.63","582","
","
","
","
","
","939","<img style='border: 4px solid darkgrey;' src='img/tf1_64_M_ss3.jpeg'></img>","2","","exp","","0","<img src='img/tf1_64_T1_ss3_md.jpeg'></img>","0","true",""
"","html-keyboard-response","141","402490","0.0-10.0-0.64","582","
","
","
","
","
","null","<div style=""font-size:60px;"">+</div>","","null","fixation","2021-06-20 17:16:27.777","","","","",""
"","mars-trial","142","403468","0.0-10.0-1.64","582","
","
","
","
","
","376.0000000000582","<img style='border: 4px solid darkgrey;' src='img/tf1_65_M_ss1.jpeg'></img>","2","","exp","","0","<img src='img/tf1_65_T1_ss1_md.jpeg'></img>","0","true",""
"","html-keyboard-response","143","403970","0.0-10.0-0.65","582","
","
","
","
","
","null","<div style=""font-size:60px;"">+</div>","","null","fixation","2021-06-20 17:16:29.257","","","","",""
"","mars-trial","144","405492","0.0-10.0-1.65","582","
","
","
","
","
","917.9999999999418","<img style='border: 4px solid darkgrey;' src='img/tf1_66_M_ss2.jpeg'></img>","2","","exp","","0","<img src='img/tf1_66_T1_ss2_md.jpeg'></img>","0","true",""
"","html-keyboard-response","145","405994","0.0-10.0-0.66","582","
","
","
","
","
","null","<div style=""font-size:60px;"">+</div>","","null","fixation","2021-06-20 17:16:31.281","","","","",""
"","mars-trial","146","407429","0.0-10.0-1.66","582","
","
","
","
","
","829.9999999999418","<img style='border: 4px solid darkgrey;' src='img/tf1_67_M_ss3.jpeg'></img>","2","","exp","","0","<img src='img/tf1_67_T1_ss3_md.jpeg'></img>","0","true",""
"","html-keyboard-response","147","407930","0.0-10.0-0.67","582","
","
","
","
","
","null","<div style=""font-size:60px;"">+</div>","","null","fixation","2021-06-20 17:16:33.218","","","","",""
"","mars-trial","148","410268","0.0-10.0-1.67","582","
","
","
","
","
","1734","<img style='border: 4px solid darkgrey;' src='img/tf1_68_M_ss1.jpeg'></img>","0","","exp","","0","<img src='img/tf1_68_T1_ss1_md.jpeg'></img>","0","true",""
"","html-keyboard-response","149","410771","0.0-10.0-0.68","582","
","
","
","
","
","null","<div style=""font-size:60px;"">+</div>","","null","fixation","2021-06-20 17:16:36.058","","","","",""
"","mars-trial","150","412253","0.0-10.0-1.68","582","
","
","
","
","
","878","<img style='border: 4px solid darkgrey;' src='img/tf1_69_M_ss2.jpeg'></img>","0","","exp","","0","<img src='img/tf1_69_T1_ss2_md.jpeg'></img>","0","true",""
"","html-keyboard-response","151","412754","0.0-10.0-0.69","582","
","
","
","
","
","null","<div style=""font-size:60px;"">+</div>","","null","fixation","2021-06-20 17:16:38.041","","","","",""
"","mars-trial","152","414292","0.0-10.0-1.69","582","
","
","
","
","
","934","<img style='border: 4px solid darkgrey;' src='img/tf1_70_M_ss3.jpeg'></img>","0","","exp","","3","<img src='img/tf1_70_T1_ss3_md.jpeg'></img>","0","false",""
"","html-keyboard-response","153","414793","0.0-10.0-0.70","582","
","
","
","
","
","null","<div style=""font-size:60px;"">+</div>","","null","fixation","2021-06-20 17:16:40.080","","","","",""
"","mars-trial","154","415644","0.0-10.0-1.70","582","
","
","
","
","
","247.9999999999418","<img style='border: 4px solid darkgrey;' src='img/tf1_71_M_ss1.jpeg'></img>","2","","exp","","3","<img src='img/tf1_71_T1_ss1_md.jpeg'></img>","0","false",""
"","html-keyboard-response","155","416145","0.0-10.0-0.71","582","
","
","
","
","
","null","<div style=""font-size:60px;"">+</div>","","null","fixation","2021-06-20 17:16:41.433","","","","",""
"","mars-trial","156","417420","0.0-10.0-1.71","582","
","
","
","
","
","671.0000000000582","<img style='border: 4px solid darkgrey;' src='img/tf1_72_M_ss2.jpeg'></img>","1","","exp","","0","<img src='img/tf1_72_T1_ss2_md.jpeg'></img>","0","true",""
"","html-keyboard-response","157","417922","0.0-10.0-0.72","582","
","
","
","
","
","null","<div style=""font-size:60px;"">+</div>","","null","fixation","2021-06-20 17:16:43.209","","","","",""
"","mars-trial","158","419236","0.0-10.0-1.72","582","
","
","
","
","
","710","<img style='border: 4px solid darkgrey;' src='img/tf1_73_M_ss3.jpeg'></img>","1","","exp","","2","<img src='img/tf1_73_T1_ss3_md.jpeg'></img>","0","false",""
"","html-keyboard-response","159","419738","0.0-10.0-0.73","582","
","
","
","
","
","null","<div style=""font-size:60px;"">+</div>","","null","fixation","2021-06-20 17:16:45.025","","","","",""
"","mars-trial","160","421916","0.0-10.0-1.73","582","
","
","
","
","
","1574","<img style='border: 4px solid darkgrey;' src='img/tf1_74_M_ss1.jpeg'></img>","2","","exp","","1","<img src='img/tf1_74_T1_ss1_md.jpeg'></img>","0","false",""
"","html-keyboard-response","161","422418","0.0-10.0-0.74","582","
","
","
","
","
","null","<div style=""font-size:60px;"">+</div>","","null","fixation","2021-06-20 17:16:47.705","","","","",""
"","mars-trial","162","424588","0.0-10.0-1.74","582","
","
","
","
","
","1566","<img style='border: 4px solid darkgrey;' src='img/tf1_75_M_ss2.jpeg'></img>","0","","exp","","3","<img src='img/tf1_75_T1_ss2_md.jpeg'></img>","0","false",""
"","html-keyboard-response","163","425090","0.0-10.0-0.75","582","
","
","
","
","
","null","<div style=""font-size:60px;"">+</div>","","null","fixation","2021-06-20 17:16:50.377","","","","",""
"","mars-trial","164","426812","0.0-10.0-1.75","582","
","
","
","
","
","1118","<img style='border: 4px solid darkgrey;' src='img/tf1_76_M_ss3.jpeg'></img>","0","","exp","","1","<img src='img/tf1_76_T1_ss3_md.jpeg'></img>","0","false",""
"","html-keyboard-response","165","427316","0.0-10.0-0.76","582","
","
","
","
","
","null","<div style=""font-size:60px;"">+</div>","","null","fixation","2021-06-20 17:16:52.603","","","","",""
"","mars-trial","166","428685","0.0-10.0-1.76","582","
","
","
","
","
","763.9999999999418","<img style='border: 4px solid darkgrey;' src='img/tf1_77_M_ss1.jpeg'></img>","0","","exp","","0","<img src='img/tf1_77_T1_ss1_md.jpeg'></img>","0","true",""
"","html-keyboard-response","167","429187","0.0-10.0-0.77","582","
","
","
","
","
","null","<div style=""font-size:60px;"">+</div>","","null","fixation","2021-06-20 17:16:54.474","","","","",""
"","mars-trial","168","430644","0.0-10.0-1.77","582","
","
","
","
","
","854","<img style='border: 4px solid darkgrey;' src='img/tf1_78_M_ss2.jpeg'></img>","0","","exp","","3","<img src='img/tf1_78_T1_ss2_md.jpeg'></img>","0","false",""
"","html-keyboard-response","169","431146","0.0-10.0-0.78","582","
","
","
","
","
","null","<div style=""font-size:60px;"">+</div>","","null","fixation","2021-06-20 17:16:56.433","","","","",""
"","mars-trial","170","432244","0.0-10.0-1.78","582","
","
","
","
","
","495","<img style='border: 4px solid darkgrey;' src='img/tf1_79_M_ss3.jpeg'></img>","1","","exp","","2","<img src='img/tf1_79_T1_ss3_md.jpeg'></img>","0","false",""
"","html-keyboard-response","171","432745","0.0-10.0-0.79","582","
","
","
","
","
","null","<div style=""font-size:60px;"">+</div>","","null","fixation","2021-06-20 17:16:58.032","","","","",""
"","mars-trial","172","433604","0.0-10.0-1.79","582","
","
","
","
","
","255","<img style='border: 4px solid darkgrey;' src='img/tf1_80_M_ss1.jpeg'></img>","2","","exp","","3","<img src='img/tf1_80_T1_ss1_md.jpeg'></img>","0","false",""
"","audio-button-response","173","437455","0.0-11.0","582","
","
","
","
","
","3849.000000000058","audio/mars_instructions_slide5.wav","0","","","","","","","",""
