"success","trial_type","trial_index","time_elapsed","internal_node_id","subject_id","interactions","blur_events","focus_events","fullscreenenter_events","fullscreenexit_events","rt","stimulus","button_pressed","key_press","part","timestamp","unshuffled_button","correct_response","correct_button","correct","value"
"true","fullscreen","0","3092","0.0-0.0","627","""event"",""trial"",""time""
""fullscreenenter"",""0"",""2091""
","
","
","""event"",""trial"",""time""
""fullscreenenter"",""0"",""2091""
","
","","","","","","","","","","",""
"","pavlovia","1","3094","0.0-1.0","627","""event"",""trial"",""time""
""fullscreenenter"",""0"",""2091""
","
","
","""event"",""trial"",""time""
""fullscreenenter"",""0"",""2091""
","
","","","","","","","","","","",""
"","html-button-response","2","4157","0.0-2.0","627","""event"",""trial"",""time""
""fullscreenenter"",""0"",""2091""
","
","
","""event"",""trial"",""time""
""fullscreenenter"",""0"",""2091""
","
","1062.199999999255","<p>Welcome! Press START to begin.</p><br>","0","","","","","","","",""
"","audio-button-response","3","18017","0.0-3.0","627","""event"",""trial"",""time""
""fullscreenenter"",""0"",""2091""
","
","
","""event"",""trial"",""time""
""fullscreenenter"",""0"",""2091""
","
","13859.300000000745","audio/mars_instructions_slide2.wav","0","","","","","","","",""
"","audio-button-response","4","23290","0.0-4.0","627","""event"",""trial"",""time""
""fullscreenenter"",""0"",""2091""
","
","
","""event"",""trial"",""time""
""fullscreenenter"",""0"",""2091""
","
","5271.199999999255","audio/mars_instructions_slide3.wav","0","","","","","","","",""
"","html-keyboard-response","5","23800","0.0-5.0-0.0","627","""event"",""trial"",""time""
""fullscreenenter"",""0"",""2091""
","
","
","""event"",""trial"",""time""
""fullscreenenter"",""0"",""2091""
","
","null","<div style=""font-size:60px;"">+</div>","","null","fixation","2021-07-10 03:34:48.189","","","","",""
"","mars-trial","6","31764","0.0-5.0-1.0","627","""event"",""trial"",""time""
""fullscreenenter"",""0"",""2091""
","
","
","""event"",""trial"",""time""
""fullscreenenter"",""0"",""2091""
","
","5853.5","<img style='border: 4px solid darkgrey;' src='practice/pt1_M1.png'></img>","3","","practice","","0","<img src='practice/pt1_T1.png'></img>","0","true",""
"","html-keyboard-response","7","32267","0.0-6.0-0.0","627","""event"",""trial"",""time""
""fullscreenenter"",""0"",""2091""
","
","
","""event"",""trial"",""time""
""fullscreenenter"",""0"",""2091""
","
","null","<div style=""font-size:60px;"">+</div>","","null","fixation","2021-07-10 03:34:56.656","","","","",""
"","mars-trial","8","38061","0.0-6.0-1.0","627","""event"",""trial"",""time""
""fullscreenenter"",""0"",""2091""
","
","
","""event"",""trial"",""time""
""fullscreenenter"",""0"",""2091""
","
","3684.300000000745","<img style='border: 4px solid darkgrey;' src='practice/pt2_M1.png'></img>","0","","practice","","0","<img src='practice/pt2_T1.png'></img>","0","true",""
"","html-keyboard-response","9","38562","0.0-7.0-0.0","627","""event"",""trial"",""time""
""fullscreenenter"",""0"",""2091""
","
","
","""event"",""trial"",""time""
""fullscreenenter"",""0"",""2091""
","
","null","<div style=""font-size:60px;"">+</div>","","null","fixation","2021-07-10 03:35:02.951","","","","",""
"","mars-trial","10","41921","0.0-7.0-1.0","627","""event"",""trial"",""time""
""fullscreenenter"",""0"",""2091""
","
","
","""event"",""trial"",""time""
""fullscreenenter"",""0"",""2091""
","
","1241.300000000745","<img style='border: 4px solid darkgrey;' src='practice/pt3_M1.png'></img>","1","","practice","","0","<img src='practice/pt3_T1.png'></img>","0","true",""
"","audio-button-response","11","44354","0.0-8.0","627","""event"",""trial"",""time""
""fullscreenenter"",""0"",""2091""
","
","
","""event"",""trial"",""time""
""fullscreenenter"",""0"",""2091""
","
","2431.60000000149","audio/mars_instructions_slide4.wav","0","","","","","","","",""
"","call-function","12","44355","0.0-9.0","627","""event"",""trial"",""time""
""fullscreenenter"",""0"",""2091""
","
","
","""event"",""trial"",""time""
""fullscreenenter"",""0"",""2091""
","
","","","","","","","","","","",""
"","html-keyboard-response","13","44861","0.0-10.0-0.0","627","""event"",""trial"",""time""
""fullscreenenter"",""0"",""2091""
","
","
","""event"",""trial"",""time""
""fullscreenenter"",""0"",""2091""
","
","null","<div style=""font-size:60px;"">+</div>","","null","fixation","2021-07-10 03:35:09.250","","","","",""
"","mars-trial","14","47354","0.0-10.0-1.0","627","""event"",""trial"",""time""
""fullscreenenter"",""0"",""2091""
","
","
","""event"",""trial"",""time""
""fullscreenenter"",""0"",""2091""
","
","1871.5","<img style='border: 4px solid darkgrey;' src='img/tf1_1_M_ss3.jpeg'></img>","3","","exp","","2","<img src='img/tf1_1_T1_ss3_md.jpeg'></img>","0","false",""
"","html-keyboard-response","15","47855","0.0-10.0-0.1","627","""event"",""trial"",""time""
""fullscreenenter"",""0"",""2091""
","
","
","""event"",""trial"",""time""
""fullscreenenter"",""0"",""2091""
","
","null","<div style=""font-size:60px;"">+</div>","","null","fixation","2021-07-10 03:35:12.245","","","","",""
"","mars-trial","16","50178","0.0-10.0-1.1","627","""event"",""trial"",""time""
""fullscreenenter"",""0"",""2091""
","
","
","""event"",""trial"",""time""
""fullscreenenter"",""0"",""2091""
","
","1718.199999999255","<img style='border: 4px solid darkgrey;' src='img/tf1_2_M_ss1.jpeg'></img>","1","","exp","","0","<img src='img/tf1_2_T1_ss1_md.jpeg'></img>","0","true",""
"","html-keyboard-response","17","50695","0.0-10.0-0.2","627","""event"",""trial"",""time""
""fullscreenenter"",""0"",""2091""
","
","
","""event"",""trial"",""time""
""fullscreenenter"",""0"",""2091""
","
","null","<div style=""font-size:60px;"">+</div>","","null","fixation","2021-07-10 03:35:15.084","","","","",""
"","mars-trial","18","52539","0.0-10.0-1.2","627","""event"",""trial"",""time""
""fullscreenenter"",""0"",""2091""
","
","
","""event"",""trial"",""time""
""fullscreenenter"",""0"",""2091""
","
","1239.5","<img style='border: 4px solid darkgrey;' src='img/tf1_3_M_ss2.jpeg'></img>","0","","exp","","0","<img src='img/tf1_3_T1_ss2_md.jpeg'></img>","0","true",""
"","html-keyboard-response","19","53057","0.0-10.0-0.3","627","""event"",""trial"",""time""
""fullscreenenter"",""0"",""2091""
","
","
","""event"",""trial"",""time""
""fullscreenenter"",""0"",""2091""
","
","null","<div style=""font-size:60px;"">+</div>","","null","fixation","2021-07-10 03:35:17.446","","","","",""
"","mars-trial","20","56626","0.0-10.0-1.3","627","""event"",""trial"",""time""
""fullscreenenter"",""0"",""2091""
","
","
","""event"",""trial"",""time""
""fullscreenenter"",""0"",""2091""
","
","2953.699999999255","<img style='border: 4px solid darkgrey;' src='img/tf1_4_M_ss3.jpeg'></img>","3","","exp","","0","<img src='img/tf1_4_T1_ss3_md.jpeg'></img>","0","true",""
"","html-keyboard-response","21","57127","0.0-10.0-0.4","627","""event"",""trial"",""time""
""fullscreenenter"",""0"",""2091""
","
","
","""event"",""trial"",""time""
""fullscreenenter"",""0"",""2091""
","
","null","<div style=""font-size:60px;"">+</div>","","null","fixation","2021-07-10 03:35:21.516","","","","",""
"","mars-trial","22","58989","0.0-10.0-1.4","627","""event"",""trial"",""time""
""fullscreenenter"",""0"",""2091""
","
","
","""event"",""trial"",""time""
""fullscreenenter"",""0"",""2091""
","
","1257.0999999977648","<img style='border: 4px solid darkgrey;' src='img/tf1_5_M_ss1.jpeg'></img>","1","","exp","","0","<img src='img/tf1_5_T1_ss1_md.jpeg'></img>","0","true",""
"","html-keyboard-response","23","59490","0.0-10.0-0.5","627","""event"",""trial"",""time""
""fullscreenenter"",""0"",""2091""
","
","
","""event"",""trial"",""time""
""fullscreenenter"",""0"",""2091""
","
","null","<div style=""font-size:60px;"">+</div>","","null","fixation","2021-07-10 03:35:23.879","","","","",""
"","mars-trial","24","67587","0.0-10.0-1.5","627","""event"",""trial"",""time""
""fullscreenenter"",""0"",""2091""
","
","
","""event"",""trial"",""time""
""fullscreenenter"",""0"",""2091""
","
","7493.39999999851","<img style='border: 4px solid darkgrey;' src='img/tf1_6_M_ss2.jpeg'></img>","1","","exp","","1","<img src='img/tf1_6_T1_ss2_md.jpeg'></img>","0","false",""
"","html-keyboard-response","25","68089","0.0-10.0-0.6","627","""event"",""trial"",""time""
""fullscreenenter"",""0"",""2091""
","
","
","""event"",""trial"",""time""
""fullscreenenter"",""0"",""2091""
","
","null","<div style=""font-size:60px;"">+</div>","","null","fixation","2021-07-10 03:35:32.478","","","","",""
"","mars-trial","26","73129","0.0-10.0-1.6","627","""event"",""trial"",""time""
""fullscreenenter"",""0"",""2091""
","
","
","""event"",""trial"",""time""
""fullscreenenter"",""0"",""2091""
","
","4436.10000000149","<img style='border: 4px solid darkgrey;' src='img/tf1_7_M_ss3.jpeg'></img>","3","","exp","","0","<img src='img/tf1_7_T1_ss3_md.jpeg'></img>","0","true",""
"","html-keyboard-response","27","73631","0.0-10.0-0.7","627","""event"",""trial"",""time""
""fullscreenenter"",""0"",""2091""
","
","
","""event"",""trial"",""time""
""fullscreenenter"",""0"",""2091""
","
","null","<div style=""font-size:60px;"">+</div>","","null","fixation","2021-07-10 03:35:38.020","","","","",""
"","mars-trial","28","78993","0.0-10.0-1.7","627","""event"",""trial"",""time""
""fullscreenenter"",""0"",""2091""
","
","
","""event"",""trial"",""time""
""fullscreenenter"",""0"",""2091""
","
","4759.10000000149","<img style='border: 4px solid darkgrey;' src='img/tf1_8_M_ss1.jpeg'></img>","3","","exp","","0","<img src='img/tf1_8_T1_ss1_md.jpeg'></img>","0","true",""
"","html-keyboard-response","29","79495","0.0-10.0-0.8","627","""event"",""trial"",""time""
""fullscreenenter"",""0"",""2091""
","
","
","""event"",""trial"",""time""
""fullscreenenter"",""0"",""2091""
","
","null","<div style=""font-size:60px;"">+</div>","","null","fixation","2021-07-10 03:35:43.884","","","","",""
"","mars-trial","30","84930","0.0-10.0-1.8","627","""event"",""trial"",""time""
""fullscreenenter"",""0"",""2091""
","
","
","""event"",""trial"",""time""
""fullscreenenter"",""0"",""2091""
","
","4830.10000000149","<img style='border: 4px solid darkgrey;' src='img/tf1_9_M_ss2.jpeg'></img>","1","","exp","","0","<img src='img/tf1_9_T1_ss2_md.jpeg'></img>","0","true",""
"","html-keyboard-response","31","85431","0.0-10.0-0.9","627","""event"",""trial"",""time""
""fullscreenenter"",""0"",""2091""
","
","
","""event"",""trial"",""time""
""fullscreenenter"",""0"",""2091""
","
","null","<div style=""font-size:60px;"">+</div>","","null","fixation","2021-07-10 03:35:49.820","","","","",""
"","mars-trial","32","88886","0.0-10.0-1.9","627","""event"",""trial"",""time""
""fullscreenenter"",""0"",""2091""
","
","
","""event"",""trial"",""time""
""fullscreenenter"",""0"",""2091""
","
","2850","<img style='border: 4px solid darkgrey;' src='img/tf1_10_M_ss3.jpeg'></img>","3","","exp","","1","<img src='img/tf1_10_T1_ss3_md.jpeg'></img>","0","false",""
"","html-keyboard-response","33","89388","0.0-10.0-0.10","627","""event"",""trial"",""time""
""fullscreenenter"",""0"",""2091""
","
","
","""event"",""trial"",""time""
""fullscreenenter"",""0"",""2091""
","
","null","<div style=""font-size:60px;"">+</div>","","null","fixation","2021-07-10 03:35:53.777","","","","",""
"","mars-trial","34","91890","0.0-10.0-1.10","627","""event"",""trial"",""time""
""fullscreenenter"",""0"",""2091""
","
","
","""event"",""trial"",""time""
""fullscreenenter"",""0"",""2091""
","
","1896.1000000014901","<img style='border: 4px solid darkgrey;' src='img/tf1_11_M_ss1.jpeg'></img>","2","","exp","","2","<img src='img/tf1_11_T1_ss1_md.jpeg'></img>","0","false",""
"","html-keyboard-response","35","92392","0.0-10.0-0.11","627","""event"",""trial"",""time""
""fullscreenenter"",""0"",""2091""
","
","
","""event"",""trial"",""time""
""fullscreenenter"",""0"",""2091""
","
","null","<div style=""font-size:60px;"">+</div>","","null","fixation","2021-07-10 03:35:56.781","","","","",""
"","mars-trial","36","99266","0.0-10.0-1.11","627","""event"",""trial"",""time""
""fullscreenenter"",""0"",""2091""
","
","
","""event"",""trial"",""time""
""fullscreenenter"",""0"",""2091""
","
","6270.300000000745","<img style='border: 4px solid darkgrey;' src='img/tf1_12_M_ss2.jpeg'></img>","3","","exp","","1","<img src='img/tf1_12_T1_ss2_md.jpeg'></img>","0","false",""
"","html-keyboard-response","37","99767","0.0-10.0-0.12","627","""event"",""trial"",""time""
""fullscreenenter"",""0"",""2091""
","
","
","""event"",""trial"",""time""
""fullscreenenter"",""0"",""2091""
","
","null","<div style=""font-size:60px;"">+</div>","","null","fixation","2021-07-10 03:36:04.156","","","","",""
"","mars-trial","38","101729","0.0-10.0-1.12","627","""event"",""trial"",""time""
""fullscreenenter"",""0"",""2091""
","
","
","""event"",""trial"",""time""
""fullscreenenter"",""0"",""2091""
","
","1358.8999999985099","<img style='border: 4px solid darkgrey;' src='img/tf1_13_M_ss3.jpeg'></img>","2","","exp","","0","<img src='img/tf1_13_T1_ss3_md.jpeg'></img>","0","true",""
"","html-keyboard-response","39","102230","0.0-10.0-0.13","627","""event"",""trial"",""time""
""fullscreenenter"",""0"",""2091""
","
","
","""event"",""trial"",""time""
""fullscreenenter"",""0"",""2091""
","
","null","<div style=""font-size:60px;"">+</div>","","null","fixation","2021-07-10 03:36:06.619","","","","",""
"","mars-trial","40","110229","0.0-10.0-1.13","627","""event"",""trial"",""time""
""fullscreenenter"",""0"",""2091""
","
","
","""event"",""trial"",""time""
""fullscreenenter"",""0"",""2091""
","
","7395.70000000298","<img style='border: 4px solid darkgrey;' src='img/tf1_14_M_ss1.jpeg'></img>","1","","exp","","3","<img src='img/tf1_14_T1_ss1_md.jpeg'></img>","0","false",""
"","html-keyboard-response","41","110736","0.0-10.0-0.14","627","""event"",""trial"",""time""
""fullscreenenter"",""0"",""2091""
","
","
","""event"",""trial"",""time""
""fullscreenenter"",""0"",""2091""
","
","null","<div style=""font-size:60px;"">+</div>","","null","fixation","2021-07-10 03:36:15.125","","","","",""
"","mars-trial","42","120974","0.0-10.0-1.14","627","""event"",""trial"",""time""
""fullscreenenter"",""0"",""2091""
","
","
","""event"",""trial"",""time""
""fullscreenenter"",""0"",""2091""
","
","9633","<img style='border: 4px solid darkgrey;' src='img/tf1_15_M_ss2.jpeg'></img>","2","","exp","","1","<img src='img/tf1_15_T1_ss2_md.jpeg'></img>","0","false",""
"","html-keyboard-response","43","121476","0.0-10.0-0.15","627","""event"",""trial"",""time""
""fullscreenenter"",""0"",""2091""
","
","
","""event"",""trial"",""time""
""fullscreenenter"",""0"",""2091""
","
","null","<div style=""font-size:60px;"">+</div>","","null","fixation","2021-07-10 03:36:25.865","","","","",""
"","mars-trial","44","123884","0.0-10.0-1.15","627","""event"",""trial"",""time""
""fullscreenenter"",""0"",""2091""
","
","
","""event"",""trial"",""time""
""fullscreenenter"",""0"",""2091""
","
","1803.9000000022352","<img style='border: 4px solid darkgrey;' src='img/tf1_16_M_ss3.jpeg'></img>","1","","exp","","2","<img src='img/tf1_16_T1_ss3_md.jpeg'></img>","0","false",""
"","html-keyboard-response","45","124385","0.0-10.0-0.16","627","""event"",""trial"",""time""
""fullscreenenter"",""0"",""2091""
","
","
","""event"",""trial"",""time""
""fullscreenenter"",""0"",""2091""
","
","null","<div style=""font-size:60px;"">+</div>","","null","fixation","2021-07-10 03:36:28.774","","","","",""
"","mars-trial","46","125475","0.0-10.0-1.16","627","""event"",""trial"",""time""
""fullscreenenter"",""0"",""2091""
","
","
","""event"",""trial"",""time""
""fullscreenenter"",""0"",""2091""
","
","485.69999999925494","<img style='border: 4px solid darkgrey;' src='img/tf1_17_M_ss1.jpeg'></img>","2","","exp","","1","<img src='img/tf1_17_T1_ss1_md.jpeg'></img>","0","false",""
"","html-keyboard-response","47","125976","0.0-10.0-0.17","627","""event"",""trial"",""time""
""fullscreenenter"",""0"",""2091""
","
","
","""event"",""trial"",""time""
""fullscreenenter"",""0"",""2091""
","
","null","<div style=""font-size:60px;"">+</div>","","null","fixation","2021-07-10 03:36:30.365","","","","",""
"","mars-trial","48","127212","0.0-10.0-1.17","627","""event"",""trial"",""time""
""fullscreenenter"",""0"",""2091""
","
","
","""event"",""trial"",""time""
""fullscreenenter"",""0"",""2091""
","
","631.8000000007451","<img style='border: 4px solid darkgrey;' src='img/tf1_18_M_ss2.jpeg'></img>","1","","exp","","3","<img src='img/tf1_18_T1_ss2_md.jpeg'></img>","0","false",""
"","html-keyboard-response","49","127713","0.0-10.0-0.18","627","""event"",""trial"",""time""
""fullscreenenter"",""0"",""2091""
","
","
","""event"",""trial"",""time""
""fullscreenenter"",""0"",""2091""
","
","null","<div style=""font-size:60px;"">+</div>","","null","fixation","2021-07-10 03:36:32.102","","","","",""
"","mars-trial","50","130564","0.0-10.0-1.18","627","""event"",""trial"",""time""
""fullscreenenter"",""0"",""2091""
","
","
","""event"",""trial"",""time""
""fullscreenenter"",""0"",""2091""
","
","2247.60000000149","<img style='border: 4px solid darkgrey;' src='img/tf1_19_M_ss3.jpeg'></img>","2","","exp","","0","<img src='img/tf1_19_T1_ss3_md.jpeg'></img>","0","true",""
"","html-keyboard-response","51","131065","0.0-10.0-0.19","627","""event"",""trial"",""time""
""fullscreenenter"",""0"",""2091""
","
","
","""event"",""trial"",""time""
""fullscreenenter"",""0"",""2091""
","
","null","<div style=""font-size:60px;"">+</div>","","null","fixation","2021-07-10 03:36:35.454","","","","",""
"","mars-trial","52","132756","0.0-10.0-1.19","627","""event"",""trial"",""time""
""fullscreenenter"",""0"",""2091""
","
","
","""event"",""trial"",""time""
""fullscreenenter"",""0"",""2091""
","
","1087.300000000745","<img style='border: 4px solid darkgrey;' src='img/tf1_20_M_ss1.jpeg'></img>","2","","exp","","2","<img src='img/tf1_20_T1_ss1_md.jpeg'></img>","0","false",""
"","html-keyboard-response","53","133268","0.0-10.0-0.20","627","""event"",""trial"",""time""
""fullscreenenter"",""0"",""2091""
","
","
","""event"",""trial"",""time""
""fullscreenenter"",""0"",""2091""
","
","null","<div style=""font-size:60px;"">+</div>","","null","fixation","2021-07-10 03:36:37.657","","","","",""
"","mars-trial","54","135345","0.0-10.0-1.20","627","""event"",""trial"",""time""
""fullscreenenter"",""0"",""2091""
","
","
","""event"",""trial"",""time""
""fullscreenenter"",""0"",""2091""
","
","1474.300000000745","<img style='border: 4px solid darkgrey;' src='img/tf1_21_M_ss2.jpeg'></img>","0","","exp","","1","<img src='img/tf1_21_T1_ss2_md.jpeg'></img>","0","false",""
"","html-keyboard-response","55","135847","0.0-10.0-0.21","627","""event"",""trial"",""time""
""fullscreenenter"",""0"",""2091""
","
","
","""event"",""trial"",""time""
""fullscreenenter"",""0"",""2091""
","
","null","<div style=""font-size:60px;"">+</div>","","null","fixation","2021-07-10 03:36:40.236","","","","",""
"","mars-trial","56","139571","0.0-10.0-1.21","627","""event"",""trial"",""time""
""fullscreenenter"",""0"",""2091""
","
","
","""event"",""trial"",""time""
""fullscreenenter"",""0"",""2091""
","
","3121.199999999255","<img style='border: 4px solid darkgrey;' src='img/tf1_22_M_ss3.jpeg'></img>","0","","exp","","3","<img src='img/tf1_22_T1_ss3_md.jpeg'></img>","0","false",""
"","html-keyboard-response","57","140073","0.0-10.0-0.22","627","""event"",""trial"",""time""
""fullscreenenter"",""0"",""2091""
","
","
","""event"",""trial"",""time""
""fullscreenenter"",""0"",""2091""
","
","null","<div style=""font-size:60px;"">+</div>","","null","fixation","2021-07-10 03:36:44.463","","","","",""
"","mars-trial","58","141248","0.0-10.0-1.22","627","""event"",""trial"",""time""
""fullscreenenter"",""0"",""2091""
","
","
","""event"",""trial"",""time""
""fullscreenenter"",""0"",""2091""
","
","570.8000000007451","<img style='border: 4px solid darkgrey;' src='img/tf1_23_M_ss1.jpeg'></img>","1","","exp","","0","<img src='img/tf1_23_T1_ss1_md.jpeg'></img>","0","true",""
"","html-keyboard-response","59","141749","0.0-10.0-0.23","627","""event"",""trial"",""time""
""fullscreenenter"",""0"",""2091""
","
","
","""event"",""trial"",""time""
""fullscreenenter"",""0"",""2091""
","
","null","<div style=""font-size:60px;"">+</div>","","null","fixation","2021-07-10 03:36:46.138","","","","",""
"","mars-trial","60","144015","0.0-10.0-1.23","627","""event"",""trial"",""time""
""fullscreenenter"",""0"",""2091""
","
","
","""event"",""trial"",""time""
""fullscreenenter"",""0"",""2091""
","
","1662","<img style='border: 4px solid darkgrey;' src='img/tf1_24_M_ss2.jpeg'></img>","1","","exp","","3","<img src='img/tf1_24_T1_ss2_md.jpeg'></img>","0","false",""
"","html-keyboard-response","61","144517","0.0-10.0-0.24","627","""event"",""trial"",""time""
""fullscreenenter"",""0"",""2091""
","
","
","""event"",""trial"",""time""
""fullscreenenter"",""0"",""2091""
","
","null","<div style=""font-size:60px;"">+</div>","","null","fixation","2021-07-10 03:36:48.906","","","","",""
"","mars-trial","62","150759","0.0-10.0-1.24","627","""event"",""trial"",""time""
""fullscreenenter"",""0"",""2091""
","
","
","""event"",""trial"",""time""
""fullscreenenter"",""0"",""2091""
","
","5638.699999999255","<img style='border: 4px solid darkgrey;' src='img/tf1_25_M_ss3.jpeg'></img>","1","","exp","","2","<img src='img/tf1_25_T1_ss3_md.jpeg'></img>","0","false",""
"","html-keyboard-response","63","151262","0.0-10.0-0.25","627","""event"",""trial"",""time""
""fullscreenenter"",""0"",""2091""
","
","
","""event"",""trial"",""time""
""fullscreenenter"",""0"",""2091""
","
","null","<div style=""font-size:60px;"">+</div>","","null","fixation","2021-07-10 03:36:55.651","","","","",""
"","mars-trial","64","154281","0.0-10.0-1.25","627","""event"",""trial"",""time""
""fullscreenenter"",""0"",""2091""
","
","
","""event"",""trial"",""time""
""fullscreenenter"",""0"",""2091""
","
","2414.7000000029802","<img style='border: 4px solid darkgrey;' src='img/tf1_26_M_ss1.jpeg'></img>","2","","exp","","1","<img src='img/tf1_26_T1_ss1_md.jpeg'></img>","0","false",""
"","html-keyboard-response","65","154784","0.0-10.0-0.26","627","""event"",""trial"",""time""
""fullscreenenter"",""0"",""2091""
","
","
","""event"",""trial"",""time""
""fullscreenenter"",""0"",""2091""
","
","null","<div style=""font-size:60px;"">+</div>","","null","fixation","2021-07-10 03:36:59.173","","","","",""
"","mars-trial","66","156679","0.0-10.0-1.26","627","""event"",""trial"",""time""
""fullscreenenter"",""0"",""2091""
","
","
","""event"",""trial"",""time""
""fullscreenenter"",""0"",""2091""
","
","1291.699999999255","<img style='border: 4px solid darkgrey;' src='img/tf1_27_M_ss2.jpeg'></img>","1","","exp","","3","<img src='img/tf1_27_T1_ss2_md.jpeg'></img>","0","false",""
"","html-keyboard-response","67","157182","0.0-10.0-0.27","627","""event"",""trial"",""time""
""fullscreenenter"",""0"",""2091""
","
","
","""event"",""trial"",""time""
""fullscreenenter"",""0"",""2091""
","
","null","<div style=""font-size:60px;"">+</div>","","null","fixation","2021-07-10 03:37:01.571","","","","",""
"","mars-trial","68","159468","0.0-10.0-1.27","627","""event"",""trial"",""time""
""fullscreenenter"",""0"",""2091""
","
","
","""event"",""trial"",""time""
""fullscreenenter"",""0"",""2091""
","
","1682","<img style='border: 4px solid darkgrey;' src='img/tf1_28_M_ss3.jpeg'></img>","3","","exp","","2","<img src='img/tf1_28_T1_ss3_md.jpeg'></img>","0","false",""
"","html-keyboard-response","69","159970","0.0-10.0-0.28","627","""event"",""trial"",""time""
""fullscreenenter"",""0"",""2091""
","
","
","""event"",""trial"",""time""
""fullscreenenter"",""0"",""2091""
","
","null","<div style=""font-size:60px;"">+</div>","","null","fixation","2021-07-10 03:37:04.359","","","","",""
"","mars-trial","70","163813","0.0-10.0-1.28","627","""event"",""trial"",""time""
""fullscreenenter"",""0"",""2091""
","
","
","""event"",""trial"",""time""
""fullscreenenter"",""0"",""2091""
","
","3239.699999999255","<img style='border: 4px solid darkgrey;' src='img/tf1_29_M_ss1.jpeg'></img>","2","","exp","","0","<img src='img/tf1_29_T1_ss1_md.jpeg'></img>","0","true",""
"","html-keyboard-response","71","164321","0.0-10.0-0.29","627","""event"",""trial"",""time""
""fullscreenenter"",""0"",""2091""
","
","
","""event"",""trial"",""time""
""fullscreenenter"",""0"",""2091""
","
","null","<div style=""font-size:60px;"">+</div>","","null","fixation","2021-07-10 03:37:08.710","","","","",""
"","mars-trial","72","170467","0.0-10.0-1.29","627","""event"",""trial"",""time""
""fullscreenenter"",""0"",""2091""
","
","
","""event"",""trial"",""time""
""fullscreenenter"",""0"",""2091""
","
","5540.60000000149","<img style='border: 4px solid darkgrey;' src='img/tf1_30_M_ss2.jpeg'></img>","1","","exp","","0","<img src='img/tf1_30_T1_ss2_md.jpeg'></img>","0","true",""
"","html-keyboard-response","73","170969","0.0-10.0-0.30","627","""event"",""trial"",""time""
""fullscreenenter"",""0"",""2091""
","
","
","""event"",""trial"",""time""
""fullscreenenter"",""0"",""2091""
","
","null","<div style=""font-size:60px;"">+</div>","","null","fixation","2021-07-10 03:37:15.358","","","","",""
"","mars-trial","74","178643","0.0-10.0-1.30","627","""event"",""trial"",""time""
""fullscreenenter"",""0"",""2091""
","
","
","""event"",""trial"",""time""
""fullscreenenter"",""0"",""2091""
","
","7068.5","<img style='border: 4px solid darkgrey;' src='img/tf1_31_M_ss3.jpeg'></img>","3","","exp","","1","<img src='img/tf1_31_T1_ss3_md.jpeg'></img>","0","false",""
"","html-keyboard-response","75","179145","0.0-10.0-0.31","627","""event"",""trial"",""time""
""fullscreenenter"",""0"",""2091""
","
","
","""event"",""trial"",""time""
""fullscreenenter"",""0"",""2091""
","
","null","<div style=""font-size:60px;"">+</div>","","null","fixation","2021-07-10 03:37:23.534","","","","",""
"","mars-trial","76","183443","0.0-10.0-1.31","627","""event"",""trial"",""time""
""fullscreenenter"",""0"",""2091""
","
","
","""event"",""trial"",""time""
""fullscreenenter"",""0"",""2091""
","
","3694.800000000745","<img style='border: 4px solid darkgrey;' src='img/tf1_32_M_ss1.jpeg'></img>","2","","exp","","0","<img src='img/tf1_32_T1_ss1_md.jpeg'></img>","0","true",""
"","html-keyboard-response","77","183945","0.0-10.0-0.32","627","""event"",""trial"",""time""
""fullscreenenter"",""0"",""2091""
","
","
","""event"",""trial"",""time""
""fullscreenenter"",""0"",""2091""
","
","null","<div style=""font-size:60px;"">+</div>","","null","fixation","2021-07-10 03:37:28.334","","","","",""
"","mars-trial","78","187587","0.0-10.0-1.32","627","""event"",""trial"",""time""
""fullscreenenter"",""0"",""2091""
","
","
","""event"",""trial"",""time""
""fullscreenenter"",""0"",""2091""
","
","3036.7000000029802","<img style='border: 4px solid darkgrey;' src='img/tf1_33_M_ss2.jpeg'></img>","1","","exp","","2","<img src='img/tf1_33_T1_ss2_md.jpeg'></img>","0","false",""
"","html-keyboard-response","79","188088","0.0-10.0-0.33","627","""event"",""trial"",""time""
""fullscreenenter"",""0"",""2091""
","
","
","""event"",""trial"",""time""
""fullscreenenter"",""0"",""2091""
","
","null","<div style=""font-size:60px;"">+</div>","","null","fixation","2021-07-10 03:37:32.477","","","","",""
"","mars-trial","80","189801","0.0-10.0-1.33","627","""event"",""trial"",""time""
""fullscreenenter"",""0"",""2091""
","
","
","""event"",""trial"",""time""
""fullscreenenter"",""0"",""2091""
","
","1108.8999999985099","<img style='border: 4px solid darkgrey;' src='img/tf1_34_M_ss3.jpeg'></img>","2","","exp","","1","<img src='img/tf1_34_T1_ss3_md.jpeg'></img>","0","false",""
"","html-keyboard-response","81","190303","0.0-10.0-0.34","627","""event"",""trial"",""time""
""fullscreenenter"",""0"",""2091""
","
","
","""event"",""trial"",""time""
""fullscreenenter"",""0"",""2091""
","
","null","<div style=""font-size:60px;"">+</div>","","null","fixation","2021-07-10 03:37:34.692","","","","",""
"","mars-trial","82","198589","0.0-10.0-1.34","627","""event"",""trial"",""time""
""fullscreenenter"",""0"",""2091""
","
","
","""event"",""trial"",""time""
""fullscreenenter"",""0"",""2091""
","
","7681.5","<img style='border: 4px solid darkgrey;' src='img/tf1_35_M_ss1.jpeg'></img>","0","","exp","","0","<img src='img/tf1_35_T1_ss1_md.jpeg'></img>","0","true",""
"","html-keyboard-response","83","199091","0.0-10.0-0.35","627","""event"",""trial"",""time""
""fullscreenenter"",""0"",""2091""
","
","
","""event"",""trial"",""time""
""fullscreenenter"",""0"",""2091""
","
","null","<div style=""font-size:60px;"">+</div>","","null","fixation","2021-07-10 03:37:43.480","","","","",""
"","mars-trial","84","204262","0.0-10.0-1.35","627","""event"",""trial"",""time""
""fullscreenenter"",""0"",""2091""
","
","
","""event"",""trial"",""time""
""fullscreenenter"",""0"",""2091""
","
","4566","<img style='border: 4px solid darkgrey;' src='img/tf1_36_M_ss2.jpeg'></img>","2","","exp","","1","<img src='img/tf1_36_T1_ss2_md.jpeg'></img>","0","false",""
"","html-keyboard-response","85","204764","0.0-10.0-0.36","627","""event"",""trial"",""time""
""fullscreenenter"",""0"",""2091""
","
","
","""event"",""trial"",""time""
""fullscreenenter"",""0"",""2091""
","
","null","<div style=""font-size:60px;"">+</div>","","null","fixation","2021-07-10 03:37:49.153","","","","",""
"","mars-trial","86","207061","0.0-10.0-1.36","627","""event"",""trial"",""time""
""fullscreenenter"",""0"",""2091""
","
","
","""event"",""trial"",""time""
""fullscreenenter"",""0"",""2091""
","
","1690.8999999985099","<img style='border: 4px solid darkgrey;' src='img/tf1_37_M_ss3.jpeg'></img>","1","","exp","","0","<img src='img/tf1_37_T1_ss3_md.jpeg'></img>","0","true",""
"","html-keyboard-response","87","207563","0.0-10.0-0.37","627","""event"",""trial"",""time""
""fullscreenenter"",""0"",""2091""
","
","
","""event"",""trial"",""time""
""fullscreenenter"",""0"",""2091""
","
","null","<div style=""font-size:60px;"">+</div>","","null","fixation","2021-07-10 03:37:51.952","","","","",""
"","mars-trial","88","212825","0.0-10.0-1.37","627","""event"",""trial"",""time""
""fullscreenenter"",""0"",""2091""
","
","
","""event"",""trial"",""time""
""fullscreenenter"",""0"",""2091""
","
","4656.89999999851","<img style='border: 4px solid darkgrey;' src='img/tf1_38_M_ss1.jpeg'></img>","1","","exp","","0","<img src='img/tf1_38_T1_ss1_md.jpeg'></img>","0","true",""
"","html-keyboard-response","89","213327","0.0-10.0-0.38","627","""event"",""trial"",""time""
""fullscreenenter"",""0"",""2091""
","
","
","""event"",""trial"",""time""
""fullscreenenter"",""0"",""2091""
","
","null","<div style=""font-size:60px;"">+</div>","","null","fixation","2021-07-10 03:37:57.716","","","","",""
"","mars-trial","90","218896","0.0-10.0-1.38","627","""event"",""trial"",""time""
""fullscreenenter"",""0"",""2091""
","
","
","""event"",""trial"",""time""
""fullscreenenter"",""0"",""2091""
","
","4963.89999999851","<img style='border: 4px solid darkgrey;' src='img/tf1_39_M_ss2.jpeg'></img>","3","","exp","","3","<img src='img/tf1_39_T1_ss2_md.jpeg'></img>","0","false",""
"","html-keyboard-response","91","219398","0.0-10.0-0.39","627","""event"",""trial"",""time""
""fullscreenenter"",""0"",""2091""
","
","
","""event"",""trial"",""time""
""fullscreenenter"",""0"",""2091""
","
","null","<div style=""font-size:60px;"">+</div>","","null","fixation","2021-07-10 03:38:03.787","","","","",""
"","mars-trial","92","221213","0.0-10.0-1.39","627","""event"",""trial"",""time""
""fullscreenenter"",""0"",""2091""
","
","
","""event"",""trial"",""time""
""fullscreenenter"",""0"",""2091""
","
","1209.699999999255","<img style='border: 4px solid darkgrey;' src='img/tf1_40_M_ss3.jpeg'></img>","2","","exp","","1","<img src='img/tf1_40_T1_ss3_md.jpeg'></img>","0","false",""
"","html-keyboard-response","93","221715","0.0-10.0-0.40","627","""event"",""trial"",""time""
""fullscreenenter"",""0"",""2091""
","
","
","""event"",""trial"",""time""
""fullscreenenter"",""0"",""2091""
","
","null","<div style=""font-size:60px;"">+</div>","","null","fixation","2021-07-10 03:38:06.104","","","","",""
"","mars-trial","94","223670","0.0-10.0-1.40","627","""event"",""trial"",""time""
""fullscreenenter"",""0"",""2091""
","
","
","""event"",""trial"",""time""
""fullscreenenter"",""0"",""2091""
","
","1351.300000000745","<img style='border: 4px solid darkgrey;' src='img/tf1_41_M_ss1.jpeg'></img>","3","","exp","","2","<img src='img/tf1_41_T1_ss1_md.jpeg'></img>","0","false",""
"","html-keyboard-response","95","224170","0.0-10.0-0.41","627","""event"",""trial"",""time""
""fullscreenenter"",""0"",""2091""
","
","
","""event"",""trial"",""time""
""fullscreenenter"",""0"",""2091""
","
","null","<div style=""font-size:60px;"">+</div>","","null","fixation","2021-07-10 03:38:08.559","","","","",""
"","mars-trial","96","229565","0.0-10.0-1.41","627","""event"",""trial"",""time""
""fullscreenenter"",""0"",""2091""
","
","
","""event"",""trial"",""time""
""fullscreenenter"",""0"",""2091""
","
","4791.20000000298","<img style='border: 4px solid darkgrey;' src='img/tf1_42_M_ss2.jpeg'></img>","2","","exp","","1","<img src='img/tf1_42_T1_ss2_md.jpeg'></img>","0","false",""
"","html-keyboard-response","97","230066","0.0-10.0-0.42","627","""event"",""trial"",""time""
""fullscreenenter"",""0"",""2091""
","
","
","""event"",""trial"",""time""
""fullscreenenter"",""0"",""2091""
","
","null","<div style=""font-size:60px;"">+</div>","","null","fixation","2021-07-10 03:38:14.455","","","","",""
"","mars-trial","98","233356","0.0-10.0-1.42","627","""event"",""trial"",""time""
""fullscreenenter"",""0"",""2091""
","
","
","""event"",""trial"",""time""
""fullscreenenter"",""0"",""2091""
","
","2684.400000002235","<img style='border: 4px solid darkgrey;' src='img/tf1_43_M_ss3.jpeg'></img>","3","","exp","","1","<img src='img/tf1_43_T1_ss3_md.jpeg'></img>","0","false",""
"","html-keyboard-response","99","233858","0.0-10.0-0.43","627","""event"",""trial"",""time""
""fullscreenenter"",""0"",""2091""
","
","
","""event"",""trial"",""time""
""fullscreenenter"",""0"",""2091""
","
","null","<div style=""font-size:60px;"">+</div>","","null","fixation","2021-07-10 03:38:18.247","","","","",""
"","mars-trial","100","235856","0.0-10.0-1.43","627","""event"",""trial"",""time""
""fullscreenenter"",""0"",""2091""
","
","
","""event"",""trial"",""time""
""fullscreenenter"",""0"",""2091""
","
","1393.5","<img style='border: 4px solid darkgrey;' src='img/tf1_44_M_ss1.jpeg'></img>","1","","exp","","2","<img src='img/tf1_44_T1_ss1_md.jpeg'></img>","0","false",""
"","html-keyboard-response","101","236367","0.0-10.0-0.44","627","""event"",""trial"",""time""
""fullscreenenter"",""0"",""2091""
","
","
","""event"",""trial"",""time""
""fullscreenenter"",""0"",""2091""
","
","null","<div style=""font-size:60px;"">+</div>","","null","fixation","2021-07-10 03:38:20.756","","","","",""
"","mars-trial","102","238365","0.0-10.0-1.44","627","""event"",""trial"",""time""
""fullscreenenter"",""0"",""2091""
","
","
","""event"",""trial"",""time""
""fullscreenenter"",""0"",""2091""
","
","1392.8999999985099","<img style='border: 4px solid darkgrey;' src='img/tf1_45_M_ss2.jpeg'></img>","2","","exp","","0","<img src='img/tf1_45_T1_ss2_md.jpeg'></img>","0","true",""
"","html-keyboard-response","103","238867","0.0-10.0-0.45","627","""event"",""trial"",""time""
""fullscreenenter"",""0"",""2091""
","
","
","""event"",""trial"",""time""
""fullscreenenter"",""0"",""2091""
","
","null","<div style=""font-size:60px;"">+</div>","","null","fixation","2021-07-10 03:38:23.256","","","","",""
"","mars-trial","104","242508","0.0-10.0-1.45","627","""event"",""trial"",""time""
""fullscreenenter"",""0"",""2091""
","
","
","""event"",""trial"",""time""
""fullscreenenter"",""0"",""2091""
","
","3036.800000000745","<img style='border: 4px solid darkgrey;' src='img/tf1_46_M_ss3.jpeg'></img>","3","","exp","","2","<img src='img/tf1_46_T1_ss3_md.jpeg'></img>","0","false",""
"","html-keyboard-response","105","243009","0.0-10.0-0.46","627","""event"",""trial"",""time""
""fullscreenenter"",""0"",""2091""
","
","
","""event"",""trial"",""time""
""fullscreenenter"",""0"",""2091""
","
","null","<div style=""font-size:60px;"">+</div>","","null","fixation","2021-07-10 03:38:27.398","","","","",""
"","mars-trial","106","245723","0.0-10.0-1.46","627","""event"",""trial"",""time""
""fullscreenenter"",""0"",""2091""
","
","
","""event"",""trial"",""time""
""fullscreenenter"",""0"",""2091""
","
","2109.5","<img style='border: 4px solid darkgrey;' src='img/tf1_47_M_ss1.jpeg'></img>","1","","exp","","1","<img src='img/tf1_47_T1_ss1_md.jpeg'></img>","0","false",""
"","html-keyboard-response","107","246226","0.0-10.0-0.47","627","""event"",""trial"",""time""
""fullscreenenter"",""0"",""2091""
","
","
","""event"",""trial"",""time""
""fullscreenenter"",""0"",""2091""
","
","null","<div style=""font-size:60px;"">+</div>","","null","fixation","2021-07-10 03:38:30.615","","","","",""
"","mars-trial","108","247820","0.0-10.0-1.47","627","""event"",""trial"",""time""
""fullscreenenter"",""0"",""2091""
","
","
","""event"",""trial"",""time""
""fullscreenenter"",""0"",""2091""
","
","990.4000000022352","<img style='border: 4px solid darkgrey;' src='img/tf1_48_M_ss2.jpeg'></img>","2","","exp","","3","<img src='img/tf1_48_T1_ss2_md.jpeg'></img>","0","false",""
"","html-keyboard-response","109","248322","0.0-10.0-0.48","627","""event"",""trial"",""time""
""fullscreenenter"",""0"",""2091""
","
","
","""event"",""trial"",""time""
""fullscreenenter"",""0"",""2091""
","
","null","<div style=""font-size:60px;"">+</div>","","null","fixation","2021-07-10 03:38:32.711","","","","",""
"","mars-trial","110","251033","0.0-10.0-1.48","627","""event"",""trial"",""time""
""fullscreenenter"",""0"",""2091""
","
","
","""event"",""trial"",""time""
""fullscreenenter"",""0"",""2091""
","
","2107.400000002235","<img style='border: 4px solid darkgrey;' src='img/tf1_49_M_ss3.jpeg'></img>","1","","exp","","0","<img src='img/tf1_49_T1_ss3_md.jpeg'></img>","0","true",""
"","html-keyboard-response","111","251534","0.0-10.0-0.49","627","""event"",""trial"",""time""
""fullscreenenter"",""0"",""2091""
","
","
","""event"",""trial"",""time""
""fullscreenenter"",""0"",""2091""
","
","null","<div style=""font-size:60px;"">+</div>","","null","fixation","2021-07-10 03:38:35.923","","","","",""
"","mars-trial","112","261170","0.0-10.0-1.49","627","""event"",""trial"",""time""
""fullscreenenter"",""0"",""2091""
","
","
","""event"",""trial"",""time""
""fullscreenenter"",""0"",""2091""
","
","9033.099999997765","<img style='border: 4px solid darkgrey;' src='img/tf1_50_M_ss1.jpeg'></img>","2","","exp","","0","<img src='img/tf1_50_T1_ss1_md.jpeg'></img>","0","true",""
"","html-keyboard-response","113","261673","0.0-10.0-0.50","627","""event"",""trial"",""time""
""fullscreenenter"",""0"",""2091""
","
","
","""event"",""trial"",""time""
""fullscreenenter"",""0"",""2091""
","
","null","<div style=""font-size:60px;"">+</div>","","null","fixation","2021-07-10 03:38:46.062","","","","",""
"","mars-trial","114","264810","0.0-10.0-1.50","627","""event"",""trial"",""time""
""fullscreenenter"",""0"",""2091""
","
","
","""event"",""trial"",""time""
""fullscreenenter"",""0"",""2091""
","
","2533","<img style='border: 4px solid darkgrey;' src='img/tf1_51_M_ss2.jpeg'></img>","2","","exp","","0","<img src='img/tf1_51_T1_ss2_md.jpeg'></img>","0","true",""
"","html-keyboard-response","115","265312","0.0-10.0-0.51","627","""event"",""trial"",""time""
""fullscreenenter"",""0"",""2091""
","
","
","""event"",""trial"",""time""
""fullscreenenter"",""0"",""2091""
","
","null","<div style=""font-size:60px;"">+</div>","","null","fixation","2021-07-10 03:38:49.701","","","","",""
"","mars-trial","116","268268","0.0-10.0-1.51","627","""event"",""trial"",""time""
""fullscreenenter"",""0"",""2091""
","
","
","""event"",""trial"",""time""
""fullscreenenter"",""0"",""2091""
","
","2342.2000000029802","<img style='border: 4px solid darkgrey;' src='img/tf1_52_M_ss3.jpeg'></img>","2","","exp","","2","<img src='img/tf1_52_T1_ss3_md.jpeg'></img>","0","false",""
"","html-keyboard-response","117","268769","0.0-10.0-0.52","627","""event"",""trial"",""time""
""fullscreenenter"",""0"",""2091""
","
","
","""event"",""trial"",""time""
""fullscreenenter"",""0"",""2091""
","
","null","<div style=""font-size:60px;"">+</div>","","null","fixation","2021-07-10 03:38:53.158","","","","",""
"","mars-trial","118","270772","0.0-10.0-1.52","627","""event"",""trial"",""time""
""fullscreenenter"",""0"",""2091""
","
","
","""event"",""trial"",""time""
""fullscreenenter"",""0"",""2091""
","
","1398.1000000014901","<img style='border: 4px solid darkgrey;' src='img/tf1_53_M_ss1.jpeg'></img>","1","","exp","","2","<img src='img/tf1_53_T1_ss1_md.jpeg'></img>","0","false",""
"","html-keyboard-response","119","271273","0.0-10.0-0.53","627","""event"",""trial"",""time""
""fullscreenenter"",""0"",""2091""
","
","
","""event"",""trial"",""time""
""fullscreenenter"",""0"",""2091""
","
","null","<div style=""font-size:60px;"">+</div>","","null","fixation","2021-07-10 03:38:55.662","","","","",""
"","mars-trial","120","277756","0.0-10.0-1.53","627","""event"",""trial"",""time""
""fullscreenenter"",""0"",""2091""
","
","
","""event"",""trial"",""time""
""fullscreenenter"",""0"",""2091""
","
","5878.60000000149","<img style='border: 4px solid darkgrey;' src='img/tf1_54_M_ss2.jpeg'></img>","1","","exp","","0","<img src='img/tf1_54_T1_ss2_md.jpeg'></img>","0","true",""
"","html-keyboard-response","121","278258","0.0-10.0-0.54","627","""event"",""trial"",""time""
""fullscreenenter"",""0"",""2091""
","
","
","""event"",""trial"",""time""
""fullscreenenter"",""0"",""2091""
","
","null","<div style=""font-size:60px;"">+</div>","","null","fixation","2021-07-10 03:39:02.648","","","","",""
"","mars-trial","122","289597","0.0-10.0-1.54","627","""event"",""trial"",""time""
""fullscreenenter"",""0"",""2091""
","
","
","""event"",""trial"",""time""
""fullscreenenter"",""0"",""2091""
","
","10732.599999997765","<img style='border: 4px solid darkgrey;' src='img/tf1_55_M_ss3.jpeg'></img>","2","","exp","","3","<img src='img/tf1_55_T1_ss3_md.jpeg'></img>","0","false",""
"","html-keyboard-response","123","290098","0.0-10.0-0.55","627","""event"",""trial"",""time""
""fullscreenenter"",""0"",""2091""
","
","
","""event"",""trial"",""time""
""fullscreenenter"",""0"",""2091""
","
","null","<div style=""font-size:60px;"">+</div>","","null","fixation","2021-07-10 03:39:14.487","","","","",""
"","mars-trial","124","292631","0.0-10.0-1.55","627","""event"",""trial"",""time""
""fullscreenenter"",""0"",""2091""
","
","
","""event"",""trial"",""time""
""fullscreenenter"",""0"",""2091""
","
","1915.8999999985099","<img style='border: 4px solid darkgrey;' src='img/tf1_56_M_ss1.jpeg'></img>","2","","exp","","0","<img src='img/tf1_56_T1_ss1_md.jpeg'></img>","0","true",""
"","html-keyboard-response","125","293132","0.0-10.0-0.56","627","""event"",""trial"",""time""
""fullscreenenter"",""0"",""2091""
","
","
","""event"",""trial"",""time""
""fullscreenenter"",""0"",""2091""
","
","null","<div style=""font-size:60px;"">+</div>","","null","fixation","2021-07-10 03:39:17.521","","","","",""
"","mars-trial","126","304331","0.0-10.0-1.56","627","""event"",""trial"",""time""
""fullscreenenter"",""0"",""2091""
","
","
","""event"",""trial"",""time""
""fullscreenenter"",""0"",""2091""
","
","10595.5","<img style='border: 4px solid darkgrey;' src='img/tf1_57_M_ss2.jpeg'></img>","3","","exp","","2","<img src='img/tf1_57_T1_ss2_md.jpeg'></img>","0","false",""
"","html-keyboard-response","127","304832","0.0-10.0-0.57","627","""event"",""trial"",""time""
""fullscreenenter"",""0"",""2091""
","
","
","""event"",""trial"",""time""
""fullscreenenter"",""0"",""2091""
","
","null","<div style=""font-size:60px;"">+</div>","","null","fixation","2021-07-10 03:39:29.221","","","","",""
"","mars-trial","128","316587","0.0-10.0-1.57","627","""event"",""trial"",""time""
""fullscreenenter"",""0"",""2091""
","
","
","""event"",""trial"",""time""
""fullscreenenter"",""0"",""2091""
","
","11150.300000000745","<img style='border: 4px solid darkgrey;' src='img/tf1_58_M_ss3.jpeg'></img>","1","","exp","","1","<img src='img/tf1_58_T1_ss3_md.jpeg'></img>","0","false",""
"","html-keyboard-response","129","317089","0.0-10.0-0.58","627","""event"",""trial"",""time""
""fullscreenenter"",""0"",""2091""
","
","
","""event"",""trial"",""time""
""fullscreenenter"",""0"",""2091""
","
","null","<div style=""font-size:60px;"">+</div>","","null","fixation","2021-07-10 03:39:41.478","","","","",""
"","mars-trial","130","328394","0.0-10.0-1.58","627","""event"",""trial"",""time""
""fullscreenenter"",""0"",""2091""
","
","
","""event"",""trial"",""time""
""fullscreenenter"",""0"",""2091""
","
","10700.60000000149","<img style='border: 4px solid darkgrey;' src='img/tf1_59_M_ss1.jpeg'></img>","2","","exp","","2","<img src='img/tf1_59_T1_ss1_md.jpeg'></img>","0","false",""
"","html-keyboard-response","131","328895","0.0-10.0-0.59","627","""event"",""trial"",""time""
""fullscreenenter"",""0"",""2091""
","
","
","""event"",""trial"",""time""
""fullscreenenter"",""0"",""2091""
","
","null","<div style=""font-size:60px;"">+</div>","","null","fixation","2021-07-10 03:39:53.284","","","","",""
"","mars-trial","132","331032","0.0-10.0-1.59","627","""event"",""trial"",""time""
""fullscreenenter"",""0"",""2091""
","
","
","""event"",""trial"",""time""
""fullscreenenter"",""0"",""2091""
","
","1532.199999999255","<img style='border: 4px solid darkgrey;' src='img/tf1_60_M_ss2.jpeg'></img>","1","","exp","","2","<img src='img/tf1_60_T1_ss2_md.jpeg'></img>","0","false",""
"","html-keyboard-response","133","331534","0.0-10.0-0.60","627","""event"",""trial"",""time""
""fullscreenenter"",""0"",""2091""
","
","
","""event"",""trial"",""time""
""fullscreenenter"",""0"",""2091""
","
","null","<div style=""font-size:60px;"">+</div>","","null","fixation","2021-07-10 03:39:55.923","","","","",""
"","mars-trial","134","344417","0.0-10.0-1.60","627","""event"",""trial"",""time""
""fullscreenenter"",""0"",""2091""
","
","
","""event"",""trial"",""time""
""fullscreenenter"",""0"",""2091""
","
","12279.39999999851","<img style='border: 4px solid darkgrey;' src='img/tf1_61_M_ss3.jpeg'></img>","1","","exp","","0","<img src='img/tf1_61_T1_ss3_md.jpeg'></img>","0","true",""
"","html-keyboard-response","135","344918","0.0-10.0-0.61","627","""event"",""trial"",""time""
""fullscreenenter"",""0"",""2091""
","
","
","""event"",""trial"",""time""
""fullscreenenter"",""0"",""2091""
","
","null","<div style=""font-size:60px;"">+</div>","","null","fixation","2021-07-10 03:40:09.307","","","","",""
"","mars-trial","136","354437","0.0-10.0-1.61","627","""event"",""trial"",""time""
""fullscreenenter"",""0"",""2091""
","
","
","""event"",""trial"",""time""
""fullscreenenter"",""0"",""2091""
","
","8915.199999999255","<img style='border: 4px solid darkgrey;' src='img/tf1_62_M_ss1.jpeg'></img>","1","","exp","","3","<img src='img/tf1_62_T1_ss1_md.jpeg'></img>","0","false",""
"","html-keyboard-response","137","354938","0.0-10.0-0.62","627","""event"",""trial"",""time""
""fullscreenenter"",""0"",""2091""
","
","
","""event"",""trial"",""time""
""fullscreenenter"",""0"",""2091""
","
","null","<div style=""font-size:60px;"">+</div>","","null","fixation","2021-07-10 03:40:19.327","","","","",""
"","mars-trial","138","357909","0.0-10.0-1.62","627","""event"",""trial"",""time""
""fullscreenenter"",""0"",""2091""
","
","
","""event"",""trial"",""time""
""fullscreenenter"",""0"",""2091""
","
","2364.2999999970198","<img style='border: 4px solid darkgrey;' src='img/tf1_63_M_ss2.jpeg'></img>","2","","exp","","3","<img src='img/tf1_63_T1_ss2_md.jpeg'></img>","0","false",""
"","html-keyboard-response","139","358410","0.0-10.0-0.63","627","""event"",""trial"",""time""
""fullscreenenter"",""0"",""2091""
","
","
","""event"",""trial"",""time""
""fullscreenenter"",""0"",""2091""
","
","null","<div style=""font-size:60px;"">+</div>","","null","fixation","2021-07-10 03:40:22.799","","","","",""
"","mars-trial","140","360104","0.0-10.0-1.63","627","""event"",""trial"",""time""
""fullscreenenter"",""0"",""2091""
","
","
","""event"",""trial"",""time""
""fullscreenenter"",""0"",""2091""
","
","1087.6000000014901","<img style='border: 4px solid darkgrey;' src='img/tf1_64_M_ss3.jpeg'></img>","1","","exp","","0","<img src='img/tf1_64_T1_ss3_md.jpeg'></img>","0","true",""
"","html-keyboard-response","141","360610","0.0-10.0-0.64","627","""event"",""trial"",""time""
""fullscreenenter"",""0"",""2091""
","
","
","""event"",""trial"",""time""
""fullscreenenter"",""0"",""2091""
","
","null","<div style=""font-size:60px;"">+</div>","","null","fixation","2021-07-10 03:40:24.999","","","","",""
"","mars-trial","142","362979","0.0-10.0-1.64","627","""event"",""trial"",""time""
""fullscreenenter"",""0"",""2091""
","
","
","""event"",""trial"",""time""
""fullscreenenter"",""0"",""2091""
","
","1764.5","<img style='border: 4px solid darkgrey;' src='img/tf1_65_M_ss1.jpeg'></img>","0","","exp","","0","<img src='img/tf1_65_T1_ss1_md.jpeg'></img>","0","true",""
"","html-keyboard-response","143","363480","0.0-10.0-0.65","627","""event"",""trial"",""time""
""fullscreenenter"",""0"",""2091""
","
","
","""event"",""trial"",""time""
""fullscreenenter"",""0"",""2091""
","
","null","<div style=""font-size:60px;"">+</div>","","null","fixation","2021-07-10 03:40:27.869","","","","",""
"","mars-trial","144","365372","0.0-10.0-1.65","627","""event"",""trial"",""time""
""fullscreenenter"",""0"",""2091""
","
","
","""event"",""trial"",""time""
""fullscreenenter"",""0"",""2091""
","
","1288","<img style='border: 4px solid darkgrey;' src='img/tf1_66_M_ss2.jpeg'></img>","2","","exp","","1","<img src='img/tf1_66_T1_ss2_md.jpeg'></img>","0","false",""
"","html-keyboard-response","145","365873","0.0-10.0-0.66","627","""event"",""trial"",""time""
""fullscreenenter"",""0"",""2091""
","
","
","""event"",""trial"",""time""
""fullscreenenter"",""0"",""2091""
","
","null","<div style=""font-size:60px;"">+</div>","","null","fixation","2021-07-10 03:40:30.262","","","","",""
"","mars-trial","146","375923","0.0-10.0-1.66","627","""event"",""trial"",""time""
""fullscreenenter"",""0"",""2091""
","
","
","""event"",""trial"",""time""
""fullscreenenter"",""0"",""2091""
","
","9446.800000000745","<img style='border: 4px solid darkgrey;' src='img/tf1_67_M_ss3.jpeg'></img>","2","","exp","","3","<img src='img/tf1_67_T1_ss3_md.jpeg'></img>","0","false",""
"","html-keyboard-response","147","376425","0.0-10.0-0.67","627","""event"",""trial"",""time""
""fullscreenenter"",""0"",""2091""
","
","
","""event"",""trial"",""time""
""fullscreenenter"",""0"",""2091""
","
","null","<div style=""font-size:60px;"">+</div>","","null","fixation","2021-07-10 03:40:40.814","","","","",""
"","mars-trial","148","378310","0.0-10.0-1.67","627","""event"",""trial"",""time""
""fullscreenenter"",""0"",""2091""
","
","
","""event"",""trial"",""time""
""fullscreenenter"",""0"",""2091""
","
","1280.8999999985099","<img style='border: 4px solid darkgrey;' src='img/tf1_68_M_ss1.jpeg'></img>","1","","exp","","0","<img src='img/tf1_68_T1_ss1_md.jpeg'></img>","0","true",""
"","html-keyboard-response","149","378810","0.0-10.0-0.68","627","""event"",""trial"",""time""
""fullscreenenter"",""0"",""2091""
","
","
","""event"",""trial"",""time""
""fullscreenenter"",""0"",""2091""
","
","null","<div style=""font-size:60px;"">+</div>","","null","fixation","2021-07-10 03:40:43.200","","","","",""
"","mars-trial","150","380734","0.0-10.0-1.68","627","""event"",""trial"",""time""
""fullscreenenter"",""0"",""2091""
","
","
","""event"",""trial"",""time""
""fullscreenenter"",""0"",""2091""
","
","1319.3999999985099","<img style='border: 4px solid darkgrey;' src='img/tf1_69_M_ss2.jpeg'></img>","1","","exp","","3","<img src='img/tf1_69_T1_ss2_md.jpeg'></img>","0","false",""
"","html-keyboard-response","151","381237","0.0-10.0-0.69","627","""event"",""trial"",""time""
""fullscreenenter"",""0"",""2091""
","
","
","""event"",""trial"",""time""
""fullscreenenter"",""0"",""2091""
","
","null","<div style=""font-size:60px;"">+</div>","","null","fixation","2021-07-10 03:40:45.626","","","","",""
"","mars-trial","152","385723","0.0-10.0-1.69","627","""event"",""trial"",""time""
""fullscreenenter"",""0"",""2091""
","
","
","""event"",""trial"",""time""
""fullscreenenter"",""0"",""2091""
","
","3883.099999997765","<img style='border: 4px solid darkgrey;' src='img/tf1_70_M_ss3.jpeg'></img>","2","","exp","","0","<img src='img/tf1_70_T1_ss3_md.jpeg'></img>","0","true",""
"","html-keyboard-response","153","386224","0.0-10.0-0.70","627","""event"",""trial"",""time""
""fullscreenenter"",""0"",""2091""
","
","
","""event"",""trial"",""time""
""fullscreenenter"",""0"",""2091""
","
","null","<div style=""font-size:60px;"">+</div>","","null","fixation","2021-07-10 03:40:50.614","","","","",""
"","mars-trial","154","389865","0.0-10.0-1.70","627","""event"",""trial"",""time""
""fullscreenenter"",""0"",""2091""
","
","
","""event"",""trial"",""time""
""fullscreenenter"",""0"",""2091""
","
","3032","<img style='border: 4px solid darkgrey;' src='img/tf1_71_M_ss1.jpeg'></img>","2","","exp","","0","<img src='img/tf1_71_T1_ss1_md.jpeg'></img>","0","true",""
"","html-keyboard-response","155","390365","0.0-10.0-0.71","627","""event"",""trial"",""time""
""fullscreenenter"",""0"",""2091""
","
","
","""event"",""trial"",""time""
""fullscreenenter"",""0"",""2091""
","
","null","<div style=""font-size:60px;"">+</div>","","null","fixation","2021-07-10 03:40:54.754","","","","",""
"","mars-trial","156","394487","0.0-10.0-1.71","627","""event"",""trial"",""time""
""fullscreenenter"",""0"",""2091""
","
","
","""event"",""trial"",""time""
""fullscreenenter"",""0"",""2091""
","
","3516.900000002235","<img style='border: 4px solid darkgrey;' src='img/tf1_72_M_ss2.jpeg'></img>","3","","exp","","3","<img src='img/tf1_72_T1_ss2_md.jpeg'></img>","0","false",""
"","html-keyboard-response","157","394990","0.0-10.0-0.72","627","""event"",""trial"",""time""
""fullscreenenter"",""0"",""2091""
","
","
","""event"",""trial"",""time""
""fullscreenenter"",""0"",""2091""
","
","null","<div style=""font-size:60px;"">+</div>","","null","fixation","2021-07-10 03:40:59.379","","","","",""
"","mars-trial","158","396813","0.0-10.0-1.72","627","""event"",""trial"",""time""
""fullscreenenter"",""0"",""2091""
","
","
","""event"",""trial"",""time""
""fullscreenenter"",""0"",""2091""
","
","1219.4000000022352","<img style='border: 4px solid darkgrey;' src='img/tf1_73_M_ss3.jpeg'></img>","2","","exp","","3","<img src='img/tf1_73_T1_ss3_md.jpeg'></img>","0","false",""
"","html-keyboard-response","159","397315","0.0-10.0-0.73","627","""event"",""trial"",""time""
""fullscreenenter"",""0"",""2091""
","
","
","""event"",""trial"",""time""
""fullscreenenter"",""0"",""2091""
","
","null","<div style=""font-size:60px;"">+</div>","","null","fixation","2021-07-10 03:41:01.704","","","","",""
"","mars-trial","160","401395","0.0-10.0-1.73","627","""event"",""trial"",""time""
""fullscreenenter"",""0"",""2091""
","
","
","""event"",""trial"",""time""
""fullscreenenter"",""0"",""2091""
","
","3475.800000000745","<img style='border: 4px solid darkgrey;' src='img/tf1_74_M_ss1.jpeg'></img>","3","","exp","","1","<img src='img/tf1_74_T1_ss1_md.jpeg'></img>","0","false",""
"","html-keyboard-response","161","401897","0.0-10.0-0.74","627","""event"",""trial"",""time""
""fullscreenenter"",""0"",""2091""
","
","
","""event"",""trial"",""time""
""fullscreenenter"",""0"",""2091""
","
","null","<div style=""font-size:60px;"">+</div>","","null","fixation","2021-07-10 03:41:06.286","","","","",""
"","mars-trial","162","403737","0.0-10.0-1.74","627","""event"",""trial"",""time""
""fullscreenenter"",""0"",""2091""
","
","
","""event"",""trial"",""time""
""fullscreenenter"",""0"",""2091""
","
","1236.800000000745","<img style='border: 4px solid darkgrey;' src='img/tf1_75_M_ss2.jpeg'></img>","2","","exp","","1","<img src='img/tf1_75_T1_ss2_md.jpeg'></img>","0","false",""
"","html-keyboard-response","163","404239","0.0-10.0-0.75","627","""event"",""trial"",""time""
""fullscreenenter"",""0"",""2091""
","
","
","""event"",""trial"",""time""
""fullscreenenter"",""0"",""2091""
","
","null","<div style=""font-size:60px;"">+</div>","","null","fixation","2021-07-10 03:41:08.628","","","","",""
"","mars-trial","164","406765","0.0-10.0-1.75","627","""event"",""trial"",""time""
""fullscreenenter"",""0"",""2091""
","
","
","""event"",""trial"",""time""
""fullscreenenter"",""0"",""2091""
","
","1908.699999999255","<img style='border: 4px solid darkgrey;' src='img/tf1_76_M_ss3.jpeg'></img>","1","","exp","","2","<img src='img/tf1_76_T1_ss3_md.jpeg'></img>","0","false",""
"","html-keyboard-response","165","407268","0.0-10.0-0.76","627","""event"",""trial"",""time""
""fullscreenenter"",""0"",""2091""
","
","
","""event"",""trial"",""time""
""fullscreenenter"",""0"",""2091""
","
","null","<div style=""font-size:60px;"">+</div>","","null","fixation","2021-07-10 03:41:11.657","","","","",""
"","mars-trial","166","408755","0.0-10.0-1.76","627","""event"",""trial"",""time""
""fullscreenenter"",""0"",""2091""
","
","
","""event"",""trial"",""time""
""fullscreenenter"",""0"",""2091""
","
","883.1999999992549","<img style='border: 4px solid darkgrey;' src='img/tf1_77_M_ss1.jpeg'></img>","1","","exp","","0","<img src='img/tf1_77_T1_ss1_md.jpeg'></img>","0","true",""
"","html-keyboard-response","167","409257","0.0-10.0-0.77","627","""event"",""trial"",""time""
""fullscreenenter"",""0"",""2091""
","
","
","""event"",""trial"",""time""
""fullscreenenter"",""0"",""2091""
","
","null","<div style=""font-size:60px;"">+</div>","","null","fixation","2021-07-10 03:41:13.646","","","","",""
"","mars-trial","168","410842","0.0-10.0-1.77","627","""event"",""trial"",""time""
""fullscreenenter"",""0"",""2091""
","
","
","""event"",""trial"",""time""
""fullscreenenter"",""0"",""2091""
","
","981.5","<img style='border: 4px solid darkgrey;' src='img/tf1_78_M_ss2.jpeg'></img>","1","","exp","","3","<img src='img/tf1_78_T1_ss2_md.jpeg'></img>","0","false",""
"","html-keyboard-response","169","411344","0.0-10.0-0.78","627","""event"",""trial"",""time""
""fullscreenenter"",""0"",""2091""
","
","
","""event"",""trial"",""time""
""fullscreenenter"",""0"",""2091""
","
","null","<div style=""font-size:60px;"">+</div>","","null","fixation","2021-07-10 03:41:15.733","","","","",""
"","mars-trial","170","412521","0.0-10.0-1.78","627","""event"",""trial"",""time""
""fullscreenenter"",""0"",""2091""
","
","
","""event"",""trial"",""time""
""fullscreenenter"",""0"",""2091""
","
","572.0999999977648","<img style='border: 4px solid darkgrey;' src='img/tf1_79_M_ss3.jpeg'></img>","2","","exp","","1","<img src='img/tf1_79_T1_ss3_md.jpeg'></img>","0","false",""
"","html-keyboard-response","171","413022","0.0-10.0-0.79","627","""event"",""trial"",""time""
""fullscreenenter"",""0"",""2091""
","
","
","""event"",""trial"",""time""
""fullscreenenter"",""0"",""2091""
","
","null","<div style=""font-size:60px;"">+</div>","","null","fixation","2021-07-10 03:41:17.411","","","","",""
"","mars-trial","172","416751","0.0-10.0-1.79","627","""event"",""trial"",""time""
""fullscreenenter"",""0"",""2091""
","
","
","""event"",""trial"",""time""
""fullscreenenter"",""0"",""2091""
","
","3124.60000000149","<img style='border: 4px solid darkgrey;' src='img/tf1_80_M_ss1.jpeg'></img>","1","","exp","","1","<img src='img/tf1_80_T1_ss1_md.jpeg'></img>","0","false",""
"","audio-button-response","173","419877","0.0-11.0","627","""event"",""trial"",""time""
""fullscreenenter"",""0"",""2091""
","
","
","""event"",""trial"",""time""
""fullscreenenter"",""0"",""2091""
","
","3123.5","audio/mars_instructions_slide5.wav","0","","","","","","","",""
