"success","trial_type","trial_index","time_elapsed","internal_node_id","subject_id","interactions","blur_events","focus_events","fullscreenenter_events","fullscreenexit_events","rt","stimulus","button_pressed","key_press","part","timestamp","unshuffled_button","correct_response","correct_button","correct","value"
"true","fullscreen","0","3974","0.0-0.0","A675","""event"",""trial"",""time""
""fullscreenenter"",""0"",""2983""
","
","
","""event"",""trial"",""time""
""fullscreenenter"",""0"",""2983""
","
","","","","","","","","","","",""
"","pavlovia","1","3986","0.0-1.0","A675","""event"",""trial"",""time""
""fullscreenenter"",""0"",""2983""
","
","
","""event"",""trial"",""time""
""fullscreenenter"",""0"",""2983""
","
","","","","","","","","","","",""
"","html-button-response","2","5608","0.0-2.0","A675","""event"",""trial"",""time""
""fullscreenenter"",""0"",""2983""
","
","
","""event"",""trial"",""time""
""fullscreenenter"",""0"",""2983""
","
","1620.2999999523163","<p>Welcome! Press START to begin.</p><br>","0","","","","","","","",""
"","audio-button-response","3","19254","0.0-3.0","A675","""event"",""trial"",""time""
""fullscreenenter"",""0"",""2983""
","
","
","""event"",""trial"",""time""
""fullscreenenter"",""0"",""2983""
","
","13641.100000023842","audio/mars_instructions_slide2.wav","0","","","","","","","",""
"","audio-button-response","4","28314","0.0-4.0","A675","""event"",""trial"",""time""
""fullscreenenter"",""0"",""2983""
","
","
","""event"",""trial"",""time""
""fullscreenenter"",""0"",""2983""
","
","9058.699999928474","audio/mars_instructions_slide3.wav","0","","","","","","","",""
"","html-keyboard-response","5","28817","0.0-5.0-0.0","A675","""event"",""trial"",""time""
""fullscreenenter"",""0"",""2983""
","
","
","""event"",""trial"",""time""
""fullscreenenter"",""0"",""2983""
","
","null","<div style=""font-size:60px;"">+</div>","","null","fixation","2021-07-25 20:54:36.619","","","","",""
"","mars-trial","6","36365","0.0-5.0-1.0","A675","""event"",""trial"",""time""
""fullscreenenter"",""0"",""2983""
","
","
","""event"",""trial"",""time""
""fullscreenenter"",""0"",""2983""
","
","5439.5","<img style='border: 4px solid darkgrey;' src='practice/pt1_M1.png'></img>","3","","practice","","0","<img src='practice/pt1_T1.png'></img>","0","true",""
"","html-keyboard-response","7","36868","0.0-6.0-0.0","A675","""event"",""trial"",""time""
""fullscreenenter"",""0"",""2983""
","
","
","""event"",""trial"",""time""
""fullscreenenter"",""0"",""2983""
","
","null","<div style=""font-size:60px;"">+</div>","","null","fixation","2021-07-25 20:54:44.670","","","","",""
"","mars-trial","8","41109","0.0-6.0-1.0","A675","""event"",""trial"",""time""
""fullscreenenter"",""0"",""2983""
","
","
","""event"",""trial"",""time""
""fullscreenenter"",""0"",""2983""
","
","2130.1999999284744","<img style='border: 4px solid darkgrey;' src='practice/pt2_M1.png'></img>","0","","practice","","0","<img src='practice/pt2_T1.png'></img>","0","true",""
"","html-keyboard-response","9","41613","0.0-7.0-0.0","A675","""event"",""trial"",""time""
""fullscreenenter"",""0"",""2983""
","
","
","""event"",""trial"",""time""
""fullscreenenter"",""0"",""2983""
","
","null","<div style=""font-size:60px;"">+</div>","","null","fixation","2021-07-25 20:54:49.415","","","","",""
"","mars-trial","10","45546","0.0-7.0-1.0","A675","""event"",""trial"",""time""
""fullscreenenter"",""0"",""2983""
","
","
","""event"",""trial"",""time""
""fullscreenenter"",""0"",""2983""
","
","1821.7999999523163","<img style='border: 4px solid darkgrey;' src='practice/pt3_M1.png'></img>","0","","practice","","0","<img src='practice/pt3_T1.png'></img>","0","true",""
"","audio-button-response","11","47823","0.0-8.0","A675","""event"",""trial"",""time""
""fullscreenenter"",""0"",""2983""
","
","
","""event"",""trial"",""time""
""fullscreenenter"",""0"",""2983""
","
","2274.4000000953674","audio/mars_instructions_slide4.wav","0","","","","","","","",""
"","call-function","12","47824","0.0-9.0","A675","""event"",""trial"",""time""
""fullscreenenter"",""0"",""2983""
","
","
","""event"",""trial"",""time""
""fullscreenenter"",""0"",""2983""
","
","","","","","","","","","","",""
"","html-keyboard-response","13","48325","0.0-10.0-0.0","A675","""event"",""trial"",""time""
""fullscreenenter"",""0"",""2983""
","
","
","""event"",""trial"",""time""
""fullscreenenter"",""0"",""2983""
","
","null","<div style=""font-size:60px;"">+</div>","","null","fixation","2021-07-25 20:54:56.128","","","","",""
"","mars-trial","14","50802","0.0-10.0-1.0","A675","""event"",""trial"",""time""
""fullscreenenter"",""0"",""2983""
","
","
","""event"",""trial"",""time""
""fullscreenenter"",""0"",""2983""
","
","1867.1000000238419","<img style='border: 4px solid darkgrey;' src='img/tf1_1_M_ss3.jpeg'></img>","0","","exp","","0","<img src='img/tf1_1_T1_ss3_md.jpeg'></img>","0","true",""
"","html-keyboard-response","15","51309","0.0-10.0-0.1","A675","""event"",""trial"",""time""
""fullscreenenter"",""0"",""2983""
","
","
","""event"",""trial"",""time""
""fullscreenenter"",""0"",""2983""
","
","null","<div style=""font-size:60px;"">+</div>","","null","fixation","2021-07-25 20:54:59.111","","","","",""
"","mars-trial","16","54497","0.0-10.0-1.1","A675","""event"",""trial"",""time""
""fullscreenenter"",""0"",""2983""
","
","
","""event"",""trial"",""time""
""fullscreenenter"",""0"",""2983""
","
","2577.899999976158","<img style='border: 4px solid darkgrey;' src='img/tf1_2_M_ss1.jpeg'></img>","3","","exp","","0","<img src='img/tf1_2_T1_ss1_md.jpeg'></img>","0","true",""
"","html-keyboard-response","17","55002","0.0-10.0-0.2","A675","""event"",""trial"",""time""
""fullscreenenter"",""0"",""2983""
","
","
","""event"",""trial"",""time""
""fullscreenenter"",""0"",""2983""
","
","null","<div style=""font-size:60px;"">+</div>","","null","fixation","2021-07-25 20:55:02.804","","","","",""
"","mars-trial","18","57343","0.0-10.0-1.2","A675","""event"",""trial"",""time""
""fullscreenenter"",""0"",""2983""
","
","
","""event"",""trial"",""time""
""fullscreenenter"",""0"",""2983""
","
","1733.2000000476837","<img style='border: 4px solid darkgrey;' src='img/tf1_3_M_ss2.jpeg'></img>","2","","exp","","0","<img src='img/tf1_3_T1_ss2_md.jpeg'></img>","0","true",""
"","html-keyboard-response","19","57845","0.0-10.0-0.3","A675","""event"",""trial"",""time""
""fullscreenenter"",""0"",""2983""
","
","
","""event"",""trial"",""time""
""fullscreenenter"",""0"",""2983""
","
","null","<div style=""font-size:60px;"">+</div>","","null","fixation","2021-07-25 20:55:05.647","","","","",""
"","mars-trial","20","60679","0.0-10.0-1.3","A675","""event"",""trial"",""time""
""fullscreenenter"",""0"",""2983""
","
","
","""event"",""trial"",""time""
""fullscreenenter"",""0"",""2983""
","
","2225","<img style='border: 4px solid darkgrey;' src='img/tf1_4_M_ss3.jpeg'></img>","3","","exp","","0","<img src='img/tf1_4_T1_ss3_md.jpeg'></img>","0","true",""
"","html-keyboard-response","21","61181","0.0-10.0-0.4","A675","""event"",""trial"",""time""
""fullscreenenter"",""0"",""2983""
","
","
","""event"",""trial"",""time""
""fullscreenenter"",""0"",""2983""
","
","null","<div style=""font-size:60px;"">+</div>","","null","fixation","2021-07-25 20:55:08.983","","","","",""
"","mars-trial","22","63666","0.0-10.0-1.4","A675","""event"",""trial"",""time""
""fullscreenenter"",""0"",""2983""
","
","
","""event"",""trial"",""time""
""fullscreenenter"",""0"",""2983""
","
","1879.7000000476837","<img style='border: 4px solid darkgrey;' src='img/tf1_5_M_ss1.jpeg'></img>","2","","exp","","0","<img src='img/tf1_5_T1_ss1_md.jpeg'></img>","0","true",""
"","html-keyboard-response","23","64168","0.0-10.0-0.5","A675","""event"",""trial"",""time""
""fullscreenenter"",""0"",""2983""
","
","
","""event"",""trial"",""time""
""fullscreenenter"",""0"",""2983""
","
","null","<div style=""font-size:60px;"">+</div>","","null","fixation","2021-07-25 20:55:11.970","","","","",""
"","mars-trial","24","68977","0.0-10.0-1.5","A675","""event"",""trial"",""time""
""fullscreenenter"",""0"",""2983""
","
","
","""event"",""trial"",""time""
""fullscreenenter"",""0"",""2983""
","
","4200.699999928474","<img style='border: 4px solid darkgrey;' src='img/tf1_6_M_ss2.jpeg'></img>","2","","exp","","0","<img src='img/tf1_6_T1_ss2_md.jpeg'></img>","0","true",""
"","html-keyboard-response","25","69481","0.0-10.0-0.6","A675","""event"",""trial"",""time""
""fullscreenenter"",""0"",""2983""
","
","
","""event"",""trial"",""time""
""fullscreenenter"",""0"",""2983""
","
","null","<div style=""font-size:60px;"">+</div>","","null","fixation","2021-07-25 20:55:17.283","","","","",""
"","mars-trial","26","73608","0.0-10.0-1.6","A675","""event"",""trial"",""time""
""fullscreenenter"",""0"",""2983""
","
","
","""event"",""trial"",""time""
""fullscreenenter"",""0"",""2983""
","
","3519","<img style='border: 4px solid darkgrey;' src='img/tf1_7_M_ss3.jpeg'></img>","1","","exp","","0","<img src='img/tf1_7_T1_ss3_md.jpeg'></img>","0","true",""
"","html-keyboard-response","27","74112","0.0-10.0-0.7","A675","""event"",""trial"",""time""
""fullscreenenter"",""0"",""2983""
","
","
","""event"",""trial"",""time""
""fullscreenenter"",""0"",""2983""
","
","null","<div style=""font-size:60px;"">+</div>","","null","fixation","2021-07-25 20:55:21.914","","","","",""
"","mars-trial","28","78490","0.0-10.0-1.7","A675","""event"",""trial"",""time""
""fullscreenenter"",""0"",""2983""
","
","
","""event"",""trial"",""time""
""fullscreenenter"",""0"",""2983""
","
","3769.7000000476837","<img style='border: 4px solid darkgrey;' src='img/tf1_8_M_ss1.jpeg'></img>","2","","exp","","0","<img src='img/tf1_8_T1_ss1_md.jpeg'></img>","0","true",""
"","html-keyboard-response","29","78994","0.0-10.0-0.8","A675","""event"",""trial"",""time""
""fullscreenenter"",""0"",""2983""
","
","
","""event"",""trial"",""time""
""fullscreenenter"",""0"",""2983""
","
","null","<div style=""font-size:60px;"">+</div>","","null","fixation","2021-07-25 20:55:26.796","","","","",""
"","mars-trial","30","85515","0.0-10.0-1.8","A675","""event"",""trial"",""time""
""fullscreenenter"",""0"",""2983""
","
","
","""event"",""trial"",""time""
""fullscreenenter"",""0"",""2983""
","
","5911.100000023842","<img style='border: 4px solid darkgrey;' src='img/tf1_9_M_ss2.jpeg'></img>","1","","exp","","0","<img src='img/tf1_9_T1_ss2_md.jpeg'></img>","0","true",""
"","html-keyboard-response","31","86019","0.0-10.0-0.9","A675","""event"",""trial"",""time""
""fullscreenenter"",""0"",""2983""
","
","
","""event"",""trial"",""time""
""fullscreenenter"",""0"",""2983""
","
","null","<div style=""font-size:60px;"">+</div>","","null","fixation","2021-07-25 20:55:33.821","","","","",""
"","mars-trial","32","100521","0.0-10.0-1.9","A675","""event"",""trial"",""time""
""fullscreenenter"",""0"",""2983""
","
","
","""event"",""trial"",""time""
""fullscreenenter"",""0"",""2983""
","
","13889","<img style='border: 4px solid darkgrey;' src='img/tf1_10_M_ss3.jpeg'></img>","2","","exp","","1","<img src='img/tf1_10_T1_ss3_md.jpeg'></img>","0","false",""
"","html-keyboard-response","33","101025","0.0-10.0-0.10","A675","""event"",""trial"",""time""
""fullscreenenter"",""0"",""2983""
","
","
","""event"",""trial"",""time""
""fullscreenenter"",""0"",""2983""
","
","null","<div style=""font-size:60px;"">+</div>","","null","fixation","2021-07-25 20:55:48.827","","","","",""
"","mars-trial","34","112113","0.0-10.0-1.10","A675","""event"",""trial"",""time""
""fullscreenenter"",""0"",""2983""
","
","
","""event"",""trial"",""time""
""fullscreenenter"",""0"",""2983""
","
","10479.200000047684","<img style='border: 4px solid darkgrey;' src='img/tf1_11_M_ss1.jpeg'></img>","1","","exp","","0","<img src='img/tf1_11_T1_ss1_md.jpeg'></img>","0","true",""
"","html-keyboard-response","35","112618","0.0-10.0-0.11","A675","""event"",""trial"",""time""
""fullscreenenter"",""0"",""2983""
","
","
","""event"",""trial"",""time""
""fullscreenenter"",""0"",""2983""
","
","null","<div style=""font-size:60px;"">+</div>","","null","fixation","2021-07-25 20:56:00.420","","","","",""
"","mars-trial","36","117921","0.0-10.0-1.11","A675","""event"",""trial"",""time""
""fullscreenenter"",""0"",""2983""
","
","
","""event"",""trial"",""time""
""fullscreenenter"",""0"",""2983""
","
","4689.899999976158","<img style='border: 4px solid darkgrey;' src='img/tf1_12_M_ss2.jpeg'></img>","2","","exp","","3","<img src='img/tf1_12_T1_ss2_md.jpeg'></img>","0","false",""
"","html-keyboard-response","37","118423","0.0-10.0-0.12","A675","""event"",""trial"",""time""
""fullscreenenter"",""0"",""2983""
","
","
","""event"",""trial"",""time""
""fullscreenenter"",""0"",""2983""
","
","null","<div style=""font-size:60px;"">+</div>","","null","fixation","2021-07-25 20:56:06.225","","","","",""
"","mars-trial","38","130056","0.0-10.0-1.12","A675","""event"",""trial"",""time""
""fullscreenenter"",""0"",""2983""
","
","
","""event"",""trial"",""time""
""fullscreenenter"",""0"",""2983""
","
","11023.299999952316","<img style='border: 4px solid darkgrey;' src='img/tf1_13_M_ss3.jpeg'></img>","2","","exp","","0","<img src='img/tf1_13_T1_ss3_md.jpeg'></img>","0","true",""
"","html-keyboard-response","39","130569","0.0-10.0-0.13","A675","""event"",""trial"",""time""
""fullscreenenter"",""0"",""2983""
","
","
","""event"",""trial"",""time""
""fullscreenenter"",""0"",""2983""
","
","null","<div style=""font-size:60px;"">+</div>","","null","fixation","2021-07-25 20:56:18.372","","","","",""
"","mars-trial","40","140605","0.0-10.0-1.13","A675","""event"",""trial"",""time""
""fullscreenenter"",""0"",""2983""
","
","
","""event"",""trial"",""time""
""fullscreenenter"",""0"",""2983""
","
","9414.400000095367","<img style='border: 4px solid darkgrey;' src='img/tf1_14_M_ss1.jpeg'></img>","3","","exp","","0","<img src='img/tf1_14_T1_ss1_md.jpeg'></img>","0","true",""
"","html-keyboard-response","41","141110","0.0-10.0-0.14","A675","""event"",""trial"",""time""
""fullscreenenter"",""0"",""2983""
","
","
","""event"",""trial"",""time""
""fullscreenenter"",""0"",""2983""
","
","null","<div style=""font-size:60px;"">+</div>","","null","fixation","2021-07-25 20:56:28.912","","","","",""
"","mars-trial","42","144333","0.0-10.0-1.14","A675","""event"",""trial"",""time""
""fullscreenenter"",""0"",""2983""
","
","
","""event"",""trial"",""time""
""fullscreenenter"",""0"",""2983""
","
","2613.6999999284744","<img style='border: 4px solid darkgrey;' src='img/tf1_15_M_ss2.jpeg'></img>","3","","exp","","3","<img src='img/tf1_15_T1_ss2_md.jpeg'></img>","0","false",""
"","html-keyboard-response","43","144837","0.0-10.0-0.15","A675","""event"",""trial"",""time""
""fullscreenenter"",""0"",""2983""
","
","
","""event"",""trial"",""time""
""fullscreenenter"",""0"",""2983""
","
","null","<div style=""font-size:60px;"">+</div>","","null","fixation","2021-07-25 20:56:32.639","","","","",""
"","mars-trial","44","148706","0.0-10.0-1.15","A675","""event"",""trial"",""time""
""fullscreenenter"",""0"",""2983""
","
","
","""event"",""trial"",""time""
""fullscreenenter"",""0"",""2983""
","
","3259.8000000715256","<img style='border: 4px solid darkgrey;' src='img/tf1_16_M_ss3.jpeg'></img>","1","","exp","","1","<img src='img/tf1_16_T1_ss3_md.jpeg'></img>","0","false",""
"","html-keyboard-response","45","149208","0.0-10.0-0.16","A675","""event"",""trial"",""time""
""fullscreenenter"",""0"",""2983""
","
","
","""event"",""trial"",""time""
""fullscreenenter"",""0"",""2983""
","
","null","<div style=""font-size:60px;"">+</div>","","null","fixation","2021-07-25 20:56:37.010","","","","",""
"","mars-trial","46","152640","0.0-10.0-1.16","A675","""event"",""trial"",""time""
""fullscreenenter"",""0"",""2983""
","
","
","""event"",""trial"",""time""
""fullscreenenter"",""0"",""2983""
","
","2826.8000000715256","<img style='border: 4px solid darkgrey;' src='img/tf1_17_M_ss1.jpeg'></img>","2","","exp","","0","<img src='img/tf1_17_T1_ss1_md.jpeg'></img>","0","true",""
"","html-keyboard-response","47","153144","0.0-10.0-0.17","A675","""event"",""trial"",""time""
""fullscreenenter"",""0"",""2983""
","
","
","""event"",""trial"",""time""
""fullscreenenter"",""0"",""2983""
","
","null","<div style=""font-size:60px;"">+</div>","","null","fixation","2021-07-25 20:56:40.946","","","","",""
"","mars-trial","48","158212","0.0-10.0-1.17","A675","""event"",""trial"",""time""
""fullscreenenter"",""0"",""2983""
","
","
","""event"",""trial"",""time""
""fullscreenenter"",""0"",""2983""
","
","4457.299999952316","<img style='border: 4px solid darkgrey;' src='img/tf1_18_M_ss2.jpeg'></img>","3","","exp","","0","<img src='img/tf1_18_T1_ss2_md.jpeg'></img>","0","true",""
"","html-keyboard-response","49","158717","0.0-10.0-0.18","A675","""event"",""trial"",""time""
""fullscreenenter"",""0"",""2983""
","
","
","""event"",""trial"",""time""
""fullscreenenter"",""0"",""2983""
","
","null","<div style=""font-size:60px;"">+</div>","","null","fixation","2021-07-25 20:56:46.519","","","","",""
"","mars-trial","50","161609","0.0-10.0-1.18","A675","""event"",""trial"",""time""
""fullscreenenter"",""0"",""2983""
","
","
","""event"",""trial"",""time""
""fullscreenenter"",""0"",""2983""
","
","2281.2000000476837","<img style='border: 4px solid darkgrey;' src='img/tf1_19_M_ss3.jpeg'></img>","1","","exp","","3","<img src='img/tf1_19_T1_ss3_md.jpeg'></img>","0","false",""
"","html-keyboard-response","51","162112","0.0-10.0-0.19","A675","""event"",""trial"",""time""
""fullscreenenter"",""0"",""2983""
","
","
","""event"",""trial"",""time""
""fullscreenenter"",""0"",""2983""
","
","null","<div style=""font-size:60px;"">+</div>","","null","fixation","2021-07-25 20:56:49.914","","","","",""
"","mars-trial","52","164512","0.0-10.0-1.19","A675","""event"",""trial"",""time""
""fullscreenenter"",""0"",""2983""
","
","
","""event"",""trial"",""time""
""fullscreenenter"",""0"",""2983""
","
","1788.2999999523163","<img style='border: 4px solid darkgrey;' src='img/tf1_20_M_ss1.jpeg'></img>","2","","exp","","2","<img src='img/tf1_20_T1_ss1_md.jpeg'></img>","0","false",""
"","html-keyboard-response","53","165015","0.0-10.0-0.20","A675","""event"",""trial"",""time""
""fullscreenenter"",""0"",""2983""
","
","
","""event"",""trial"",""time""
""fullscreenenter"",""0"",""2983""
","
","null","<div style=""font-size:60px;"">+</div>","","null","fixation","2021-07-25 20:56:52.818","","","","",""
"","mars-trial","54","166665","0.0-10.0-1.20","A675","""event"",""trial"",""time""
""fullscreenenter"",""0"",""2983""
","
","
","""event"",""trial"",""time""
""fullscreenenter"",""0"",""2983""
","
","1039.6999999284744","<img style='border: 4px solid darkgrey;' src='img/tf1_21_M_ss2.jpeg'></img>","2","","exp","","1","<img src='img/tf1_21_T1_ss2_md.jpeg'></img>","0","false",""
"","html-keyboard-response","55","167169","0.0-10.0-0.21","A675","""event"",""trial"",""time""
""fullscreenenter"",""0"",""2983""
","
","
","""event"",""trial"",""time""
""fullscreenenter"",""0"",""2983""
","
","null","<div style=""font-size:60px;"">+</div>","","null","fixation","2021-07-25 20:56:54.971","","","","",""
"","mars-trial","56","169874","0.0-10.0-1.21","A675","""event"",""trial"",""time""
""fullscreenenter"",""0"",""2983""
","
","
","""event"",""trial"",""time""
""fullscreenenter"",""0"",""2983""
","
","2095","<img style='border: 4px solid darkgrey;' src='img/tf1_22_M_ss3.jpeg'></img>","1","","exp","","2","<img src='img/tf1_22_T1_ss3_md.jpeg'></img>","0","false",""
"","html-keyboard-response","57","170379","0.0-10.0-0.22","A675","""event"",""trial"",""time""
""fullscreenenter"",""0"",""2983""
","
","
","""event"",""trial"",""time""
""fullscreenenter"",""0"",""2983""
","
","null","<div style=""font-size:60px;"">+</div>","","null","fixation","2021-07-25 20:56:58.182","","","","",""
"","mars-trial","58","172140","0.0-10.0-1.22","A675","""event"",""trial"",""time""
""fullscreenenter"",""0"",""2983""
","
","
","""event"",""trial"",""time""
""fullscreenenter"",""0"",""2983""
","
","1151.3999999761581","<img style='border: 4px solid darkgrey;' src='img/tf1_23_M_ss1.jpeg'></img>","2","","exp","","0","<img src='img/tf1_23_T1_ss1_md.jpeg'></img>","0","true",""
"","html-keyboard-response","59","172643","0.0-10.0-0.23","A675","""event"",""trial"",""time""
""fullscreenenter"",""0"",""2983""
","
","
","""event"",""trial"",""time""
""fullscreenenter"",""0"",""2983""
","
","null","<div style=""font-size:60px;"">+</div>","","null","fixation","2021-07-25 20:57:00.446","","","","",""
"","mars-trial","60","174194","0.0-10.0-1.23","A675","""event"",""trial"",""time""
""fullscreenenter"",""0"",""2983""
","
","
","""event"",""trial"",""time""
""fullscreenenter"",""0"",""2983""
","
","940.1000000238419","<img style='border: 4px solid darkgrey;' src='img/tf1_24_M_ss2.jpeg'></img>","2","","exp","","1","<img src='img/tf1_24_T1_ss2_md.jpeg'></img>","0","false",""
"","html-keyboard-response","61","174696","0.0-10.0-0.24","A675","""event"",""trial"",""time""
""fullscreenenter"",""0"",""2983""
","
","
","""event"",""trial"",""time""
""fullscreenenter"",""0"",""2983""
","
","null","<div style=""font-size:60px;"">+</div>","","null","fixation","2021-07-25 20:57:02.498","","","","",""
"","mars-trial","62","175714","0.0-10.0-1.24","A675","""event"",""trial"",""time""
""fullscreenenter"",""0"",""2983""
","
","
","""event"",""trial"",""time""
""fullscreenenter"",""0"",""2983""
","
","409","<img style='border: 4px solid darkgrey;' src='img/tf1_25_M_ss3.jpeg'></img>","2","","exp","","0","<img src='img/tf1_25_T1_ss3_md.jpeg'></img>","0","true",""
"","html-keyboard-response","63","176225","0.0-10.0-0.25","A675","""event"",""trial"",""time""
""fullscreenenter"",""0"",""2983""
","
","
","""event"",""trial"",""time""
""fullscreenenter"",""0"",""2983""
","
","null","<div style=""font-size:60px;"">+</div>","","null","fixation","2021-07-25 20:57:04.027","","","","",""
"","mars-trial","64","178119","0.0-10.0-1.25","A675","""event"",""trial"",""time""
""fullscreenenter"",""0"",""2983""
","
","
","""event"",""trial"",""time""
""fullscreenenter"",""0"",""2983""
","
","1285.2999999523163","<img style='border: 4px solid darkgrey;' src='img/tf1_26_M_ss1.jpeg'></img>","1","","exp","","0","<img src='img/tf1_26_T1_ss1_md.jpeg'></img>","0","true",""
"","html-keyboard-response","65","178623","0.0-10.0-0.26","A675","""event"",""trial"",""time""
""fullscreenenter"",""0"",""2983""
","
","
","""event"",""trial"",""time""
""fullscreenenter"",""0"",""2983""
","
","null","<div style=""font-size:60px;"">+</div>","","null","fixation","2021-07-25 20:57:06.425","","","","",""
"","mars-trial","66","179993","0.0-10.0-1.26","A675","""event"",""trial"",""time""
""fullscreenenter"",""0"",""2983""
","
","
","""event"",""trial"",""time""
""fullscreenenter"",""0"",""2983""
","
","759.7999999523163","<img style='border: 4px solid darkgrey;' src='img/tf1_27_M_ss2.jpeg'></img>","2","","exp","","2","<img src='img/tf1_27_T1_ss2_md.jpeg'></img>","0","false",""
"","html-keyboard-response","67","180498","0.0-10.0-0.27","A675","""event"",""trial"",""time""
""fullscreenenter"",""0"",""2983""
","
","
","""event"",""trial"",""time""
""fullscreenenter"",""0"",""2983""
","
","null","<div style=""font-size:60px;"">+</div>","","null","fixation","2021-07-25 20:57:08.300","","","","",""
"","mars-trial","68","182125","0.0-10.0-1.27","A675","""event"",""trial"",""time""
""fullscreenenter"",""0"",""2983""
","
","
","""event"",""trial"",""time""
""fullscreenenter"",""0"",""2983""
","
","1018.1999999284744","<img style='border: 4px solid darkgrey;' src='img/tf1_28_M_ss3.jpeg'></img>","1","","exp","","1","<img src='img/tf1_28_T1_ss3_md.jpeg'></img>","0","false",""
"","html-keyboard-response","69","182628","0.0-10.0-0.28","A675","""event"",""trial"",""time""
""fullscreenenter"",""0"",""2983""
","
","
","""event"",""trial"",""time""
""fullscreenenter"",""0"",""2983""
","
","null","<div style=""font-size:60px;"">+</div>","","null","fixation","2021-07-25 20:57:10.430","","","","",""
"","mars-trial","70","183853","0.0-10.0-1.28","A675","""event"",""trial"",""time""
""fullscreenenter"",""0"",""2983""
","
","
","""event"",""trial"",""time""
""fullscreenenter"",""0"",""2983""
","
","615.2000000476837","<img style='border: 4px solid darkgrey;' src='img/tf1_29_M_ss1.jpeg'></img>","2","","exp","","1","<img src='img/tf1_29_T1_ss1_md.jpeg'></img>","0","false",""
"","html-keyboard-response","71","184358","0.0-10.0-0.29","A675","""event"",""trial"",""time""
""fullscreenenter"",""0"",""2983""
","
","
","""event"",""trial"",""time""
""fullscreenenter"",""0"",""2983""
","
","null","<div style=""font-size:60px;"">+</div>","","null","fixation","2021-07-25 20:57:12.160","","","","",""
"","mars-trial","72","185763","0.0-10.0-1.29","A675","""event"",""trial"",""time""
""fullscreenenter"",""0"",""2983""
","
","
","""event"",""trial"",""time""
""fullscreenenter"",""0"",""2983""
","
","794.6999999284744","<img style='border: 4px solid darkgrey;' src='img/tf1_30_M_ss2.jpeg'></img>","1","","exp","","0","<img src='img/tf1_30_T1_ss2_md.jpeg'></img>","0","true",""
"","html-keyboard-response","73","186268","0.0-10.0-0.30","A675","""event"",""trial"",""time""
""fullscreenenter"",""0"",""2983""
","
","
","""event"",""trial"",""time""
""fullscreenenter"",""0"",""2983""
","
","null","<div style=""font-size:60px;"">+</div>","","null","fixation","2021-07-25 20:57:14.070","","","","",""
"","mars-trial","74","187605","0.0-10.0-1.30","A675","""event"",""trial"",""time""
""fullscreenenter"",""0"",""2983""
","
","
","""event"",""trial"",""time""
""fullscreenenter"",""0"",""2983""
","
","725.3999999761581","<img style='border: 4px solid darkgrey;' src='img/tf1_31_M_ss3.jpeg'></img>","2","","exp","","2","<img src='img/tf1_31_T1_ss3_md.jpeg'></img>","0","false",""
"","html-keyboard-response","75","188106","0.0-10.0-0.31","A675","""event"",""trial"",""time""
""fullscreenenter"",""0"",""2983""
","
","
","""event"",""trial"",""time""
""fullscreenenter"",""0"",""2983""
","
","null","<div style=""font-size:60px;"">+</div>","","null","fixation","2021-07-25 20:57:15.908","","","","",""
"","mars-trial","76","189166","0.0-10.0-1.31","A675","""event"",""trial"",""time""
""fullscreenenter"",""0"",""2983""
","
","
","""event"",""trial"",""time""
""fullscreenenter"",""0"",""2983""
","
","455.2999999523163","<img style='border: 4px solid darkgrey;' src='img/tf1_32_M_ss1.jpeg'></img>","1","","exp","","2","<img src='img/tf1_32_T1_ss1_md.jpeg'></img>","0","false",""
"","html-keyboard-response","77","189669","0.0-10.0-0.32","A675","""event"",""trial"",""time""
""fullscreenenter"",""0"",""2983""
","
","
","""event"",""trial"",""time""
""fullscreenenter"",""0"",""2983""
","
","null","<div style=""font-size:60px;"">+</div>","","null","fixation","2021-07-25 20:57:17.471","","","","",""
"","mars-trial","78","190698","0.0-10.0-1.32","A675","""event"",""trial"",""time""
""fullscreenenter"",""0"",""2983""
","
","
","""event"",""trial"",""time""
""fullscreenenter"",""0"",""2983""
","
","422.40000009536743","<img style='border: 4px solid darkgrey;' src='img/tf1_33_M_ss2.jpeg'></img>","2","","exp","","2","<img src='img/tf1_33_T1_ss2_md.jpeg'></img>","0","false",""
"","html-keyboard-response","79","191204","0.0-10.0-0.33","A675","""event"",""trial"",""time""
""fullscreenenter"",""0"",""2983""
","
","
","""event"",""trial"",""time""
""fullscreenenter"",""0"",""2983""
","
","null","<div style=""font-size:60px;"">+</div>","","null","fixation","2021-07-25 20:57:19.006","","","","",""
"","mars-trial","80","192434","0.0-10.0-1.33","A675","""event"",""trial"",""time""
""fullscreenenter"",""0"",""2983""
","
","
","""event"",""trial"",""time""
""fullscreenenter"",""0"",""2983""
","
","623.2000000476837","<img style='border: 4px solid darkgrey;' src='img/tf1_34_M_ss3.jpeg'></img>","1","","exp","","3","<img src='img/tf1_34_T1_ss3_md.jpeg'></img>","0","false",""
"","html-keyboard-response","81","192938","0.0-10.0-0.34","A675","""event"",""trial"",""time""
""fullscreenenter"",""0"",""2983""
","
","
","""event"",""trial"",""time""
""fullscreenenter"",""0"",""2983""
","
","null","<div style=""font-size:60px;"">+</div>","","null","fixation","2021-07-25 20:57:20.740","","","","",""
"","mars-trial","82","193991","0.0-10.0-1.34","A675","""event"",""trial"",""time""
""fullscreenenter"",""0"",""2983""
","
","
","""event"",""trial"",""time""
""fullscreenenter"",""0"",""2983""
","
","448.10000002384186","<img style='border: 4px solid darkgrey;' src='img/tf1_35_M_ss1.jpeg'></img>","2","","exp","","2","<img src='img/tf1_35_T1_ss1_md.jpeg'></img>","0","false",""
"","html-keyboard-response","83","194494","0.0-10.0-0.35","A675","""event"",""trial"",""time""
""fullscreenenter"",""0"",""2983""
","
","
","""event"",""trial"",""time""
""fullscreenenter"",""0"",""2983""
","
","null","<div style=""font-size:60px;"">+</div>","","null","fixation","2021-07-25 20:57:22.296","","","","",""
"","mars-trial","84","195716","0.0-10.0-1.35","A675","""event"",""trial"",""time""
""fullscreenenter"",""0"",""2983""
","
","
","""event"",""trial"",""time""
""fullscreenenter"",""0"",""2983""
","
","616.2000000476837","<img style='border: 4px solid darkgrey;' src='img/tf1_36_M_ss2.jpeg'></img>","0","","exp","","0","<img src='img/tf1_36_T1_ss2_md.jpeg'></img>","0","true",""
"","html-keyboard-response","85","196218","0.0-10.0-0.36","A675","""event"",""trial"",""time""
""fullscreenenter"",""0"",""2983""
","
","
","""event"",""trial"",""time""
""fullscreenenter"",""0"",""2983""
","
","null","<div style=""font-size:60px;"">+</div>","","null","fixation","2021-07-25 20:57:24.020","","","","",""
"","mars-trial","86","197300","0.0-10.0-1.36","A675","""event"",""trial"",""time""
""fullscreenenter"",""0"",""2983""
","
","
","""event"",""trial"",""time""
""fullscreenenter"",""0"",""2983""
","
","475.7000000476837","<img style='border: 4px solid darkgrey;' src='img/tf1_37_M_ss3.jpeg'></img>","3","","exp","","0","<img src='img/tf1_37_T1_ss3_md.jpeg'></img>","0","true",""
"","html-keyboard-response","87","197803","0.0-10.0-0.37","A675","""event"",""trial"",""time""
""fullscreenenter"",""0"",""2983""
","
","
","""event"",""trial"",""time""
""fullscreenenter"",""0"",""2983""
","
","null","<div style=""font-size:60px;"">+</div>","","null","fixation","2021-07-25 20:57:25.605","","","","",""
"","mars-trial","88","199169","0.0-10.0-1.37","A675","""event"",""trial"",""time""
""fullscreenenter"",""0"",""2983""
","
","
","""event"",""trial"",""time""
""fullscreenenter"",""0"",""2983""
","
","760.7999999523163","<img style='border: 4px solid darkgrey;' src='img/tf1_38_M_ss1.jpeg'></img>","0","","exp","","0","<img src='img/tf1_38_T1_ss1_md.jpeg'></img>","0","true",""
"","html-keyboard-response","89","199671","0.0-10.0-0.38","A675","""event"",""trial"",""time""
""fullscreenenter"",""0"",""2983""
","
","
","""event"",""trial"",""time""
""fullscreenenter"",""0"",""2983""
","
","null","<div style=""font-size:60px;"">+</div>","","null","fixation","2021-07-25 20:57:27.473","","","","",""
"","mars-trial","90","200749","0.0-10.0-1.38","A675","""event"",""trial"",""time""
""fullscreenenter"",""0"",""2983""
","
","
","""event"",""trial"",""time""
""fullscreenenter"",""0"",""2983""
","
","472.1999999284744","<img style='border: 4px solid darkgrey;' src='img/tf1_39_M_ss2.jpeg'></img>","2","","exp","","3","<img src='img/tf1_39_T1_ss2_md.jpeg'></img>","0","false",""
"","html-keyboard-response","91","201251","0.0-10.0-0.39","A675","""event"",""trial"",""time""
""fullscreenenter"",""0"",""2983""
","
","
","""event"",""trial"",""time""
""fullscreenenter"",""0"",""2983""
","
","null","<div style=""font-size:60px;"">+</div>","","null","fixation","2021-07-25 20:57:29.053","","","","",""
"","mars-trial","92","202302","0.0-10.0-1.39","A675","""event"",""trial"",""time""
""fullscreenenter"",""0"",""2983""
","
","
","""event"",""trial"",""time""
""fullscreenenter"",""0"",""2983""
","
","444.39999997615814","<img style='border: 4px solid darkgrey;' src='img/tf1_40_M_ss3.jpeg'></img>","2","","exp","","2","<img src='img/tf1_40_T1_ss3_md.jpeg'></img>","0","false",""
"","html-keyboard-response","93","202805","0.0-10.0-0.40","A675","""event"",""trial"",""time""
""fullscreenenter"",""0"",""2983""
","
","
","""event"",""trial"",""time""
""fullscreenenter"",""0"",""2983""
","
","null","<div style=""font-size:60px;"">+</div>","","null","fixation","2021-07-25 20:57:30.607","","","","",""
"","mars-trial","94","205849","0.0-10.0-1.40","A675","""event"",""trial"",""time""
""fullscreenenter"",""0"",""2983""
","
","
","""event"",""trial"",""time""
""fullscreenenter"",""0"",""2983""
","
","2435.899999976158","<img style='border: 4px solid darkgrey;' src='img/tf1_41_M_ss1.jpeg'></img>","2","","exp","","0","<img src='img/tf1_41_T1_ss1_md.jpeg'></img>","0","true",""
"","html-keyboard-response","95","206354","0.0-10.0-0.41","A675","""event"",""trial"",""time""
""fullscreenenter"",""0"",""2983""
","
","
","""event"",""trial"",""time""
""fullscreenenter"",""0"",""2983""
","
","null","<div style=""font-size:60px;"">+</div>","","null","fixation","2021-07-25 20:57:34.156","","","","",""
"","mars-trial","96","208282","0.0-10.0-1.41","A675","""event"",""trial"",""time""
""fullscreenenter"",""0"",""2983""
","
","
","""event"",""trial"",""time""
""fullscreenenter"",""0"",""2983""
","
","1317.5","<img style='border: 4px solid darkgrey;' src='img/tf1_42_M_ss2.jpeg'></img>","3","","exp","","3","<img src='img/tf1_42_T1_ss2_md.jpeg'></img>","0","false",""
"","html-keyboard-response","97","208784","0.0-10.0-0.42","A675","""event"",""trial"",""time""
""fullscreenenter"",""0"",""2983""
","
","
","""event"",""trial"",""time""
""fullscreenenter"",""0"",""2983""
","
","null","<div style=""font-size:60px;"">+</div>","","null","fixation","2021-07-25 20:57:36.586","","","","",""
"","mars-trial","98","209845","0.0-10.0-1.42","A675","""event"",""trial"",""time""
""fullscreenenter"",""0"",""2983""
","
","
","""event"",""trial"",""time""
""fullscreenenter"",""0"",""2983""
","
","454.5","<img style='border: 4px solid darkgrey;' src='img/tf1_43_M_ss3.jpeg'></img>","1","","exp","","1","<img src='img/tf1_43_T1_ss3_md.jpeg'></img>","0","false",""
"","html-keyboard-response","99","210347","0.0-10.0-0.43","A675","""event"",""trial"",""time""
""fullscreenenter"",""0"",""2983""
","
","
","""event"",""trial"",""time""
""fullscreenenter"",""0"",""2983""
","
","null","<div style=""font-size:60px;"">+</div>","","null","fixation","2021-07-25 20:57:38.149","","","","",""
"","mars-trial","100","211336","0.0-10.0-1.43","A675","""event"",""trial"",""time""
""fullscreenenter"",""0"",""2983""
","
","
","""event"",""trial"",""time""
""fullscreenenter"",""0"",""2983""
","
","378.7000000476837","<img style='border: 4px solid darkgrey;' src='img/tf1_44_M_ss1.jpeg'></img>","1","","exp","","0","<img src='img/tf1_44_T1_ss1_md.jpeg'></img>","0","true",""
"","html-keyboard-response","101","211837","0.0-10.0-0.44","A675","""event"",""trial"",""time""
""fullscreenenter"",""0"",""2983""
","
","
","""event"",""trial"",""time""
""fullscreenenter"",""0"",""2983""
","
","null","<div style=""font-size:60px;"">+</div>","","null","fixation","2021-07-25 20:57:39.639","","","","",""
"","mars-trial","102","212837","0.0-10.0-1.44","A675","""event"",""trial"",""time""
""fullscreenenter"",""0"",""2983""
","
","
","""event"",""trial"",""time""
""fullscreenenter"",""0"",""2983""
","
","393.3000000715256","<img style='border: 4px solid darkgrey;' src='img/tf1_45_M_ss2.jpeg'></img>","3","","exp","","3","<img src='img/tf1_45_T1_ss2_md.jpeg'></img>","0","false",""
"","html-keyboard-response","103","213338","0.0-10.0-0.45","A675","""event"",""trial"",""time""
""fullscreenenter"",""0"",""2983""
","
","
","""event"",""trial"",""time""
""fullscreenenter"",""0"",""2983""
","
","null","<div style=""font-size:60px;"">+</div>","","null","fixation","2021-07-25 20:57:41.141","","","","",""
"","mars-trial","104","214221","0.0-10.0-1.45","A675","""event"",""trial"",""time""
""fullscreenenter"",""0"",""2983""
","
","
","""event"",""trial"",""time""
""fullscreenenter"",""0"",""2983""
","
","273","<img style='border: 4px solid darkgrey;' src='img/tf1_46_M_ss3.jpeg'></img>","1","","exp","","1","<img src='img/tf1_46_T1_ss3_md.jpeg'></img>","0","false",""
"","html-keyboard-response","105","214723","0.0-10.0-0.46","A675","""event"",""trial"",""time""
""fullscreenenter"",""0"",""2983""
","
","
","""event"",""trial"",""time""
""fullscreenenter"",""0"",""2983""
","
","null","<div style=""font-size:60px;"">+</div>","","null","fixation","2021-07-25 20:57:42.525","","","","",""
"","mars-trial","106","215811","0.0-10.0-1.46","A675","""event"",""trial"",""time""
""fullscreenenter"",""0"",""2983""
","
","
","""event"",""trial"",""time""
""fullscreenenter"",""0"",""2983""
","
","479.1999999284744","<img style='border: 4px solid darkgrey;' src='img/tf1_47_M_ss1.jpeg'></img>","2","","exp","","2","<img src='img/tf1_47_T1_ss1_md.jpeg'></img>","0","false",""
"","html-keyboard-response","107","216313","0.0-10.0-0.47","A675","""event"",""trial"",""time""
""fullscreenenter"",""0"",""2983""
","
","
","""event"",""trial"",""time""
""fullscreenenter"",""0"",""2983""
","
","null","<div style=""font-size:60px;"">+</div>","","null","fixation","2021-07-25 20:57:44.115","","","","",""
"","mars-trial","108","217385","0.0-10.0-1.47","A675","""event"",""trial"",""time""
""fullscreenenter"",""0"",""2983""
","
","
","""event"",""trial"",""time""
""fullscreenenter"",""0"",""2983""
","
","465.39999997615814","<img style='border: 4px solid darkgrey;' src='img/tf1_48_M_ss2.jpeg'></img>","0","","exp","","3","<img src='img/tf1_48_T1_ss2_md.jpeg'></img>","0","false",""
"","html-keyboard-response","109","217889","0.0-10.0-0.48","A675","""event"",""trial"",""time""
""fullscreenenter"",""0"",""2983""
","
","
","""event"",""trial"",""time""
""fullscreenenter"",""0"",""2983""
","
","null","<div style=""font-size:60px;"">+</div>","","null","fixation","2021-07-25 20:57:45.691","","","","",""
"","mars-trial","110","218939","0.0-10.0-1.48","A675","""event"",""trial"",""time""
""fullscreenenter"",""0"",""2983""
","
","
","""event"",""trial"",""time""
""fullscreenenter"",""0"",""2983""
","
","444.60000002384186","<img style='border: 4px solid darkgrey;' src='img/tf1_49_M_ss3.jpeg'></img>","3","","exp","","0","<img src='img/tf1_49_T1_ss3_md.jpeg'></img>","0","true",""
"","html-keyboard-response","111","219442","0.0-10.0-0.49","A675","""event"",""trial"",""time""
""fullscreenenter"",""0"",""2983""
","
","
","""event"",""trial"",""time""
""fullscreenenter"",""0"",""2983""
","
","null","<div style=""font-size:60px;"">+</div>","","null","fixation","2021-07-25 20:57:47.244","","","","",""
"","mars-trial","112","220474","0.0-10.0-1.49","A675","""event"",""trial"",""time""
""fullscreenenter"",""0"",""2983""
","
","
","""event"",""trial"",""time""
""fullscreenenter"",""0"",""2983""
","
","421.60000002384186","<img style='border: 4px solid darkgrey;' src='img/tf1_50_M_ss1.jpeg'></img>","1","","exp","","2","<img src='img/tf1_50_T1_ss1_md.jpeg'></img>","0","false",""
"","html-keyboard-response","113","220976","0.0-10.0-0.50","A675","""event"",""trial"",""time""
""fullscreenenter"",""0"",""2983""
","
","
","""event"",""trial"",""time""
""fullscreenenter"",""0"",""2983""
","
","null","<div style=""font-size:60px;"">+</div>","","null","fixation","2021-07-25 20:57:48.778","","","","",""
"","mars-trial","114","222558","0.0-10.0-1.50","A675","""event"",""trial"",""time""
""fullscreenenter"",""0"",""2983""
","
","
","""event"",""trial"",""time""
""fullscreenenter"",""0"",""2983""
","
","975.8999999761581","<img style='border: 4px solid darkgrey;' src='img/tf1_51_M_ss2.jpeg'></img>","1","","exp","","0","<img src='img/tf1_51_T1_ss2_md.jpeg'></img>","0","true",""
"","html-keyboard-response","115","223061","0.0-10.0-0.51","A675","""event"",""trial"",""time""
""fullscreenenter"",""0"",""2983""
","
","
","""event"",""trial"",""time""
""fullscreenenter"",""0"",""2983""
","
","null","<div style=""font-size:60px;"">+</div>","","null","fixation","2021-07-25 20:57:50.863","","","","",""
"","mars-trial","116","224141","0.0-10.0-1.51","A675","""event"",""trial"",""time""
""fullscreenenter"",""0"",""2983""
","
","
","""event"",""trial"",""time""
""fullscreenenter"",""0"",""2983""
","
","470.40000009536743","<img style='border: 4px solid darkgrey;' src='img/tf1_52_M_ss3.jpeg'></img>","2","","exp","","3","<img src='img/tf1_52_T1_ss3_md.jpeg'></img>","0","false",""
"","html-keyboard-response","117","224646","0.0-10.0-0.52","A675","""event"",""trial"",""time""
""fullscreenenter"",""0"",""2983""
","
","
","""event"",""trial"",""time""
""fullscreenenter"",""0"",""2983""
","
","null","<div style=""font-size:60px;"">+</div>","","null","fixation","2021-07-25 20:57:52.449","","","","",""
"","mars-trial","118","225707","0.0-10.0-1.52","A675","""event"",""trial"",""time""
""fullscreenenter"",""0"",""2983""
","
","
","""event"",""trial"",""time""
""fullscreenenter"",""0"",""2983""
","
","453.7000000476837","<img style='border: 4px solid darkgrey;' src='img/tf1_53_M_ss1.jpeg'></img>","2","","exp","","3","<img src='img/tf1_53_T1_ss1_md.jpeg'></img>","0","false",""
"","html-keyboard-response","119","226213","0.0-10.0-0.53","A675","""event"",""trial"",""time""
""fullscreenenter"",""0"",""2983""
","
","
","""event"",""trial"",""time""
""fullscreenenter"",""0"",""2983""
","
","null","<div style=""font-size:60px;"">+</div>","","null","fixation","2021-07-25 20:57:54.015","","","","",""
"","mars-trial","120","227207","0.0-10.0-1.53","A675","""event"",""trial"",""time""
""fullscreenenter"",""0"",""2983""
","
","
","""event"",""trial"",""time""
""fullscreenenter"",""0"",""2983""
","
","385.2999999523163","<img style='border: 4px solid darkgrey;' src='img/tf1_54_M_ss2.jpeg'></img>","3","","exp","","3","<img src='img/tf1_54_T1_ss2_md.jpeg'></img>","0","false",""
"","html-keyboard-response","121","227713","0.0-10.0-0.54","A675","""event"",""trial"",""time""
""fullscreenenter"",""0"",""2983""
","
","
","""event"",""trial"",""time""
""fullscreenenter"",""0"",""2983""
","
","null","<div style=""font-size:60px;"">+</div>","","null","fixation","2021-07-25 20:57:55.515","","","","",""
"","mars-trial","122","228691","0.0-10.0-1.54","A675","""event"",""trial"",""time""
""fullscreenenter"",""0"",""2983""
","
","
","""event"",""trial"",""time""
""fullscreenenter"",""0"",""2983""
","
","371","<img style='border: 4px solid darkgrey;' src='img/tf1_55_M_ss3.jpeg'></img>","2","","exp","","2","<img src='img/tf1_55_T1_ss3_md.jpeg'></img>","0","false",""
"","html-keyboard-response","123","229193","0.0-10.0-0.55","A675","""event"",""trial"",""time""
""fullscreenenter"",""0"",""2983""
","
","
","""event"",""trial"",""time""
""fullscreenenter"",""0"",""2983""
","
","null","<div style=""font-size:60px;"">+</div>","","null","fixation","2021-07-25 20:57:56.995","","","","",""
"","mars-trial","124","230042","0.0-10.0-1.55","A675","""event"",""trial"",""time""
""fullscreenenter"",""0"",""2983""
","
","
","""event"",""trial"",""time""
""fullscreenenter"",""0"",""2983""
","
","241","<img style='border: 4px solid darkgrey;' src='img/tf1_56_M_ss1.jpeg'></img>","1","","exp","","1","<img src='img/tf1_56_T1_ss1_md.jpeg'></img>","0","false",""
"","html-keyboard-response","125","230544","0.0-10.0-0.56","A675","""event"",""trial"",""time""
""fullscreenenter"",""0"",""2983""
","
","
","""event"",""trial"",""time""
""fullscreenenter"",""0"",""2983""
","
","null","<div style=""font-size:60px;"">+</div>","","null","fixation","2021-07-25 20:57:58.346","","","","",""
"","mars-trial","126","231343","0.0-10.0-1.56","A675","""event"",""trial"",""time""
""fullscreenenter"",""0"",""2983""
","
","
","""event"",""trial"",""time""
""fullscreenenter"",""0"",""2983""
","
","191","<img style='border: 4px solid darkgrey;' src='img/tf1_57_M_ss2.jpeg'></img>","3","","exp","","3","<img src='img/tf1_57_T1_ss2_md.jpeg'></img>","0","false",""
"","html-keyboard-response","127","231845","0.0-10.0-0.57","A675","""event"",""trial"",""time""
""fullscreenenter"",""0"",""2983""
","
","
","""event"",""trial"",""time""
""fullscreenenter"",""0"",""2983""
","
","null","<div style=""font-size:60px;"">+</div>","","null","fixation","2021-07-25 20:57:59.647","","","","",""
"","mars-trial","128","232850","0.0-10.0-1.57","A675","""event"",""trial"",""time""
""fullscreenenter"",""0"",""2983""
","
","
","""event"",""trial"",""time""
""fullscreenenter"",""0"",""2983""
","
","398.60000002384186","<img style='border: 4px solid darkgrey;' src='img/tf1_58_M_ss3.jpeg'></img>","0","","exp","","2","<img src='img/tf1_58_T1_ss3_md.jpeg'></img>","0","false",""
"","html-keyboard-response","129","233354","0.0-10.0-0.58","A675","""event"",""trial"",""time""
""fullscreenenter"",""0"",""2983""
","
","
","""event"",""trial"",""time""
""fullscreenenter"",""0"",""2983""
","
","null","<div style=""font-size:60px;"">+</div>","","null","fixation","2021-07-25 20:58:01.156","","","","",""
"","mars-trial","130","234157","0.0-10.0-1.58","A675","""event"",""trial"",""time""
""fullscreenenter"",""0"",""2983""
","
","
","""event"",""trial"",""time""
""fullscreenenter"",""0"",""2983""
","
","195.89999997615814","<img style='border: 4px solid darkgrey;' src='img/tf1_59_M_ss1.jpeg'></img>","1","","exp","","0","<img src='img/tf1_59_T1_ss1_md.jpeg'></img>","0","true",""
"","html-keyboard-response","131","234658","0.0-10.0-0.59","A675","""event"",""trial"",""time""
""fullscreenenter"",""0"",""2983""
","
","
","""event"",""trial"",""time""
""fullscreenenter"",""0"",""2983""
","
","null","<div style=""font-size:60px;"">+</div>","","null","fixation","2021-07-25 20:58:02.461","","","","",""
"","mars-trial","132","235538","0.0-10.0-1.59","A675","""event"",""trial"",""time""
""fullscreenenter"",""0"",""2983""
","
","
","""event"",""trial"",""time""
""fullscreenenter"",""0"",""2983""
","
","271.89999997615814","<img style='border: 4px solid darkgrey;' src='img/tf1_60_M_ss2.jpeg'></img>","1","","exp","","3","<img src='img/tf1_60_T1_ss2_md.jpeg'></img>","0","false",""
"","html-keyboard-response","133","236040","0.0-10.0-0.60","A675","""event"",""trial"",""time""
""fullscreenenter"",""0"",""2983""
","
","
","""event"",""trial"",""time""
""fullscreenenter"",""0"",""2983""
","
","null","<div style=""font-size:60px;"">+</div>","","null","fixation","2021-07-25 20:58:03.842","","","","",""
"","mars-trial","134","236899","0.0-10.0-1.60","A675","""event"",""trial"",""time""
""fullscreenenter"",""0"",""2983""
","
","
","""event"",""trial"",""time""
""fullscreenenter"",""0"",""2983""
","
","249.10000002384186","<img style='border: 4px solid darkgrey;' src='img/tf1_61_M_ss3.jpeg'></img>","2","","exp","","1","<img src='img/tf1_61_T1_ss3_md.jpeg'></img>","0","false",""
"","html-keyboard-response","135","237401","0.0-10.0-0.61","A675","""event"",""trial"",""time""
""fullscreenenter"",""0"",""2983""
","
","
","""event"",""trial"",""time""
""fullscreenenter"",""0"",""2983""
","
","null","<div style=""font-size:60px;"">+</div>","","null","fixation","2021-07-25 20:58:05.203","","","","",""
"","mars-trial","136","238799","0.0-10.0-1.61","A675","""event"",""trial"",""time""
""fullscreenenter"",""0"",""2983""
","
","
","""event"",""trial"",""time""
""fullscreenenter"",""0"",""2983""
","
","791.2000000476837","<img style='border: 4px solid darkgrey;' src='img/tf1_62_M_ss1.jpeg'></img>","1","","exp","","3","<img src='img/tf1_62_T1_ss1_md.jpeg'></img>","0","false",""
"","html-keyboard-response","137","239304","0.0-10.0-0.62","A675","""event"",""trial"",""time""
""fullscreenenter"",""0"",""2983""
","
","
","""event"",""trial"",""time""
""fullscreenenter"",""0"",""2983""
","
","null","<div style=""font-size:60px;"">+</div>","","null","fixation","2021-07-25 20:58:07.106","","","","",""
"","mars-trial","138","240490","0.0-10.0-1.62","A675","""event"",""trial"",""time""
""fullscreenenter"",""0"",""2983""
","
","
","""event"",""trial"",""time""
""fullscreenenter"",""0"",""2983""
","
","576","<img style='border: 4px solid darkgrey;' src='img/tf1_63_M_ss2.jpeg'></img>","0","","exp","","2","<img src='img/tf1_63_T1_ss2_md.jpeg'></img>","0","false",""
"","html-keyboard-response","139","240993","0.0-10.0-0.63","A675","""event"",""trial"",""time""
""fullscreenenter"",""0"",""2983""
","
","
","""event"",""trial"",""time""
""fullscreenenter"",""0"",""2983""
","
","null","<div style=""font-size:60px;"">+</div>","","null","fixation","2021-07-25 20:58:08.795","","","","",""
"","mars-trial","140","242097","0.0-10.0-1.63","A675","""event"",""trial"",""time""
""fullscreenenter"",""0"",""2983""
","
","
","""event"",""trial"",""time""
""fullscreenenter"",""0"",""2983""
","
","494.60000002384186","<img style='border: 4px solid darkgrey;' src='img/tf1_64_M_ss3.jpeg'></img>","0","","exp","","2","<img src='img/tf1_64_T1_ss3_md.jpeg'></img>","0","false",""
"","html-keyboard-response","141","242598","0.0-10.0-0.64","A675","""event"",""trial"",""time""
""fullscreenenter"",""0"",""2983""
","
","
","""event"",""trial"",""time""
""fullscreenenter"",""0"",""2983""
","
","null","<div style=""font-size:60px;"">+</div>","","null","fixation","2021-07-25 20:58:10.400","","","","",""
"","mars-trial","142","243614","0.0-10.0-1.64","A675","""event"",""trial"",""time""
""fullscreenenter"",""0"",""2983""
","
","
","""event"",""trial"",""time""
""fullscreenenter"",""0"",""2983""
","
","409.10000002384186","<img style='border: 4px solid darkgrey;' src='img/tf1_65_M_ss1.jpeg'></img>","2","","exp","","0","<img src='img/tf1_65_T1_ss1_md.jpeg'></img>","0","true",""
"","html-keyboard-response","143","244117","0.0-10.0-0.65","A675","""event"",""trial"",""time""
""fullscreenenter"",""0"",""2983""
","
","
","""event"",""trial"",""time""
""fullscreenenter"",""0"",""2983""
","
","null","<div style=""font-size:60px;"">+</div>","","null","fixation","2021-07-25 20:58:11.919","","","","",""
"","mars-trial","144","245243","0.0-10.0-1.65","A675","""event"",""trial"",""time""
""fullscreenenter"",""0"",""2983""
","
","
","""event"",""trial"",""time""
""fullscreenenter"",""0"",""2983""
","
","515.7999999523163","<img style='border: 4px solid darkgrey;' src='img/tf1_66_M_ss2.jpeg'></img>","1","","exp","","3","<img src='img/tf1_66_T1_ss2_md.jpeg'></img>","0","false",""
"","html-keyboard-response","145","245745","0.0-10.0-0.66","A675","""event"",""trial"",""time""
""fullscreenenter"",""0"",""2983""
","
","
","""event"",""trial"",""time""
""fullscreenenter"",""0"",""2983""
","
","null","<div style=""font-size:60px;"">+</div>","","null","fixation","2021-07-25 20:58:13.547","","","","",""
"","mars-trial","146","246893","0.0-10.0-1.66","A675","""event"",""trial"",""time""
""fullscreenenter"",""0"",""2983""
","
","
","""event"",""trial"",""time""
""fullscreenenter"",""0"",""2983""
","
","540.8000000715256","<img style='border: 4px solid darkgrey;' src='img/tf1_67_M_ss3.jpeg'></img>","3","","exp","","3","<img src='img/tf1_67_T1_ss3_md.jpeg'></img>","0","false",""
"","html-keyboard-response","147","247395","0.0-10.0-0.67","A675","""event"",""trial"",""time""
""fullscreenenter"",""0"",""2983""
","
","
","""event"",""trial"",""time""
""fullscreenenter"",""0"",""2983""
","
","null","<div style=""font-size:60px;"">+</div>","","null","fixation","2021-07-25 20:58:15.197","","","","",""
"","mars-trial","148","248285","0.0-10.0-1.67","A675","""event"",""trial"",""time""
""fullscreenenter"",""0"",""2983""
","
","
","""event"",""trial"",""time""
""fullscreenenter"",""0"",""2983""
","
","285","<img style='border: 4px solid darkgrey;' src='img/tf1_68_M_ss1.jpeg'></img>","1","","exp","","1","<img src='img/tf1_68_T1_ss1_md.jpeg'></img>","0","false",""
"","html-keyboard-response","149","248787","0.0-10.0-0.68","A675","""event"",""trial"",""time""
""fullscreenenter"",""0"",""2983""
","
","
","""event"",""trial"",""time""
""fullscreenenter"",""0"",""2983""
","
","null","<div style=""font-size:60px;"">+</div>","","null","fixation","2021-07-25 20:58:16.589","","","","",""
"","mars-trial","150","249876","0.0-10.0-1.68","A675","""event"",""trial"",""time""
""fullscreenenter"",""0"",""2983""
","
","
","""event"",""trial"",""time""
""fullscreenenter"",""0"",""2983""
","
","482.3000000715256","<img style='border: 4px solid darkgrey;' src='img/tf1_69_M_ss2.jpeg'></img>","1","","exp","","0","<img src='img/tf1_69_T1_ss2_md.jpeg'></img>","0","true",""
"","html-keyboard-response","151","250378","0.0-10.0-0.69","A675","""event"",""trial"",""time""
""fullscreenenter"",""0"",""2983""
","
","
","""event"",""trial"",""time""
""fullscreenenter"",""0"",""2983""
","
","null","<div style=""font-size:60px;"">+</div>","","null","fixation","2021-07-25 20:58:18.180","","","","",""
"","mars-trial","152","251295","0.0-10.0-1.69","A675","""event"",""trial"",""time""
""fullscreenenter"",""0"",""2983""
","
","
","""event"",""trial"",""time""
""fullscreenenter"",""0"",""2983""
","
","311","<img style='border: 4px solid darkgrey;' src='img/tf1_70_M_ss3.jpeg'></img>","2","","exp","","2","<img src='img/tf1_70_T1_ss3_md.jpeg'></img>","0","false",""
"","html-keyboard-response","153","251797","0.0-10.0-0.70","A675","""event"",""trial"",""time""
""fullscreenenter"",""0"",""2983""
","
","
","""event"",""trial"",""time""
""fullscreenenter"",""0"",""2983""
","
","null","<div style=""font-size:60px;"">+</div>","","null","fixation","2021-07-25 20:58:19.599","","","","",""
"","mars-trial","154","252711","0.0-10.0-1.70","A675","""event"",""trial"",""time""
""fullscreenenter"",""0"",""2983""
","
","
","""event"",""trial"",""time""
""fullscreenenter"",""0"",""2983""
","
","306.1999999284744","<img style='border: 4px solid darkgrey;' src='img/tf1_71_M_ss1.jpeg'></img>","1","","exp","","3","<img src='img/tf1_71_T1_ss1_md.jpeg'></img>","0","false",""
"","html-keyboard-response","155","253213","0.0-10.0-0.71","A675","""event"",""trial"",""time""
""fullscreenenter"",""0"",""2983""
","
","
","""event"",""trial"",""time""
""fullscreenenter"",""0"",""2983""
","
","null","<div style=""font-size:60px;"">+</div>","","null","fixation","2021-07-25 20:58:21.015","","","","",""
"","mars-trial","156","254097","0.0-10.0-1.71","A675","""event"",""trial"",""time""
""fullscreenenter"",""0"",""2983""
","
","
","""event"",""trial"",""time""
""fullscreenenter"",""0"",""2983""
","
","278.39999997615814","<img style='border: 4px solid darkgrey;' src='img/tf1_72_M_ss2.jpeg'></img>","0","","exp","","2","<img src='img/tf1_72_T1_ss2_md.jpeg'></img>","0","false",""
"","html-keyboard-response","157","254607","0.0-10.0-0.72","A675","""event"",""trial"",""time""
""fullscreenenter"",""0"",""2983""
","
","
","""event"",""trial"",""time""
""fullscreenenter"",""0"",""2983""
","
","null","<div style=""font-size:60px;"">+</div>","","null","fixation","2021-07-25 20:58:22.409","","","","",""
"","mars-trial","158","255879","0.0-10.0-1.72","A675","""event"",""trial"",""time""
""fullscreenenter"",""0"",""2983""
","
","
","""event"",""trial"",""time""
""fullscreenenter"",""0"",""2983""
","
","664.6000000238419","<img style='border: 4px solid darkgrey;' src='img/tf1_73_M_ss3.jpeg'></img>","2","","exp","","3","<img src='img/tf1_73_T1_ss3_md.jpeg'></img>","0","false",""
"","html-keyboard-response","159","256380","0.0-10.0-0.73","A675","""event"",""trial"",""time""
""fullscreenenter"",""0"",""2983""
","
","
","""event"",""trial"",""time""
""fullscreenenter"",""0"",""2983""
","
","null","<div style=""font-size:60px;"">+</div>","","null","fixation","2021-07-25 20:58:24.182","","","","",""
"","mars-trial","160","257359","0.0-10.0-1.73","A675","""event"",""trial"",""time""
""fullscreenenter"",""0"",""2983""
","
","
","""event"",""trial"",""time""
""fullscreenenter"",""0"",""2983""
","
","370.89999997615814","<img style='border: 4px solid darkgrey;' src='img/tf1_74_M_ss1.jpeg'></img>","1","","exp","","3","<img src='img/tf1_74_T1_ss1_md.jpeg'></img>","0","false",""
"","html-keyboard-response","161","257865","0.0-10.0-0.74","A675","""event"",""trial"",""time""
""fullscreenenter"",""0"",""2983""
","
","
","""event"",""trial"",""time""
""fullscreenenter"",""0"",""2983""
","
","null","<div style=""font-size:60px;"">+</div>","","null","fixation","2021-07-25 20:58:25.667","","","","",""
"","mars-trial","162","258778","0.0-10.0-1.74","A675","""event"",""trial"",""time""
""fullscreenenter"",""0"",""2983""
","
","
","""event"",""trial"",""time""
""fullscreenenter"",""0"",""2983""
","
","306.10000002384186","<img style='border: 4px solid darkgrey;' src='img/tf1_75_M_ss2.jpeg'></img>","3","","exp","","1","<img src='img/tf1_75_T1_ss2_md.jpeg'></img>","0","false",""
"","html-keyboard-response","163","259280","0.0-10.0-0.75","A675","""event"",""trial"",""time""
""fullscreenenter"",""0"",""2983""
","
","
","""event"",""trial"",""time""
""fullscreenenter"",""0"",""2983""
","
","null","<div style=""font-size:60px;"">+</div>","","null","fixation","2021-07-25 20:58:27.082","","","","",""
"","mars-trial","164","260301","0.0-10.0-1.75","A675","""event"",""trial"",""time""
""fullscreenenter"",""0"",""2983""
","
","
","""event"",""trial"",""time""
""fullscreenenter"",""0"",""2983""
","
","416.39999997615814","<img style='border: 4px solid darkgrey;' src='img/tf1_76_M_ss3.jpeg'></img>","1","","exp","","2","<img src='img/tf1_76_T1_ss3_md.jpeg'></img>","0","false",""
"","html-keyboard-response","165","260804","0.0-10.0-0.76","A675","""event"",""trial"",""time""
""fullscreenenter"",""0"",""2983""
","
","
","""event"",""trial"",""time""
""fullscreenenter"",""0"",""2983""
","
","null","<div style=""font-size:60px;"">+</div>","","null","fixation","2021-07-25 20:58:28.606","","","","",""
"","mars-trial","166","261559","0.0-10.0-1.76","A675","""event"",""trial"",""time""
""fullscreenenter"",""0"",""2983""
","
","
","""event"",""trial"",""time""
""fullscreenenter"",""0"",""2983""
","
","150.09999990463257","<img style='border: 4px solid darkgrey;' src='img/tf1_77_M_ss1.jpeg'></img>","2","","exp","","3","<img src='img/tf1_77_T1_ss1_md.jpeg'></img>","0","false",""
"","html-keyboard-response","167","262063","0.0-10.0-0.77","A675","""event"",""trial"",""time""
""fullscreenenter"",""0"",""2983""
","
","
","""event"",""trial"",""time""
""fullscreenenter"",""0"",""2983""
","
","null","<div style=""font-size:60px;"">+</div>","","null","fixation","2021-07-25 20:58:29.865","","","","",""
"","mars-trial","168","262990","0.0-10.0-1.77","A675","""event"",""trial"",""time""
""fullscreenenter"",""0"",""2983""
","
","
","""event"",""trial"",""time""
""fullscreenenter"",""0"",""2983""
","
","317.10000002384186","<img style='border: 4px solid darkgrey;' src='img/tf1_78_M_ss2.jpeg'></img>","0","","exp","","1","<img src='img/tf1_78_T1_ss2_md.jpeg'></img>","0","false",""
"","html-keyboard-response","169","263492","0.0-10.0-0.78","A675","""event"",""trial"",""time""
""fullscreenenter"",""0"",""2983""
","
","
","""event"",""trial"",""time""
""fullscreenenter"",""0"",""2983""
","
","null","<div style=""font-size:60px;"">+</div>","","null","fixation","2021-07-25 20:58:31.294","","","","",""
"","mars-trial","170","264534","0.0-10.0-1.78","A675","""event"",""trial"",""time""
""fullscreenenter"",""0"",""2983""
","
","
","""event"",""trial"",""time""
""fullscreenenter"",""0"",""2983""
","
","424.7999999523163","<img style='border: 4px solid darkgrey;' src='img/tf1_79_M_ss3.jpeg'></img>","2","","exp","","1","<img src='img/tf1_79_T1_ss3_md.jpeg'></img>","0","false",""
"","html-keyboard-response","171","265036","0.0-10.0-0.79","A675","""event"",""trial"",""time""
""fullscreenenter"",""0"",""2983""
","
","
","""event"",""trial"",""time""
""fullscreenenter"",""0"",""2983""
","
","null","<div style=""font-size:60px;"">+</div>","","null","fixation","2021-07-25 20:58:32.838","","","","",""
"","mars-trial","172","266105","0.0-10.0-1.79","A675","""event"",""trial"",""time""
""fullscreenenter"",""0"",""2983""
","
","
","""event"",""trial"",""time""
""fullscreenenter"",""0"",""2983""
","
","462.5","<img style='border: 4px solid darkgrey;' src='img/tf1_80_M_ss1.jpeg'></img>","3","","exp","","1","<img src='img/tf1_80_T1_ss1_md.jpeg'></img>","0","false",""
"","audio-button-response","173","268331","0.0-11.0","A675","""event"",""trial"",""time""
""fullscreenenter"",""0"",""2983""
","
","
","""event"",""trial"",""time""
""fullscreenenter"",""0"",""2983""
","
","2222.3000000715256","audio/mars_instructions_slide5.wav","0","","","","","","","",""
