"success","trial_type","trial_index","time_elapsed","internal_node_id","subject_id","interactions","blur_events","focus_events","fullscreenenter_events","fullscreenexit_events","rt","stimulus","button_pressed","key_press","part","timestamp","unshuffled_button","correct_response","correct_button","correct","value"
"true","fullscreen","0","6451","0.0-0.0","890","""event"",""trial"",""time""
""fullscreenenter"",""0"",""5448""
","
","
","""event"",""trial"",""time""
""fullscreenenter"",""0"",""5448""
","
","","","","","","","","","","",""
"","pavlovia","1","6465","0.0-1.0","890","""event"",""trial"",""time""
""fullscreenenter"",""0"",""5448""
","
","
","""event"",""trial"",""time""
""fullscreenenter"",""0"",""5448""
","
","","","","","","","","","","",""
"","html-button-response","2","9087","0.0-2.0","890","""event"",""trial"",""time""
""fullscreenenter"",""0"",""5448""
","
","
","""event"",""trial"",""time""
""fullscreenenter"",""0"",""5448""
","
","2617.60000000149","<p>Welcome! Press START to begin.</p><br>","0","","","","","","","",""
"","audio-button-response","3","19049","0.0-3.0","890","""event"",""trial"",""time""
""fullscreenenter"",""0"",""5448""
","
","
","""event"",""trial"",""time""
""fullscreenenter"",""0"",""5448""
","
","9953.70000000298","audio/mars_instructions_slide2.wav","0","","","","","","","",""
"","audio-button-response","4","20961","0.0-4.0","890","""event"",""trial"",""time""
""fullscreenenter"",""0"",""5448""
","
","
","""event"",""trial"",""time""
""fullscreenenter"",""0"",""5448""
","
","1902.3999999985099","audio/mars_instructions_slide3.wav","0","","","","","","","",""
"","html-keyboard-response","5","21472","0.0-5.0-0.0","890","""event"",""trial"",""time""
""fullscreenenter"",""0"",""5448""
","
","
","""event"",""trial"",""time""
""fullscreenenter"",""0"",""5448""
","
","null","<div style=""font-size:60px;"">+</div>","","null","fixation","2021-08-16 00:31:23.421","","","","",""
"","mars-trial","6","27048","0.0-5.0-1.0","890","""event"",""trial"",""time""
""fullscreenenter"",""0"",""5448""
","
","
","""event"",""trial"",""time""
""fullscreenenter"",""0"",""5448""
","
","3453.5","<img style='border: 4px solid darkgrey;' src='practice/pt1_M1.png'></img>","1","","practice","","0","<img src='practice/pt1_T1.png'></img>","0","true",""
"","html-keyboard-response","7","27565","0.0-6.0-0.0","890","""event"",""trial"",""time""
""fullscreenenter"",""0"",""5448""
","
","
","""event"",""trial"",""time""
""fullscreenenter"",""0"",""5448""
","
","null","<div style=""font-size:60px;"">+</div>","","null","fixation","2021-08-16 00:31:29.516","","","","",""
"","mars-trial","8","31367","0.0-6.0-1.0","890","""event"",""trial"",""time""
""fullscreenenter"",""0"",""5448""
","
","
","""event"",""trial"",""time""
""fullscreenenter"",""0"",""5448""
","
","1676.1000000014901","<img style='border: 4px solid darkgrey;' src='practice/pt2_M1.png'></img>","1","","practice","","0","<img src='practice/pt2_T1.png'></img>","0","true",""
"","html-keyboard-response","9","31881","0.0-7.0-0.0","890","""event"",""trial"",""time""
""fullscreenenter"",""0"",""5448""
","
","
","""event"",""trial"",""time""
""fullscreenenter"",""0"",""5448""
","
","null","<div style=""font-size:60px;"">+</div>","","null","fixation","2021-08-16 00:31:33.831","","","","",""
"","mars-trial","10","36017","0.0-7.0-1.0","890","""event"",""trial"",""time""
""fullscreenenter"",""0"",""5448""
","
","
","""event"",""trial"",""time""
""fullscreenenter"",""0"",""5448""
","
","2005.4000000059605","<img style='border: 4px solid darkgrey;' src='practice/pt3_M1.png'></img>","0","","practice","","0","<img src='practice/pt3_T1.png'></img>","0","true",""
"","audio-button-response","11","37229","0.0-8.0","890","""event"",""trial"",""time""
""fullscreenenter"",""0"",""5448""
","
","
","""event"",""trial"",""time""
""fullscreenenter"",""0"",""5448""
","
","1202.5","audio/mars_instructions_slide4.wav","0","","","","","","","",""
"","call-function","12","37232","0.0-9.0","890","""event"",""trial"",""time""
""fullscreenenter"",""0"",""5448""
","
","
","""event"",""trial"",""time""
""fullscreenenter"",""0"",""5448""
","
","","","","","","","","","","",""
"","html-keyboard-response","13","37739","0.0-10.0-0.0","890","""event"",""trial"",""time""
""fullscreenenter"",""0"",""5448""
","
","
","""event"",""trial"",""time""
""fullscreenenter"",""0"",""5448""
","
","null","<div style=""font-size:60px;"">+</div>","","null","fixation","2021-08-16 00:31:39.691","","","","",""
"","mars-trial","14","39771","0.0-10.0-1.0","890","""event"",""trial"",""time""
""fullscreenenter"",""0"",""5448""
","
","
","""event"",""trial"",""time""
""fullscreenenter"",""0"",""5448""
","
","1404.1000000014901","<img style='border: 4px solid darkgrey;' src='img/tf1_1_M_ss3.jpeg'></img>","0","","exp","","0","<img src='img/tf1_1_T1_ss3_md.jpeg'></img>","0","true",""
"","html-keyboard-response","15","40277","0.0-10.0-0.1","890","""event"",""trial"",""time""
""fullscreenenter"",""0"",""5448""
","
","
","""event"",""trial"",""time""
""fullscreenenter"",""0"",""5448""
","
","null","<div style=""font-size:60px;"">+</div>","","null","fixation","2021-08-16 00:31:42.226","","","","",""
"","mars-trial","16","43289","0.0-10.0-1.1","890","""event"",""trial"",""time""
""fullscreenenter"",""0"",""5448""
","
","
","""event"",""trial"",""time""
""fullscreenenter"",""0"",""5448""
","
","2389.3000000044703","<img style='border: 4px solid darkgrey;' src='img/tf1_2_M_ss1.jpeg'></img>","0","","exp","","0","<img src='img/tf1_2_T1_ss1_md.jpeg'></img>","0","true",""
"","html-keyboard-response","17","43802","0.0-10.0-0.2","890","""event"",""trial"",""time""
""fullscreenenter"",""0"",""5448""
","
","
","""event"",""trial"",""time""
""fullscreenenter"",""0"",""5448""
","
","null","<div style=""font-size:60px;"">+</div>","","null","fixation","2021-08-16 00:31:45.752","","","","",""
"","mars-trial","18","46284","0.0-10.0-1.2","890","""event"",""trial"",""time""
""fullscreenenter"",""0"",""5448""
","
","
","""event"",""trial"",""time""
""fullscreenenter"",""0"",""5448""
","
","1867.2000000029802","<img style='border: 4px solid darkgrey;' src='img/tf1_3_M_ss2.jpeg'></img>","3","","exp","","0","<img src='img/tf1_3_T1_ss2_md.jpeg'></img>","0","true",""
"","html-keyboard-response","19","46789","0.0-10.0-0.3","890","""event"",""trial"",""time""
""fullscreenenter"",""0"",""5448""
","
","
","""event"",""trial"",""time""
""fullscreenenter"",""0"",""5448""
","
","null","<div style=""font-size:60px;"">+</div>","","null","fixation","2021-08-16 00:31:48.738","","","","",""
"","mars-trial","20","51982","0.0-10.0-1.3","890","""event"",""trial"",""time""
""fullscreenenter"",""0"",""5448""
","
","
","""event"",""trial"",""time""
""fullscreenenter"",""0"",""5448""
","
","4572.69999999553","<img style='border: 4px solid darkgrey;' src='img/tf1_4_M_ss3.jpeg'></img>","3","","exp","","0","<img src='img/tf1_4_T1_ss3_md.jpeg'></img>","0","true",""
"","html-keyboard-response","21","52493","0.0-10.0-0.4","890","""event"",""trial"",""time""
""fullscreenenter"",""0"",""5448""
","
","
","""event"",""trial"",""time""
""fullscreenenter"",""0"",""5448""
","
","null","<div style=""font-size:60px;"">+</div>","","null","fixation","2021-08-16 00:31:54.442","","","","",""
"","mars-trial","22","56077","0.0-10.0-1.4","890","""event"",""trial"",""time""
""fullscreenenter"",""0"",""5448""
","
","
","""event"",""trial"",""time""
""fullscreenenter"",""0"",""5448""
","
","2966.5","<img style='border: 4px solid darkgrey;' src='img/tf1_5_M_ss1.jpeg'></img>","3","","exp","","0","<img src='img/tf1_5_T1_ss1_md.jpeg'></img>","0","true",""
"","html-keyboard-response","23","56590","0.0-10.0-0.5","890","""event"",""trial"",""time""
""fullscreenenter"",""0"",""5448""
","
","
","""event"",""trial"",""time""
""fullscreenenter"",""0"",""5448""
","
","null","<div style=""font-size:60px;"">+</div>","","null","fixation","2021-08-16 00:31:58.540","","","","",""
"","mars-trial","24","63300","0.0-10.0-1.5","890","""event"",""trial"",""time""
""fullscreenenter"",""0"",""5448""
","
","
","""event"",""trial"",""time""
""fullscreenenter"",""0"",""5448""
","
","6088.29999999702","<img style='border: 4px solid darkgrey;' src='img/tf1_6_M_ss2.jpeg'></img>","2","","exp","","0","<img src='img/tf1_6_T1_ss2_md.jpeg'></img>","0","true",""
"","html-keyboard-response","25","63815","0.0-10.0-0.6","890","""event"",""trial"",""time""
""fullscreenenter"",""0"",""5448""
","
","
","""event"",""trial"",""time""
""fullscreenenter"",""0"",""5448""
","
","null","<div style=""font-size:60px;"">+</div>","","null","fixation","2021-08-16 00:32:05.766","","","","",""
"","mars-trial","26","68806","0.0-10.0-1.6","890","""event"",""trial"",""time""
""fullscreenenter"",""0"",""5448""
","
","
","""event"",""trial"",""time""
""fullscreenenter"",""0"",""5448""
","
","4360","<img style='border: 4px solid darkgrey;' src='img/tf1_7_M_ss3.jpeg'></img>","3","","exp","","0","<img src='img/tf1_7_T1_ss3_md.jpeg'></img>","0","true",""
"","html-keyboard-response","27","69322","0.0-10.0-0.7","890","""event"",""trial"",""time""
""fullscreenenter"",""0"",""5448""
","
","
","""event"",""trial"",""time""
""fullscreenenter"",""0"",""5448""
","
","null","<div style=""font-size:60px;"">+</div>","","null","fixation","2021-08-16 00:32:11.273","","","","",""
"","mars-trial","28","72068","0.0-10.0-1.7","890","""event"",""trial"",""time""
""fullscreenenter"",""0"",""5448""
","
","
","""event"",""trial"",""time""
""fullscreenenter"",""0"",""5448""
","
","2124.2000000029802","<img style='border: 4px solid darkgrey;' src='img/tf1_8_M_ss1.jpeg'></img>","3","","exp","","0","<img src='img/tf1_8_T1_ss1_md.jpeg'></img>","0","true",""
"","html-keyboard-response","29","72586","0.0-10.0-0.8","890","""event"",""trial"",""time""
""fullscreenenter"",""0"",""5448""
","
","
","""event"",""trial"",""time""
""fullscreenenter"",""0"",""5448""
","
","null","<div style=""font-size:60px;"">+</div>","","null","fixation","2021-08-16 00:32:14.537","","","","",""
"","mars-trial","30","80902","0.0-10.0-1.8","890","""event"",""trial"",""time""
""fullscreenenter"",""0"",""5448""
","
","
","""event"",""trial"",""time""
""fullscreenenter"",""0"",""5448""
","
","7688.9000000059605","<img style='border: 4px solid darkgrey;' src='img/tf1_9_M_ss2.jpeg'></img>","2","","exp","","0","<img src='img/tf1_9_T1_ss2_md.jpeg'></img>","0","true",""
"","html-keyboard-response","31","81408","0.0-10.0-0.9","890","""event"",""trial"",""time""
""fullscreenenter"",""0"",""5448""
","
","
","""event"",""trial"",""time""
""fullscreenenter"",""0"",""5448""
","
","null","<div style=""font-size:60px;"">+</div>","","null","fixation","2021-08-16 00:32:23.358","","","","",""
"","mars-trial","32","92639","0.0-10.0-1.9","890","""event"",""trial"",""time""
""fullscreenenter"",""0"",""5448""
","
","
","""event"",""trial"",""time""
""fullscreenenter"",""0"",""5448""
","
","10613.79999999702","<img style='border: 4px solid darkgrey;' src='img/tf1_10_M_ss3.jpeg'></img>","3","","exp","","0","<img src='img/tf1_10_T1_ss3_md.jpeg'></img>","0","true",""
"","html-keyboard-response","33","93156","0.0-10.0-0.10","890","""event"",""trial"",""time""
""fullscreenenter"",""0"",""5448""
","
","
","""event"",""trial"",""time""
""fullscreenenter"",""0"",""5448""
","
","null","<div style=""font-size:60px;"">+</div>","","null","fixation","2021-08-16 00:32:35.110","","","","",""
"","mars-trial","34","97348","0.0-10.0-1.10","890","""event"",""trial"",""time""
""fullscreenenter"",""0"",""5448""
","
","
","""event"",""trial"",""time""
""fullscreenenter"",""0"",""5448""
","
","3559.3000000044703","<img style='border: 4px solid darkgrey;' src='img/tf1_11_M_ss1.jpeg'></img>","2","","exp","","1","<img src='img/tf1_11_T1_ss1_md.jpeg'></img>","0","false",""
"","html-keyboard-response","35","97864","0.0-10.0-0.11","890","""event"",""trial"",""time""
""fullscreenenter"",""0"",""5448""
","
","
","""event"",""trial"",""time""
""fullscreenenter"",""0"",""5448""
","
","null","<div style=""font-size:60px;"">+</div>","","null","fixation","2021-08-16 00:32:39.813","","","","",""
"","mars-trial","36","108621","0.0-10.0-1.11","890","""event"",""trial"",""time""
""fullscreenenter"",""0"",""5448""
","
","
","""event"",""trial"",""time""
""fullscreenenter"",""0"",""5448""
","
","10138.10000000149","<img style='border: 4px solid darkgrey;' src='img/tf1_12_M_ss2.jpeg'></img>","1","","exp","","3","<img src='img/tf1_12_T1_ss2_md.jpeg'></img>","0","false",""
"","html-keyboard-response","37","109127","0.0-10.0-0.12","890","""event"",""trial"",""time""
""fullscreenenter"",""0"",""5448""
","
","
","""event"",""trial"",""time""
""fullscreenenter"",""0"",""5448""
","
","null","<div style=""font-size:60px;"">+</div>","","null","fixation","2021-08-16 00:32:51.076","","","","",""
"","mars-trial","38","116525","0.0-10.0-1.12","890","""event"",""trial"",""time""
""fullscreenenter"",""0"",""5448""
","
","
","""event"",""trial"",""time""
""fullscreenenter"",""0"",""5448""
","
","6785.39999999851","<img style='border: 4px solid darkgrey;' src='img/tf1_13_M_ss3.jpeg'></img>","0","","exp","","0","<img src='img/tf1_13_T1_ss3_md.jpeg'></img>","0","true",""
"","html-keyboard-response","39","117031","0.0-10.0-0.13","890","""event"",""trial"",""time""
""fullscreenenter"",""0"",""5448""
","
","
","""event"",""trial"",""time""
""fullscreenenter"",""0"",""5448""
","
","null","<div style=""font-size:60px;"">+</div>","","null","fixation","2021-08-16 00:32:58.980","","","","",""
"","mars-trial","40","126370","0.0-10.0-1.13","890","""event"",""trial"",""time""
""fullscreenenter"",""0"",""5448""
","
","
","""event"",""trial"",""time""
""fullscreenenter"",""0"",""5448""
","
","8722.89999999851","<img style='border: 4px solid darkgrey;' src='img/tf1_14_M_ss1.jpeg'></img>","2","","exp","","0","<img src='img/tf1_14_T1_ss1_md.jpeg'></img>","0","true",""
"","html-keyboard-response","41","126875","0.0-10.0-0.14","890","""event"",""trial"",""time""
""fullscreenenter"",""0"",""5448""
","
","
","""event"",""trial"",""time""
""fullscreenenter"",""0"",""5448""
","
","null","<div style=""font-size:60px;"">+</div>","","null","fixation","2021-08-16 00:33:08.824","","","","",""
"","mars-trial","42","143869","0.0-10.0-1.14","890","""event"",""trial"",""time""
""fullscreenenter"",""0"",""5448""
","
","
","""event"",""trial"",""time""
""fullscreenenter"",""0"",""5448""
","
","16380.5","<img style='border: 4px solid darkgrey;' src='img/tf1_15_M_ss2.jpeg'></img>","0","","exp","","0","<img src='img/tf1_15_T1_ss2_md.jpeg'></img>","0","true",""
"","html-keyboard-response","43","144375","0.0-10.0-0.15","890","""event"",""trial"",""time""
""fullscreenenter"",""0"",""5448""
","
","
","""event"",""trial"",""time""
""fullscreenenter"",""0"",""5448""
","
","null","<div style=""font-size:60px;"">+</div>","","null","fixation","2021-08-16 00:33:26.325","","","","",""
"","mars-trial","44","147272","0.0-10.0-1.15","890","""event"",""trial"",""time""
""fullscreenenter"",""0"",""5448""
","
","
","""event"",""trial"",""time""
""fullscreenenter"",""0"",""5448""
","
","2275.6999999955297","<img style='border: 4px solid darkgrey;' src='img/tf1_16_M_ss3.jpeg'></img>","3","","exp","","3","<img src='img/tf1_16_T1_ss3_md.jpeg'></img>","0","false",""
"","html-keyboard-response","45","147778","0.0-10.0-0.16","890","""event"",""trial"",""time""
""fullscreenenter"",""0"",""5448""
","
","
","""event"",""trial"",""time""
""fullscreenenter"",""0"",""5448""
","
","null","<div style=""font-size:60px;"">+</div>","","null","fixation","2021-08-16 00:33:29.727","","","","",""
"","mars-trial","46","155165","0.0-10.0-1.16","890","""event"",""trial"",""time""
""fullscreenenter"",""0"",""5448""
","
","
","""event"",""trial"",""time""
""fullscreenenter"",""0"",""5448""
","
","6772","<img style='border: 4px solid darkgrey;' src='img/tf1_17_M_ss1.jpeg'></img>","2","","exp","","0","<img src='img/tf1_17_T1_ss1_md.jpeg'></img>","0","true",""
"","html-keyboard-response","47","155671","0.0-10.0-0.17","890","""event"",""trial"",""time""
""fullscreenenter"",""0"",""5448""
","
","
","""event"",""trial"",""time""
""fullscreenenter"",""0"",""5448""
","
","null","<div style=""font-size:60px;"">+</div>","","null","fixation","2021-08-16 00:33:37.620","","","","",""
"","mars-trial","48","162669","0.0-10.0-1.17","890","""event"",""trial"",""time""
""fullscreenenter"",""0"",""5448""
","
","
","""event"",""trial"",""time""
""fullscreenenter"",""0"",""5448""
","
","6375.70000000298","<img style='border: 4px solid darkgrey;' src='img/tf1_18_M_ss2.jpeg'></img>","2","","exp","","0","<img src='img/tf1_18_T1_ss2_md.jpeg'></img>","0","true",""
"","html-keyboard-response","49","163175","0.0-10.0-0.18","890","""event"",""trial"",""time""
""fullscreenenter"",""0"",""5448""
","
","
","""event"",""trial"",""time""
""fullscreenenter"",""0"",""5448""
","
","null","<div style=""font-size:60px;"">+</div>","","null","fixation","2021-08-16 00:33:45.124","","","","",""
"","mars-trial","50","171000","0.0-10.0-1.18","890","""event"",""trial"",""time""
""fullscreenenter"",""0"",""5448""
","
","
","""event"",""trial"",""time""
""fullscreenenter"",""0"",""5448""
","
","7205.39999999851","<img style='border: 4px solid darkgrey;' src='img/tf1_19_M_ss3.jpeg'></img>","1","","exp","","0","<img src='img/tf1_19_T1_ss3_md.jpeg'></img>","0","true",""
"","html-keyboard-response","51","171506","0.0-10.0-0.19","890","""event"",""trial"",""time""
""fullscreenenter"",""0"",""5448""
","
","
","""event"",""trial"",""time""
""fullscreenenter"",""0"",""5448""
","
","null","<div style=""font-size:60px;"">+</div>","","null","fixation","2021-08-16 00:33:53.455","","","","",""
"","mars-trial","52","176104","0.0-10.0-1.19","890","""event"",""trial"",""time""
""fullscreenenter"",""0"",""5448""
","
","
","""event"",""trial"",""time""
""fullscreenenter"",""0"",""5448""
","
","3978","<img style='border: 4px solid darkgrey;' src='img/tf1_20_M_ss1.jpeg'></img>","1","","exp","","0","<img src='img/tf1_20_T1_ss1_md.jpeg'></img>","0","true",""
"","html-keyboard-response","53","176610","0.0-10.0-0.20","890","""event"",""trial"",""time""
""fullscreenenter"",""0"",""5448""
","
","
","""event"",""trial"",""time""
""fullscreenenter"",""0"",""5448""
","
","null","<div style=""font-size:60px;"">+</div>","","null","fixation","2021-08-16 00:33:58.559","","","","",""
"","mars-trial","54","181672","0.0-10.0-1.20","890","""event"",""trial"",""time""
""fullscreenenter"",""0"",""5448""
","
","
","""event"",""trial"",""time""
""fullscreenenter"",""0"",""5448""
","
","4441.5","<img style='border: 4px solid darkgrey;' src='img/tf1_21_M_ss2.jpeg'></img>","1","","exp","","2","<img src='img/tf1_21_T1_ss2_md.jpeg'></img>","0","false",""
"","html-keyboard-response","55","182178","0.0-10.0-0.21","890","""event"",""trial"",""time""
""fullscreenenter"",""0"",""5448""
","
","
","""event"",""trial"",""time""
""fullscreenenter"",""0"",""5448""
","
","null","<div style=""font-size:60px;"">+</div>","","null","fixation","2021-08-16 00:34:04.127","","","","",""
"","mars-trial","56","185709","0.0-10.0-1.21","890","""event"",""trial"",""time""
""fullscreenenter"",""0"",""5448""
","
","
","""event"",""trial"",""time""
""fullscreenenter"",""0"",""5448""
","
","2908.6999999955297","<img style='border: 4px solid darkgrey;' src='img/tf1_22_M_ss3.jpeg'></img>","2","","exp","","2","<img src='img/tf1_22_T1_ss3_md.jpeg'></img>","0","false",""
"","html-keyboard-response","57","186214","0.0-10.0-0.22","890","""event"",""trial"",""time""
""fullscreenenter"",""0"",""5448""
","
","
","""event"",""trial"",""time""
""fullscreenenter"",""0"",""5448""
","
","null","<div style=""font-size:60px;"">+</div>","","null","fixation","2021-08-16 00:34:08.164","","","","",""
"","mars-trial","58","191917","0.0-10.0-1.22","890","""event"",""trial"",""time""
""fullscreenenter"",""0"",""5448""
","
","
","""event"",""trial"",""time""
""fullscreenenter"",""0"",""5448""
","
","5083.5","<img style='border: 4px solid darkgrey;' src='img/tf1_23_M_ss1.jpeg'></img>","1","","exp","","1","<img src='img/tf1_23_T1_ss1_md.jpeg'></img>","0","false",""
"","html-keyboard-response","59","192426","0.0-10.0-0.23","890","""event"",""trial"",""time""
""fullscreenenter"",""0"",""5448""
","
","
","""event"",""trial"",""time""
""fullscreenenter"",""0"",""5448""
","
","null","<div style=""font-size:60px;"">+</div>","","null","fixation","2021-08-16 00:34:14.375","","","","",""
"","mars-trial","60","200672","0.0-10.0-1.23","890","""event"",""trial"",""time""
""fullscreenenter"",""0"",""5448""
","
","
","""event"",""trial"",""time""
""fullscreenenter"",""0"",""5448""
","
","7629.5","<img style='border: 4px solid darkgrey;' src='img/tf1_24_M_ss2.jpeg'></img>","2","","exp","","3","<img src='img/tf1_24_T1_ss2_md.jpeg'></img>","0","false",""
"","html-keyboard-response","61","201187","0.0-10.0-0.24","890","""event"",""trial"",""time""
""fullscreenenter"",""0"",""5448""
","
","
","""event"",""trial"",""time""
""fullscreenenter"",""0"",""5448""
","
","null","<div style=""font-size:60px;"">+</div>","","null","fixation","2021-08-16 00:34:23.138","","","","",""
"","mars-trial","62","209004","0.0-10.0-1.24","890","""event"",""trial"",""time""
""fullscreenenter"",""0"",""5448""
","
","
","""event"",""trial"",""time""
""fullscreenenter"",""0"",""5448""
","
","7188.9000000059605","<img style='border: 4px solid darkgrey;' src='img/tf1_25_M_ss3.jpeg'></img>","0","","exp","","0","<img src='img/tf1_25_T1_ss3_md.jpeg'></img>","0","true",""
"","html-keyboard-response","63","209518","0.0-10.0-0.25","890","""event"",""trial"",""time""
""fullscreenenter"",""0"",""5448""
","
","
","""event"",""trial"",""time""
""fullscreenenter"",""0"",""5448""
","
","null","<div style=""font-size:60px;"">+</div>","","null","fixation","2021-08-16 00:34:31.470","","","","",""
"","mars-trial","64","223113","0.0-10.0-1.25","890","""event"",""trial"",""time""
""fullscreenenter"",""0"",""5448""
","
","
","""event"",""trial"",""time""
""fullscreenenter"",""0"",""5448""
","
","12970.30000000447","<img style='border: 4px solid darkgrey;' src='img/tf1_26_M_ss1.jpeg'></img>","2","","exp","","1","<img src='img/tf1_26_T1_ss1_md.jpeg'></img>","0","false",""
"","html-keyboard-response","65","223626","0.0-10.0-0.26","890","""event"",""trial"",""time""
""fullscreenenter"",""0"",""5448""
","
","
","""event"",""trial"",""time""
""fullscreenenter"",""0"",""5448""
","
","null","<div style=""font-size:60px;"">+</div>","","null","fixation","2021-08-16 00:34:45.575","","","","",""
"","mars-trial","66","235729","0.0-10.0-1.26","890","""event"",""trial"",""time""
""fullscreenenter"",""0"",""5448""
","
","
","""event"",""trial"",""time""
""fullscreenenter"",""0"",""5448""
","
","11489.69999999553","<img style='border: 4px solid darkgrey;' src='img/tf1_27_M_ss2.jpeg'></img>","0","","exp","","3","<img src='img/tf1_27_T1_ss2_md.jpeg'></img>","0","false",""
"","html-keyboard-response","67","236235","0.0-10.0-0.27","890","""event"",""trial"",""time""
""fullscreenenter"",""0"",""5448""
","
","
","""event"",""trial"",""time""
""fullscreenenter"",""0"",""5448""
","
","null","<div style=""font-size:60px;"">+</div>","","null","fixation","2021-08-16 00:34:58.184","","","","",""
"","mars-trial","68","240400","0.0-10.0-1.27","890","""event"",""trial"",""time""
""fullscreenenter"",""0"",""5448""
","
","
","""event"",""trial"",""time""
""fullscreenenter"",""0"",""5448""
","
","3552.0999999940395","<img style='border: 4px solid darkgrey;' src='img/tf1_28_M_ss3.jpeg'></img>","1","","exp","","2","<img src='img/tf1_28_T1_ss3_md.jpeg'></img>","0","false",""
"","html-keyboard-response","69","240904","0.0-10.0-0.28","890","""event"",""trial"",""time""
""fullscreenenter"",""0"",""5448""
","
","
","""event"",""trial"",""time""
""fullscreenenter"",""0"",""5448""
","
","null","<div style=""font-size:60px;"">+</div>","","null","fixation","2021-08-16 00:35:02.853","","","","",""
"","mars-trial","70","249073","0.0-10.0-1.28","890","""event"",""trial"",""time""
""fullscreenenter"",""0"",""5448""
","
","
","""event"",""trial"",""time""
""fullscreenenter"",""0"",""5448""
","
","7553.19999999553","<img style='border: 4px solid darkgrey;' src='img/tf1_29_M_ss1.jpeg'></img>","1","","exp","","0","<img src='img/tf1_29_T1_ss1_md.jpeg'></img>","0","true",""
"","html-keyboard-response","71","249577","0.0-10.0-0.29","890","""event"",""trial"",""time""
""fullscreenenter"",""0"",""5448""
","
","
","""event"",""trial"",""time""
""fullscreenenter"",""0"",""5448""
","
","null","<div style=""font-size:60px;"">+</div>","","null","fixation","2021-08-16 00:35:11.526","","","","",""
"","mars-trial","72","258134","0.0-10.0-1.29","890","""event"",""trial"",""time""
""fullscreenenter"",""0"",""5448""
","
","
","""event"",""trial"",""time""
""fullscreenenter"",""0"",""5448""
","
","7942","<img style='border: 4px solid darkgrey;' src='img/tf1_30_M_ss2.jpeg'></img>","3","","exp","","2","<img src='img/tf1_30_T1_ss2_md.jpeg'></img>","0","false",""
"","html-keyboard-response","73","258640","0.0-10.0-0.30","890","""event"",""trial"",""time""
""fullscreenenter"",""0"",""5448""
","
","
","""event"",""trial"",""time""
""fullscreenenter"",""0"",""5448""
","
","null","<div style=""font-size:60px;"">+</div>","","null","fixation","2021-08-16 00:35:20.590","","","","",""
"","mars-trial","74","267873","0.0-10.0-1.30","890","""event"",""trial"",""time""
""fullscreenenter"",""0"",""5448""
","
","
","""event"",""trial"",""time""
""fullscreenenter"",""0"",""5448""
","
","8620.20000000298","<img style='border: 4px solid darkgrey;' src='img/tf1_31_M_ss3.jpeg'></img>","1","","exp","","3","<img src='img/tf1_31_T1_ss3_md.jpeg'></img>","0","false",""
"","html-keyboard-response","75","268379","0.0-10.0-0.31","890","""event"",""trial"",""time""
""fullscreenenter"",""0"",""5448""
","
","
","""event"",""trial"",""time""
""fullscreenenter"",""0"",""5448""
","
","null","<div style=""font-size:60px;"">+</div>","","null","fixation","2021-08-16 00:35:30.328","","","","",""
"","mars-trial","76","275213","0.0-10.0-1.31","890","""event"",""trial"",""time""
""fullscreenenter"",""0"",""5448""
","
","
","""event"",""trial"",""time""
""fullscreenenter"",""0"",""5448""
","
","6212","<img style='border: 4px solid darkgrey;' src='img/tf1_32_M_ss1.jpeg'></img>","3","","exp","","0","<img src='img/tf1_32_T1_ss1_md.jpeg'></img>","0","true",""
"","html-keyboard-response","77","275721","0.0-10.0-0.32","890","""event"",""trial"",""time""
""fullscreenenter"",""0"",""5448""
","
","
","""event"",""trial"",""time""
""fullscreenenter"",""0"",""5448""
","
","null","<div style=""font-size:60px;"">+</div>","","null","fixation","2021-08-16 00:35:37.673","","","","",""
"","mars-trial","78","278732","0.0-10.0-1.32","890","""event"",""trial"",""time""
""fullscreenenter"",""0"",""5448""
","
","
","""event"",""trial"",""time""
""fullscreenenter"",""0"",""5448""
","
","2377.2000000029802","<img style='border: 4px solid darkgrey;' src='img/tf1_33_M_ss2.jpeg'></img>","3","","exp","","2","<img src='img/tf1_33_T1_ss2_md.jpeg'></img>","0","false",""
"","html-keyboard-response","79","279238","0.0-10.0-0.33","890","""event"",""trial"",""time""
""fullscreenenter"",""0"",""5448""
","
","
","""event"",""trial"",""time""
""fullscreenenter"",""0"",""5448""
","
","null","<div style=""font-size:60px;"">+</div>","","null","fixation","2021-08-16 00:35:41.187","","","","",""
"","mars-trial","80","288097","0.0-10.0-1.33","890","""event"",""trial"",""time""
""fullscreenenter"",""0"",""5448""
","
","
","""event"",""trial"",""time""
""fullscreenenter"",""0"",""5448""
","
","8239.39999999851","<img style='border: 4px solid darkgrey;' src='img/tf1_34_M_ss3.jpeg'></img>","1","","exp","","3","<img src='img/tf1_34_T1_ss3_md.jpeg'></img>","0","false",""
"","html-keyboard-response","81","288603","0.0-10.0-0.34","890","""event"",""trial"",""time""
""fullscreenenter"",""0"",""5448""
","
","
","""event"",""trial"",""time""
""fullscreenenter"",""0"",""5448""
","
","null","<div style=""font-size:60px;"">+</div>","","null","fixation","2021-08-16 00:35:50.552","","","","",""
"","mars-trial","82","293564","0.0-10.0-1.34","890","""event"",""trial"",""time""
""fullscreenenter"",""0"",""5448""
","
","
","""event"",""trial"",""time""
""fullscreenenter"",""0"",""5448""
","
","4340.10000000149","<img style='border: 4px solid darkgrey;' src='img/tf1_35_M_ss1.jpeg'></img>","0","","exp","","0","<img src='img/tf1_35_T1_ss1_md.jpeg'></img>","0","true",""
"","html-keyboard-response","83","294068","0.0-10.0-0.35","890","""event"",""trial"",""time""
""fullscreenenter"",""0"",""5448""
","
","
","""event"",""trial"",""time""
""fullscreenenter"",""0"",""5448""
","
","null","<div style=""font-size:60px;"">+</div>","","null","fixation","2021-08-16 00:35:56.017","","","","",""
"","mars-trial","84","307931","0.0-10.0-1.35","890","""event"",""trial"",""time""
""fullscreenenter"",""0"",""5448""
","
","
","""event"",""trial"",""time""
""fullscreenenter"",""0"",""5448""
","
","13249.10000000149","<img style='border: 4px solid darkgrey;' src='img/tf1_36_M_ss2.jpeg'></img>","2","","exp","","3","<img src='img/tf1_36_T1_ss2_md.jpeg'></img>","0","false",""
"","html-keyboard-response","85","308437","0.0-10.0-0.36","890","""event"",""trial"",""time""
""fullscreenenter"",""0"",""5448""
","
","
","""event"",""trial"",""time""
""fullscreenenter"",""0"",""5448""
","
","null","<div style=""font-size:60px;"">+</div>","","null","fixation","2021-08-16 00:36:10.387","","","","",""
"","mars-trial","86","317484","0.0-10.0-1.36","890","""event"",""trial"",""time""
""fullscreenenter"",""0"",""5448""
","
","
","""event"",""trial"",""time""
""fullscreenenter"",""0"",""5448""
","
","8422.79999999702","<img style='border: 4px solid darkgrey;' src='img/tf1_37_M_ss3.jpeg'></img>","1","","exp","","3","<img src='img/tf1_37_T1_ss3_md.jpeg'></img>","0","false",""
"","html-keyboard-response","87","317989","0.0-10.0-0.37","890","""event"",""trial"",""time""
""fullscreenenter"",""0"",""5448""
","
","
","""event"",""trial"",""time""
""fullscreenenter"",""0"",""5448""
","
","null","<div style=""font-size:60px;"">+</div>","","null","fixation","2021-08-16 00:36:19.938","","","","",""
"","mars-trial","88","321494","0.0-10.0-1.37","890","""event"",""trial"",""time""
""fullscreenenter"",""0"",""5448""
","
","
","""event"",""trial"",""time""
""fullscreenenter"",""0"",""5448""
","
","2890.10000000149","<img style='border: 4px solid darkgrey;' src='img/tf1_38_M_ss1.jpeg'></img>","3","","exp","","0","<img src='img/tf1_38_T1_ss1_md.jpeg'></img>","0","true",""
"","html-keyboard-response","89","322000","0.0-10.0-0.38","890","""event"",""trial"",""time""
""fullscreenenter"",""0"",""5448""
","
","
","""event"",""trial"",""time""
""fullscreenenter"",""0"",""5448""
","
","null","<div style=""font-size:60px;"">+</div>","","null","fixation","2021-08-16 00:36:23.949","","","","",""
"","mars-trial","90","330572","0.0-10.0-1.38","890","""event"",""trial"",""time""
""fullscreenenter"",""0"",""5448""
","
","
","""event"",""trial"",""time""
""fullscreenenter"",""0"",""5448""
","
","7951.79999999702","<img style='border: 4px solid darkgrey;' src='img/tf1_39_M_ss2.jpeg'></img>","0","","exp","","0","<img src='img/tf1_39_T1_ss2_md.jpeg'></img>","0","true",""
"","html-keyboard-response","91","331076","0.0-10.0-0.39","890","""event"",""trial"",""time""
""fullscreenenter"",""0"",""5448""
","
","
","""event"",""trial"",""time""
""fullscreenenter"",""0"",""5448""
","
","null","<div style=""font-size:60px;"">+</div>","","null","fixation","2021-08-16 00:36:33.025","","","","",""
"","mars-trial","92","335654","0.0-10.0-1.39","890","""event"",""trial"",""time""
""fullscreenenter"",""0"",""5448""
","
","
","""event"",""trial"",""time""
""fullscreenenter"",""0"",""5448""
","
","3959.0999999940395","<img style='border: 4px solid darkgrey;' src='img/tf1_40_M_ss3.jpeg'></img>","2","","exp","","3","<img src='img/tf1_40_T1_ss3_md.jpeg'></img>","0","false",""
"","html-keyboard-response","93","336160","0.0-10.0-0.40","890","""event"",""trial"",""time""
""fullscreenenter"",""0"",""5448""
","
","
","""event"",""trial"",""time""
""fullscreenenter"",""0"",""5448""
","
","null","<div style=""font-size:60px;"">+</div>","","null","fixation","2021-08-16 00:36:38.109","","","","",""
"","mars-trial","94","338433","0.0-10.0-1.40","890","""event"",""trial"",""time""
""fullscreenenter"",""0"",""5448""
","
","
","""event"",""trial"",""time""
""fullscreenenter"",""0"",""5448""
","
","1657","<img style='border: 4px solid darkgrey;' src='img/tf1_41_M_ss1.jpeg'></img>","2","","exp","","0","<img src='img/tf1_41_T1_ss1_md.jpeg'></img>","0","true",""
"","html-keyboard-response","95","338938","0.0-10.0-0.41","890","""event"",""trial"",""time""
""fullscreenenter"",""0"",""5448""
","
","
","""event"",""trial"",""time""
""fullscreenenter"",""0"",""5448""
","
","null","<div style=""font-size:60px;"">+</div>","","null","fixation","2021-08-16 00:36:40.888","","","","",""
"","mars-trial","96","348529","0.0-10.0-1.41","890","""event"",""trial"",""time""
""fullscreenenter"",""0"",""5448""
","
","
","""event"",""trial"",""time""
""fullscreenenter"",""0"",""5448""
","
","8965.5","<img style='border: 4px solid darkgrey;' src='img/tf1_42_M_ss2.jpeg'></img>","2","","exp","","0","<img src='img/tf1_42_T1_ss2_md.jpeg'></img>","0","true",""
"","html-keyboard-response","97","349034","0.0-10.0-0.42","890","""event"",""trial"",""time""
""fullscreenenter"",""0"",""5448""
","
","
","""event"",""trial"",""time""
""fullscreenenter"",""0"",""5448""
","
","null","<div style=""font-size:60px;"">+</div>","","null","fixation","2021-08-16 00:36:50.984","","","","",""
"","mars-trial","98","361500","0.0-10.0-1.42","890","""event"",""trial"",""time""
""fullscreenenter"",""0"",""5448""
","
","
","""event"",""trial"",""time""
""fullscreenenter"",""0"",""5448""
","
","11845.5","<img style='border: 4px solid darkgrey;' src='img/tf1_43_M_ss3.jpeg'></img>","0","","exp","","0","<img src='img/tf1_43_T1_ss3_md.jpeg'></img>","0","true",""
"","html-keyboard-response","99","362015","0.0-10.0-0.43","890","""event"",""trial"",""time""
""fullscreenenter"",""0"",""5448""
","
","
","""event"",""trial"",""time""
""fullscreenenter"",""0"",""5448""
","
","null","<div style=""font-size:60px;"">+</div>","","null","fixation","2021-08-16 00:37:03.965","","","","",""
"","mars-trial","100","368591","0.0-10.0-1.43","890","""event"",""trial"",""time""
""fullscreenenter"",""0"",""5448""
","
","
","""event"",""trial"",""time""
""fullscreenenter"",""0"",""5448""
","
","5952.20000000298","<img style='border: 4px solid darkgrey;' src='img/tf1_44_M_ss1.jpeg'></img>","1","","exp","","1","<img src='img/tf1_44_T1_ss1_md.jpeg'></img>","0","false",""
"","html-keyboard-response","101","369095","0.0-10.0-0.44","890","""event"",""trial"",""time""
""fullscreenenter"",""0"",""5448""
","
","
","""event"",""trial"",""time""
""fullscreenenter"",""0"",""5448""
","
","null","<div style=""font-size:60px;"">+</div>","","null","fixation","2021-08-16 00:37:11.044","","","","",""
"","mars-trial","102","382362","0.0-10.0-1.44","890","""event"",""trial"",""time""
""fullscreenenter"",""0"",""5448""
","
","
","""event"",""trial"",""time""
""fullscreenenter"",""0"",""5448""
","
","12652.60000000149","<img style='border: 4px solid darkgrey;' src='img/tf1_45_M_ss2.jpeg'></img>","1","","exp","","0","<img src='img/tf1_45_T1_ss2_md.jpeg'></img>","0","true",""
"","html-keyboard-response","103","382868","0.0-10.0-0.45","890","""event"",""trial"",""time""
""fullscreenenter"",""0"",""5448""
","
","
","""event"",""trial"",""time""
""fullscreenenter"",""0"",""5448""
","
","null","<div style=""font-size:60px;"">+</div>","","null","fixation","2021-08-16 00:37:24.817","","","","",""
"","mars-trial","104","398186","0.0-10.0-1.45","890","""event"",""trial"",""time""
""fullscreenenter"",""0"",""5448""
","
","
","""event"",""trial"",""time""
""fullscreenenter"",""0"",""5448""
","
","14705.39999999851","<img style='border: 4px solid darkgrey;' src='img/tf1_46_M_ss3.jpeg'></img>","1","","exp","","0","<img src='img/tf1_46_T1_ss3_md.jpeg'></img>","0","true",""
"","html-keyboard-response","105","398690","0.0-10.0-0.46","890","""event"",""trial"",""time""
""fullscreenenter"",""0"",""5448""
","
","
","""event"",""trial"",""time""
""fullscreenenter"",""0"",""5448""
","
","null","<div style=""font-size:60px;"">+</div>","","null","fixation","2021-08-16 00:37:40.640","","","","",""
"","mars-trial","106","401642","0.0-10.0-1.46","890","""event"",""trial"",""time""
""fullscreenenter"",""0"",""5448""
","
","
","""event"",""trial"",""time""
""fullscreenenter"",""0"",""5448""
","
","2336.3000000044703","<img style='border: 4px solid darkgrey;' src='img/tf1_47_M_ss1.jpeg'></img>","2","","exp","","1","<img src='img/tf1_47_T1_ss1_md.jpeg'></img>","0","false",""
"","html-keyboard-response","107","402148","0.0-10.0-0.47","890","""event"",""trial"",""time""
""fullscreenenter"",""0"",""5448""
","
","
","""event"",""trial"",""time""
""fullscreenenter"",""0"",""5448""
","
","null","<div style=""font-size:60px;"">+</div>","","null","fixation","2021-08-16 00:37:44.098","","","","",""
"","mars-trial","108","409968","0.0-10.0-1.47","890","""event"",""trial"",""time""
""fullscreenenter"",""0"",""5448""
","
","
","""event"",""trial"",""time""
""fullscreenenter"",""0"",""5448""
","
","7199.89999999851","<img style='border: 4px solid darkgrey;' src='img/tf1_48_M_ss2.jpeg'></img>","2","","exp","","0","<img src='img/tf1_48_T1_ss2_md.jpeg'></img>","0","true",""
"","html-keyboard-response","109","410474","0.0-10.0-0.48","890","""event"",""trial"",""time""
""fullscreenenter"",""0"",""5448""
","
","
","""event"",""trial"",""time""
""fullscreenenter"",""0"",""5448""
","
","null","<div style=""font-size:60px;"">+</div>","","null","fixation","2021-08-16 00:37:52.423","","","","",""
"","mars-trial","110","418485","0.0-10.0-1.48","890","""event"",""trial"",""time""
""fullscreenenter"",""0"",""5448""
","
","
","""event"",""trial"",""time""
""fullscreenenter"",""0"",""5448""
","
","7392.20000000298","<img style='border: 4px solid darkgrey;' src='img/tf1_49_M_ss3.jpeg'></img>","2","","exp","","0","<img src='img/tf1_49_T1_ss3_md.jpeg'></img>","0","true",""
"","html-keyboard-response","111","418991","0.0-10.0-0.49","890","""event"",""trial"",""time""
""fullscreenenter"",""0"",""5448""
","
","
","""event"",""trial"",""time""
""fullscreenenter"",""0"",""5448""
","
","null","<div style=""font-size:60px;"">+</div>","","null","fixation","2021-08-16 00:38:00.940","","","","",""
"","mars-trial","112","424495","0.0-10.0-1.49","890","""event"",""trial"",""time""
""fullscreenenter"",""0"",""5448""
","
","
","""event"",""trial"",""time""
""fullscreenenter"",""0"",""5448""
","
","4887.0999999940395","<img style='border: 4px solid darkgrey;' src='img/tf1_50_M_ss1.jpeg'></img>","1","","exp","","1","<img src='img/tf1_50_T1_ss1_md.jpeg'></img>","0","false",""
"","html-keyboard-response","113","425003","0.0-10.0-0.50","890","""event"",""trial"",""time""
""fullscreenenter"",""0"",""5448""
","
","
","""event"",""trial"",""time""
""fullscreenenter"",""0"",""5448""
","
","null","<div style=""font-size:60px;"">+</div>","","null","fixation","2021-08-16 00:38:06.952","","","","",""
"","mars-trial","114","437808","0.0-10.0-1.50","890","""event"",""trial"",""time""
""fullscreenenter"",""0"",""5448""
","
","
","""event"",""trial"",""time""
""fullscreenenter"",""0"",""5448""
","
","12184.39999999851","<img style='border: 4px solid darkgrey;' src='img/tf1_51_M_ss2.jpeg'></img>","3","","exp","","0","<img src='img/tf1_51_T1_ss2_md.jpeg'></img>","0","true",""
"","html-keyboard-response","115","438314","0.0-10.0-0.51","890","""event"",""trial"",""time""
""fullscreenenter"",""0"",""5448""
","
","
","""event"",""trial"",""time""
""fullscreenenter"",""0"",""5448""
","
","null","<div style=""font-size:60px;"">+</div>","","null","fixation","2021-08-16 00:38:20.263","","","","",""
"","mars-trial","116","451664","0.0-10.0-1.51","890","""event"",""trial"",""time""
""fullscreenenter"",""0"",""5448""
","
","
","""event"",""trial"",""time""
""fullscreenenter"",""0"",""5448""
","
","12726.59999999404","<img style='border: 4px solid darkgrey;' src='img/tf1_52_M_ss3.jpeg'></img>","1","","exp","","3","<img src='img/tf1_52_T1_ss3_md.jpeg'></img>","0","false",""
"","html-keyboard-response","117","452170","0.0-10.0-0.52","890","""event"",""trial"",""time""
""fullscreenenter"",""0"",""5448""
","
","
","""event"",""trial"",""time""
""fullscreenenter"",""0"",""5448""
","
","null","<div style=""font-size:60px;"">+</div>","","null","fixation","2021-08-16 00:38:34.119","","","","",""
"","mars-trial","118","454955","0.0-10.0-1.52","890","""event"",""trial"",""time""
""fullscreenenter"",""0"",""5448""
","
","
","""event"",""trial"",""time""
""fullscreenenter"",""0"",""5448""
","
","2165.1999999955297","<img style='border: 4px solid darkgrey;' src='img/tf1_53_M_ss1.jpeg'></img>","3","","exp","","1","<img src='img/tf1_53_T1_ss1_md.jpeg'></img>","0","false",""
"","html-keyboard-response","119","455460","0.0-10.0-0.53","890","""event"",""trial"",""time""
""fullscreenenter"",""0"",""5448""
","
","
","""event"",""trial"",""time""
""fullscreenenter"",""0"",""5448""
","
","null","<div style=""font-size:60px;"">+</div>","","null","fixation","2021-08-16 00:38:37.409","","","","",""
"","mars-trial","120","459034","0.0-10.0-1.53","890","""event"",""trial"",""time""
""fullscreenenter"",""0"",""5448""
","
","
","""event"",""trial"",""time""
""fullscreenenter"",""0"",""5448""
","
","2954.1999999955297","<img style='border: 4px solid darkgrey;' src='img/tf1_54_M_ss2.jpeg'></img>","3","","exp","","3","<img src='img/tf1_54_T1_ss2_md.jpeg'></img>","0","false",""
"","html-keyboard-response","121","459540","0.0-10.0-0.54","890","""event"",""trial"",""time""
""fullscreenenter"",""0"",""5448""
","
","
","""event"",""trial"",""time""
""fullscreenenter"",""0"",""5448""
","
","null","<div style=""font-size:60px;"">+</div>","","null","fixation","2021-08-16 00:38:41.489","","","","",""
"","mars-trial","122","468245","0.0-10.0-1.54","890","""event"",""trial"",""time""
""fullscreenenter"",""0"",""5448""
","
","
","""event"",""trial"",""time""
""fullscreenenter"",""0"",""5448""
","
","8081.79999999702","<img style='border: 4px solid darkgrey;' src='img/tf1_55_M_ss3.jpeg'></img>","1","","exp","","2","<img src='img/tf1_55_T1_ss3_md.jpeg'></img>","0","false",""
"","html-keyboard-response","123","468750","0.0-10.0-0.55","890","""event"",""trial"",""time""
""fullscreenenter"",""0"",""5448""
","
","
","""event"",""trial"",""time""
""fullscreenenter"",""0"",""5448""
","
","null","<div style=""font-size:60px;"">+</div>","","null","fixation","2021-08-16 00:38:50.699","","","","",""
"","mars-trial","124","473658","0.0-10.0-1.55","890","""event"",""trial"",""time""
""fullscreenenter"",""0"",""5448""
","
","
","""event"",""trial"",""time""
""fullscreenenter"",""0"",""5448""
","
","4292.89999999851","<img style='border: 4px solid darkgrey;' src='img/tf1_56_M_ss1.jpeg'></img>","0","","exp","","0","<img src='img/tf1_56_T1_ss1_md.jpeg'></img>","0","true",""
"","html-keyboard-response","125","474164","0.0-10.0-0.56","890","""event"",""trial"",""time""
""fullscreenenter"",""0"",""5448""
","
","
","""event"",""trial"",""time""
""fullscreenenter"",""0"",""5448""
","
","null","<div style=""font-size:60px;"">+</div>","","null","fixation","2021-08-16 00:38:56.113","","","","",""
"","mars-trial","126","482582","0.0-10.0-1.56","890","""event"",""trial"",""time""
""fullscreenenter"",""0"",""5448""
","
","
","""event"",""trial"",""time""
""fullscreenenter"",""0"",""5448""
","
","7795.10000000149","<img style='border: 4px solid darkgrey;' src='img/tf1_57_M_ss2.jpeg'></img>","0","","exp","","0","<img src='img/tf1_57_T1_ss2_md.jpeg'></img>","0","true",""
"","html-keyboard-response","127","483097","0.0-10.0-0.57","890","""event"",""trial"",""time""
""fullscreenenter"",""0"",""5448""
","
","
","""event"",""trial"",""time""
""fullscreenenter"",""0"",""5448""
","
","null","<div style=""font-size:60px;"">+</div>","","null","fixation","2021-08-16 00:39:05.046","","","","",""
"","mars-trial","128","489150","0.0-10.0-1.57","890","""event"",""trial"",""time""
""fullscreenenter"",""0"",""5448""
","
","
","""event"",""trial"",""time""
""fullscreenenter"",""0"",""5448""
","
","5431.70000000298","<img style='border: 4px solid darkgrey;' src='img/tf1_58_M_ss3.jpeg'></img>","1","","exp","","1","<img src='img/tf1_58_T1_ss3_md.jpeg'></img>","0","false",""
"","html-keyboard-response","129","489656","0.0-10.0-0.58","890","""event"",""trial"",""time""
""fullscreenenter"",""0"",""5448""
","
","
","""event"",""trial"",""time""
""fullscreenenter"",""0"",""5448""
","
","null","<div style=""font-size:60px;"">+</div>","","null","fixation","2021-08-16 00:39:11.605","","","","",""
"","mars-trial","130","493650","0.0-10.0-1.58","890","""event"",""trial"",""time""
""fullscreenenter"",""0"",""5448""
","
","
","""event"",""trial"",""time""
""fullscreenenter"",""0"",""5448""
","
","3383.5","<img style='border: 4px solid darkgrey;' src='img/tf1_59_M_ss1.jpeg'></img>","0","","exp","","0","<img src='img/tf1_59_T1_ss1_md.jpeg'></img>","0","true",""
"","html-keyboard-response","131","494158","0.0-10.0-0.59","890","""event"",""trial"",""time""
""fullscreenenter"",""0"",""5448""
","
","
","""event"",""trial"",""time""
""fullscreenenter"",""0"",""5448""
","
","null","<div style=""font-size:60px;"">+</div>","","null","fixation","2021-08-16 00:39:16.107","","","","",""
"","mars-trial","132","504196","0.0-10.0-1.59","890","""event"",""trial"",""time""
""fullscreenenter"",""0"",""5448""
","
","
","""event"",""trial"",""time""
""fullscreenenter"",""0"",""5448""
","
","9427.90000000596","<img style='border: 4px solid darkgrey;' src='img/tf1_60_M_ss2.jpeg'></img>","3","","exp","","0","<img src='img/tf1_60_T1_ss2_md.jpeg'></img>","0","true",""
"","html-keyboard-response","133","504702","0.0-10.0-0.60","890","""event"",""trial"",""time""
""fullscreenenter"",""0"",""5448""
","
","
","""event"",""trial"",""time""
""fullscreenenter"",""0"",""5448""
","
","null","<div style=""font-size:60px;"">+</div>","","null","fixation","2021-08-16 00:39:26.651","","","","",""
"","mars-trial","134","506985","0.0-10.0-1.60","890","""event"",""trial"",""time""
""fullscreenenter"",""0"",""5448""
","
","
","""event"",""trial"",""time""
""fullscreenenter"",""0"",""5448""
","
","1662.2999999970198","<img style='border: 4px solid darkgrey;' src='img/tf1_61_M_ss3.jpeg'></img>","3","","exp","","1","<img src='img/tf1_61_T1_ss3_md.jpeg'></img>","0","false",""
"","html-keyboard-response","135","507491","0.0-10.0-0.61","890","""event"",""trial"",""time""
""fullscreenenter"",""0"",""5448""
","
","
","""event"",""trial"",""time""
""fullscreenenter"",""0"",""5448""
","
","null","<div style=""font-size:60px;"">+</div>","","null","fixation","2021-08-16 00:39:29.440","","","","",""
"","mars-trial","136","512126","0.0-10.0-1.61","890","""event"",""trial"",""time""
""fullscreenenter"",""0"",""5448""
","
","
","""event"",""trial"",""time""
""fullscreenenter"",""0"",""5448""
","
","4016","<img style='border: 4px solid darkgrey;' src='img/tf1_62_M_ss1.jpeg'></img>","1","","exp","","0","<img src='img/tf1_62_T1_ss1_md.jpeg'></img>","0","true",""
"","html-keyboard-response","137","512632","0.0-10.0-0.62","890","""event"",""trial"",""time""
""fullscreenenter"",""0"",""5448""
","
","
","""event"",""trial"",""time""
""fullscreenenter"",""0"",""5448""
","
","null","<div style=""font-size:60px;"">+</div>","","null","fixation","2021-08-16 00:39:34.582","","","","",""
"","mars-trial","138","517223","0.0-10.0-1.62","890","""event"",""trial"",""time""
""fullscreenenter"",""0"",""5448""
","
","
","""event"",""trial"",""time""
""fullscreenenter"",""0"",""5448""
","
","","","","","exp","","","<img src='img/tf1_63_T1_ss2_md.jpeg'></img>","0","false",""
"","html-keyboard-response","139","517726","0.0-10.0-0.63","890","""event"",""trial"",""time""
""fullscreenenter"",""0"",""5448""
","
","
","""event"",""trial"",""time""
""fullscreenenter"",""0"",""5448""
","
","null","<div style=""font-size:60px;"">+</div>","","null","fixation","2021-08-16 00:39:39.675","","","","",""
"","audio-button-response","140","521529","0.0-11.0","890","""event"",""trial"",""time""
""fullscreenenter"",""0"",""5448""
","
","
","""event"",""trial"",""time""
""fullscreenenter"",""0"",""5448""
","
","3689.3000000044703","audio/mars_instructions_slide5.wav","0","","","","","","","",""
