"success","trial_type","trial_index","time_elapsed","internal_node_id","subject_id","interactions","blur_events","focus_events","fullscreenenter_events","fullscreenexit_events","rt","stimulus","button_pressed","key_press","part","timestamp","unshuffled_button","correct_response","correct_button","correct","value"
"true","fullscreen","0","3139","0.0-0.0","245","""event"",""trial"",""time""
""fullscreenenter"",""0"",""2152""
","
","
","""event"",""trial"",""time""
""fullscreenenter"",""0"",""2152""
","
","","","","","","","","","","",""
"","pavlovia","1","3156","0.0-1.0","245","""event"",""trial"",""time""
""fullscreenenter"",""0"",""2152""
","
","
","""event"",""trial"",""time""
""fullscreenenter"",""0"",""2152""
","
","","","","","","","","","","",""
"","html-button-response","2","4965","0.0-2.0","245","""event"",""trial"",""time""
""fullscreenenter"",""0"",""2152""
","
","
","""event"",""trial"",""time""
""fullscreenenter"",""0"",""2152""
","
","1806.1199999647215","<p>Welcome! Press START to begin.</p><br>","0","","","","","","","",""
"","audio-button-response","3","17587","0.0-3.0","245","""event"",""trial"",""time""
""fullscreenenter"",""0"",""2152""
","
","
","""event"",""trial"",""time""
""fullscreenenter"",""0"",""2152""
","
","12620.21999998251","audio/mars_instructions_slide2.wav","0","","","","","","","",""
"","audio-button-response","4","33606","0.0-4.0","245","""event"",""trial"",""time""
""fullscreenenter"",""0"",""2152""
","
","
","""event"",""trial"",""time""
""fullscreenenter"",""0"",""2152""
","
","16017.820000008214","audio/mars_instructions_slide3.wav","0","","","","","","","",""
"","html-keyboard-response","5","34123","0.0-5.0-0.0","245","""event"",""trial"",""time""
""fullscreenenter"",""0"",""2152""
","
","
","""event"",""trial"",""time""
""fullscreenenter"",""0"",""2152""
","
","null","<div style=""font-size:60px;"">+</div>","","null","fixation","2021-04-02 17:11:02.742","","","","",""
"","mars-trial","6","39474","0.0-5.0-1.0","245","""event"",""trial"",""time""
""fullscreenenter"",""0"",""2152""
","
","
","""event"",""trial"",""time""
""fullscreenenter"",""0"",""2152""
","
","3219.2100000102073","<img style='border: 4px solid darkgrey;' src='practice/pt1_M1.png'></img>","3","","practice","","0","<img src='practice/pt1_T1.png'></img>","0","true",""
"","html-keyboard-response","7","39992","0.0-6.0-0.0","245","""event"",""trial"",""time""
""fullscreenenter"",""0"",""2152""
","
","
","""event"",""trial"",""time""
""fullscreenenter"",""0"",""2152""
","
","null","<div style=""font-size:60px;"">+</div>","","null","fixation","2021-04-02 17:11:08.610","","","","",""
"","mars-trial","8","44582","0.0-6.0-1.0","245","""event"",""trial"",""time""
""fullscreenenter"",""0"",""2152""
","
","
","""event"",""trial"",""time""
""fullscreenenter"",""0"",""2152""
","
","2443.8000000081956","<img style='border: 4px solid darkgrey;' src='practice/pt2_M1.png'></img>","1","","practice","","0","<img src='practice/pt2_T1.png'></img>","0","true",""
"","html-keyboard-response","9","45093","0.0-7.0-0.0","245","""event"",""trial"",""time""
""fullscreenenter"",""0"",""2152""
","
","
","""event"",""trial"",""time""
""fullscreenenter"",""0"",""2152""
","
","null","<div style=""font-size:60px;"">+</div>","","null","fixation","2021-04-02 17:11:13.711","","","","",""
"","mars-trial","10","49323","0.0-7.0-1.0","245","""event"",""trial"",""time""
""fullscreenenter"",""0"",""2152""
","
","
","""event"",""trial"",""time""
""fullscreenenter"",""0"",""2152""
","
","2105.4800000274554","<img style='border: 4px solid darkgrey;' src='practice/pt3_M1.png'></img>","1","","practice","","0","<img src='practice/pt3_T1.png'></img>","0","true",""
"","audio-button-response","11","53205","0.0-8.0","245","""event"",""trial"",""time""
""fullscreenenter"",""0"",""2152""
","
","
","""event"",""trial"",""time""
""fullscreenenter"",""0"",""2152""
","
","3878.774999990128","audio/mars_instructions_slide4.wav","0","","","","","","","",""
"","call-function","12","53206","0.0-9.0","245","""event"",""trial"",""time""
""fullscreenenter"",""0"",""2152""
","
","
","""event"",""trial"",""time""
""fullscreenenter"",""0"",""2152""
","
","","","","","","","","","","",""
"","html-keyboard-response","13","53722","0.0-10.0-0.0","245","""event"",""trial"",""time""
""fullscreenenter"",""0"",""2152""
","
","
","""event"",""trial"",""time""
""fullscreenenter"",""0"",""2152""
","
","null","<div style=""font-size:60px;"">+</div>","","null","fixation","2021-04-02 17:11:22.341","","","","",""
"","mars-trial","14","58282","0.0-10.0-1.0","245","""event"",""trial"",""time""
""fullscreenenter"",""0"",""2152""
","
","
","""event"",""trial"",""time""
""fullscreenenter"",""0"",""2152""
","
","3934.339999977965","<img style='border: 4px solid darkgrey;' src='img/tf1_1_M_ss3.jpeg'></img>","1","","exp","","0","<img src='img/tf1_1_T1_ss3_md.jpeg'></img>","0","true",""
"","html-keyboard-response","15","58792","0.0-10.0-0.1","245","""event"",""trial"",""time""
""fullscreenenter"",""0"",""2152""
","
","
","""event"",""trial"",""time""
""fullscreenenter"",""0"",""2152""
","
","null","<div style=""font-size:60px;"">+</div>","","null","fixation","2021-04-02 17:11:27.410","","","","",""
"","mars-trial","16","61533","0.0-10.0-1.1","245","""event"",""trial"",""time""
""fullscreenenter"",""0"",""2152""
","
","
","""event"",""trial"",""time""
""fullscreenenter"",""0"",""2152""
","
","2106.9400000269525","<img style='border: 4px solid darkgrey;' src='img/tf1_2_M_ss1.jpeg'></img>","2","","exp","","0","<img src='img/tf1_2_T1_ss1_md.jpeg'></img>","0","true",""
"","html-keyboard-response","17","62043","0.0-10.0-0.2","245","""event"",""trial"",""time""
""fullscreenenter"",""0"",""2152""
","
","
","""event"",""trial"",""time""
""fullscreenenter"",""0"",""2152""
","
","null","<div style=""font-size:60px;"">+</div>","","null","fixation","2021-04-02 17:11:30.661","","","","",""
"","mars-trial","18","65063","0.0-10.0-1.2","245","""event"",""trial"",""time""
""fullscreenenter"",""0"",""2152""
","
","
","""event"",""trial"",""time""
""fullscreenenter"",""0"",""2152""
","
","2389.6099999547005","<img style='border: 4px solid darkgrey;' src='img/tf1_3_M_ss2.jpeg'></img>","1","","exp","","2","<img src='img/tf1_3_T1_ss2_md.jpeg'></img>","0","false",""
"","html-keyboard-response","19","65565","0.0-10.0-0.3","245","""event"",""trial"",""time""
""fullscreenenter"",""0"",""2152""
","
","
","""event"",""trial"",""time""
""fullscreenenter"",""0"",""2152""
","
","null","<div style=""font-size:60px;"">+</div>","","null","fixation","2021-04-02 17:11:34.183","","","","",""
"","mars-trial","20","69127","0.0-10.0-1.3","245","""event"",""trial"",""time""
""fullscreenenter"",""0"",""2152""
","
","
","""event"",""trial"",""time""
""fullscreenenter"",""0"",""2152""
","
","2940.4150000191294","<img style='border: 4px solid darkgrey;' src='img/tf1_4_M_ss3.jpeg'></img>","0","","exp","","0","<img src='img/tf1_4_T1_ss3_md.jpeg'></img>","0","true",""
"","html-keyboard-response","21","69634","0.0-10.0-0.4","245","""event"",""trial"",""time""
""fullscreenenter"",""0"",""2152""
","
","
","""event"",""trial"",""time""
""fullscreenenter"",""0"",""2152""
","
","null","<div style=""font-size:60px;"">+</div>","","null","fixation","2021-04-02 17:11:38.252","","","","",""
"","mars-trial","22","72814","0.0-10.0-1.4","245","""event"",""trial"",""time""
""fullscreenenter"",""0"",""2152""
","
","
","""event"",""trial"",""time""
""fullscreenenter"",""0"",""2152""
","
","2564.8399999481626","<img style='border: 4px solid darkgrey;' src='img/tf1_5_M_ss1.jpeg'></img>","3","","exp","","0","<img src='img/tf1_5_T1_ss1_md.jpeg'></img>","0","true",""
"","html-keyboard-response","23","73332","0.0-10.0-0.5","245","""event"",""trial"",""time""
""fullscreenenter"",""0"",""2152""
","
","
","""event"",""trial"",""time""
""fullscreenenter"",""0"",""2152""
","
","null","<div style=""font-size:60px;"">+</div>","","null","fixation","2021-04-02 17:11:41.950","","","","",""
"","mars-trial","24","78113","0.0-10.0-1.5","245","""event"",""trial"",""time""
""fullscreenenter"",""0"",""2152""
","
","
","""event"",""trial"",""time""
""fullscreenenter"",""0"",""2152""
","
","4144.650000031106","<img style='border: 4px solid darkgrey;' src='img/tf1_6_M_ss2.jpeg'></img>","1","","exp","","2","<img src='img/tf1_6_T1_ss2_md.jpeg'></img>","0","false",""
"","html-keyboard-response","25","78616","0.0-10.0-0.6","245","""event"",""trial"",""time""
""fullscreenenter"",""0"",""2152""
","
","
","""event"",""trial"",""time""
""fullscreenenter"",""0"",""2152""
","
","null","<div style=""font-size:60px;"">+</div>","","null","fixation","2021-04-02 17:11:47.235","","","","",""
"","mars-trial","26","83520","0.0-10.0-1.6","245","""event"",""trial"",""time""
""fullscreenenter"",""0"",""2152""
","
","
","""event"",""trial"",""time""
""fullscreenenter"",""0"",""2152""
","
","4279.240000003483","<img style='border: 4px solid darkgrey;' src='img/tf1_7_M_ss3.jpeg'></img>","2","","exp","","0","<img src='img/tf1_7_T1_ss3_md.jpeg'></img>","0","true",""
"","html-keyboard-response","27","84023","0.0-10.0-0.7","245","""event"",""trial"",""time""
""fullscreenenter"",""0"",""2152""
","
","
","""event"",""trial"",""time""
""fullscreenenter"",""0"",""2152""
","
","null","<div style=""font-size:60px;"">+</div>","","null","fixation","2021-04-02 17:11:52.642","","","","",""
"","mars-trial","28","89212","0.0-10.0-1.7","245","""event"",""trial"",""time""
""fullscreenenter"",""0"",""2152""
","
","
","""event"",""trial"",""time""
""fullscreenenter"",""0"",""2152""
","
","4578.455000009853","<img style='border: 4px solid darkgrey;' src='img/tf1_8_M_ss1.jpeg'></img>","1","","exp","","0","<img src='img/tf1_8_T1_ss1_md.jpeg'></img>","0","true",""
"","html-keyboard-response","29","89713","0.0-10.0-0.8","245","""event"",""trial"",""time""
""fullscreenenter"",""0"",""2152""
","
","
","""event"",""trial"",""time""
""fullscreenenter"",""0"",""2152""
","
","null","<div style=""font-size:60px;"">+</div>","","null","fixation","2021-04-02 17:11:58.332","","","","",""
"","mars-trial","30","93385","0.0-10.0-1.8","245","""event"",""trial"",""time""
""fullscreenenter"",""0"",""2152""
","
","
","""event"",""trial"",""time""
""fullscreenenter"",""0"",""2152""
","
","3058.465000009164","<img style='border: 4px solid darkgrey;' src='img/tf1_9_M_ss2.jpeg'></img>","3","","exp","","0","<img src='img/tf1_9_T1_ss2_md.jpeg'></img>","0","true",""
"","html-keyboard-response","31","93887","0.0-10.0-0.9","245","""event"",""trial"",""time""
""fullscreenenter"",""0"",""2152""
","
","
","""event"",""trial"",""time""
""fullscreenenter"",""0"",""2152""
","
","null","<div style=""font-size:60px;"">+</div>","","null","fixation","2021-04-02 17:12:02.506","","","","",""
"","mars-trial","32","101700","0.0-10.0-1.9","245","""event"",""trial"",""time""
""fullscreenenter"",""0"",""2152""
","
","
","""event"",""trial"",""time""
""fullscreenenter"",""0"",""2152""
","
","7201.709999993909","<img style='border: 4px solid darkgrey;' src='img/tf1_10_M_ss3.jpeg'></img>","1","","exp","","1","<img src='img/tf1_10_T1_ss3_md.jpeg'></img>","0","false",""
"","html-keyboard-response","33","102203","0.0-10.0-0.10","245","""event"",""trial"",""time""
""fullscreenenter"",""0"",""2152""
","
","
","""event"",""trial"",""time""
""fullscreenenter"",""0"",""2152""
","
","null","<div style=""font-size:60px;"">+</div>","","null","fixation","2021-04-02 17:12:10.821","","","","",""
"","mars-trial","34","107985","0.0-10.0-1.10","245","""event"",""trial"",""time""
""fullscreenenter"",""0"",""2152""
","
","
","""event"",""trial"",""time""
""fullscreenenter"",""0"",""2152""
","
","5174.014999996871","<img style='border: 4px solid darkgrey;' src='img/tf1_11_M_ss1.jpeg'></img>","1","","exp","","0","<img src='img/tf1_11_T1_ss1_md.jpeg'></img>","0","true",""
"","html-keyboard-response","35","108489","0.0-10.0-0.11","245","""event"",""trial"",""time""
""fullscreenenter"",""0"",""2152""
","
","
","""event"",""trial"",""time""
""fullscreenenter"",""0"",""2152""
","
","null","<div style=""font-size:60px;"">+</div>","","null","fixation","2021-04-02 17:12:17.107","","","","",""
"","mars-trial","36","112635","0.0-10.0-1.11","245","""event"",""trial"",""time""
""fullscreenenter"",""0"",""2152""
","
","
","""event"",""trial"",""time""
""fullscreenenter"",""0"",""2152""
","
","3533.6999999708496","<img style='border: 4px solid darkgrey;' src='img/tf1_12_M_ss2.jpeg'></img>","1","","exp","","1","<img src='img/tf1_12_T1_ss2_md.jpeg'></img>","0","false",""
"","html-keyboard-response","37","113139","0.0-10.0-0.12","245","""event"",""trial"",""time""
""fullscreenenter"",""0"",""2152""
","
","
","""event"",""trial"",""time""
""fullscreenenter"",""0"",""2152""
","
","null","<div style=""font-size:60px;"">+</div>","","null","fixation","2021-04-02 17:12:21.758","","","","",""
"","mars-trial","38","122489","0.0-10.0-1.12","245","""event"",""trial"",""time""
""fullscreenenter"",""0"",""2152""
","
","
","""event"",""trial"",""time""
""fullscreenenter"",""0"",""2152""
","
","8744.164999981876","<img style='border: 4px solid darkgrey;' src='img/tf1_13_M_ss3.jpeg'></img>","0","","exp","","1","<img src='img/tf1_13_T1_ss3_md.jpeg'></img>","0","false",""
"","html-keyboard-response","39","122992","0.0-10.0-0.13","245","""event"",""trial"",""time""
""fullscreenenter"",""0"",""2152""
","
","
","""event"",""trial"",""time""
""fullscreenenter"",""0"",""2152""
","
","null","<div style=""font-size:60px;"">+</div>","","null","fixation","2021-04-02 17:12:31.611","","","","",""
"","mars-trial","40","130026","0.0-10.0-1.13","245","""event"",""trial"",""time""
""fullscreenenter"",""0"",""2152""
","
","
","""event"",""trial"",""time""
""fullscreenenter"",""0"",""2152""
","
","6425.969999982044","<img style='border: 4px solid darkgrey;' src='img/tf1_14_M_ss1.jpeg'></img>","2","","exp","","1","<img src='img/tf1_14_T1_ss1_md.jpeg'></img>","0","false",""
"","html-keyboard-response","41","130530","0.0-10.0-0.14","245","""event"",""trial"",""time""
""fullscreenenter"",""0"",""2152""
","
","
","""event"",""trial"",""time""
""fullscreenenter"",""0"",""2152""
","
","null","<div style=""font-size:60px;"">+</div>","","null","fixation","2021-04-02 17:12:39.149","","","","",""
"","mars-trial","42","146001","0.0-10.0-1.14","245","""event"",""trial"",""time""
""fullscreenenter"",""0"",""2152""
","
","
","""event"",""trial"",""time""
""fullscreenenter"",""0"",""2152""
","
","14862.059999955818","<img style='border: 4px solid darkgrey;' src='img/tf1_15_M_ss2.jpeg'></img>","2","","exp","","3","<img src='img/tf1_15_T1_ss2_md.jpeg'></img>","0","false",""
"","html-keyboard-response","43","146503","0.0-10.0-0.15","245","""event"",""trial"",""time""
""fullscreenenter"",""0"",""2152""
","
","
","""event"",""trial"",""time""
""fullscreenenter"",""0"",""2152""
","
","null","<div style=""font-size:60px;"">+</div>","","null","fixation","2021-04-02 17:12:55.121","","","","",""
"","mars-trial","44","155527","0.0-10.0-1.15","245","""event"",""trial"",""time""
""fullscreenenter"",""0"",""2152""
","
","
","""event"",""trial"",""time""
""fullscreenenter"",""0"",""2152""
","
","8413.80499996012","<img style='border: 4px solid darkgrey;' src='img/tf1_16_M_ss3.jpeg'></img>","1","","exp","","0","<img src='img/tf1_16_T1_ss3_md.jpeg'></img>","0","true",""
"","html-keyboard-response","45","156030","0.0-10.0-0.16","245","""event"",""trial"",""time""
""fullscreenenter"",""0"",""2152""
","
","
","""event"",""trial"",""time""
""fullscreenenter"",""0"",""2152""
","
","null","<div style=""font-size:60px;"">+</div>","","null","fixation","2021-04-02 17:13:04.648","","","","",""
"","mars-trial","46","171785","0.0-10.0-1.16","245","""event"",""trial"",""time""
""fullscreenenter"",""0"",""2152""
","
","
","""event"",""trial"",""time""
""fullscreenenter"",""0"",""2152""
","
","15148.37999996962","<img style='border: 4px solid darkgrey;' src='img/tf1_17_M_ss1.jpeg'></img>","2","","exp","","0","<img src='img/tf1_17_T1_ss1_md.jpeg'></img>","0","true",""
"","html-keyboard-response","47","172288","0.0-10.0-0.17","245","""event"",""trial"",""time""
""fullscreenenter"",""0"",""2152""
","
","
","""event"",""trial"",""time""
""fullscreenenter"",""0"",""2152""
","
","null","<div style=""font-size:60px;"">+</div>","","null","fixation","2021-04-02 17:13:20.907","","","","",""
"","mars-trial","48","183936","0.0-10.0-1.17","245","""event"",""trial"",""time""
""fullscreenenter"",""0"",""2152""
","
","
","""event"",""trial"",""time""
""fullscreenenter"",""0"",""2152""
","
","11036.13999998197","<img style='border: 4px solid darkgrey;' src='img/tf1_18_M_ss2.jpeg'></img>","2","","exp","","0","<img src='img/tf1_18_T1_ss2_md.jpeg'></img>","0","true",""
"","html-keyboard-response","49","184438","0.0-10.0-0.18","245","""event"",""trial"",""time""
""fullscreenenter"",""0"",""2152""
","
","
","""event"",""trial"",""time""
""fullscreenenter"",""0"",""2152""
","
","null","<div style=""font-size:60px;"">+</div>","","null","fixation","2021-04-02 17:13:33.057","","","","",""
"","mars-trial","50","188144","0.0-10.0-1.18","245","""event"",""trial"",""time""
""fullscreenenter"",""0"",""2152""
","
","
","""event"",""trial"",""time""
""fullscreenenter"",""0"",""2152""
","
","3095.1500000082888","<img style='border: 4px solid darkgrey;' src='img/tf1_19_M_ss3.jpeg'></img>","3","","exp","","0","<img src='img/tf1_19_T1_ss3_md.jpeg'></img>","0","true",""
"","html-keyboard-response","51","188648","0.0-10.0-0.19","245","""event"",""trial"",""time""
""fullscreenenter"",""0"",""2152""
","
","
","""event"",""trial"",""time""
""fullscreenenter"",""0"",""2152""
","
","null","<div style=""font-size:60px;"">+</div>","","null","fixation","2021-04-02 17:13:37.266","","","","",""
"","mars-trial","52","196747","0.0-10.0-1.19","245","""event"",""trial"",""time""
""fullscreenenter"",""0"",""2152""
","
","
","""event"",""trial"",""time""
""fullscreenenter"",""0"",""2152""
","
","7487.744999991264","<img style='border: 4px solid darkgrey;' src='img/tf1_20_M_ss1.jpeg'></img>","0","","exp","","0","<img src='img/tf1_20_T1_ss1_md.jpeg'></img>","0","true",""
"","html-keyboard-response","53","197249","0.0-10.0-0.20","245","""event"",""trial"",""time""
""fullscreenenter"",""0"",""2152""
","
","
","""event"",""trial"",""time""
""fullscreenenter"",""0"",""2152""
","
","null","<div style=""font-size:60px;"">+</div>","","null","fixation","2021-04-02 17:13:45.868","","","","",""
"","mars-trial","54","205027","0.0-10.0-1.20","245","""event"",""trial"",""time""
""fullscreenenter"",""0"",""2152""
","
","
","""event"",""trial"",""time""
""fullscreenenter"",""0"",""2152""
","
","7171.809999970719","<img style='border: 4px solid darkgrey;' src='img/tf1_21_M_ss2.jpeg'></img>","3","","exp","","1","<img src='img/tf1_21_T1_ss2_md.jpeg'></img>","0","false",""
"","html-keyboard-response","55","205530","0.0-10.0-0.21","245","""event"",""trial"",""time""
""fullscreenenter"",""0"",""2152""
","
","
","""event"",""trial"",""time""
""fullscreenenter"",""0"",""2152""
","
","null","<div style=""font-size:60px;"">+</div>","","null","fixation","2021-04-02 17:13:54.148","","","","",""
"","mars-trial","56","210487","0.0-10.0-1.21","245","""event"",""trial"",""time""
""fullscreenenter"",""0"",""2152""
","
","
","""event"",""trial"",""time""
""fullscreenenter"",""0"",""2152""
","
","4350.440000009257","<img style='border: 4px solid darkgrey;' src='img/tf1_22_M_ss3.jpeg'></img>","1","","exp","","3","<img src='img/tf1_22_T1_ss3_md.jpeg'></img>","0","false",""
"","html-keyboard-response","57","210990","0.0-10.0-0.22","245","""event"",""trial"",""time""
""fullscreenenter"",""0"",""2152""
","
","
","""event"",""trial"",""time""
""fullscreenenter"",""0"",""2152""
","
","null","<div style=""font-size:60px;"">+</div>","","null","fixation","2021-04-02 17:13:59.608","","","","",""
"","mars-trial","58","215458","0.0-10.0-1.22","245","""event"",""trial"",""time""
""fullscreenenter"",""0"",""2152""
","
","
","""event"",""trial"",""time""
""fullscreenenter"",""0"",""2152""
","
","3863.4299999685027","<img style='border: 4px solid darkgrey;' src='img/tf1_23_M_ss1.jpeg'></img>","2","","exp","","3","<img src='img/tf1_23_T1_ss1_md.jpeg'></img>","0","false",""
"","html-keyboard-response","59","215960","0.0-10.0-0.23","245","""event"",""trial"",""time""
""fullscreenenter"",""0"",""2152""
","
","
","""event"",""trial"",""time""
""fullscreenenter"",""0"",""2152""
","
","null","<div style=""font-size:60px;"">+</div>","","null","fixation","2021-04-02 17:14:04.579","","","","",""
"","mars-trial","60","227818","0.0-10.0-1.23","245","""event"",""trial"",""time""
""fullscreenenter"",""0"",""2152""
","
","
","""event"",""trial"",""time""
""fullscreenenter"",""0"",""2152""
","
","11248.415000038221","<img style='border: 4px solid darkgrey;' src='img/tf1_24_M_ss2.jpeg'></img>","0","","exp","","3","<img src='img/tf1_24_T1_ss2_md.jpeg'></img>","0","false",""
"","html-keyboard-response","61","228322","0.0-10.0-0.24","245","""event"",""trial"",""time""
""fullscreenenter"",""0"",""2152""
","
","
","""event"",""trial"",""time""
""fullscreenenter"",""0"",""2152""
","
","null","<div style=""font-size:60px;"">+</div>","","null","fixation","2021-04-02 17:14:16.940","","","","",""
"","mars-trial","62","234457","0.0-10.0-1.24","245","""event"",""trial"",""time""
""fullscreenenter"",""0"",""2152""
","
","
","""event"",""trial"",""time""
""fullscreenenter"",""0"",""2152""
","
","5517.625000036787","<img style='border: 4px solid darkgrey;' src='img/tf1_25_M_ss3.jpeg'></img>","0","","exp","","0","<img src='img/tf1_25_T1_ss3_md.jpeg'></img>","0","true",""
"","html-keyboard-response","63","234960","0.0-10.0-0.25","245","""event"",""trial"",""time""
""fullscreenenter"",""0"",""2152""
","
","
","""event"",""trial"",""time""
""fullscreenenter"",""0"",""2152""
","
","null","<div style=""font-size:60px;"">+</div>","","null","fixation","2021-04-02 17:14:23.578","","","","",""
"","mars-trial","64","254817","0.0-10.0-1.25","245","""event"",""trial"",""time""
""fullscreenenter"",""0"",""2152""
","
","
","""event"",""trial"",""time""
""fullscreenenter"",""0"",""2152""
","
","19248.595000011846","<img style='border: 4px solid darkgrey;' src='img/tf1_26_M_ss1.jpeg'></img>","3","","exp","","1","<img src='img/tf1_26_T1_ss1_md.jpeg'></img>","0","false",""
"","html-keyboard-response","65","255320","0.0-10.0-0.26","245","""event"",""trial"",""time""
""fullscreenenter"",""0"",""2152""
","
","
","""event"",""trial"",""time""
""fullscreenenter"",""0"",""2152""
","
","null","<div style=""font-size:60px;"">+</div>","","null","fixation","2021-04-02 17:14:43.938","","","","",""
"","mars-trial","66","259535","0.0-10.0-1.26","245","""event"",""trial"",""time""
""fullscreenenter"",""0"",""2152""
","
","
","""event"",""trial"",""time""
""fullscreenenter"",""0"",""2152""
","
","3607.8899999847636","<img style='border: 4px solid darkgrey;' src='img/tf1_27_M_ss2.jpeg'></img>","2","","exp","","2","<img src='img/tf1_27_T1_ss2_md.jpeg'></img>","0","false",""
"","html-keyboard-response","67","260037","0.0-10.0-0.27","245","""event"",""trial"",""time""
""fullscreenenter"",""0"",""2152""
","
","
","""event"",""trial"",""time""
""fullscreenenter"",""0"",""2152""
","
","null","<div style=""font-size:60px;"">+</div>","","null","fixation","2021-04-02 17:14:48.656","","","","",""
"","mars-trial","68","273695","0.0-10.0-1.27","245","""event"",""trial"",""time""
""fullscreenenter"",""0"",""2152""
","
","
","""event"",""trial"",""time""
""fullscreenenter"",""0"",""2152""
","
","13037.819999968633","<img style='border: 4px solid darkgrey;' src='img/tf1_28_M_ss3.jpeg'></img>","0","","exp","","3","<img src='img/tf1_28_T1_ss3_md.jpeg'></img>","0","false",""
"","html-keyboard-response","69","274198","0.0-10.0-0.28","245","""event"",""trial"",""time""
""fullscreenenter"",""0"",""2152""
","
","
","""event"",""trial"",""time""
""fullscreenenter"",""0"",""2152""
","
","null","<div style=""font-size:60px;"">+</div>","","null","fixation","2021-04-02 17:15:02.816","","","","",""
"","mars-trial","70","285816","0.0-10.0-1.28","245","""event"",""trial"",""time""
""fullscreenenter"",""0"",""2152""
","
","
","""event"",""trial"",""time""
""fullscreenenter"",""0"",""2152""
","
","11006.835000007413","<img style='border: 4px solid darkgrey;' src='img/tf1_29_M_ss1.jpeg'></img>","3","","exp","","2","<img src='img/tf1_29_T1_ss1_md.jpeg'></img>","0","false",""
"","html-keyboard-response","71","286319","0.0-10.0-0.29","245","""event"",""trial"",""time""
""fullscreenenter"",""0"",""2152""
","
","
","""event"",""trial"",""time""
""fullscreenenter"",""0"",""2152""
","
","null","<div style=""font-size:60px;"">+</div>","","null","fixation","2021-04-02 17:15:14.938","","","","",""
"","mars-trial","72","296668","0.0-10.0-1.29","245","""event"",""trial"",""time""
""fullscreenenter"",""0"",""2152""
","
","
","""event"",""trial"",""time""
""fullscreenenter"",""0"",""2152""
","
","9743.96000005072","<img style='border: 4px solid darkgrey;' src='img/tf1_30_M_ss2.jpeg'></img>","1","","exp","","0","<img src='img/tf1_30_T1_ss2_md.jpeg'></img>","0","true",""
"","html-keyboard-response","73","297171","0.0-10.0-0.30","245","""event"",""trial"",""time""
""fullscreenenter"",""0"",""2152""
","
","
","""event"",""trial"",""time""
""fullscreenenter"",""0"",""2152""
","
","null","<div style=""font-size:60px;"">+</div>","","null","fixation","2021-04-02 17:15:25.789","","","","",""
"","mars-trial","74","302869","0.0-10.0-1.30","245","""event"",""trial"",""time""
""fullscreenenter"",""0"",""2152""
","
","
","""event"",""trial"",""time""
""fullscreenenter"",""0"",""2152""
","
","5094.385000003967","<img style='border: 4px solid darkgrey;' src='img/tf1_31_M_ss3.jpeg'></img>","2","","exp","","0","<img src='img/tf1_31_T1_ss3_md.jpeg'></img>","0","true",""
"","html-keyboard-response","75","303372","0.0-10.0-0.31","245","""event"",""trial"",""time""
""fullscreenenter"",""0"",""2152""
","
","
","""event"",""trial"",""time""
""fullscreenenter"",""0"",""2152""
","
","null","<div style=""font-size:60px;"">+</div>","","null","fixation","2021-04-02 17:15:31.990","","","","",""
"","mars-trial","76","310047","0.0-10.0-1.31","245","""event"",""trial"",""time""
""fullscreenenter"",""0"",""2152""
","
","
","""event"",""trial"",""time""
""fullscreenenter"",""0"",""2152""
","
","6068.529999989551","<img style='border: 4px solid darkgrey;' src='img/tf1_32_M_ss1.jpeg'></img>","3","","exp","","0","<img src='img/tf1_32_T1_ss1_md.jpeg'></img>","0","true",""
"","html-keyboard-response","77","310549","0.0-10.0-0.32","245","""event"",""trial"",""time""
""fullscreenenter"",""0"",""2152""
","
","
","""event"",""trial"",""time""
""fullscreenenter"",""0"",""2152""
","
","null","<div style=""font-size:60px;"">+</div>","","null","fixation","2021-04-02 17:15:39.168","","","","",""
"","mars-trial","78","314233","0.0-10.0-1.32","245","""event"",""trial"",""time""
""fullscreenenter"",""0"",""2152""
","
","
","""event"",""trial"",""time""
""fullscreenenter"",""0"",""2152""
","
","3074.0550000336953","<img style='border: 4px solid darkgrey;' src='img/tf1_33_M_ss2.jpeg'></img>","3","","exp","","0","<img src='img/tf1_33_T1_ss2_md.jpeg'></img>","0","true",""
"","html-keyboard-response","79","314735","0.0-10.0-0.33","245","""event"",""trial"",""time""
""fullscreenenter"",""0"",""2152""
","
","
","""event"",""trial"",""time""
""fullscreenenter"",""0"",""2152""
","
","null","<div style=""font-size:60px;"">+</div>","","null","fixation","2021-04-02 17:15:43.353","","","","",""
"","mars-trial","80","322672","0.0-10.0-1.33","245","""event"",""trial"",""time""
""fullscreenenter"",""0"",""2152""
","
","
","""event"",""trial"",""time""
""fullscreenenter"",""0"",""2152""
","
","7326.995000010356","<img style='border: 4px solid darkgrey;' src='img/tf1_34_M_ss3.jpeg'></img>","1","","exp","","2","<img src='img/tf1_34_T1_ss3_md.jpeg'></img>","0","false",""
"","html-keyboard-response","81","323176","0.0-10.0-0.34","245","""event"",""trial"",""time""
""fullscreenenter"",""0"",""2152""
","
","
","""event"",""trial"",""time""
""fullscreenenter"",""0"",""2152""
","
","null","<div style=""font-size:60px;"">+</div>","","null","fixation","2021-04-02 17:15:51.794","","","","",""
"","mars-trial","82","342927","0.0-10.0-1.34","245","""event"",""trial"",""time""
""fullscreenenter"",""0"",""2152""
","
","
","""event"",""trial"",""time""
""fullscreenenter"",""0"",""2152""
","
","19146.685000043362","<img style='border: 4px solid darkgrey;' src='img/tf1_35_M_ss1.jpeg'></img>","0","","exp","","1","<img src='img/tf1_35_T1_ss1_md.jpeg'></img>","0","false",""
"","html-keyboard-response","83","343430","0.0-10.0-0.35","245","""event"",""trial"",""time""
""fullscreenenter"",""0"",""2152""
","
","
","""event"",""trial"",""time""
""fullscreenenter"",""0"",""2152""
","
","null","<div style=""font-size:60px;"">+</div>","","null","fixation","2021-04-02 17:16:12.048","","","","",""
"","mars-trial","84","352863","0.0-10.0-1.35","245","""event"",""trial"",""time""
""fullscreenenter"",""0"",""2152""
","
","
","""event"",""trial"",""time""
""fullscreenenter"",""0"",""2152""
","
","8822.979999997187","<img style='border: 4px solid darkgrey;' src='img/tf1_36_M_ss2.jpeg'></img>","2","","exp","","2","<img src='img/tf1_36_T1_ss2_md.jpeg'></img>","0","false",""
"","html-keyboard-response","85","353365","0.0-10.0-0.36","245","""event"",""trial"",""time""
""fullscreenenter"",""0"",""2152""
","
","
","""event"",""trial"",""time""
""fullscreenenter"",""0"",""2152""
","
","null","<div style=""font-size:60px;"">+</div>","","null","fixation","2021-04-02 17:16:21.983","","","","",""
"","mars-trial","86","366072","0.0-10.0-1.36","245","""event"",""trial"",""time""
""fullscreenenter"",""0"",""2152""
","
","
","""event"",""trial"",""time""
""fullscreenenter"",""0"",""2152""
","
","12096.315000031609","<img style='border: 4px solid darkgrey;' src='img/tf1_37_M_ss3.jpeg'></img>","2","","exp","","0","<img src='img/tf1_37_T1_ss3_md.jpeg'></img>","0","true",""
"","html-keyboard-response","87","366578","0.0-10.0-0.37","245","""event"",""trial"",""time""
""fullscreenenter"",""0"",""2152""
","
","
","""event"",""trial"",""time""
""fullscreenenter"",""0"",""2152""
","
","null","<div style=""font-size:60px;"">+</div>","","null","fixation","2021-04-02 17:16:35.196","","","","",""
"","mars-trial","88","373632","0.0-10.0-1.37","245","""event"",""trial"",""time""
""fullscreenenter"",""0"",""2152""
","
","
","""event"",""trial"",""time""
""fullscreenenter"",""0"",""2152""
","
","6444.955000013579","<img style='border: 4px solid darkgrey;' src='img/tf1_38_M_ss1.jpeg'></img>","3","","exp","","0","<img src='img/tf1_38_T1_ss1_md.jpeg'></img>","0","true",""
"","html-keyboard-response","89","374133","0.0-10.0-0.38","245","""event"",""trial"",""time""
""fullscreenenter"",""0"",""2152""
","
","
","""event"",""trial"",""time""
""fullscreenenter"",""0"",""2152""
","
","null","<div style=""font-size:60px;"">+</div>","","null","fixation","2021-04-02 17:16:42.752","","","","",""
"","mars-trial","90","379368","0.0-10.0-1.38","245","""event"",""trial"",""time""
""fullscreenenter"",""0"",""2152""
","
","
","""event"",""trial"",""time""
""fullscreenenter"",""0"",""2152""
","
","4630.810000002384","<img style='border: 4px solid darkgrey;' src='img/tf1_39_M_ss2.jpeg'></img>","2","","exp","","0","<img src='img/tf1_39_T1_ss2_md.jpeg'></img>","0","true",""
"","html-keyboard-response","91","379870","0.0-10.0-0.39","245","""event"",""trial"",""time""
""fullscreenenter"",""0"",""2152""
","
","
","""event"",""trial"",""time""
""fullscreenenter"",""0"",""2152""
","
","null","<div style=""font-size:60px;"">+</div>","","null","fixation","2021-04-02 17:16:48.488","","","","",""
"","mars-trial","92","384522","0.0-10.0-1.39","245","""event"",""trial"",""time""
""fullscreenenter"",""0"",""2152""
","
","
","""event"",""trial"",""time""
""fullscreenenter"",""0"",""2152""
","
","4043.0649999761954","<img style='border: 4px solid darkgrey;' src='img/tf1_40_M_ss3.jpeg'></img>","1","","exp","","3","<img src='img/tf1_40_T1_ss3_md.jpeg'></img>","0","false",""
"","html-keyboard-response","93","385027","0.0-10.0-0.40","245","""event"",""trial"",""time""
""fullscreenenter"",""0"",""2152""
","
","
","""event"",""trial"",""time""
""fullscreenenter"",""0"",""2152""
","
","null","<div style=""font-size:60px;"">+</div>","","null","fixation","2021-04-02 17:16:53.645","","","","",""
"","mars-trial","94","389136","0.0-10.0-1.40","245","""event"",""trial"",""time""
""fullscreenenter"",""0"",""2152""
","
","
","""event"",""trial"",""time""
""fullscreenenter"",""0"",""2152""
","
","3497.6800000295043","<img style='border: 4px solid darkgrey;' src='img/tf1_41_M_ss1.jpeg'></img>","2","","exp","","0","<img src='img/tf1_41_T1_ss1_md.jpeg'></img>","0","true",""
"","html-keyboard-response","95","389639","0.0-10.0-0.41","245","""event"",""trial"",""time""
""fullscreenenter"",""0"",""2152""
","
","
","""event"",""trial"",""time""
""fullscreenenter"",""0"",""2152""
","
","null","<div style=""font-size:60px;"">+</div>","","null","fixation","2021-04-02 17:16:58.258","","","","",""
"","mars-trial","96","405627","0.0-10.0-1.41","245","""event"",""trial"",""time""
""fullscreenenter"",""0"",""2152""
","
","
","""event"",""trial"",""time""
""fullscreenenter"",""0"",""2152""
","
","15377.350000024308","<img style='border: 4px solid darkgrey;' src='img/tf1_42_M_ss2.jpeg'></img>","0","","exp","","1","<img src='img/tf1_42_T1_ss2_md.jpeg'></img>","0","false",""
"","html-keyboard-response","97","406131","0.0-10.0-0.42","245","""event"",""trial"",""time""
""fullscreenenter"",""0"",""2152""
","
","
","""event"",""trial"",""time""
""fullscreenenter"",""0"",""2152""
","
","null","<div style=""font-size:60px;"">+</div>","","null","fixation","2021-04-02 17:17:14.749","","","","",""
"","mars-trial","98","426348","0.0-10.0-1.42","245","""event"",""trial"",""time""
""fullscreenenter"",""0"",""2152""
","
","
","""event"",""trial"",""time""
""fullscreenenter"",""0"",""2152""
","
","19612.29999997886","<img style='border: 4px solid darkgrey;' src='img/tf1_43_M_ss3.jpeg'></img>","3","","exp","","1","<img src='img/tf1_43_T1_ss3_md.jpeg'></img>","0","false",""
"","html-keyboard-response","99","426850","0.0-10.0-0.43","245","""event"",""trial"",""time""
""fullscreenenter"",""0"",""2152""
","
","
","""event"",""trial"",""time""
""fullscreenenter"",""0"",""2152""
","
","null","<div style=""font-size:60px;"">+</div>","","null","fixation","2021-04-02 17:17:35.468","","","","",""
"","mars-trial","100","441829","0.0-10.0-1.43","245","""event"",""trial"",""time""
""fullscreenenter"",""0"",""2152""
","
","
","""event"",""trial"",""time""
""fullscreenenter"",""0"",""2152""
","
","14369.14500000421","<img style='border: 4px solid darkgrey;' src='img/tf1_44_M_ss1.jpeg'></img>","2","","exp","","2","<img src='img/tf1_44_T1_ss1_md.jpeg'></img>","0","false",""
"","html-keyboard-response","101","442332","0.0-10.0-0.44","245","""event"",""trial"",""time""
""fullscreenenter"",""0"",""2152""
","
","
","""event"",""trial"",""time""
""fullscreenenter"",""0"",""2152""
","
","null","<div style=""font-size:60px;"">+</div>","","null","fixation","2021-04-02 17:17:50.950","","","","",""
"","mars-trial","102","460774","0.0-10.0-1.44","245","""event"",""trial"",""time""
""fullscreenenter"",""0"",""2152""
","
","
","""event"",""trial"",""time""
""fullscreenenter"",""0"",""2152""
","
","17828.830000013113","<img style='border: 4px solid darkgrey;' src='img/tf1_45_M_ss2.jpeg'></img>","3","","exp","","0","<img src='img/tf1_45_T1_ss2_md.jpeg'></img>","0","true",""
"","html-keyboard-response","103","461277","0.0-10.0-0.45","245","""event"",""trial"",""time""
""fullscreenenter"",""0"",""2152""
","
","
","""event"",""trial"",""time""
""fullscreenenter"",""0"",""2152""
","
","null","<div style=""font-size:60px;"">+</div>","","null","fixation","2021-04-02 17:18:09.895","","","","",""
"","mars-trial","104","470763","0.0-10.0-1.45","245","""event"",""trial"",""time""
""fullscreenenter"",""0"",""2152""
","
","
","""event"",""trial"",""time""
""fullscreenenter"",""0"",""2152""
","
","8880.285000021104","<img style='border: 4px solid darkgrey;' src='img/tf1_46_M_ss3.jpeg'></img>","2","","exp","","1","<img src='img/tf1_46_T1_ss3_md.jpeg'></img>","0","false",""
"","html-keyboard-response","105","471266","0.0-10.0-0.46","245","""event"",""trial"",""time""
""fullscreenenter"",""0"",""2152""
","
","
","""event"",""trial"",""time""
""fullscreenenter"",""0"",""2152""
","
","null","<div style=""font-size:60px;"">+</div>","","null","fixation","2021-04-02 17:18:19.884","","","","",""
"","mars-trial","106","479044","0.0-10.0-1.46","245","""event"",""trial"",""time""
""fullscreenenter"",""0"",""2152""
","
","
","""event"",""trial"",""time""
""fullscreenenter"",""0"",""2152""
","
","7172.825000016019","<img style='border: 4px solid darkgrey;' src='img/tf1_47_M_ss1.jpeg'></img>","2","","exp","","1","<img src='img/tf1_47_T1_ss1_md.jpeg'></img>","0","false",""
"","html-keyboard-response","107","479547","0.0-10.0-0.47","245","""event"",""trial"",""time""
""fullscreenenter"",""0"",""2152""
","
","
","""event"",""trial"",""time""
""fullscreenenter"",""0"",""2152""
","
","null","<div style=""font-size:60px;"">+</div>","","null","fixation","2021-04-02 17:18:28.165","","","","",""
"","mars-trial","108","491105","0.0-10.0-1.47","245","""event"",""trial"",""time""
""fullscreenenter"",""0"",""2152""
","
","
","""event"",""trial"",""time""
""fullscreenenter"",""0"",""2152""
","
","10951.669999980368","<img style='border: 4px solid darkgrey;' src='img/tf1_48_M_ss2.jpeg'></img>","3","","exp","","0","<img src='img/tf1_48_T1_ss2_md.jpeg'></img>","0","true",""
"","html-keyboard-response","109","491610","0.0-10.0-0.48","245","""event"",""trial"",""time""
""fullscreenenter"",""0"",""2152""
","
","
","""event"",""trial"",""time""
""fullscreenenter"",""0"",""2152""
","
","null","<div style=""font-size:60px;"">+</div>","","null","fixation","2021-04-02 17:18:40.228","","","","",""
"","mars-trial","110","496399","0.0-10.0-1.48","245","""event"",""trial"",""time""
""fullscreenenter"",""0"",""2152""
","
","
","""event"",""trial"",""time""
""fullscreenenter"",""0"",""2152""
","
","4179.8950000084005","<img style='border: 4px solid darkgrey;' src='img/tf1_49_M_ss3.jpeg'></img>","0","","exp","","0","<img src='img/tf1_49_T1_ss3_md.jpeg'></img>","0","true",""
"","html-keyboard-response","111","496904","0.0-10.0-0.49","245","""event"",""trial"",""time""
""fullscreenenter"",""0"",""2152""
","
","
","""event"",""trial"",""time""
""fullscreenenter"",""0"",""2152""
","
","null","<div style=""font-size:60px;"">+</div>","","null","fixation","2021-04-02 17:18:45.522","","","","",""
"","mars-trial","112","506044","0.0-10.0-1.49","245","""event"",""trial"",""time""
""fullscreenenter"",""0"",""2152""
","
","
","""event"",""trial"",""time""
""fullscreenenter"",""0"",""2152""
","
","8518.270000000484","<img style='border: 4px solid darkgrey;' src='img/tf1_50_M_ss1.jpeg'></img>","3","","exp","","0","<img src='img/tf1_50_T1_ss1_md.jpeg'></img>","0","true",""
"","html-keyboard-response","113","506551","0.0-10.0-0.50","245","""event"",""trial"",""time""
""fullscreenenter"",""0"",""2152""
","
","
","""event"",""trial"",""time""
""fullscreenenter"",""0"",""2152""
","
","null","<div style=""font-size:60px;"">+</div>","","null","fixation","2021-04-02 17:18:55.169","","","","",""
"","mars-trial","114","512185","0.0-10.0-1.50","245","""event"",""trial"",""time""
""fullscreenenter"",""0"",""2152""
","
","
","""event"",""trial"",""time""
""fullscreenenter"",""0"",""2152""
","
","5026.134999992792","<img style='border: 4px solid darkgrey;' src='img/tf1_51_M_ss2.jpeg'></img>","2","","exp","","0","<img src='img/tf1_51_T1_ss2_md.jpeg'></img>","0","true",""
"","html-keyboard-response","115","512688","0.0-10.0-0.51","245","""event"",""trial"",""time""
""fullscreenenter"",""0"",""2152""
","
","
","""event"",""trial"",""time""
""fullscreenenter"",""0"",""2152""
","
","null","<div style=""font-size:60px;"">+</div>","","null","fixation","2021-04-02 17:19:01.306","","","","",""
"","mars-trial","116","519117","0.0-10.0-1.51","245","""event"",""trial"",""time""
""fullscreenenter"",""0"",""2152""
","
","
","""event"",""trial"",""time""
""fullscreenenter"",""0"",""2152""
","
","5817.515000002459","<img style='border: 4px solid darkgrey;' src='img/tf1_52_M_ss3.jpeg'></img>","1","","exp","","1","<img src='img/tf1_52_T1_ss3_md.jpeg'></img>","0","false",""
"","html-keyboard-response","117","519622","0.0-10.0-0.52","245","""event"",""trial"",""time""
""fullscreenenter"",""0"",""2152""
","
","
","""event"",""trial"",""time""
""fullscreenenter"",""0"",""2152""
","
","null","<div style=""font-size:60px;"">+</div>","","null","fixation","2021-04-02 17:19:08.240","","","","",""
"","mars-trial","118","531004","0.0-10.0-1.52","245","""event"",""trial"",""time""
""fullscreenenter"",""0"",""2152""
","
","
","""event"",""trial"",""time""
""fullscreenenter"",""0"",""2152""
","
","10773.09500001138","<img style='border: 4px solid darkgrey;' src='img/tf1_53_M_ss1.jpeg'></img>","2","","exp","","2","<img src='img/tf1_53_T1_ss1_md.jpeg'></img>","0","false",""
"","html-keyboard-response","119","531507","0.0-10.0-0.53","245","""event"",""trial"",""time""
""fullscreenenter"",""0"",""2152""
","
","
","""event"",""trial"",""time""
""fullscreenenter"",""0"",""2152""
","
","null","<div style=""font-size:60px;"">+</div>","","null","fixation","2021-04-02 17:19:20.126","","","","",""
"","mars-trial","120","533207","0.0-10.0-1.53","245","""event"",""trial"",""time""
""fullscreenenter"",""0"",""2152""
","
","
","""event"",""trial"",""time""
""fullscreenenter"",""0"",""2152""
","
","","","","","exp","","","<img src='img/tf1_54_T1_ss2_md.jpeg'></img>","0","false",""
"","html-keyboard-response","121","533708","0.0-10.0-0.54","245","""event"",""trial"",""time""
""fullscreenenter"",""0"",""2152""
","
","
","""event"",""trial"",""time""
""fullscreenenter"",""0"",""2152""
","
","null","<div style=""font-size:60px;"">+</div>","","null","fixation","2021-04-02 17:19:22.327","","","","",""
"","audio-button-response","122","536074","0.0-11.0","245","""event"",""trial"",""time""
""fullscreenenter"",""0"",""2152""
","
","
","""event"",""trial"",""time""
""fullscreenenter"",""0"",""2152""
","
","2261.1700000124983","audio/mars_instructions_slide5.wav","0","","","","","","","",""
