"success","trial_type","trial_index","time_elapsed","internal_node_id","subject_id","interactions","blur_events","focus_events","fullscreenenter_events","fullscreenexit_events","rt","stimulus","button_pressed","key_press","part","timestamp","unshuffled_button","correct_response","correct_button","correct","value"
"true","fullscreen","0","3628","0.0-0.0","236","""event"",""trial"",""time""
""fullscreenenter"",""0"",""2640""
","
","
","""event"",""trial"",""time""
""fullscreenenter"",""0"",""2640""
","
","","","","","","","","","","",""
"","pavlovia","1","3632","0.0-1.0","236","""event"",""trial"",""time""
""fullscreenenter"",""0"",""2640""
","
","
","""event"",""trial"",""time""
""fullscreenenter"",""0"",""2640""
","
","","","","","","","","","","",""
"","html-button-response","2","5241","0.0-2.0","236","""event"",""trial"",""time""
""fullscreenenter"",""0"",""2640""
","
","
","""event"",""trial"",""time""
""fullscreenenter"",""0"",""2640""
","
","1607.944999996107","<p>Welcome! Press START to begin.</p><br>","0","","","","","","","",""
"","audio-button-response","3","20233","0.0-3.0","236","""event"",""trial"",""time""
""fullscreenenter"",""0"",""2640""
","
","
","""event"",""trial"",""time""
""fullscreenenter"",""0"",""2640""
","
","14990.460000000894","audio/mars_instructions_slide2.wav","0","","","","","","","",""
"","audio-button-response","4","37790","0.0-4.0","236","""event"",""trial"",""time""
""fullscreenenter"",""0"",""2640""
","
","
","""event"",""trial"",""time""
""fullscreenenter"",""0"",""2640""
","
","17555.15500000911","audio/mars_instructions_slide3.wav","0","","","","","","","",""
"","html-keyboard-response","5","38297","0.0-5.0-0.0","236","""event"",""trial"",""time""
""fullscreenenter"",""0"",""2640""
","
","
","""event"",""trial"",""time""
""fullscreenenter"",""0"",""2640""
","
","null","<div style=""font-size:60px;"">+</div>","","null","fixation","2021-04-17 16:27:04.979","","","","",""
"","mars-trial","6","45159","0.0-5.0-1.0","236","""event"",""trial"",""time""
""fullscreenenter"",""0"",""2640""
","
","
","""event"",""trial"",""time""
""fullscreenenter"",""0"",""2640""
","
","4719.165000002249","<img style='border: 4px solid darkgrey;' src='practice/pt1_M1.png'></img>","1","","practice","","3","<img src='practice/pt1_T1.png'></img>","0","false",""
"","html-keyboard-response","7","45679","0.0-5.1-0.1","236","""event"",""trial"",""time""
""fullscreenenter"",""0"",""2640""
","
","
","""event"",""trial"",""time""
""fullscreenenter"",""0"",""2640""
","
","null","<div style=""font-size:60px;"">+</div>","","null","fixation","2021-04-17 16:27:12.361","","","","",""
"","mars-trial","8","56732","0.0-5.1-1.1","236","""event"",""trial"",""time""
""fullscreenenter"",""0"",""2640""
","
","
","""event"",""trial"",""time""
""fullscreenenter"",""0"",""2640""
","
","8923.079999993206","<img style='border: 4px solid darkgrey;' src='practice/pt1_M1.png'></img>","3","","practice","","0","<img src='practice/pt1_T1.png'></img>","0","true",""
"","html-keyboard-response","9","57234","0.0-6.0-0.0","236","""event"",""trial"",""time""
""fullscreenenter"",""0"",""2640""
","
","
","""event"",""trial"",""time""
""fullscreenenter"",""0"",""2640""
","
","null","<div style=""font-size:60px;"">+</div>","","null","fixation","2021-04-17 16:27:23.916","","","","",""
"","mars-trial","10","62285","0.0-6.0-1.0","236","""event"",""trial"",""time""
""fullscreenenter"",""0"",""2640""
","
","
","""event"",""trial"",""time""
""fullscreenenter"",""0"",""2640""
","
","2935.559999998077","<img style='border: 4px solid darkgrey;' src='practice/pt2_M1.png'></img>","1","","practice","","0","<img src='practice/pt2_T1.png'></img>","0","true",""
"","html-keyboard-response","11","62802","0.0-7.0-0.0","236","""event"",""trial"",""time""
""fullscreenenter"",""0"",""2640""
","
","
","""event"",""trial"",""time""
""fullscreenenter"",""0"",""2640""
","
","null","<div style=""font-size:60px;"">+</div>","","null","fixation","2021-04-17 16:27:29.484","","","","",""
"","mars-trial","12","66246","0.0-7.0-1.0","236","""event"",""trial"",""time""
""fullscreenenter"",""0"",""2640""
","
","
","""event"",""trial"",""time""
""fullscreenenter"",""0"",""2640""
","
","1337.35999999044","<img style='border: 4px solid darkgrey;' src='practice/pt3_M1.png'></img>","2","","practice","","0","<img src='practice/pt3_T1.png'></img>","0","true",""
"","audio-button-response","13","70808","0.0-8.0","236","""event"",""trial"",""time""
""fullscreenenter"",""0"",""2640""
","
","
","""event"",""trial"",""time""
""fullscreenenter"",""0"",""2640""
","
","4561.370000010356","audio/mars_instructions_slide4.wav","0","","","","","","","",""
"","call-function","14","70810","0.0-9.0","236","""event"",""trial"",""time""
""fullscreenenter"",""0"",""2640""
","
","
","""event"",""trial"",""time""
""fullscreenenter"",""0"",""2640""
","
","","","","","","","","","","",""
"","html-keyboard-response","15","71326","0.0-10.0-0.0","236","""event"",""trial"",""time""
""fullscreenenter"",""0"",""2640""
","
","
","""event"",""trial"",""time""
""fullscreenenter"",""0"",""2640""
","
","null","<div style=""font-size:60px;"">+</div>","","null","fixation","2021-04-17 16:27:38.008","","","","",""
"","mars-trial","16","73361","0.0-10.0-1.0","236","""event"",""trial"",""time""
""fullscreenenter"",""0"",""2640""
","
","
","""event"",""trial"",""time""
""fullscreenenter"",""0"",""2640""
","
","1419.3099999974947","<img style='border: 4px solid darkgrey;' src='img/tf1_1_M_ss3.jpeg'></img>","1","","exp","","0","<img src='img/tf1_1_T1_ss3_md.jpeg'></img>","0","true",""
"","html-keyboard-response","17","73867","0.0-10.0-0.1","236","""event"",""trial"",""time""
""fullscreenenter"",""0"",""2640""
","
","
","""event"",""trial"",""time""
""fullscreenenter"",""0"",""2640""
","
","null","<div style=""font-size:60px;"">+</div>","","null","fixation","2021-04-17 16:27:40.550","","","","",""
"","mars-trial","18","76734","0.0-10.0-1.1","236","""event"",""trial"",""time""
""fullscreenenter"",""0"",""2640""
","
","
","""event"",""trial"",""time""
""fullscreenenter"",""0"",""2640""
","
","2256.050000010873","<img style='border: 4px solid darkgrey;' src='img/tf1_2_M_ss1.jpeg'></img>","2","","exp","","0","<img src='img/tf1_2_T1_ss1_md.jpeg'></img>","0","true",""
"","html-keyboard-response","19","77243","0.0-10.0-0.2","236","""event"",""trial"",""time""
""fullscreenenter"",""0"",""2640""
","
","
","""event"",""trial"",""time""
""fullscreenenter"",""0"",""2640""
","
","null","<div style=""font-size:60px;"">+</div>","","null","fixation","2021-04-17 16:27:43.925","","","","",""
"","mars-trial","20","80622","0.0-10.0-1.2","236","""event"",""trial"",""time""
""fullscreenenter"",""0"",""2640""
","
","
","""event"",""trial"",""time""
""fullscreenenter"",""0"",""2640""
","
","2768.339999995078","<img style='border: 4px solid darkgrey;' src='img/tf1_3_M_ss2.jpeg'></img>","2","","exp","","0","<img src='img/tf1_3_T1_ss2_md.jpeg'></img>","0","true",""
"","html-keyboard-response","21","81136","0.0-10.0-0.3","236","""event"",""trial"",""time""
""fullscreenenter"",""0"",""2640""
","
","
","""event"",""trial"",""time""
""fullscreenenter"",""0"",""2640""
","
","null","<div style=""font-size:60px;"">+</div>","","null","fixation","2021-04-17 16:27:47.818","","","","",""
"","mars-trial","22","85359","0.0-10.0-1.3","236","""event"",""trial"",""time""
""fullscreenenter"",""0"",""2640""
","
","
","""event"",""trial"",""time""
""fullscreenenter"",""0"",""2640""
","
","3607.930000012857","<img style='border: 4px solid darkgrey;' src='img/tf1_4_M_ss3.jpeg'></img>","3","","exp","","1","<img src='img/tf1_4_T1_ss3_md.jpeg'></img>","0","false",""
"","html-keyboard-response","23","85860","0.0-10.0-0.4","236","""event"",""trial"",""time""
""fullscreenenter"",""0"",""2640""
","
","
","""event"",""trial"",""time""
""fullscreenenter"",""0"",""2640""
","
","null","<div style=""font-size:60px;"">+</div>","","null","fixation","2021-04-17 16:27:52.542","","","","",""
"","mars-trial","24","89154","0.0-10.0-1.4","236","""event"",""trial"",""time""
""fullscreenenter"",""0"",""2640""
","
","
","""event"",""trial"",""time""
""fullscreenenter"",""0"",""2640""
","
","2675.745000000461","<img style='border: 4px solid darkgrey;' src='img/tf1_5_M_ss1.jpeg'></img>","2","","exp","","0","<img src='img/tf1_5_T1_ss1_md.jpeg'></img>","0","true",""
"","html-keyboard-response","25","89663","0.0-10.0-0.5","236","""event"",""trial"",""time""
""fullscreenenter"",""0"",""2640""
","
","
","""event"",""trial"",""time""
""fullscreenenter"",""0"",""2640""
","
","null","<div style=""font-size:60px;"">+</div>","","null","fixation","2021-04-17 16:27:56.345","","","","",""
"","mars-trial","26","98176","0.0-10.0-1.5","236","""event"",""trial"",""time""
""fullscreenenter"",""0"",""2640""
","
","
","""event"",""trial"",""time""
""fullscreenenter"",""0"",""2640""
","
","7896.760000003269","<img style='border: 4px solid darkgrey;' src='img/tf1_6_M_ss2.jpeg'></img>","2","","exp","","1","<img src='img/tf1_6_T1_ss2_md.jpeg'></img>","0","false",""
"","html-keyboard-response","27","98683","0.0-10.0-0.6","236","""event"",""trial"",""time""
""fullscreenenter"",""0"",""2640""
","
","
","""event"",""trial"",""time""
""fullscreenenter"",""0"",""2640""
","
","null","<div style=""font-size:60px;"">+</div>","","null","fixation","2021-04-17 16:28:05.365","","","","",""
"","mars-trial","28","102580","0.0-10.0-1.6","236","""event"",""trial"",""time""
""fullscreenenter"",""0"",""2640""
","
","
","""event"",""trial"",""time""
""fullscreenenter"",""0"",""2640""
","
","3292.6100000040606","<img style='border: 4px solid darkgrey;' src='img/tf1_7_M_ss3.jpeg'></img>","3","","exp","","0","<img src='img/tf1_7_T1_ss3_md.jpeg'></img>","0","true",""
"","html-keyboard-response","29","103094","0.0-10.0-0.7","236","""event"",""trial"",""time""
""fullscreenenter"",""0"",""2640""
","
","
","""event"",""trial"",""time""
""fullscreenenter"",""0"",""2640""
","
","null","<div style=""font-size:60px;"">+</div>","","null","fixation","2021-04-17 16:28:09.777","","","","",""
"","mars-trial","30","108314","0.0-10.0-1.7","236","""event"",""trial"",""time""
""fullscreenenter"",""0"",""2640""
","
","
","""event"",""trial"",""time""
""fullscreenenter"",""0"",""2640""
","
","4615.944999997737","<img style='border: 4px solid darkgrey;' src='img/tf1_8_M_ss1.jpeg'></img>","1","","exp","","1","<img src='img/tf1_8_T1_ss1_md.jpeg'></img>","0","false",""
"","html-keyboard-response","31","108816","0.0-10.0-0.8","236","""event"",""trial"",""time""
""fullscreenenter"",""0"",""2640""
","
","
","""event"",""trial"",""time""
""fullscreenenter"",""0"",""2640""
","
","null","<div style=""font-size:60px;"">+</div>","","null","fixation","2021-04-17 16:28:15.498","","","","",""
"","mars-trial","32","111719","0.0-10.0-1.8","236","""event"",""trial"",""time""
""fullscreenenter"",""0"",""2640""
","
","
","""event"",""trial"",""time""
""fullscreenenter"",""0"",""2640""
","
","2299.5950000040466","<img style='border: 4px solid darkgrey;' src='img/tf1_9_M_ss2.jpeg'></img>","3","","exp","","0","<img src='img/tf1_9_T1_ss2_md.jpeg'></img>","0","true",""
"","html-keyboard-response","33","112221","0.0-10.0-0.9","236","""event"",""trial"",""time""
""fullscreenenter"",""0"",""2640""
","
","
","""event"",""trial"",""time""
""fullscreenenter"",""0"",""2640""
","
","null","<div style=""font-size:60px;"">+</div>","","null","fixation","2021-04-17 16:28:18.903","","","","",""
"","mars-trial","34","116070","0.0-10.0-1.9","236","""event"",""trial"",""time""
""fullscreenenter"",""0"",""2640""
","
","
","""event"",""trial"",""time""
""fullscreenenter"",""0"",""2640""
","
","3244.619999997667","<img style='border: 4px solid darkgrey;' src='img/tf1_10_M_ss3.jpeg'></img>","0","","exp","","1","<img src='img/tf1_10_T1_ss3_md.jpeg'></img>","0","false",""
"","html-keyboard-response","35","116572","0.0-10.0-0.10","236","""event"",""trial"",""time""
""fullscreenenter"",""0"",""2640""
","
","
","""event"",""trial"",""time""
""fullscreenenter"",""0"",""2640""
","
","null","<div style=""font-size:60px;"">+</div>","","null","fixation","2021-04-17 16:28:23.254","","","","",""
"","mars-trial","36","118615","0.0-10.0-1.10","236","""event"",""trial"",""time""
""fullscreenenter"",""0"",""2640""
","
","
","""event"",""trial"",""time""
""fullscreenenter"",""0"",""2640""
","
","1438.5400000028312","<img style='border: 4px solid darkgrey;' src='img/tf1_11_M_ss1.jpeg'></img>","1","","exp","","3","<img src='img/tf1_11_T1_ss1_md.jpeg'></img>","0","false",""
"","html-keyboard-response","37","119117","0.0-10.0-0.11","236","""event"",""trial"",""time""
""fullscreenenter"",""0"",""2640""
","
","
","""event"",""trial"",""time""
""fullscreenenter"",""0"",""2640""
","
","null","<div style=""font-size:60px;"">+</div>","","null","fixation","2021-04-17 16:28:25.799","","","","",""
"","mars-trial","38","121489","0.0-10.0-1.11","236","""event"",""trial"",""time""
""fullscreenenter"",""0"",""2640""
","
","
","""event"",""trial"",""time""
""fullscreenenter"",""0"",""2640""
","
","1767.7700000058394","<img style='border: 4px solid darkgrey;' src='img/tf1_12_M_ss2.jpeg'></img>","1","","exp","","1","<img src='img/tf1_12_T1_ss2_md.jpeg'></img>","0","false",""
"","html-keyboard-response","39","121991","0.0-10.0-0.12","236","""event"",""trial"",""time""
""fullscreenenter"",""0"",""2640""
","
","
","""event"",""trial"",""time""
""fullscreenenter"",""0"",""2640""
","
","null","<div style=""font-size:60px;"">+</div>","","null","fixation","2021-04-17 16:28:28.673","","","","",""
"","mars-trial","40","126002","0.0-10.0-1.12","236","""event"",""trial"",""time""
""fullscreenenter"",""0"",""2640""
","
","
","""event"",""trial"",""time""
""fullscreenenter"",""0"",""2640""
","
","3407.615000003716","<img style='border: 4px solid darkgrey;' src='img/tf1_13_M_ss3.jpeg'></img>","0","","exp","","1","<img src='img/tf1_13_T1_ss3_md.jpeg'></img>","0","false",""
"","html-keyboard-response","41","126504","0.0-10.0-0.13","236","""event"",""trial"",""time""
""fullscreenenter"",""0"",""2640""
","
","
","""event"",""trial"",""time""
""fullscreenenter"",""0"",""2640""
","
","null","<div style=""font-size:60px;"">+</div>","","null","fixation","2021-04-17 16:28:33.186","","","","",""
"","mars-trial","42","129387","0.0-10.0-1.13","236","""event"",""trial"",""time""
""fullscreenenter"",""0"",""2640""
","
","
","""event"",""trial"",""time""
""fullscreenenter"",""0"",""2640""
","
","2279.3949999904726","<img style='border: 4px solid darkgrey;' src='img/tf1_14_M_ss1.jpeg'></img>","2","","exp","","3","<img src='img/tf1_14_T1_ss1_md.jpeg'></img>","0","false",""
"","html-keyboard-response","43","129889","0.0-10.0-0.14","236","""event"",""trial"",""time""
""fullscreenenter"",""0"",""2640""
","
","
","""event"",""trial"",""time""
""fullscreenenter"",""0"",""2640""
","
","null","<div style=""font-size:60px;"">+</div>","","null","fixation","2021-04-17 16:28:36.571","","","","",""
"","mars-trial","44","131900","0.0-10.0-1.14","236","""event"",""trial"",""time""
""fullscreenenter"",""0"",""2640""
","
","
","""event"",""trial"",""time""
""fullscreenenter"",""0"",""2640""
","
","1395.009999992908","<img style='border: 4px solid darkgrey;' src='img/tf1_15_M_ss2.jpeg'></img>","2","","exp","","0","<img src='img/tf1_15_T1_ss2_md.jpeg'></img>","0","true",""
"","html-keyboard-response","45","132402","0.0-10.0-0.15","236","""event"",""trial"",""time""
""fullscreenenter"",""0"",""2640""
","
","
","""event"",""trial"",""time""
""fullscreenenter"",""0"",""2640""
","
","null","<div style=""font-size:60px;"">+</div>","","null","fixation","2021-04-17 16:28:39.084","","","","",""
"","mars-trial","46","134880","0.0-10.0-1.15","236","""event"",""trial"",""time""
""fullscreenenter"",""0"",""2640""
","
","
","""event"",""trial"",""time""
""fullscreenenter"",""0"",""2640""
","
","1873.9050000003772","<img style='border: 4px solid darkgrey;' src='img/tf1_16_M_ss3.jpeg'></img>","0","","exp","","3","<img src='img/tf1_16_T1_ss3_md.jpeg'></img>","0","false",""
"","html-keyboard-response","47","135383","0.0-10.0-0.16","236","""event"",""trial"",""time""
""fullscreenenter"",""0"",""2640""
","
","
","""event"",""trial"",""time""
""fullscreenenter"",""0"",""2640""
","
","null","<div style=""font-size:60px;"">+</div>","","null","fixation","2021-04-17 16:28:42.065","","","","",""
"","mars-trial","48","137481","0.0-10.0-1.16","236","""event"",""trial"",""time""
""fullscreenenter"",""0"",""2640""
","
","
","""event"",""trial"",""time""
""fullscreenenter"",""0"",""2640""
","
","1493.5800000093877","<img style='border: 4px solid darkgrey;' src='img/tf1_17_M_ss1.jpeg'></img>","1","","exp","","2","<img src='img/tf1_17_T1_ss1_md.jpeg'></img>","0","false",""
"","html-keyboard-response","49","137982","0.0-10.0-0.17","236","""event"",""trial"",""time""
""fullscreenenter"",""0"",""2640""
","
","
","""event"",""trial"",""time""
""fullscreenenter"",""0"",""2640""
","
","null","<div style=""font-size:60px;"">+</div>","","null","fixation","2021-04-17 16:28:44.664","","","","",""
"","mars-trial","50","140188","0.0-10.0-1.17","236","""event"",""trial"",""time""
""fullscreenenter"",""0"",""2640""
","
","
","""event"",""trial"",""time""
""fullscreenenter"",""0"",""2640""
","
","1589.0400000062073","<img style='border: 4px solid darkgrey;' src='img/tf1_18_M_ss2.jpeg'></img>","2","","exp","","2","<img src='img/tf1_18_T1_ss2_md.jpeg'></img>","0","false",""
"","html-keyboard-response","51","140689","0.0-10.0-0.18","236","""event"",""trial"",""time""
""fullscreenenter"",""0"",""2640""
","
","
","""event"",""trial"",""time""
""fullscreenenter"",""0"",""2640""
","
","null","<div style=""font-size:60px;"">+</div>","","null","fixation","2021-04-17 16:28:47.371","","","","",""
"","mars-trial","52","142948","0.0-10.0-1.18","236","""event"",""trial"",""time""
""fullscreenenter"",""0"",""2640""
","
","
","""event"",""trial"",""time""
""fullscreenenter"",""0"",""2640""
","
","1654.049999997369","<img style='border: 4px solid darkgrey;' src='img/tf1_19_M_ss3.jpeg'></img>","2","","exp","","2","<img src='img/tf1_19_T1_ss3_md.jpeg'></img>","0","false",""
"","html-keyboard-response","53","143450","0.0-10.0-0.19","236","""event"",""trial"",""time""
""fullscreenenter"",""0"",""2640""
","
","
","""event"",""trial"",""time""
""fullscreenenter"",""0"",""2640""
","
","null","<div style=""font-size:60px;"">+</div>","","null","fixation","2021-04-17 16:28:50.132","","","","",""
"","mars-trial","54","145314","0.0-10.0-1.19","236","""event"",""trial"",""time""
""fullscreenenter"",""0"",""2640""
","
","
","""event"",""trial"",""time""
""fullscreenenter"",""0"",""2640""
","
","1259.5149999979185","<img style='border: 4px solid darkgrey;' src='img/tf1_20_M_ss1.jpeg'></img>","2","","exp","","1","<img src='img/tf1_20_T1_ss1_md.jpeg'></img>","0","false",""
"","html-keyboard-response","55","145815","0.0-10.0-0.20","236","""event"",""trial"",""time""
""fullscreenenter"",""0"",""2640""
","
","
","""event"",""trial"",""time""
""fullscreenenter"",""0"",""2640""
","
","null","<div style=""font-size:60px;"">+</div>","","null","fixation","2021-04-17 16:28:52.498","","","","",""
"","mars-trial","56","147388","0.0-10.0-1.20","236","""event"",""trial"",""time""
""fullscreenenter"",""0"",""2640""
","
","
","""event"",""trial"",""time""
""fullscreenenter"",""0"",""2640""
","
","967.4399999930756","<img style='border: 4px solid darkgrey;' src='img/tf1_21_M_ss2.jpeg'></img>","1","","exp","","0","<img src='img/tf1_21_T1_ss2_md.jpeg'></img>","0","true",""
"","html-keyboard-response","57","147889","0.0-10.0-0.21","236","""event"",""trial"",""time""
""fullscreenenter"",""0"",""2640""
","
","
","""event"",""trial"",""time""
""fullscreenenter"",""0"",""2640""
","
","null","<div style=""font-size:60px;"">+</div>","","null","fixation","2021-04-17 16:28:54.571","","","","",""
"","mars-trial","58","149741","0.0-10.0-1.21","236","""event"",""trial"",""time""
""fullscreenenter"",""0"",""2640""
","
","
","""event"",""trial"",""time""
""fullscreenenter"",""0"",""2640""
","
","1247.1949999890057","<img style='border: 4px solid darkgrey;' src='img/tf1_22_M_ss3.jpeg'></img>","1","","exp","","1","<img src='img/tf1_22_T1_ss3_md.jpeg'></img>","0","false",""
"","html-keyboard-response","59","150243","0.0-10.0-0.22","236","""event"",""trial"",""time""
""fullscreenenter"",""0"",""2640""
","
","
","""event"",""trial"",""time""
""fullscreenenter"",""0"",""2640""
","
","null","<div style=""font-size:60px;"">+</div>","","null","fixation","2021-04-17 16:28:56.925","","","","",""
"","mars-trial","60","152524","0.0-10.0-1.22","236","""event"",""trial"",""time""
""fullscreenenter"",""0"",""2640""
","
","
","""event"",""trial"",""time""
""fullscreenenter"",""0"",""2640""
","
","1676.659999997355","<img style='border: 4px solid darkgrey;' src='img/tf1_23_M_ss1.jpeg'></img>","3","","exp","","0","<img src='img/tf1_23_T1_ss1_md.jpeg'></img>","0","true",""
"","html-keyboard-response","61","153025","0.0-10.0-0.23","236","""event"",""trial"",""time""
""fullscreenenter"",""0"",""2640""
","
","
","""event"",""trial"",""time""
""fullscreenenter"",""0"",""2640""
","
","null","<div style=""font-size:60px;"">+</div>","","null","fixation","2021-04-17 16:28:59.707","","","","",""
"","mars-trial","62","155441","0.0-10.0-1.23","236","""event"",""trial"",""time""
""fullscreenenter"",""0"",""2640""
","
","
","""event"",""trial"",""time""
""fullscreenenter"",""0"",""2640""
","
","1812.1499999979278","<img style='border: 4px solid darkgrey;' src='img/tf1_24_M_ss2.jpeg'></img>","3","","exp","","3","<img src='img/tf1_24_T1_ss2_md.jpeg'></img>","0","false",""
"","html-keyboard-response","63","155944","0.0-10.0-0.24","236","""event"",""trial"",""time""
""fullscreenenter"",""0"",""2640""
","
","
","""event"",""trial"",""time""
""fullscreenenter"",""0"",""2640""
","
","null","<div style=""font-size:60px;"">+</div>","","null","fixation","2021-04-17 16:29:02.626","","","","",""
"","mars-trial","64","159775","0.0-10.0-1.24","236","""event"",""trial"",""time""
""fullscreenenter"",""0"",""2640""
","
","
","""event"",""trial"",""time""
""fullscreenenter"",""0"",""2640""
","
","3226.9149999920046","<img style='border: 4px solid darkgrey;' src='img/tf1_25_M_ss3.jpeg'></img>","2","","exp","","1","<img src='img/tf1_25_T1_ss3_md.jpeg'></img>","0","false",""
"","html-keyboard-response","65","160277","0.0-10.0-0.25","236","""event"",""trial"",""time""
""fullscreenenter"",""0"",""2640""
","
","
","""event"",""trial"",""time""
""fullscreenenter"",""0"",""2640""
","
","null","<div style=""font-size:60px;"">+</div>","","null","fixation","2021-04-17 16:29:06.959","","","","",""
"","mars-trial","66","162301","0.0-10.0-1.25","236","""event"",""trial"",""time""
""fullscreenenter"",""0"",""2640""
","
","
","""event"",""trial"",""time""
""fullscreenenter"",""0"",""2640""
","
","1419.9850000004517","<img style='border: 4px solid darkgrey;' src='img/tf1_26_M_ss1.jpeg'></img>","1","","exp","","1","<img src='img/tf1_26_T1_ss1_md.jpeg'></img>","0","false",""
"","html-keyboard-response","67","162803","0.0-10.0-0.26","236","""event"",""trial"",""time""
""fullscreenenter"",""0"",""2640""
","
","
","""event"",""trial"",""time""
""fullscreenenter"",""0"",""2640""
","
","null","<div style=""font-size:60px;"">+</div>","","null","fixation","2021-04-17 16:29:09.485","","","","",""
"","mars-trial","68","164487","0.0-10.0-1.26","236","""event"",""trial"",""time""
""fullscreenenter"",""0"",""2640""
","
","
","""event"",""trial"",""time""
""fullscreenenter"",""0"",""2640""
","
","1066.464999996242","<img style='border: 4px solid darkgrey;' src='img/tf1_27_M_ss2.jpeg'></img>","1","","exp","","1","<img src='img/tf1_27_T1_ss2_md.jpeg'></img>","0","false",""
"","html-keyboard-response","69","164988","0.0-10.0-0.27","236","""event"",""trial"",""time""
""fullscreenenter"",""0"",""2640""
","
","
","""event"",""trial"",""time""
""fullscreenenter"",""0"",""2640""
","
","null","<div style=""font-size:60px;"">+</div>","","null","fixation","2021-04-17 16:29:11.670","","","","",""
"","mars-trial","70","166707","0.0-10.0-1.27","236","""event"",""trial"",""time""
""fullscreenenter"",""0"",""2640""
","
","
","""event"",""trial"",""time""
""fullscreenenter"",""0"",""2640""
","
","1108.0199999996694","<img style='border: 4px solid darkgrey;' src='img/tf1_28_M_ss3.jpeg'></img>","1","","exp","","2","<img src='img/tf1_28_T1_ss3_md.jpeg'></img>","0","false",""
"","html-keyboard-response","71","167208","0.0-10.0-0.28","236","""event"",""trial"",""time""
""fullscreenenter"",""0"",""2640""
","
","
","""event"",""trial"",""time""
""fullscreenenter"",""0"",""2640""
","
","null","<div style=""font-size:60px;"">+</div>","","null","fixation","2021-04-17 16:29:13.890","","","","",""
"","mars-trial","72","168920","0.0-10.0-1.28","236","""event"",""trial"",""time""
""fullscreenenter"",""0"",""2640""
","
","
","""event"",""trial"",""time""
""fullscreenenter"",""0"",""2640""
","
","1106.5099999977974","<img style='border: 4px solid darkgrey;' src='img/tf1_29_M_ss1.jpeg'></img>","1","","exp","","1","<img src='img/tf1_29_T1_ss1_md.jpeg'></img>","0","false",""
"","html-keyboard-response","73","169421","0.0-10.0-0.29","236","""event"",""trial"",""time""
""fullscreenenter"",""0"",""2640""
","
","
","""event"",""trial"",""time""
""fullscreenenter"",""0"",""2640""
","
","null","<div style=""font-size:60px;"">+</div>","","null","fixation","2021-04-17 16:29:16.104","","","","",""
"","mars-trial","74","170801","0.0-10.0-1.29","236","""event"",""trial"",""time""
""fullscreenenter"",""0"",""2640""
","
","
","""event"",""trial"",""time""
""fullscreenenter"",""0"",""2640""
","
","774.4950000051176","<img style='border: 4px solid darkgrey;' src='img/tf1_30_M_ss2.jpeg'></img>","1","","exp","","2","<img src='img/tf1_30_T1_ss2_md.jpeg'></img>","0","false",""
"","html-keyboard-response","75","171302","0.0-10.0-0.30","236","""event"",""trial"",""time""
""fullscreenenter"",""0"",""2640""
","
","
","""event"",""trial"",""time""
""fullscreenenter"",""0"",""2640""
","
","null","<div style=""font-size:60px;"">+</div>","","null","fixation","2021-04-17 16:29:17.985","","","","",""
"","mars-trial","76","173405","0.0-10.0-1.30","236","""event"",""trial"",""time""
""fullscreenenter"",""0"",""2640""
","
","
","""event"",""trial"",""time""
""fullscreenenter"",""0"",""2640""
","
","1498.0200000136392","<img style='border: 4px solid darkgrey;' src='img/tf1_31_M_ss3.jpeg'></img>","2","","exp","","2","<img src='img/tf1_31_T1_ss3_md.jpeg'></img>","0","false",""
"","html-keyboard-response","77","173915","0.0-10.0-0.31","236","""event"",""trial"",""time""
""fullscreenenter"",""0"",""2640""
","
","
","""event"",""trial"",""time""
""fullscreenenter"",""0"",""2640""
","
","null","<div style=""font-size:60px;"">+</div>","","null","fixation","2021-04-17 16:29:20.597","","","","",""
"","mars-trial","78","175572","0.0-10.0-1.31","236","""event"",""trial"",""time""
""fullscreenenter"",""0"",""2640""
","
","
","""event"",""trial"",""time""
""fullscreenenter"",""0"",""2640""
","
","1053.0149999976857","<img style='border: 4px solid darkgrey;' src='img/tf1_32_M_ss1.jpeg'></img>","2","","exp","","1","<img src='img/tf1_32_T1_ss1_md.jpeg'></img>","0","false",""
"","html-keyboard-response","79","176074","0.0-10.0-0.32","236","""event"",""trial"",""time""
""fullscreenenter"",""0"",""2640""
","
","
","""event"",""trial"",""time""
""fullscreenenter"",""0"",""2640""
","
","null","<div style=""font-size:60px;"">+</div>","","null","fixation","2021-04-17 16:29:22.756","","","","",""
"","mars-trial","80","177867","0.0-10.0-1.32","236","""event"",""trial"",""time""
""fullscreenenter"",""0"",""2640""
","
","
","""event"",""trial"",""time""
""fullscreenenter"",""0"",""2640""
","
","1189.2300000035902","<img style='border: 4px solid darkgrey;' src='img/tf1_33_M_ss2.jpeg'></img>","1","","exp","","2","<img src='img/tf1_33_T1_ss2_md.jpeg'></img>","0","false",""
"","html-keyboard-response","81","178369","0.0-10.0-0.33","236","""event"",""trial"",""time""
""fullscreenenter"",""0"",""2640""
","
","
","""event"",""trial"",""time""
""fullscreenenter"",""0"",""2640""
","
","null","<div style=""font-size:60px;"">+</div>","","null","fixation","2021-04-17 16:29:25.051","","","","",""
"","mars-trial","82","179868","0.0-10.0-1.33","236","""event"",""trial"",""time""
""fullscreenenter"",""0"",""2640""
","
","
","""event"",""trial"",""time""
""fullscreenenter"",""0"",""2640""
","
","895.0549999863142","<img style='border: 4px solid darkgrey;' src='img/tf1_34_M_ss3.jpeg'></img>","1","","exp","","2","<img src='img/tf1_34_T1_ss3_md.jpeg'></img>","0","false",""
"","html-keyboard-response","83","180369","0.0-10.0-0.34","236","""event"",""trial"",""time""
""fullscreenenter"",""0"",""2640""
","
","
","""event"",""trial"",""time""
""fullscreenenter"",""0"",""2640""
","
","null","<div style=""font-size:60px;"">+</div>","","null","fixation","2021-04-17 16:29:27.052","","","","",""
"","mars-trial","84","182047","0.0-10.0-1.34","236","""event"",""trial"",""time""
""fullscreenenter"",""0"",""2640""
","
","
","""event"",""trial"",""time""
""fullscreenenter"",""0"",""2640""
","
","1073.9400000020396","<img style='border: 4px solid darkgrey;' src='img/tf1_35_M_ss1.jpeg'></img>","2","","exp","","1","<img src='img/tf1_35_T1_ss1_md.jpeg'></img>","0","false",""
"","html-keyboard-response","85","182549","0.0-10.0-0.35","236","""event"",""trial"",""time""
""fullscreenenter"",""0"",""2640""
","
","
","""event"",""trial"",""time""
""fullscreenenter"",""0"",""2640""
","
","null","<div style=""font-size:60px;"">+</div>","","null","fixation","2021-04-17 16:29:29.231","","","","",""
"","mars-trial","86","183960","0.0-10.0-1.35","236","""event"",""trial"",""time""
""fullscreenenter"",""0"",""2640""
","
","
","""event"",""trial"",""time""
""fullscreenenter"",""0"",""2640""
","
","807.0200000074692","<img style='border: 4px solid darkgrey;' src='img/tf1_36_M_ss2.jpeg'></img>","2","","exp","","3","<img src='img/tf1_36_T1_ss2_md.jpeg'></img>","0","false",""
"","html-keyboard-response","87","184462","0.0-10.0-0.36","236","""event"",""trial"",""time""
""fullscreenenter"",""0"",""2640""
","
","
","""event"",""trial"",""time""
""fullscreenenter"",""0"",""2640""
","
","null","<div style=""font-size:60px;"">+</div>","","null","fixation","2021-04-17 16:29:31.144","","","","",""
"","mars-trial","88","185808","0.0-10.0-1.36","236","""event"",""trial"",""time""
""fullscreenenter"",""0"",""2640""
","
","
","""event"",""trial"",""time""
""fullscreenenter"",""0"",""2640""
","
","742.6149999955669","<img style='border: 4px solid darkgrey;' src='img/tf1_37_M_ss3.jpeg'></img>","2","","exp","","2","<img src='img/tf1_37_T1_ss3_md.jpeg'></img>","0","false",""
"","html-keyboard-response","89","186310","0.0-10.0-0.37","236","""event"",""trial"",""time""
""fullscreenenter"",""0"",""2640""
","
","
","""event"",""trial"",""time""
""fullscreenenter"",""0"",""2640""
","
","null","<div style=""font-size:60px;"">+</div>","","null","fixation","2021-04-17 16:29:32.992","","","","",""
"","mars-trial","90","187761","0.0-10.0-1.37","236","""event"",""trial"",""time""
""fullscreenenter"",""0"",""2640""
","
","
","""event"",""trial"",""time""
""fullscreenenter"",""0"",""2640""
","
","845.0400000001537","<img style='border: 4px solid darkgrey;' src='img/tf1_38_M_ss1.jpeg'></img>","2","","exp","","3","<img src='img/tf1_38_T1_ss1_md.jpeg'></img>","0","false",""
"","html-keyboard-response","91","188262","0.0-10.0-0.38","236","""event"",""trial"",""time""
""fullscreenenter"",""0"",""2640""
","
","
","""event"",""trial"",""time""
""fullscreenenter"",""0"",""2640""
","
","null","<div style=""font-size:60px;"">+</div>","","null","fixation","2021-04-17 16:29:34.944","","","","",""
"","mars-trial","92","189775","0.0-10.0-1.38","236","""event"",""trial"",""time""
""fullscreenenter"",""0"",""2640""
","
","
","""event"",""trial"",""time""
""fullscreenenter"",""0"",""2640""
","
","908.69000001112","<img style='border: 4px solid darkgrey;' src='img/tf1_39_M_ss2.jpeg'></img>","1","","exp","","3","<img src='img/tf1_39_T1_ss2_md.jpeg'></img>","0","false",""
"","html-keyboard-response","93","190276","0.0-10.0-0.39","236","""event"",""trial"",""time""
""fullscreenenter"",""0"",""2640""
","
","
","""event"",""trial"",""time""
""fullscreenenter"",""0"",""2640""
","
","null","<div style=""font-size:60px;"">+</div>","","null","fixation","2021-04-17 16:29:36.958","","","","",""
"","mars-trial","94","191599","0.0-10.0-1.39","236","""event"",""trial"",""time""
""fullscreenenter"",""0"",""2640""
","
","
","""event"",""trial"",""time""
""fullscreenenter"",""0"",""2640""
","
","718.8700000115205","<img style='border: 4px solid darkgrey;' src='img/tf1_40_M_ss3.jpeg'></img>","3","","exp","","1","<img src='img/tf1_40_T1_ss3_md.jpeg'></img>","0","false",""
"","html-keyboard-response","95","192101","0.0-10.0-0.40","236","""event"",""trial"",""time""
""fullscreenenter"",""0"",""2640""
","
","
","""event"",""trial"",""time""
""fullscreenenter"",""0"",""2640""
","
","null","<div style=""font-size:60px;"">+</div>","","null","fixation","2021-04-17 16:29:38.783","","","","",""
"","mars-trial","96","193758","0.0-10.0-1.40","236","""event"",""trial"",""time""
""fullscreenenter"",""0"",""2640""
","
","
","""event"",""trial"",""time""
""fullscreenenter"",""0"",""2640""
","
","1054.2749999876833","<img style='border: 4px solid darkgrey;' src='img/tf1_41_M_ss1.jpeg'></img>","0","","exp","","0","<img src='img/tf1_41_T1_ss1_md.jpeg'></img>","0","true",""
"","html-keyboard-response","97","194259","0.0-10.0-0.41","236","""event"",""trial"",""time""
""fullscreenenter"",""0"",""2640""
","
","
","""event"",""trial"",""time""
""fullscreenenter"",""0"",""2640""
","
","null","<div style=""font-size:60px;"">+</div>","","null","fixation","2021-04-17 16:29:40.941","","","","",""
"","mars-trial","98","195697","0.0-10.0-1.41","236","""event"",""trial"",""time""
""fullscreenenter"",""0"",""2640""
","
","
","""event"",""trial"",""time""
""fullscreenenter"",""0"",""2640""
","
","832.9999999987194","<img style='border: 4px solid darkgrey;' src='img/tf1_42_M_ss2.jpeg'></img>","1","","exp","","0","<img src='img/tf1_42_T1_ss2_md.jpeg'></img>","0","true",""
"","html-keyboard-response","99","196198","0.0-10.0-0.42","236","""event"",""trial"",""time""
""fullscreenenter"",""0"",""2640""
","
","
","""event"",""trial"",""time""
""fullscreenenter"",""0"",""2640""
","
","null","<div style=""font-size:60px;"">+</div>","","null","fixation","2021-04-17 16:29:42.880","","","","",""
"","mars-trial","100","197739","0.0-10.0-1.42","236","""event"",""trial"",""time""
""fullscreenenter"",""0"",""2640""
","
","
","""event"",""trial"",""time""
""fullscreenenter"",""0"",""2640""
","
","936.9499999884283","<img style='border: 4px solid darkgrey;' src='img/tf1_43_M_ss3.jpeg'></img>","1","","exp","","3","<img src='img/tf1_43_T1_ss3_md.jpeg'></img>","0","false",""
"","html-keyboard-response","101","198241","0.0-10.0-0.43","236","""event"",""trial"",""time""
""fullscreenenter"",""0"",""2640""
","
","
","""event"",""trial"",""time""
""fullscreenenter"",""0"",""2640""
","
","null","<div style=""font-size:60px;"">+</div>","","null","fixation","2021-04-17 16:29:44.923","","","","",""
"","mars-trial","102","200629","0.0-10.0-1.43","236","""event"",""trial"",""time""
""fullscreenenter"",""0"",""2640""
","
","
","""event"",""trial"",""time""
""fullscreenenter"",""0"",""2640""
","
","1784.059999990859","<img style='border: 4px solid darkgrey;' src='img/tf1_44_M_ss1.jpeg'></img>","1","","exp","","1","<img src='img/tf1_44_T1_ss1_md.jpeg'></img>","0","false",""
"","html-keyboard-response","103","201130","0.0-10.0-0.44","236","""event"",""trial"",""time""
""fullscreenenter"",""0"",""2640""
","
","
","""event"",""trial"",""time""
""fullscreenenter"",""0"",""2640""
","
","null","<div style=""font-size:60px;"">+</div>","","null","fixation","2021-04-17 16:29:47.813","","","","",""
"","mars-trial","104","202998","0.0-10.0-1.44","236","""event"",""trial"",""time""
""fullscreenenter"",""0"",""2640""
","
","
","""event"",""trial"",""time""
""fullscreenenter"",""0"",""2640""
","
","1263.0300000018906","<img style='border: 4px solid darkgrey;' src='img/tf1_45_M_ss2.jpeg'></img>","0","","exp","","3","<img src='img/tf1_45_T1_ss2_md.jpeg'></img>","0","false",""
"","html-keyboard-response","105","203501","0.0-10.0-0.45","236","""event"",""trial"",""time""
""fullscreenenter"",""0"",""2640""
","
","
","""event"",""trial"",""time""
""fullscreenenter"",""0"",""2640""
","
","null","<div style=""font-size:60px;"">+</div>","","null","fixation","2021-04-17 16:29:50.183","","","","",""
"","mars-trial","106","205127","0.0-10.0-1.45","236","""event"",""trial"",""time""
""fullscreenenter"",""0"",""2640""
","
","
","""event"",""trial"",""time""
""fullscreenenter"",""0"",""2640""
","
","1022.0899999985704","<img style='border: 4px solid darkgrey;' src='img/tf1_46_M_ss3.jpeg'></img>","0","","exp","","0","<img src='img/tf1_46_T1_ss3_md.jpeg'></img>","0","true",""
"","html-keyboard-response","107","205629","0.0-10.0-0.46","236","""event"",""trial"",""time""
""fullscreenenter"",""0"",""2640""
","
","
","""event"",""trial"",""time""
""fullscreenenter"",""0"",""2640""
","
","null","<div style=""font-size:60px;"">+</div>","","null","fixation","2021-04-17 16:29:52.311","","","","",""
"","mars-trial","108","207341","0.0-10.0-1.46","236","""event"",""trial"",""time""
""fullscreenenter"",""0"",""2640""
","
","
","""event"",""trial"",""time""
""fullscreenenter"",""0"",""2640""
","
","1105.8550000016112","<img style='border: 4px solid darkgrey;' src='img/tf1_47_M_ss1.jpeg'></img>","1","","exp","","1","<img src='img/tf1_47_T1_ss1_md.jpeg'></img>","0","false",""
"","html-keyboard-response","109","207842","0.0-10.0-0.47","236","""event"",""trial"",""time""
""fullscreenenter"",""0"",""2640""
","
","
","""event"",""trial"",""time""
""fullscreenenter"",""0"",""2640""
","
","null","<div style=""font-size:60px;"">+</div>","","null","fixation","2021-04-17 16:29:54.524","","","","",""
"","mars-trial","110","210023","0.0-10.0-1.47","236","""event"",""trial"",""time""
""fullscreenenter"",""0"",""2640""
","
","
","""event"",""trial"",""time""
""fullscreenenter"",""0"",""2640""
","
","1576.6750000038883","<img style='border: 4px solid darkgrey;' src='img/tf1_48_M_ss2.jpeg'></img>","2","","exp","","3","<img src='img/tf1_48_T1_ss2_md.jpeg'></img>","0","false",""
"","html-keyboard-response","111","210525","0.0-10.0-0.48","236","""event"",""trial"",""time""
""fullscreenenter"",""0"",""2640""
","
","
","""event"",""trial"",""time""
""fullscreenenter"",""0"",""2640""
","
","null","<div style=""font-size:60px;"">+</div>","","null","fixation","2021-04-17 16:29:57.207","","","","",""
"","mars-trial","112","211899","0.0-10.0-1.48","236","""event"",""trial"",""time""
""fullscreenenter"",""0"",""2640""
","
","
","""event"",""trial"",""time""
""fullscreenenter"",""0"",""2640""
","
","769.5699999894714","<img style='border: 4px solid darkgrey;' src='img/tf1_49_M_ss3.jpeg'></img>","3","","exp","","1","<img src='img/tf1_49_T1_ss3_md.jpeg'></img>","0","false",""
"","html-keyboard-response","113","212401","0.0-10.0-0.49","236","""event"",""trial"",""time""
""fullscreenenter"",""0"",""2640""
","
","
","""event"",""trial"",""time""
""fullscreenenter"",""0"",""2640""
","
","null","<div style=""font-size:60px;"">+</div>","","null","fixation","2021-04-17 16:29:59.083","","","","",""
"","mars-trial","114","214638","0.0-10.0-1.49","236","""event"",""trial"",""time""
""fullscreenenter"",""0"",""2640""
","
","
","""event"",""trial"",""time""
""fullscreenenter"",""0"",""2640""
","
","1632.2849999996834","<img style='border: 4px solid darkgrey;' src='img/tf1_50_M_ss1.jpeg'></img>","2","","exp","","1","<img src='img/tf1_50_T1_ss1_md.jpeg'></img>","0","false",""
"","html-keyboard-response","115","215140","0.0-10.0-0.50","236","""event"",""trial"",""time""
""fullscreenenter"",""0"",""2640""
","
","
","""event"",""trial"",""time""
""fullscreenenter"",""0"",""2640""
","
","null","<div style=""font-size:60px;"">+</div>","","null","fixation","2021-04-17 16:30:01.822","","","","",""
"","mars-trial","116","216859","0.0-10.0-1.50","236","""event"",""trial"",""time""
""fullscreenenter"",""0"",""2640""
","
","
","""event"",""trial"",""time""
""fullscreenenter"",""0"",""2640""
","
","1113.8899999932619","<img style='border: 4px solid darkgrey;' src='img/tf1_51_M_ss2.jpeg'></img>","1","","exp","","1","<img src='img/tf1_51_T1_ss2_md.jpeg'></img>","0","false",""
"","html-keyboard-response","117","217361","0.0-10.0-0.51","236","""event"",""trial"",""time""
""fullscreenenter"",""0"",""2640""
","
","
","""event"",""trial"",""time""
""fullscreenenter"",""0"",""2640""
","
","null","<div style=""font-size:60px;"">+</div>","","null","fixation","2021-04-17 16:30:04.043","","","","",""
"","mars-trial","118","219248","0.0-10.0-1.51","236","""event"",""trial"",""time""
""fullscreenenter"",""0"",""2640""
","
","
","""event"",""trial"",""time""
""fullscreenenter"",""0"",""2640""
","
","1283.4599999914644","<img style='border: 4px solid darkgrey;' src='img/tf1_52_M_ss3.jpeg'></img>","0","","exp","","1","<img src='img/tf1_52_T1_ss3_md.jpeg'></img>","0","false",""
"","html-keyboard-response","119","219749","0.0-10.0-0.52","236","""event"",""trial"",""time""
""fullscreenenter"",""0"",""2640""
","
","
","""event"",""trial"",""time""
""fullscreenenter"",""0"",""2640""
","
","null","<div style=""font-size:60px;"">+</div>","","null","fixation","2021-04-17 16:30:06.431","","","","",""
"","mars-trial","120","221604","0.0-10.0-1.52","236","""event"",""trial"",""time""
""fullscreenenter"",""0"",""2640""
","
","
","""event"",""trial"",""time""
""fullscreenenter"",""0"",""2640""
","
","1249.5750000089174","<img style='border: 4px solid darkgrey;' src='img/tf1_53_M_ss1.jpeg'></img>","1","","exp","","0","<img src='img/tf1_53_T1_ss1_md.jpeg'></img>","0","true",""
"","html-keyboard-response","121","222106","0.0-10.0-0.53","236","""event"",""trial"",""time""
""fullscreenenter"",""0"",""2640""
","
","
","""event"",""trial"",""time""
""fullscreenenter"",""0"",""2640""
","
","null","<div style=""font-size:60px;"">+</div>","","null","fixation","2021-04-17 16:30:08.788","","","","",""
"","mars-trial","122","223549","0.0-10.0-1.53","236","""event"",""trial"",""time""
""fullscreenenter"",""0"",""2640""
","
","
","""event"",""trial"",""time""
""fullscreenenter"",""0"",""2640""
","
","840.0949999922886","<img style='border: 4px solid darkgrey;' src='img/tf1_54_M_ss2.jpeg'></img>","1","","exp","","2","<img src='img/tf1_54_T1_ss2_md.jpeg'></img>","0","false",""
"","html-keyboard-response","123","224051","0.0-10.0-0.54","236","""event"",""trial"",""time""
""fullscreenenter"",""0"",""2640""
","
","
","""event"",""trial"",""time""
""fullscreenenter"",""0"",""2640""
","
","null","<div style=""font-size:60px;"">+</div>","","null","fixation","2021-04-17 16:30:10.733","","","","",""
"","mars-trial","124","225451","0.0-10.0-1.54","236","""event"",""trial"",""time""
""fullscreenenter"",""0"",""2640""
","
","
","""event"",""trial"",""time""
""fullscreenenter"",""0"",""2640""
","
","794.915000005858","<img style='border: 4px solid darkgrey;' src='img/tf1_55_M_ss3.jpeg'></img>","3","","exp","","2","<img src='img/tf1_55_T1_ss3_md.jpeg'></img>","0","false",""
"","html-keyboard-response","125","225952","0.0-10.0-0.55","236","""event"",""trial"",""time""
""fullscreenenter"",""0"",""2640""
","
","
","""event"",""trial"",""time""
""fullscreenenter"",""0"",""2640""
","
","null","<div style=""font-size:60px;"">+</div>","","null","fixation","2021-04-17 16:30:12.635","","","","",""
"","mars-trial","126","227352","0.0-10.0-1.55","236","""event"",""trial"",""time""
""fullscreenenter"",""0"",""2640""
","
","
","""event"",""trial"",""time""
""fullscreenenter"",""0"",""2640""
","
","793.6650000046939","<img style='border: 4px solid darkgrey;' src='img/tf1_56_M_ss1.jpeg'></img>","2","","exp","","3","<img src='img/tf1_56_T1_ss1_md.jpeg'></img>","0","false",""
"","html-keyboard-response","127","227854","0.0-10.0-0.56","236","""event"",""trial"",""time""
""fullscreenenter"",""0"",""2640""
","
","
","""event"",""trial"",""time""
""fullscreenenter"",""0"",""2640""
","
","null","<div style=""font-size:60px;"">+</div>","","null","fixation","2021-04-17 16:30:14.536","","","","",""
"","mars-trial","128","229779","0.0-10.0-1.56","236","""event"",""trial"",""time""
""fullscreenenter"",""0"",""2640""
","
","
","""event"",""trial"",""time""
""fullscreenenter"",""0"",""2640""
","
","1321.349999998347","<img style='border: 4px solid darkgrey;' src='img/tf1_57_M_ss2.jpeg'></img>","1","","exp","","1","<img src='img/tf1_57_T1_ss2_md.jpeg'></img>","0","false",""
"","html-keyboard-response","129","230282","0.0-10.0-0.57","236","""event"",""trial"",""time""
""fullscreenenter"",""0"",""2640""
","
","
","""event"",""trial"",""time""
""fullscreenenter"",""0"",""2640""
","
","null","<div style=""font-size:60px;"">+</div>","","null","fixation","2021-04-17 16:30:16.964","","","","",""
"","mars-trial","130","232915","0.0-10.0-1.57","236","""event"",""trial"",""time""
""fullscreenenter"",""0"",""2640""
","
","
","""event"",""trial"",""time""
""fullscreenenter"",""0"",""2640""
","
","2027.6299999968614","<img style='border: 4px solid darkgrey;' src='img/tf1_58_M_ss3.jpeg'></img>","1","","exp","","2","<img src='img/tf1_58_T1_ss3_md.jpeg'></img>","0","false",""
"","html-keyboard-response","131","233416","0.0-10.0-0.58","236","""event"",""trial"",""time""
""fullscreenenter"",""0"",""2640""
","
","
","""event"",""trial"",""time""
""fullscreenenter"",""0"",""2640""
","
","null","<div style=""font-size:60px;"">+</div>","","null","fixation","2021-04-17 16:30:20.098","","","","",""
"","mars-trial","132","235612","0.0-10.0-1.58","236","""event"",""trial"",""time""
""fullscreenenter"",""0"",""2640""
","
","
","""event"",""trial"",""time""
""fullscreenenter"",""0"",""2640""
","
","1591.8299999902956","<img style='border: 4px solid darkgrey;' src='img/tf1_59_M_ss1.jpeg'></img>","2","","exp","","3","<img src='img/tf1_59_T1_ss1_md.jpeg'></img>","0","false",""
"","html-keyboard-response","133","236113","0.0-10.0-0.59","236","""event"",""trial"",""time""
""fullscreenenter"",""0"",""2640""
","
","
","""event"",""trial"",""time""
""fullscreenenter"",""0"",""2640""
","
","null","<div style=""font-size:60px;"">+</div>","","null","fixation","2021-04-17 16:30:22.795","","","","",""
"","mars-trial","134","237798","0.0-10.0-1.59","236","""event"",""trial"",""time""
""fullscreenenter"",""0"",""2640""
","
","
","""event"",""trial"",""time""
""fullscreenenter"",""0"",""2640""
","
","1080.7050000003073","<img style='border: 4px solid darkgrey;' src='img/tf1_60_M_ss2.jpeg'></img>","0","","exp","","0","<img src='img/tf1_60_T1_ss2_md.jpeg'></img>","0","true",""
"","html-keyboard-response","135","238299","0.0-10.0-0.60","236","""event"",""trial"",""time""
""fullscreenenter"",""0"",""2640""
","
","
","""event"",""trial"",""time""
""fullscreenenter"",""0"",""2640""
","
","null","<div style=""font-size:60px;"">+</div>","","null","fixation","2021-04-17 16:30:24.981","","","","",""
"","mars-trial","136","240732","0.0-10.0-1.60","236","""event"",""trial"",""time""
""fullscreenenter"",""0"",""2640""
","
","
","""event"",""trial"",""time""
""fullscreenenter"",""0"",""2640""
","
","1828.5650000034366","<img style='border: 4px solid darkgrey;' src='img/tf1_61_M_ss3.jpeg'></img>","1","","exp","","2","<img src='img/tf1_61_T1_ss3_md.jpeg'></img>","0","false",""
"","html-keyboard-response","137","241234","0.0-10.0-0.61","236","""event"",""trial"",""time""
""fullscreenenter"",""0"",""2640""
","
","
","""event"",""trial"",""time""
""fullscreenenter"",""0"",""2640""
","
","null","<div style=""font-size:60px;"">+</div>","","null","fixation","2021-04-17 16:30:27.916","","","","",""
"","mars-trial","138","243396","0.0-10.0-1.61","236","""event"",""trial"",""time""
""fullscreenenter"",""0"",""2640""
","
","
","""event"",""trial"",""time""
""fullscreenenter"",""0"",""2640""
","
","1558.5050000081537","<img style='border: 4px solid darkgrey;' src='img/tf1_62_M_ss1.jpeg'></img>","1","","exp","","0","<img src='img/tf1_62_T1_ss1_md.jpeg'></img>","0","true",""
"","html-keyboard-response","139","243898","0.0-10.0-0.62","236","""event"",""trial"",""time""
""fullscreenenter"",""0"",""2640""
","
","
","""event"",""trial"",""time""
""fullscreenenter"",""0"",""2640""
","
","null","<div style=""font-size:60px;"">+</div>","","null","fixation","2021-04-17 16:30:30.580","","","","",""
"","mars-trial","140","246053","0.0-10.0-1.62","236","""event"",""trial"",""time""
""fullscreenenter"",""0"",""2640""
","
","
","""event"",""trial"",""time""
""fullscreenenter"",""0"",""2640""
","
","1550.3549999993993","<img style='border: 4px solid darkgrey;' src='img/tf1_63_M_ss2.jpeg'></img>","1","","exp","","3","<img src='img/tf1_63_T1_ss2_md.jpeg'></img>","0","false",""
"","html-keyboard-response","141","246554","0.0-10.0-0.63","236","""event"",""trial"",""time""
""fullscreenenter"",""0"",""2640""
","
","
","""event"",""trial"",""time""
""fullscreenenter"",""0"",""2640""
","
","null","<div style=""font-size:60px;"">+</div>","","null","fixation","2021-04-17 16:30:33.236","","","","",""
"","mars-trial","142","249102","0.0-10.0-1.63","236","""event"",""trial"",""time""
""fullscreenenter"",""0"",""2640""
","
","
","""event"",""trial"",""time""
""fullscreenenter"",""0"",""2640""
","
","1941.7650000104913","<img style='border: 4px solid darkgrey;' src='img/tf1_64_M_ss3.jpeg'></img>","3","","exp","","1","<img src='img/tf1_64_T1_ss3_md.jpeg'></img>","0","false",""
"","html-keyboard-response","143","249603","0.0-10.0-0.64","236","""event"",""trial"",""time""
""fullscreenenter"",""0"",""2640""
","
","
","""event"",""trial"",""time""
""fullscreenenter"",""0"",""2640""
","
","null","<div style=""font-size:60px;"">+</div>","","null","fixation","2021-04-17 16:30:36.287","","","","",""
"","mars-trial","144","251454","0.0-10.0-1.64","236","""event"",""trial"",""time""
""fullscreenenter"",""0"",""2640""
","
","
","""event"",""trial"",""time""
""fullscreenenter"",""0"",""2640""
","
","1245.32500001078","<img style='border: 4px solid darkgrey;' src='img/tf1_65_M_ss1.jpeg'></img>","2","","exp","","3","<img src='img/tf1_65_T1_ss1_md.jpeg'></img>","0","false",""
"","html-keyboard-response","145","251956","0.0-10.0-0.65","236","""event"",""trial"",""time""
""fullscreenenter"",""0"",""2640""
","
","
","""event"",""trial"",""time""
""fullscreenenter"",""0"",""2640""
","
","null","<div style=""font-size:60px;"">+</div>","","null","fixation","2021-04-17 16:30:38.639","","","","",""
"","mars-trial","146","254565","0.0-10.0-1.65","236","""event"",""trial"",""time""
""fullscreenenter"",""0"",""2640""
","
","
","""event"",""trial"",""time""
""fullscreenenter"",""0"",""2640""
","
","2003.9399999950547","<img style='border: 4px solid darkgrey;' src='img/tf1_66_M_ss2.jpeg'></img>","1","","exp","","0","<img src='img/tf1_66_T1_ss2_md.jpeg'></img>","0","true",""
"","html-keyboard-response","147","255066","0.0-10.0-0.66","236","""event"",""trial"",""time""
""fullscreenenter"",""0"",""2640""
","
","
","""event"",""trial"",""time""
""fullscreenenter"",""0"",""2640""
","
","null","<div style=""font-size:60px;"">+</div>","","null","fixation","2021-04-17 16:30:41.748","","","","",""
"","mars-trial","148","256900","0.0-10.0-1.66","236","""event"",""trial"",""time""
""fullscreenenter"",""0"",""2640""
","
","
","""event"",""trial"",""time""
""fullscreenenter"",""0"",""2640""
","
","1230.2749999944353","<img style='border: 4px solid darkgrey;' src='img/tf1_67_M_ss3.jpeg'></img>","1","","exp","","0","<img src='img/tf1_67_T1_ss3_md.jpeg'></img>","0","true",""
"","html-keyboard-response","149","257401","0.0-10.0-0.67","236","""event"",""trial"",""time""
""fullscreenenter"",""0"",""2640""
","
","
","""event"",""trial"",""time""
""fullscreenenter"",""0"",""2640""
","
","null","<div style=""font-size:60px;"">+</div>","","null","fixation","2021-04-17 16:30:44.084","","","","",""
"","mars-trial","150","260608","0.0-10.0-1.67","236","""event"",""trial"",""time""
""fullscreenenter"",""0"",""2640""
","
","
","""event"",""trial"",""time""
""fullscreenenter"",""0"",""2640""
","
","2603.159999998752","<img style='border: 4px solid darkgrey;' src='img/tf1_68_M_ss1.jpeg'></img>","3","","exp","","0","<img src='img/tf1_68_T1_ss1_md.jpeg'></img>","0","true",""
"","html-keyboard-response","151","261109","0.0-10.0-0.68","236","""event"",""trial"",""time""
""fullscreenenter"",""0"",""2640""
","
","
","""event"",""trial"",""time""
""fullscreenenter"",""0"",""2640""
","
","null","<div style=""font-size:60px;"">+</div>","","null","fixation","2021-04-17 16:30:47.792","","","","",""
"","mars-trial","152","262914","0.0-10.0-1.68","236","""event"",""trial"",""time""
""fullscreenenter"",""0"",""2640""
","
","
","""event"",""trial"",""time""
""fullscreenenter"",""0"",""2640""
","
","1199.9899999937043","<img style='border: 4px solid darkgrey;' src='img/tf1_69_M_ss2.jpeg'></img>","2","","exp","","3","<img src='img/tf1_69_T1_ss2_md.jpeg'></img>","0","false",""
"","html-keyboard-response","153","263416","0.0-10.0-0.69","236","""event"",""trial"",""time""
""fullscreenenter"",""0"",""2640""
","
","
","""event"",""trial"",""time""
""fullscreenenter"",""0"",""2640""
","
","null","<div style=""font-size:60px;"">+</div>","","null","fixation","2021-04-17 16:30:50.098","","","","",""
"","mars-trial","154","265204","0.0-10.0-1.69","236","""event"",""trial"",""time""
""fullscreenenter"",""0"",""2640""
","
","
","""event"",""trial"",""time""
""fullscreenenter"",""0"",""2640""
","
","1183.759999999893","<img style='border: 4px solid darkgrey;' src='img/tf1_70_M_ss3.jpeg'></img>","1","","exp","","3","<img src='img/tf1_70_T1_ss3_md.jpeg'></img>","0","false",""
"","html-keyboard-response","155","265706","0.0-10.0-0.70","236","""event"",""trial"",""time""
""fullscreenenter"",""0"",""2640""
","
","
","""event"",""trial"",""time""
""fullscreenenter"",""0"",""2640""
","
","null","<div style=""font-size:60px;"">+</div>","","null","fixation","2021-04-17 16:30:52.388","","","","",""
"","mars-trial","156","266903","0.0-10.0-1.70","236","""event"",""trial"",""time""
""fullscreenenter"",""0"",""2640""
","
","
","""event"",""trial"",""time""
""fullscreenenter"",""0"",""2640""
","
","591.7400000034831","<img style='border: 4px solid darkgrey;' src='img/tf1_71_M_ss1.jpeg'></img>","0","","exp","","2","<img src='img/tf1_71_T1_ss1_md.jpeg'></img>","0","false",""
"","html-keyboard-response","157","267405","0.0-10.0-0.71","236","""event"",""trial"",""time""
""fullscreenenter"",""0"",""2640""
","
","
","""event"",""trial"",""time""
""fullscreenenter"",""0"",""2640""
","
","null","<div style=""font-size:60px;"">+</div>","","null","fixation","2021-04-17 16:30:54.087","","","","",""
"","mars-trial","158","269536","0.0-10.0-1.71","236","""event"",""trial"",""time""
""fullscreenenter"",""0"",""2640""
","
","
","""event"",""trial"",""time""
""fullscreenenter"",""0"",""2640""
","
","1527.3400000005495","<img style='border: 4px solid darkgrey;' src='img/tf1_72_M_ss2.jpeg'></img>","0","","exp","","1","<img src='img/tf1_72_T1_ss2_md.jpeg'></img>","0","false",""
"","html-keyboard-response","159","270038","0.0-10.0-0.72","236","""event"",""trial"",""time""
""fullscreenenter"",""0"",""2640""
","
","
","""event"",""trial"",""time""
""fullscreenenter"",""0"",""2640""
","
","null","<div style=""font-size:60px;"">+</div>","","null","fixation","2021-04-17 16:30:56.720","","","","",""
"","mars-trial","160","271744","0.0-10.0-1.72","236","""event"",""trial"",""time""
""fullscreenenter"",""0"",""2640""
","
","
","""event"",""trial"",""time""
""fullscreenenter"",""0"",""2640""
","
","1101.1600000056205","<img style='border: 4px solid darkgrey;' src='img/tf1_73_M_ss3.jpeg'></img>","1","","exp","","0","<img src='img/tf1_73_T1_ss3_md.jpeg'></img>","0","true",""
"","html-keyboard-response","161","272246","0.0-10.0-0.73","236","""event"",""trial"",""time""
""fullscreenenter"",""0"",""2640""
","
","
","""event"",""trial"",""time""
""fullscreenenter"",""0"",""2640""
","
","null","<div style=""font-size:60px;"">+</div>","","null","fixation","2021-04-17 16:30:58.928","","","","",""
"","mars-trial","162","274049","0.0-10.0-1.73","236","""event"",""trial"",""time""
""fullscreenenter"",""0"",""2640""
","
","
","""event"",""trial"",""time""
""fullscreenenter"",""0"",""2640""
","
","1199.0550000045914","<img style='border: 4px solid darkgrey;' src='img/tf1_74_M_ss1.jpeg'></img>","2","","exp","","1","<img src='img/tf1_74_T1_ss1_md.jpeg'></img>","0","false",""
"","html-keyboard-response","163","274551","0.0-10.0-0.74","236","""event"",""trial"",""time""
""fullscreenenter"",""0"",""2640""
","
","
","""event"",""trial"",""time""
""fullscreenenter"",""0"",""2640""
","
","null","<div style=""font-size:60px;"">+</div>","","null","fixation","2021-04-17 16:31:01.233","","","","",""
"","mars-trial","164","276011","0.0-10.0-1.74","236","""event"",""trial"",""time""
""fullscreenenter"",""0"",""2640""
","
","
","""event"",""trial"",""time""
""fullscreenenter"",""0"",""2640""
","
","855.8750000083819","<img style='border: 4px solid darkgrey;' src='img/tf1_75_M_ss2.jpeg'></img>","1","","exp","","2","<img src='img/tf1_75_T1_ss2_md.jpeg'></img>","0","false",""
"","html-keyboard-response","165","276512","0.0-10.0-0.75","236","""event"",""trial"",""time""
""fullscreenenter"",""0"",""2640""
","
","
","""event"",""trial"",""time""
""fullscreenenter"",""0"",""2640""
","
","null","<div style=""font-size:60px;"">+</div>","","null","fixation","2021-04-17 16:31:03.194","","","","",""
"","mars-trial","166","278259","0.0-10.0-1.75","236","""event"",""trial"",""time""
""fullscreenenter"",""0"",""2640""
","
","
","""event"",""trial"",""time""
""fullscreenenter"",""0"",""2640""
","
","1142.680000004475","<img style='border: 4px solid darkgrey;' src='img/tf1_76_M_ss3.jpeg'></img>","2","","exp","","0","<img src='img/tf1_76_T1_ss3_md.jpeg'></img>","0","true",""
"","html-keyboard-response","167","278761","0.0-10.0-0.76","236","""event"",""trial"",""time""
""fullscreenenter"",""0"",""2640""
","
","
","""event"",""trial"",""time""
""fullscreenenter"",""0"",""2640""
","
","null","<div style=""font-size:60px;"">+</div>","","null","fixation","2021-04-17 16:31:05.443","","","","",""
"","mars-trial","168","280838","0.0-10.0-1.76","236","""event"",""trial"",""time""
""fullscreenenter"",""0"",""2640""
","
","
","""event"",""trial"",""time""
""fullscreenenter"",""0"",""2640""
","
","1474.7999999963213","<img style='border: 4px solid darkgrey;' src='img/tf1_77_M_ss1.jpeg'></img>","2","","exp","","2","<img src='img/tf1_77_T1_ss1_md.jpeg'></img>","0","false",""
"","html-keyboard-response","169","281340","0.0-10.0-0.77","236","""event"",""trial"",""time""
""fullscreenenter"",""0"",""2640""
","
","
","""event"",""trial"",""time""
""fullscreenenter"",""0"",""2640""
","
","null","<div style=""font-size:60px;"">+</div>","","null","fixation","2021-04-17 16:31:08.022","","","","",""
"","mars-trial","170","283016","0.0-10.0-1.77","236","""event"",""trial"",""time""
""fullscreenenter"",""0"",""2640""
","
","
","""event"",""trial"",""time""
""fullscreenenter"",""0"",""2640""
","
","1070.5050000105985","<img style='border: 4px solid darkgrey;' src='img/tf1_78_M_ss2.jpeg'></img>","1","","exp","","0","<img src='img/tf1_78_T1_ss2_md.jpeg'></img>","0","true",""
"","html-keyboard-response","171","283518","0.0-10.0-0.78","236","""event"",""trial"",""time""
""fullscreenenter"",""0"",""2640""
","
","
","""event"",""trial"",""time""
""fullscreenenter"",""0"",""2640""
","
","null","<div style=""font-size:60px;"">+</div>","","null","fixation","2021-04-17 16:31:10.200","","","","",""
"","mars-trial","172","284935","0.0-10.0-1.78","236","""event"",""trial"",""time""
""fullscreenenter"",""0"",""2640""
","
","
","""event"",""trial"",""time""
""fullscreenenter"",""0"",""2640""
","
","814.4199999951525","<img style='border: 4px solid darkgrey;' src='img/tf1_79_M_ss3.jpeg'></img>","0","","exp","","3","<img src='img/tf1_79_T1_ss3_md.jpeg'></img>","0","false",""
"","html-keyboard-response","173","285436","0.0-10.0-0.79","236","""event"",""trial"",""time""
""fullscreenenter"",""0"",""2640""
","
","
","""event"",""trial"",""time""
""fullscreenenter"",""0"",""2640""
","
","null","<div style=""font-size:60px;"">+</div>","","null","fixation","2021-04-17 16:31:12.118","","","","",""
"","mars-trial","174","286820","0.0-10.0-1.79","236","""event"",""trial"",""time""
""fullscreenenter"",""0"",""2640""
","
","
","""event"",""trial"",""time""
""fullscreenenter"",""0"",""2640""
","
","780.0850000057835","<img style='border: 4px solid darkgrey;' src='img/tf1_80_M_ss1.jpeg'></img>","1","","exp","","2","<img src='img/tf1_80_T1_ss1_md.jpeg'></img>","0","false",""
"","audio-button-response","175","291390","0.0-11.0","236","""event"",""trial"",""time""
""fullscreenenter"",""0"",""2640""
","
","
","""event"",""trial"",""time""
""fullscreenenter"",""0"",""2640""
","
","4569.344999996247","audio/mars_instructions_slide5.wav","0","","","","","","","",""
