"success","trial_type","trial_index","time_elapsed","internal_node_id","subject_id","interactions","blur_events","focus_events","fullscreenenter_events","fullscreenexit_events","rt","stimulus","button_pressed","key_press","part","timestamp","unshuffled_button","correct_response","correct_button","correct","value"
"true","fullscreen","0","63623","0.0-0.0","311","""event"",""trial"",""time""
""fullscreenenter"",""0"",""62690""
","
","
","""event"",""trial"",""time""
""fullscreenenter"",""0"",""62690""
","
","","","","","","","","","","",""
"","pavlovia","1","63630","0.0-1.0","311","""event"",""trial"",""time""
""fullscreenenter"",""0"",""62690""
","
","
","""event"",""trial"",""time""
""fullscreenenter"",""0"",""62690""
","
","","","","","","","","","","",""
"","html-button-response","2","65064","0.0-2.0","311","""event"",""trial"",""time""
""fullscreenenter"",""0"",""62690""
","
","
","""event"",""trial"",""time""
""fullscreenenter"",""0"",""62690""
","
","1431.6000000238419","<p>Welcome! Press START to begin.</p><br>","0","","","","","","","",""
"","audio-button-response","3","70602","0.0-3.0","311","""event"",""trial"",""time""
""fullscreenenter"",""0"",""62690""
","
","
","""event"",""trial"",""time""
""fullscreenenter"",""0"",""62690""
","
","5534","audio/mars_instructions_slide2.wav","0","","","","","","","",""
"","audio-button-response","4","71847","0.0-4.0","311","""event"",""trial"",""time""
""fullscreenenter"",""0"",""62690""
","
","
","""event"",""trial"",""time""
""fullscreenenter"",""0"",""62690""
","
","1241.6999999284744","audio/mars_instructions_slide3.wav","0","","","","","","","",""
"","html-keyboard-response","5","72353","0.0-5.0-0.0","311","""event"",""trial"",""time""
""fullscreenenter"",""0"",""62690""
","
","
","""event"",""trial"",""time""
""fullscreenenter"",""0"",""62690""
","
","null","<div style=""font-size:60px;"">+</div>","","null","fixation","2021-08-10 17:06:43.321","","","","",""
"","mars-trial","6","78030","0.0-5.0-1.0","311","""event"",""trial"",""time""
""fullscreenenter"",""0"",""62690""
","
","
","""event"",""trial"",""time""
""fullscreenenter"",""0"",""62690""
","
","3559.2000000476837","<img style='border: 4px solid darkgrey;' src='practice/pt1_M1.png'></img>","3","","practice","","0","<img src='practice/pt1_T1.png'></img>","0","true",""
"","html-keyboard-response","7","78533","0.0-6.0-0.0","311","""event"",""trial"",""time""
""fullscreenenter"",""0"",""62690""
","
","
","""event"",""trial"",""time""
""fullscreenenter"",""0"",""62690""
","
","null","<div style=""font-size:60px;"">+</div>","","null","fixation","2021-08-10 17:06:49.501","","","","",""
"","mars-trial","8","82803","0.0-6.0-1.0","311","""event"",""trial"",""time""
""fullscreenenter"",""0"",""62690""
","
","
","""event"",""trial"",""time""
""fullscreenenter"",""0"",""62690""
","
","2155.2999999523163","<img style='border: 4px solid darkgrey;' src='practice/pt2_M1.png'></img>","1","","practice","","0","<img src='practice/pt2_T1.png'></img>","0","true",""
"","html-keyboard-response","9","83305","0.0-7.0-0.0","311","""event"",""trial"",""time""
""fullscreenenter"",""0"",""62690""
","
","
","""event"",""trial"",""time""
""fullscreenenter"",""0"",""62690""
","
","null","<div style=""font-size:60px;"">+</div>","","null","fixation","2021-08-10 17:06:54.273","","","","",""
"","mars-trial","10","92130","0.0-7.0-1.0","311","""event"",""trial"",""time""
""fullscreenenter"",""0"",""62690""
","
","
","""event"",""trial"",""time""
""fullscreenenter"",""0"",""62690""
","
","6708","<img style='border: 4px solid darkgrey;' src='practice/pt3_M1.png'></img>","1","","practice","","0","<img src='practice/pt3_T1.png'></img>","0","true",""
"","audio-button-response","11","93446","0.0-8.0","311","""event"",""trial"",""time""
""fullscreenenter"",""0"",""62690""
","
","
","""event"",""trial"",""time""
""fullscreenenter"",""0"",""62690""
","
","1311.6000000238419","audio/mars_instructions_slide4.wav","0","","","","","","","",""
"","call-function","12","93449","0.0-9.0","311","""event"",""trial"",""time""
""fullscreenenter"",""0"",""62690""
","
","
","""event"",""trial"",""time""
""fullscreenenter"",""0"",""62690""
","
","","","","","","","","","","",""
"","html-keyboard-response","13","93954","0.0-10.0-0.0","311","""event"",""trial"",""time""
""fullscreenenter"",""0"",""62690""
","
","
","""event"",""trial"",""time""
""fullscreenenter"",""0"",""62690""
","
","null","<div style=""font-size:60px;"">+</div>","","null","fixation","2021-08-10 17:07:04.922","","","","",""
"","mars-trial","14","95961","0.0-10.0-1.0","311","""event"",""trial"",""time""
""fullscreenenter"",""0"",""62690""
","
","
","""event"",""trial"",""time""
""fullscreenenter"",""0"",""62690""
","
","1391.6000000238419","<img style='border: 4px solid darkgrey;' src='img/tf1_1_M_ss3.jpeg'></img>","2","","exp","","0","<img src='img/tf1_1_T1_ss3_md.jpeg'></img>","0","true",""
"","html-keyboard-response","15","96466","0.0-10.0-0.1","311","""event"",""trial"",""time""
""fullscreenenter"",""0"",""62690""
","
","
","""event"",""trial"",""time""
""fullscreenenter"",""0"",""62690""
","
","null","<div style=""font-size:60px;"">+</div>","","null","fixation","2021-08-10 17:07:07.434","","","","",""
"","mars-trial","16","101377","0.0-10.0-1.1","311","""event"",""trial"",""time""
""fullscreenenter"",""0"",""62690""
","
","
","""event"",""trial"",""time""
""fullscreenenter"",""0"",""62690""
","
","4300","<img style='border: 4px solid darkgrey;' src='img/tf1_2_M_ss1.jpeg'></img>","1","","exp","","0","<img src='img/tf1_2_T1_ss1_md.jpeg'></img>","0","true",""
"","html-keyboard-response","17","101882","0.0-10.0-0.2","311","""event"",""trial"",""time""
""fullscreenenter"",""0"",""62690""
","
","
","""event"",""trial"",""time""
""fullscreenenter"",""0"",""62690""
","
","null","<div style=""font-size:60px;"">+</div>","","null","fixation","2021-08-10 17:07:12.851","","","","",""
"","mars-trial","18","104187","0.0-10.0-1.2","311","""event"",""trial"",""time""
""fullscreenenter"",""0"",""62690""
","
","
","""event"",""trial"",""time""
""fullscreenenter"",""0"",""62690""
","
","1689.3999999761581","<img style='border: 4px solid darkgrey;' src='img/tf1_3_M_ss2.jpeg'></img>","1","","exp","","0","<img src='img/tf1_3_T1_ss2_md.jpeg'></img>","0","true",""
"","html-keyboard-response","19","104690","0.0-10.0-0.3","311","""event"",""trial"",""time""
""fullscreenenter"",""0"",""62690""
","
","
","""event"",""trial"",""time""
""fullscreenenter"",""0"",""62690""
","
","null","<div style=""font-size:60px;"">+</div>","","null","fixation","2021-08-10 17:07:15.658","","","","",""
"","mars-trial","20","107713","0.0-10.0-1.3","311","""event"",""trial"",""time""
""fullscreenenter"",""0"",""62690""
","
","
","""event"",""trial"",""time""
""fullscreenenter"",""0"",""62690""
","
","2411.5999999046326","<img style='border: 4px solid darkgrey;' src='img/tf1_4_M_ss3.jpeg'></img>","2","","exp","","0","<img src='img/tf1_4_T1_ss3_md.jpeg'></img>","0","true",""
"","html-keyboard-response","21","108215","0.0-10.0-0.4","311","""event"",""trial"",""time""
""fullscreenenter"",""0"",""62690""
","
","
","""event"",""trial"",""time""
""fullscreenenter"",""0"",""62690""
","
","null","<div style=""font-size:60px;"">+</div>","","null","fixation","2021-08-10 17:07:19.183","","","","",""
"","mars-trial","22","110223","0.0-10.0-1.4","311","""event"",""trial"",""time""
""fullscreenenter"",""0"",""62690""
","
","
","""event"",""trial"",""time""
""fullscreenenter"",""0"",""62690""
","
","1389.7999999523163","<img style='border: 4px solid darkgrey;' src='img/tf1_5_M_ss1.jpeg'></img>","2","","exp","","0","<img src='img/tf1_5_T1_ss1_md.jpeg'></img>","0","true",""
"","html-keyboard-response","23","110727","0.0-10.0-0.5","311","""event"",""trial"",""time""
""fullscreenenter"",""0"",""62690""
","
","
","""event"",""trial"",""time""
""fullscreenenter"",""0"",""62690""
","
","null","<div style=""font-size:60px;"">+</div>","","null","fixation","2021-08-10 17:07:21.695","","","","",""
"","mars-trial","24","116654","0.0-10.0-1.5","311","""event"",""trial"",""time""
""fullscreenenter"",""0"",""62690""
","
","
","""event"",""trial"",""time""
""fullscreenenter"",""0"",""62690""
","
","5321.099999904633","<img style='border: 4px solid darkgrey;' src='img/tf1_6_M_ss2.jpeg'></img>","0","","exp","","0","<img src='img/tf1_6_T1_ss2_md.jpeg'></img>","0","true",""
"","html-keyboard-response","25","117161","0.0-10.0-0.6","311","""event"",""trial"",""time""
""fullscreenenter"",""0"",""62690""
","
","
","""event"",""trial"",""time""
""fullscreenenter"",""0"",""62690""
","
","null","<div style=""font-size:60px;"">+</div>","","null","fixation","2021-08-10 17:07:28.129","","","","",""
"","mars-trial","26","120577","0.0-10.0-1.6","311","""event"",""trial"",""time""
""fullscreenenter"",""0"",""62690""
","
","
","""event"",""trial"",""time""
""fullscreenenter"",""0"",""62690""
","
","2799.899999976158","<img style='border: 4px solid darkgrey;' src='img/tf1_7_M_ss3.jpeg'></img>","2","","exp","","0","<img src='img/tf1_7_T1_ss3_md.jpeg'></img>","0","true",""
"","html-keyboard-response","27","121084","0.0-10.0-0.7","311","""event"",""trial"",""time""
""fullscreenenter"",""0"",""62690""
","
","
","""event"",""trial"",""time""
""fullscreenenter"",""0"",""62690""
","
","null","<div style=""font-size:60px;"">+</div>","","null","fixation","2021-08-10 17:07:32.052","","","","",""
"","mars-trial","28","126786","0.0-10.0-1.7","311","""event"",""trial"",""time""
""fullscreenenter"",""0"",""62690""
","
","
","""event"",""trial"",""time""
""fullscreenenter"",""0"",""62690""
","
","5087.300000071526","<img style='border: 4px solid darkgrey;' src='img/tf1_8_M_ss1.jpeg'></img>","3","","exp","","0","<img src='img/tf1_8_T1_ss1_md.jpeg'></img>","0","true",""
"","html-keyboard-response","29","127293","0.0-10.0-0.8","311","""event"",""trial"",""time""
""fullscreenenter"",""0"",""62690""
","
","
","""event"",""trial"",""time""
""fullscreenenter"",""0"",""62690""
","
","null","<div style=""font-size:60px;"">+</div>","","null","fixation","2021-08-10 17:07:38.261","","","","",""
"","mars-trial","30","132921","0.0-10.0-1.8","311","""event"",""trial"",""time""
""fullscreenenter"",""0"",""62690""
","
","
","""event"",""trial"",""time""
""fullscreenenter"",""0"",""62690""
","
","5012.899999976158","<img style='border: 4px solid darkgrey;' src='img/tf1_9_M_ss2.jpeg'></img>","1","","exp","","0","<img src='img/tf1_9_T1_ss2_md.jpeg'></img>","0","true",""
"","html-keyboard-response","31","133426","0.0-10.0-0.9","311","""event"",""trial"",""time""
""fullscreenenter"",""0"",""62690""
","
","
","""event"",""trial"",""time""
""fullscreenenter"",""0"",""62690""
","
","null","<div style=""font-size:60px;"">+</div>","","null","fixation","2021-08-10 17:07:44.394","","","","",""
"","mars-trial","32","142882","0.0-10.0-1.9","311","""event"",""trial"",""time""
""fullscreenenter"",""0"",""62690""
","
","
","""event"",""trial"",""time""
""fullscreenenter"",""0"",""62690""
","
","8839","<img style='border: 4px solid darkgrey;' src='img/tf1_10_M_ss3.jpeg'></img>","3","","exp","","0","<img src='img/tf1_10_T1_ss3_md.jpeg'></img>","0","true",""
"","html-keyboard-response","33","143388","0.0-10.0-0.10","311","""event"",""trial"",""time""
""fullscreenenter"",""0"",""62690""
","
","
","""event"",""trial"",""time""
""fullscreenenter"",""0"",""62690""
","
","null","<div style=""font-size:60px;"">+</div>","","null","fixation","2021-08-10 17:07:54.356","","","","",""
"","mars-trial","34","145834","0.0-10.0-1.10","311","""event"",""trial"",""time""
""fullscreenenter"",""0"",""62690""
","
","
","""event"",""trial"",""time""
""fullscreenenter"",""0"",""62690""
","
","1831","<img style='border: 4px solid darkgrey;' src='img/tf1_11_M_ss1.jpeg'></img>","1","","exp","","0","<img src='img/tf1_11_T1_ss1_md.jpeg'></img>","0","true",""
"","html-keyboard-response","35","146337","0.0-10.0-0.11","311","""event"",""trial"",""time""
""fullscreenenter"",""0"",""62690""
","
","
","""event"",""trial"",""time""
""fullscreenenter"",""0"",""62690""
","
","null","<div style=""font-size:60px;"">+</div>","","null","fixation","2021-08-10 17:07:57.305","","","","",""
"","mars-trial","36","151217","0.0-10.0-1.11","311","""event"",""trial"",""time""
""fullscreenenter"",""0"",""62690""
","
","
","""event"",""trial"",""time""
""fullscreenenter"",""0"",""62690""
","
","4272.100000023842","<img style='border: 4px solid darkgrey;' src='img/tf1_12_M_ss2.jpeg'></img>","1","","exp","","3","<img src='img/tf1_12_T1_ss2_md.jpeg'></img>","0","false",""
"","html-keyboard-response","37","151724","0.0-10.0-0.12","311","""event"",""trial"",""time""
""fullscreenenter"",""0"",""62690""
","
","
","""event"",""trial"",""time""
""fullscreenenter"",""0"",""62690""
","
","null","<div style=""font-size:60px;"">+</div>","","null","fixation","2021-08-10 17:08:02.692","","","","",""
"","mars-trial","38","160620","0.0-10.0-1.12","311","""event"",""trial"",""time""
""fullscreenenter"",""0"",""62690""
","
","
","""event"",""trial"",""time""
""fullscreenenter"",""0"",""62690""
","
","8283.299999952316","<img style='border: 4px solid darkgrey;' src='img/tf1_13_M_ss3.jpeg'></img>","3","","exp","","0","<img src='img/tf1_13_T1_ss3_md.jpeg'></img>","0","true",""
"","html-keyboard-response","39","161126","0.0-10.0-0.13","311","""event"",""trial"",""time""
""fullscreenenter"",""0"",""62690""
","
","
","""event"",""trial"",""time""
""fullscreenenter"",""0"",""62690""
","
","null","<div style=""font-size:60px;"">+</div>","","null","fixation","2021-08-10 17:08:12.094","","","","",""
"","mars-trial","40","170110","0.0-10.0-1.13","311","""event"",""trial"",""time""
""fullscreenenter"",""0"",""62690""
","
","
","""event"",""trial"",""time""
""fullscreenenter"",""0"",""62690""
","
","8370.100000023842","<img style='border: 4px solid darkgrey;' src='img/tf1_14_M_ss1.jpeg'></img>","0","","exp","","1","<img src='img/tf1_14_T1_ss1_md.jpeg'></img>","0","false",""
"","html-keyboard-response","41","170613","0.0-10.0-0.14","311","""event"",""trial"",""time""
""fullscreenenter"",""0"",""62690""
","
","
","""event"",""trial"",""time""
""fullscreenenter"",""0"",""62690""
","
","null","<div style=""font-size:60px;"">+</div>","","null","fixation","2021-08-10 17:08:21.581","","","","",""
"","mars-trial","42","185554","0.0-10.0-1.14","311","""event"",""trial"",""time""
""fullscreenenter"",""0"",""62690""
","
","
","""event"",""trial"",""time""
""fullscreenenter"",""0"",""62690""
","
","14328.199999928474","<img style='border: 4px solid darkgrey;' src='img/tf1_15_M_ss2.jpeg'></img>","0","","exp","","0","<img src='img/tf1_15_T1_ss2_md.jpeg'></img>","0","true",""
"","html-keyboard-response","43","186059","0.0-10.0-0.15","311","""event"",""trial"",""time""
""fullscreenenter"",""0"",""62690""
","
","
","""event"",""trial"",""time""
""fullscreenenter"",""0"",""62690""
","
","null","<div style=""font-size:60px;"">+</div>","","null","fixation","2021-08-10 17:08:37.027","","","","",""
"","mars-trial","44","189600","0.0-10.0-1.15","311","""event"",""trial"",""time""
""fullscreenenter"",""0"",""62690""
","
","
","""event"",""trial"",""time""
""fullscreenenter"",""0"",""62690""
","
","2926.5","<img style='border: 4px solid darkgrey;' src='img/tf1_16_M_ss3.jpeg'></img>","3","","exp","","0","<img src='img/tf1_16_T1_ss3_md.jpeg'></img>","0","true",""
"","html-keyboard-response","45","190107","0.0-10.0-0.16","311","""event"",""trial"",""time""
""fullscreenenter"",""0"",""62690""
","
","
","""event"",""trial"",""time""
""fullscreenenter"",""0"",""62690""
","
","null","<div style=""font-size:60px;"">+</div>","","null","fixation","2021-08-10 17:08:41.075","","","","",""
"","mars-trial","46","198064","0.0-10.0-1.16","311","""event"",""trial"",""time""
""fullscreenenter"",""0"",""62690""
","
","
","""event"",""trial"",""time""
""fullscreenenter"",""0"",""62690""
","
","7347.700000047684","<img style='border: 4px solid darkgrey;' src='img/tf1_17_M_ss1.jpeg'></img>","2","","exp","","3","<img src='img/tf1_17_T1_ss1_md.jpeg'></img>","0","false",""
"","html-keyboard-response","47","198570","0.0-10.0-0.17","311","""event"",""trial"",""time""
""fullscreenenter"",""0"",""62690""
","
","
","""event"",""trial"",""time""
""fullscreenenter"",""0"",""62690""
","
","null","<div style=""font-size:60px;"">+</div>","","null","fixation","2021-08-10 17:08:49.538","","","","",""
"","mars-trial","48","200688","0.0-10.0-1.17","311","""event"",""trial"",""time""
""fullscreenenter"",""0"",""62690""
","
","
","""event"",""trial"",""time""
""fullscreenenter"",""0"",""62690""
","
","1504.8999999761581","<img style='border: 4px solid darkgrey;' src='img/tf1_18_M_ss2.jpeg'></img>","1","","exp","","3","<img src='img/tf1_18_T1_ss2_md.jpeg'></img>","0","false",""
"","html-keyboard-response","49","201194","0.0-10.0-0.18","311","""event"",""trial"",""time""
""fullscreenenter"",""0"",""62690""
","
","
","""event"",""trial"",""time""
""fullscreenenter"",""0"",""62690""
","
","null","<div style=""font-size:60px;"">+</div>","","null","fixation","2021-08-10 17:08:52.162","","","","",""
"","mars-trial","50","210869","0.0-10.0-1.18","311","""event"",""trial"",""time""
""fullscreenenter"",""0"",""62690""
","
","
","""event"",""trial"",""time""
""fullscreenenter"",""0"",""62690""
","
","9060.5","<img style='border: 4px solid darkgrey;' src='img/tf1_19_M_ss3.jpeg'></img>","1","","exp","","3","<img src='img/tf1_19_T1_ss3_md.jpeg'></img>","0","false",""
"","html-keyboard-response","51","211375","0.0-10.0-0.19","311","""event"",""trial"",""time""
""fullscreenenter"",""0"",""62690""
","
","
","""event"",""trial"",""time""
""fullscreenenter"",""0"",""62690""
","
","null","<div style=""font-size:60px;"">+</div>","","null","fixation","2021-08-10 17:09:02.344","","","","",""
"","mars-trial","52","215835","0.0-10.0-1.19","311","""event"",""trial"",""time""
""fullscreenenter"",""0"",""62690""
","
","
","""event"",""trial"",""time""
""fullscreenenter"",""0"",""62690""
","
","3850.7000000476837","<img style='border: 4px solid darkgrey;' src='img/tf1_20_M_ss1.jpeg'></img>","2","","exp","","0","<img src='img/tf1_20_T1_ss1_md.jpeg'></img>","0","true",""
"","html-keyboard-response","53","216340","0.0-10.0-0.20","311","""event"",""trial"",""time""
""fullscreenenter"",""0"",""62690""
","
","
","""event"",""trial"",""time""
""fullscreenenter"",""0"",""62690""
","
","null","<div style=""font-size:60px;"">+</div>","","null","fixation","2021-08-10 17:09:07.308","","","","",""
"","mars-trial","54","219812","0.0-10.0-1.20","311","""event"",""trial"",""time""
""fullscreenenter"",""0"",""62690""
","
","
","""event"",""trial"",""time""
""fullscreenenter"",""0"",""62690""
","
","2860.5999999046326","<img style='border: 4px solid darkgrey;' src='img/tf1_21_M_ss2.jpeg'></img>","1","","exp","","2","<img src='img/tf1_21_T1_ss2_md.jpeg'></img>","0","false",""
"","html-keyboard-response","55","220319","0.0-10.0-0.21","311","""event"",""trial"",""time""
""fullscreenenter"",""0"",""62690""
","
","
","""event"",""trial"",""time""
""fullscreenenter"",""0"",""62690""
","
","null","<div style=""font-size:60px;"">+</div>","","null","fixation","2021-08-10 17:09:11.287","","","","",""
"","mars-trial","56","226708","0.0-10.0-1.21","311","""event"",""trial"",""time""
""fullscreenenter"",""0"",""62690""
","
","
","""event"",""trial"",""time""
""fullscreenenter"",""0"",""62690""
","
","5776.399999976158","<img style='border: 4px solid darkgrey;' src='img/tf1_22_M_ss3.jpeg'></img>","1","","exp","","0","<img src='img/tf1_22_T1_ss3_md.jpeg'></img>","0","true",""
"","html-keyboard-response","57","227215","0.0-10.0-0.22","311","""event"",""trial"",""time""
""fullscreenenter"",""0"",""62690""
","
","
","""event"",""trial"",""time""
""fullscreenenter"",""0"",""62690""
","
","null","<div style=""font-size:60px;"">+</div>","","null","fixation","2021-08-10 17:09:18.183","","","","",""
"","mars-trial","58","231828","0.0-10.0-1.22","311","""event"",""trial"",""time""
""fullscreenenter"",""0"",""62690""
","
","
","""event"",""trial"",""time""
""fullscreenenter"",""0"",""62690""
","
","3998.3000000715256","<img style='border: 4px solid darkgrey;' src='img/tf1_23_M_ss1.jpeg'></img>","0","","exp","","0","<img src='img/tf1_23_T1_ss1_md.jpeg'></img>","0","true",""
"","html-keyboard-response","59","232334","0.0-10.0-0.23","311","""event"",""trial"",""time""
""fullscreenenter"",""0"",""62690""
","
","
","""event"",""trial"",""time""
""fullscreenenter"",""0"",""62690""
","
","null","<div style=""font-size:60px;"">+</div>","","null","fixation","2021-08-10 17:09:23.303","","","","",""
"","mars-trial","60","235471","0.0-10.0-1.23","311","""event"",""trial"",""time""
""fullscreenenter"",""0"",""62690""
","
","
","""event"",""trial"",""time""
""fullscreenenter"",""0"",""62690""
","
","2524.7999999523163","<img style='border: 4px solid darkgrey;' src='img/tf1_24_M_ss2.jpeg'></img>","3","","exp","","1","<img src='img/tf1_24_T1_ss2_md.jpeg'></img>","0","false",""
"","html-keyboard-response","61","235977","0.0-10.0-0.24","311","""event"",""trial"",""time""
""fullscreenenter"",""0"",""62690""
","
","
","""event"",""trial"",""time""
""fullscreenenter"",""0"",""62690""
","
","null","<div style=""font-size:60px;"">+</div>","","null","fixation","2021-08-10 17:09:26.945","","","","",""
"","mars-trial","62","240187","0.0-10.0-1.24","311","""event"",""trial"",""time""
""fullscreenenter"",""0"",""62690""
","
","
","""event"",""trial"",""time""
""fullscreenenter"",""0"",""62690""
","
","3598","<img style='border: 4px solid darkgrey;' src='img/tf1_25_M_ss3.jpeg'></img>","1","","exp","","0","<img src='img/tf1_25_T1_ss3_md.jpeg'></img>","0","true",""
"","html-keyboard-response","63","240693","0.0-10.0-0.25","311","""event"",""trial"",""time""
""fullscreenenter"",""0"",""62690""
","
","
","""event"",""trial"",""time""
""fullscreenenter"",""0"",""62690""
","
","null","<div style=""font-size:60px;"">+</div>","","null","fixation","2021-08-10 17:09:31.661","","","","",""
"","mars-trial","64","249980","0.0-10.0-1.25","311","""event"",""trial"",""time""
""fullscreenenter"",""0"",""62690""
","
","
","""event"",""trial"",""time""
""fullscreenenter"",""0"",""62690""
","
","8673.100000023842","<img style='border: 4px solid darkgrey;' src='img/tf1_26_M_ss1.jpeg'></img>","2","","exp","","1","<img src='img/tf1_26_T1_ss1_md.jpeg'></img>","0","false",""
"","html-keyboard-response","65","250483","0.0-10.0-0.26","311","""event"",""trial"",""time""
""fullscreenenter"",""0"",""62690""
","
","
","""event"",""trial"",""time""
""fullscreenenter"",""0"",""62690""
","
","null","<div style=""font-size:60px;"">+</div>","","null","fixation","2021-08-10 17:09:41.451","","","","",""
"","mars-trial","66","252483","0.0-10.0-1.26","311","""event"",""trial"",""time""
""fullscreenenter"",""0"",""62690""
","
","
","""event"",""trial"",""time""
""fullscreenenter"",""0"",""62690""
","
","1381.6000000238419","<img style='border: 4px solid darkgrey;' src='img/tf1_27_M_ss2.jpeg'></img>","0","","exp","","0","<img src='img/tf1_27_T1_ss2_md.jpeg'></img>","0","true",""
"","html-keyboard-response","67","252985","0.0-10.0-0.27","311","""event"",""trial"",""time""
""fullscreenenter"",""0"",""62690""
","
","
","""event"",""trial"",""time""
""fullscreenenter"",""0"",""62690""
","
","null","<div style=""font-size:60px;"">+</div>","","null","fixation","2021-08-10 17:09:43.953","","","","",""
"","mars-trial","68","254729","0.0-10.0-1.27","311","""event"",""trial"",""time""
""fullscreenenter"",""0"",""62690""
","
","
","""event"",""trial"",""time""
""fullscreenenter"",""0"",""62690""
","
","1132.3999999761581","<img style='border: 4px solid darkgrey;' src='img/tf1_28_M_ss3.jpeg'></img>","2","","exp","","2","<img src='img/tf1_28_T1_ss3_md.jpeg'></img>","0","false",""
"","html-keyboard-response","69","255235","0.0-10.0-0.28","311","""event"",""trial"",""time""
""fullscreenenter"",""0"",""62690""
","
","
","""event"",""trial"",""time""
""fullscreenenter"",""0"",""62690""
","
","null","<div style=""font-size:60px;"">+</div>","","null","fixation","2021-08-10 17:09:46.203","","","","",""
"","mars-trial","70","261219","0.0-10.0-1.28","311","""event"",""trial"",""time""
""fullscreenenter"",""0"",""62690""
","
","
","""event"",""trial"",""time""
""fullscreenenter"",""0"",""62690""
","
","5370.899999976158","<img style='border: 4px solid darkgrey;' src='img/tf1_29_M_ss1.jpeg'></img>","2","","exp","","1","<img src='img/tf1_29_T1_ss1_md.jpeg'></img>","0","false",""
"","html-keyboard-response","71","261726","0.0-10.0-0.29","311","""event"",""trial"",""time""
""fullscreenenter"",""0"",""62690""
","
","
","""event"",""trial"",""time""
""fullscreenenter"",""0"",""62690""
","
","null","<div style=""font-size:60px;"">+</div>","","null","fixation","2021-08-10 17:09:52.694","","","","",""
"","mars-trial","72","268554","0.0-10.0-1.29","311","""event"",""trial"",""time""
""fullscreenenter"",""0"",""62690""
","
","
","""event"",""trial"",""time""
""fullscreenenter"",""0"",""62690""
","
","6218.300000071526","<img style='border: 4px solid darkgrey;' src='img/tf1_30_M_ss2.jpeg'></img>","1","","exp","","0","<img src='img/tf1_30_T1_ss2_md.jpeg'></img>","0","true",""
"","html-keyboard-response","73","269059","0.0-10.0-0.30","311","""event"",""trial"",""time""
""fullscreenenter"",""0"",""62690""
","
","
","""event"",""trial"",""time""
""fullscreenenter"",""0"",""62690""
","
","null","<div style=""font-size:60px;"">+</div>","","null","fixation","2021-08-10 17:10:00.027","","","","",""
"","mars-trial","74","271187","0.0-10.0-1.30","311","""event"",""trial"",""time""
""fullscreenenter"",""0"",""62690""
","
","
","""event"",""trial"",""time""
""fullscreenenter"",""0"",""62690""
","
","1519.1999999284744","<img style='border: 4px solid darkgrey;' src='img/tf1_31_M_ss3.jpeg'></img>","3","","exp","","3","<img src='img/tf1_31_T1_ss3_md.jpeg'></img>","0","false",""
"","html-keyboard-response","75","271693","0.0-10.0-0.31","311","""event"",""trial"",""time""
""fullscreenenter"",""0"",""62690""
","
","
","""event"",""trial"",""time""
""fullscreenenter"",""0"",""62690""
","
","null","<div style=""font-size:60px;"">+</div>","","null","fixation","2021-08-10 17:10:02.661","","","","",""
"","mars-trial","76","280544","0.0-10.0-1.31","311","""event"",""trial"",""time""
""fullscreenenter"",""0"",""62690""
","
","
","""event"",""trial"",""time""
""fullscreenenter"",""0"",""62690""
","
","8233.899999976158","<img style='border: 4px solid darkgrey;' src='img/tf1_32_M_ss1.jpeg'></img>","2","","exp","","0","<img src='img/tf1_32_T1_ss1_md.jpeg'></img>","0","true",""
"","html-keyboard-response","77","281051","0.0-10.0-0.32","311","""event"",""trial"",""time""
""fullscreenenter"",""0"",""62690""
","
","
","""event"",""trial"",""time""
""fullscreenenter"",""0"",""62690""
","
","null","<div style=""font-size:60px;"">+</div>","","null","fixation","2021-08-10 17:10:12.019","","","","",""
"","mars-trial","78","288077","0.0-10.0-1.32","311","""event"",""trial"",""time""
""fullscreenenter"",""0"",""62690""
","
","
","""event"",""trial"",""time""
""fullscreenenter"",""0"",""62690""
","
","6416","<img style='border: 4px solid darkgrey;' src='img/tf1_33_M_ss2.jpeg'></img>","3","","exp","","0","<img src='img/tf1_33_T1_ss2_md.jpeg'></img>","0","true",""
"","html-keyboard-response","79","288583","0.0-10.0-0.33","311","""event"",""trial"",""time""
""fullscreenenter"",""0"",""62690""
","
","
","""event"",""trial"",""time""
""fullscreenenter"",""0"",""62690""
","
","null","<div style=""font-size:60px;"">+</div>","","null","fixation","2021-08-10 17:10:19.552","","","","",""
"","mars-trial","80","298722","0.0-10.0-1.33","311","""event"",""trial"",""time""
""fullscreenenter"",""0"",""62690""
","
","
","""event"",""trial"",""time""
""fullscreenenter"",""0"",""62690""
","
","9527.199999928474","<img style='border: 4px solid darkgrey;' src='img/tf1_34_M_ss3.jpeg'></img>","1","","exp","","3","<img src='img/tf1_34_T1_ss3_md.jpeg'></img>","0","false",""
"","html-keyboard-response","81","299224","0.0-10.0-0.34","311","""event"",""trial"",""time""
""fullscreenenter"",""0"",""62690""
","
","
","""event"",""trial"",""time""
""fullscreenenter"",""0"",""62690""
","
","null","<div style=""font-size:60px;"">+</div>","","null","fixation","2021-08-10 17:10:30.192","","","","",""
"","mars-trial","82","301066","0.0-10.0-1.34","311","""event"",""trial"",""time""
""fullscreenenter"",""0"",""62690""
","
","
","""event"",""trial"",""time""
""fullscreenenter"",""0"",""62690""
","
","1231.1000000238419","<img style='border: 4px solid darkgrey;' src='img/tf1_35_M_ss1.jpeg'></img>","3","","exp","","0","<img src='img/tf1_35_T1_ss1_md.jpeg'></img>","0","true",""
"","html-keyboard-response","83","301569","0.0-10.0-0.35","311","""event"",""trial"",""time""
""fullscreenenter"",""0"",""62690""
","
","
","""event"",""trial"",""time""
""fullscreenenter"",""0"",""62690""
","
","null","<div style=""font-size:60px;"">+</div>","","null","fixation","2021-08-10 17:10:32.537","","","","",""
"","mars-trial","84","303442","0.0-10.0-1.35","311","""event"",""trial"",""time""
""fullscreenenter"",""0"",""62690""
","
","
","""event"",""trial"",""time""
""fullscreenenter"",""0"",""62690""
","
","1263","<img style='border: 4px solid darkgrey;' src='img/tf1_36_M_ss2.jpeg'></img>","2","","exp","","2","<img src='img/tf1_36_T1_ss2_md.jpeg'></img>","0","false",""
"","html-keyboard-response","85","303948","0.0-10.0-0.36","311","""event"",""trial"",""time""
""fullscreenenter"",""0"",""62690""
","
","
","""event"",""trial"",""time""
""fullscreenenter"",""0"",""62690""
","
","null","<div style=""font-size:60px;"">+</div>","","null","fixation","2021-08-10 17:10:34.916","","","","",""
"","mars-trial","86","307497","0.0-10.0-1.36","311","""event"",""trial"",""time""
""fullscreenenter"",""0"",""62690""
","
","
","""event"",""trial"",""time""
""fullscreenenter"",""0"",""62690""
","
","2940.8000000715256","<img style='border: 4px solid darkgrey;' src='img/tf1_37_M_ss3.jpeg'></img>","1","","exp","","2","<img src='img/tf1_37_T1_ss3_md.jpeg'></img>","0","false",""
"","html-keyboard-response","87","308002","0.0-10.0-0.37","311","""event"",""trial"",""time""
""fullscreenenter"",""0"",""62690""
","
","
","""event"",""trial"",""time""
""fullscreenenter"",""0"",""62690""
","
","null","<div style=""font-size:60px;"">+</div>","","null","fixation","2021-08-10 17:10:38.970","","","","",""
"","mars-trial","88","311074","0.0-10.0-1.37","311","""event"",""trial"",""time""
""fullscreenenter"",""0"",""62690""
","
","
","""event"",""trial"",""time""
""fullscreenenter"",""0"",""62690""
","
","2456.2999999523163","<img style='border: 4px solid darkgrey;' src='img/tf1_38_M_ss1.jpeg'></img>","1","","exp","","0","<img src='img/tf1_38_T1_ss1_md.jpeg'></img>","0","true",""
"","html-keyboard-response","89","311580","0.0-10.0-0.38","311","""event"",""trial"",""time""
""fullscreenenter"",""0"",""62690""
","
","
","""event"",""trial"",""time""
""fullscreenenter"",""0"",""62690""
","
","null","<div style=""font-size:60px;"">+</div>","","null","fixation","2021-08-10 17:10:42.548","","","","",""
"","mars-trial","90","317425","0.0-10.0-1.38","311","""event"",""trial"",""time""
""fullscreenenter"",""0"",""62690""
","
","
","""event"",""trial"",""time""
""fullscreenenter"",""0"",""62690""
","
","5232.5","<img style='border: 4px solid darkgrey;' src='img/tf1_39_M_ss2.jpeg'></img>","1","","exp","","1","<img src='img/tf1_39_T1_ss2_md.jpeg'></img>","0","false",""
"","html-keyboard-response","91","317932","0.0-10.0-0.39","311","""event"",""trial"",""time""
""fullscreenenter"",""0"",""62690""
","
","
","""event"",""trial"",""time""
""fullscreenenter"",""0"",""62690""
","
","null","<div style=""font-size:60px;"">+</div>","","null","fixation","2021-08-10 17:10:48.900","","","","",""
"","mars-trial","92","325756","0.0-10.0-1.39","311","""event"",""trial"",""time""
""fullscreenenter"",""0"",""62690""
","
","
","""event"",""trial"",""time""
""fullscreenenter"",""0"",""62690""
","
","7210.899999976158","<img style='border: 4px solid darkgrey;' src='img/tf1_40_M_ss3.jpeg'></img>","0","","exp","","2","<img src='img/tf1_40_T1_ss3_md.jpeg'></img>","0","false",""
"","html-keyboard-response","93","326262","0.0-10.0-0.40","311","""event"",""trial"",""time""
""fullscreenenter"",""0"",""62690""
","
","
","""event"",""trial"",""time""
""fullscreenenter"",""0"",""62690""
","
","null","<div style=""font-size:60px;"">+</div>","","null","fixation","2021-08-10 17:10:57.230","","","","",""
"","mars-trial","94","329487","0.0-10.0-1.40","311","""event"",""trial"",""time""
""fullscreenenter"",""0"",""62690""
","
","
","""event"",""trial"",""time""
""fullscreenenter"",""0"",""62690""
","
","2611.2000000476837","<img style='border: 4px solid darkgrey;' src='img/tf1_41_M_ss1.jpeg'></img>","3","","exp","","0","<img src='img/tf1_41_T1_ss1_md.jpeg'></img>","0","true",""
"","html-keyboard-response","95","329993","0.0-10.0-0.41","311","""event"",""trial"",""time""
""fullscreenenter"",""0"",""62690""
","
","
","""event"",""trial"",""time""
""fullscreenenter"",""0"",""62690""
","
","null","<div style=""font-size:60px;"">+</div>","","null","fixation","2021-08-10 17:11:00.961","","","","",""
"","mars-trial","96","337062","0.0-10.0-1.41","311","""event"",""trial"",""time""
""fullscreenenter"",""0"",""62690""
","
","
","""event"",""trial"",""time""
""fullscreenenter"",""0"",""62690""
","
","6459.300000071526","<img style='border: 4px solid darkgrey;' src='img/tf1_42_M_ss2.jpeg'></img>","1","","exp","","0","<img src='img/tf1_42_T1_ss2_md.jpeg'></img>","0","true",""
"","html-keyboard-response","97","337569","0.0-10.0-0.42","311","""event"",""trial"",""time""
""fullscreenenter"",""0"",""62690""
","
","
","""event"",""trial"",""time""
""fullscreenenter"",""0"",""62690""
","
","null","<div style=""font-size:60px;"">+</div>","","null","fixation","2021-08-10 17:11:08.537","","","","",""
"","mars-trial","98","339607","0.0-10.0-1.42","311","""event"",""trial"",""time""
""fullscreenenter"",""0"",""62690""
","
","
","""event"",""trial"",""time""
""fullscreenenter"",""0"",""62690""
","
","1422.8999999761581","<img style='border: 4px solid darkgrey;' src='img/tf1_43_M_ss3.jpeg'></img>","2","","exp","","1","<img src='img/tf1_43_T1_ss3_md.jpeg'></img>","0","false",""
"","html-keyboard-response","99","340114","0.0-10.0-0.43","311","""event"",""trial"",""time""
""fullscreenenter"",""0"",""62690""
","
","
","""event"",""trial"",""time""
""fullscreenenter"",""0"",""62690""
","
","null","<div style=""font-size:60px;"">+</div>","","null","fixation","2021-08-10 17:11:11.082","","","","",""
"","mars-trial","100","349958","0.0-10.0-1.43","311","""event"",""trial"",""time""
""fullscreenenter"",""0"",""62690""
","
","
","""event"",""trial"",""time""
""fullscreenenter"",""0"",""62690""
","
","9228.699999928474","<img style='border: 4px solid darkgrey;' src='img/tf1_44_M_ss1.jpeg'></img>","1","","exp","","0","<img src='img/tf1_44_T1_ss1_md.jpeg'></img>","0","true",""
"","html-keyboard-response","101","350464","0.0-10.0-0.44","311","""event"",""trial"",""time""
""fullscreenenter"",""0"",""62690""
","
","
","""event"",""trial"",""time""
""fullscreenenter"",""0"",""62690""
","
","null","<div style=""font-size:60px;"">+</div>","","null","fixation","2021-08-10 17:11:21.432","","","","",""
"","mars-trial","102","357169","0.0-10.0-1.44","311","""event"",""trial"",""time""
""fullscreenenter"",""0"",""62690""
","
","
","""event"",""trial"",""time""
""fullscreenenter"",""0"",""62690""
","
","6094.199999928474","<img style='border: 4px solid darkgrey;' src='img/tf1_45_M_ss2.jpeg'></img>","1","","exp","","0","<img src='img/tf1_45_T1_ss2_md.jpeg'></img>","0","true",""
"","html-keyboard-response","103","357675","0.0-10.0-0.45","311","""event"",""trial"",""time""
""fullscreenenter"",""0"",""62690""
","
","
","""event"",""trial"",""time""
""fullscreenenter"",""0"",""62690""
","
","null","<div style=""font-size:60px;"">+</div>","","null","fixation","2021-08-10 17:11:28.643","","","","",""
"","mars-trial","104","367520","0.0-10.0-1.45","311","""event"",""trial"",""time""
""fullscreenenter"",""0"",""62690""
","
","
","""event"",""trial"",""time""
""fullscreenenter"",""0"",""62690""
","
","9229","<img style='border: 4px solid darkgrey;' src='img/tf1_46_M_ss3.jpeg'></img>","3","","exp","","2","<img src='img/tf1_46_T1_ss3_md.jpeg'></img>","0","false",""
"","html-keyboard-response","105","368027","0.0-10.0-0.46","311","""event"",""trial"",""time""
""fullscreenenter"",""0"",""62690""
","
","
","""event"",""trial"",""time""
""fullscreenenter"",""0"",""62690""
","
","null","<div style=""font-size:60px;"">+</div>","","null","fixation","2021-08-10 17:11:38.995","","","","",""
"","mars-trial","106","370448","0.0-10.0-1.46","311","""event"",""trial"",""time""
""fullscreenenter"",""0"",""62690""
","
","
","""event"",""trial"",""time""
""fullscreenenter"",""0"",""62690""
","
","1811.2000000476837","<img style='border: 4px solid darkgrey;' src='img/tf1_47_M_ss1.jpeg'></img>","1","","exp","","0","<img src='img/tf1_47_T1_ss1_md.jpeg'></img>","0","true",""
"","html-keyboard-response","107","370954","0.0-10.0-0.47","311","""event"",""trial"",""time""
""fullscreenenter"",""0"",""62690""
","
","
","""event"",""trial"",""time""
""fullscreenenter"",""0"",""62690""
","
","null","<div style=""font-size:60px;"">+</div>","","null","fixation","2021-08-10 17:11:41.922","","","","",""
"","mars-trial","108","372757","0.0-10.0-1.47","311","""event"",""trial"",""time""
""fullscreenenter"",""0"",""62690""
","
","
","""event"",""trial"",""time""
""fullscreenenter"",""0"",""62690""
","
","1188.8999999761581","<img style='border: 4px solid darkgrey;' src='img/tf1_48_M_ss2.jpeg'></img>","0","","exp","","0","<img src='img/tf1_48_T1_ss2_md.jpeg'></img>","0","true",""
"","html-keyboard-response","109","373261","0.0-10.0-0.48","311","""event"",""trial"",""time""
""fullscreenenter"",""0"",""62690""
","
","
","""event"",""trial"",""time""
""fullscreenenter"",""0"",""62690""
","
","null","<div style=""font-size:60px;"">+</div>","","null","fixation","2021-08-10 17:11:44.229","","","","",""
"","mars-trial","110","377338","0.0-10.0-1.48","311","""event"",""trial"",""time""
""fullscreenenter"",""0"",""62690""
","
","
","""event"",""trial"",""time""
""fullscreenenter"",""0"",""62690""
","
","3465.5","<img style='border: 4px solid darkgrey;' src='img/tf1_49_M_ss3.jpeg'></img>","0","","exp","","2","<img src='img/tf1_49_T1_ss3_md.jpeg'></img>","0","false",""
"","html-keyboard-response","111","377845","0.0-10.0-0.49","311","""event"",""trial"",""time""
""fullscreenenter"",""0"",""62690""
","
","
","""event"",""trial"",""time""
""fullscreenenter"",""0"",""62690""
","
","null","<div style=""font-size:60px;"">+</div>","","null","fixation","2021-08-10 17:11:48.813","","","","",""
"","mars-trial","112","382230","0.0-10.0-1.49","311","""event"",""trial"",""time""
""fullscreenenter"",""0"",""62690""
","
","
","""event"",""trial"",""time""
""fullscreenenter"",""0"",""62690""
","
","3770","<img style='border: 4px solid darkgrey;' src='img/tf1_50_M_ss1.jpeg'></img>","2","","exp","","0","<img src='img/tf1_50_T1_ss1_md.jpeg'></img>","0","true",""
"","html-keyboard-response","113","382735","0.0-10.0-0.50","311","""event"",""trial"",""time""
""fullscreenenter"",""0"",""62690""
","
","
","""event"",""trial"",""time""
""fullscreenenter"",""0"",""62690""
","
","null","<div style=""font-size:60px;"">+</div>","","null","fixation","2021-08-10 17:11:53.703","","","","",""
"","mars-trial","114","386181","0.0-10.0-1.50","311","""event"",""trial"",""time""
""fullscreenenter"",""0"",""62690""
","
","
","""event"",""trial"",""time""
""fullscreenenter"",""0"",""62690""
","
","2834","<img style='border: 4px solid darkgrey;' src='img/tf1_51_M_ss2.jpeg'></img>","1","","exp","","1","<img src='img/tf1_51_T1_ss2_md.jpeg'></img>","0","false",""
"","html-keyboard-response","115","386687","0.0-10.0-0.51","311","""event"",""trial"",""time""
""fullscreenenter"",""0"",""62690""
","
","
","""event"",""trial"",""time""
""fullscreenenter"",""0"",""62690""
","
","null","<div style=""font-size:60px;"">+</div>","","null","fixation","2021-08-10 17:11:57.655","","","","",""
"","mars-trial","116","392874","0.0-10.0-1.51","311","""event"",""trial"",""time""
""fullscreenenter"",""0"",""62690""
","
","
","""event"",""trial"",""time""
""fullscreenenter"",""0"",""62690""
","
","5573.800000071526","<img style='border: 4px solid darkgrey;' src='img/tf1_52_M_ss3.jpeg'></img>","2","","exp","","3","<img src='img/tf1_52_T1_ss3_md.jpeg'></img>","0","false",""
"","html-keyboard-response","117","393381","0.0-10.0-0.52","311","""event"",""trial"",""time""
""fullscreenenter"",""0"",""62690""
","
","
","""event"",""trial"",""time""
""fullscreenenter"",""0"",""62690""
","
","null","<div style=""font-size:60px;"">+</div>","","null","fixation","2021-08-10 17:12:04.349","","","","",""
"","mars-trial","118","395130","0.0-10.0-1.52","311","""event"",""trial"",""time""
""fullscreenenter"",""0"",""62690""
","
","
","""event"",""trial"",""time""
""fullscreenenter"",""0"",""62690""
","
","1136.1000000238419","<img style='border: 4px solid darkgrey;' src='img/tf1_53_M_ss1.jpeg'></img>","0","","exp","","2","<img src='img/tf1_53_T1_ss1_md.jpeg'></img>","0","false",""
"","html-keyboard-response","119","395636","0.0-10.0-0.53","311","""event"",""trial"",""time""
""fullscreenenter"",""0"",""62690""
","
","
","""event"",""trial"",""time""
""fullscreenenter"",""0"",""62690""
","
","null","<div style=""font-size:60px;"">+</div>","","null","fixation","2021-08-10 17:12:06.604","","","","",""
"","mars-trial","120","398177","0.0-10.0-1.53","311","""event"",""trial"",""time""
""fullscreenenter"",""0"",""62690""
","
","
","""event"",""trial"",""time""
""fullscreenenter"",""0"",""62690""
","
","1924.2000000476837","<img style='border: 4px solid darkgrey;' src='img/tf1_54_M_ss2.jpeg'></img>","1","","exp","","2","<img src='img/tf1_54_T1_ss2_md.jpeg'></img>","0","false",""
"","html-keyboard-response","121","398683","0.0-10.0-0.54","311","""event"",""trial"",""time""
""fullscreenenter"",""0"",""62690""
","
","
","""event"",""trial"",""time""
""fullscreenenter"",""0"",""62690""
","
","null","<div style=""font-size:60px;"">+</div>","","null","fixation","2021-08-10 17:12:09.651","","","","",""
"","mars-trial","122","402107","0.0-10.0-1.54","311","""event"",""trial"",""time""
""fullscreenenter"",""0"",""62690""
","
","
","""event"",""trial"",""time""
""fullscreenenter"",""0"",""62690""
","
","2809.2999999523163","<img style='border: 4px solid darkgrey;' src='img/tf1_55_M_ss3.jpeg'></img>","1","","exp","","3","<img src='img/tf1_55_T1_ss3_md.jpeg'></img>","0","false",""
"","html-keyboard-response","123","402612","0.0-10.0-0.55","311","""event"",""trial"",""time""
""fullscreenenter"",""0"",""62690""
","
","
","""event"",""trial"",""time""
""fullscreenenter"",""0"",""62690""
","
","null","<div style=""font-size:60px;"">+</div>","","null","fixation","2021-08-10 17:12:13.580","","","","",""
"","mars-trial","124","407034","0.0-10.0-1.55","311","""event"",""trial"",""time""
""fullscreenenter"",""0"",""62690""
","
","
","""event"",""trial"",""time""
""fullscreenenter"",""0"",""62690""
","
","3808","<img style='border: 4px solid darkgrey;' src='img/tf1_56_M_ss1.jpeg'></img>","2","","exp","","0","<img src='img/tf1_56_T1_ss1_md.jpeg'></img>","0","true",""
"","html-keyboard-response","125","407540","0.0-10.0-0.56","311","""event"",""trial"",""time""
""fullscreenenter"",""0"",""62690""
","
","
","""event"",""trial"",""time""
""fullscreenenter"",""0"",""62690""
","
","null","<div style=""font-size:60px;"">+</div>","","null","fixation","2021-08-10 17:12:18.509","","","","",""
"","mars-trial","126","419658","0.0-10.0-1.56","311","""event"",""trial"",""time""
""fullscreenenter"",""0"",""62690""
","
","
","""event"",""trial"",""time""
""fullscreenenter"",""0"",""62690""
","
","11502.299999952316","<img style='border: 4px solid darkgrey;' src='img/tf1_57_M_ss2.jpeg'></img>","2","","exp","","0","<img src='img/tf1_57_T1_ss2_md.jpeg'></img>","0","true",""
"","html-keyboard-response","127","420163","0.0-10.0-0.57","311","""event"",""trial"",""time""
""fullscreenenter"",""0"",""62690""
","
","
","""event"",""trial"",""time""
""fullscreenenter"",""0"",""62690""
","
","null","<div style=""font-size:60px;"">+</div>","","null","fixation","2021-08-10 17:12:31.131","","","","",""
"","mars-trial","128","424869","0.0-10.0-1.57","311","""event"",""trial"",""time""
""fullscreenenter"",""0"",""62690""
","
","
","""event"",""trial"",""time""
""fullscreenenter"",""0"",""62690""
","
","4094.7999999523163","<img style='border: 4px solid darkgrey;' src='img/tf1_58_M_ss3.jpeg'></img>","1","","exp","","0","<img src='img/tf1_58_T1_ss3_md.jpeg'></img>","0","true",""
"","html-keyboard-response","129","425374","0.0-10.0-0.58","311","""event"",""trial"",""time""
""fullscreenenter"",""0"",""62690""
","
","
","""event"",""trial"",""time""
""fullscreenenter"",""0"",""62690""
","
","null","<div style=""font-size:60px;"">+</div>","","null","fixation","2021-08-10 17:12:36.342","","","","",""
"","mars-trial","130","431913","0.0-10.0-1.58","311","""event"",""trial"",""time""
""fullscreenenter"",""0"",""62690""
","
","
","""event"",""trial"",""time""
""fullscreenenter"",""0"",""62690""
","
","5923.600000023842","<img style='border: 4px solid darkgrey;' src='img/tf1_59_M_ss1.jpeg'></img>","1","","exp","","3","<img src='img/tf1_59_T1_ss1_md.jpeg'></img>","0","false",""
"","html-keyboard-response","131","432419","0.0-10.0-0.59","311","""event"",""trial"",""time""
""fullscreenenter"",""0"",""62690""
","
","
","""event"",""trial"",""time""
""fullscreenenter"",""0"",""62690""
","
","null","<div style=""font-size:60px;"">+</div>","","null","fixation","2021-08-10 17:12:43.387","","","","",""
"","mars-trial","132","440152","0.0-10.0-1.59","311","""event"",""trial"",""time""
""fullscreenenter"",""0"",""62690""
","
","
","""event"",""trial"",""time""
""fullscreenenter"",""0"",""62690""
","
","7121.299999952316","<img style='border: 4px solid darkgrey;' src='img/tf1_60_M_ss2.jpeg'></img>","1","","exp","","0","<img src='img/tf1_60_T1_ss2_md.jpeg'></img>","0","true",""
"","html-keyboard-response","133","440656","0.0-10.0-0.60","311","""event"",""trial"",""time""
""fullscreenenter"",""0"",""62690""
","
","
","""event"",""trial"",""time""
""fullscreenenter"",""0"",""62690""
","
","null","<div style=""font-size:60px;"">+</div>","","null","fixation","2021-08-10 17:12:51.624","","","","",""
"","mars-trial","134","442618","0.0-10.0-1.60","311","""event"",""trial"",""time""
""fullscreenenter"",""0"",""62690""
","
","
","""event"",""trial"",""time""
""fullscreenenter"",""0"",""62690""
","
","1348.2999999523163","<img style='border: 4px solid darkgrey;' src='img/tf1_61_M_ss3.jpeg'></img>","3","","exp","","0","<img src='img/tf1_61_T1_ss3_md.jpeg'></img>","0","true",""
"","html-keyboard-response","135","443122","0.0-10.0-0.61","311","""event"",""trial"",""time""
""fullscreenenter"",""0"",""62690""
","
","
","""event"",""trial"",""time""
""fullscreenenter"",""0"",""62690""
","
","null","<div style=""font-size:60px;"">+</div>","","null","fixation","2021-08-10 17:12:54.090","","","","",""
"","mars-trial","136","450946","0.0-10.0-1.61","311","""event"",""trial"",""time""
""fullscreenenter"",""0"",""62690""
","
","
","""event"",""trial"",""time""
""fullscreenenter"",""0"",""62690""
","
","7212.800000071526","<img style='border: 4px solid darkgrey;' src='img/tf1_62_M_ss1.jpeg'></img>","2","","exp","","3","<img src='img/tf1_62_T1_ss1_md.jpeg'></img>","0","false",""
"","html-keyboard-response","137","451452","0.0-10.0-0.62","311","""event"",""trial"",""time""
""fullscreenenter"",""0"",""62690""
","
","
","""event"",""trial"",""time""
""fullscreenenter"",""0"",""62690""
","
","null","<div style=""font-size:60px;"">+</div>","","null","fixation","2021-08-10 17:13:02.421","","","","",""
"","mars-trial","138","456568","0.0-10.0-1.62","311","""event"",""trial"",""time""
""fullscreenenter"",""0"",""62690""
","
","
","""event"",""trial"",""time""
""fullscreenenter"",""0"",""62690""
","
","4500.800000071526","<img style='border: 4px solid darkgrey;' src='img/tf1_63_M_ss2.jpeg'></img>","0","","exp","","0","<img src='img/tf1_63_T1_ss2_md.jpeg'></img>","0","true",""
"","html-keyboard-response","139","457070","0.0-10.0-0.63","311","""event"",""trial"",""time""
""fullscreenenter"",""0"",""62690""
","
","
","""event"",""trial"",""time""
""fullscreenenter"",""0"",""62690""
","
","null","<div style=""font-size:60px;"">+</div>","","null","fixation","2021-08-10 17:13:08.038","","","","",""
"","mars-trial","140","461828","0.0-10.0-1.63","311","""event"",""trial"",""time""
""fullscreenenter"",""0"",""62690""
","
","
","""event"",""trial"",""time""
""fullscreenenter"",""0"",""62690""
","
","4142","<img style='border: 4px solid darkgrey;' src='img/tf1_64_M_ss3.jpeg'></img>","1","","exp","","2","<img src='img/tf1_64_T1_ss3_md.jpeg'></img>","0","false",""
"","html-keyboard-response","141","462335","0.0-10.0-0.64","311","""event"",""trial"",""time""
""fullscreenenter"",""0"",""62690""
","
","
","""event"",""trial"",""time""
""fullscreenenter"",""0"",""62690""
","
","null","<div style=""font-size:60px;"">+</div>","","null","fixation","2021-08-10 17:13:13.303","","","","",""
"","mars-trial","142","467714","0.0-10.0-1.64","311","""event"",""trial"",""time""
""fullscreenenter"",""0"",""62690""
","
","
","""event"",""trial"",""time""
""fullscreenenter"",""0"",""62690""
","
","4763.5","<img style='border: 4px solid darkgrey;' src='img/tf1_65_M_ss1.jpeg'></img>","2","","exp","","0","<img src='img/tf1_65_T1_ss1_md.jpeg'></img>","0","true",""
"","html-keyboard-response","143","468220","0.0-10.0-0.65","311","""event"",""trial"",""time""
""fullscreenenter"",""0"",""62690""
","
","
","""event"",""trial"",""time""
""fullscreenenter"",""0"",""62690""
","
","null","<div style=""font-size:60px;"">+</div>","","null","fixation","2021-08-10 17:13:19.188","","","","",""
"","mars-trial","144","469975","0.0-10.0-1.65","311","""event"",""trial"",""time""
""fullscreenenter"",""0"",""62690""
","
","
","""event"",""trial"",""time""
""fullscreenenter"",""0"",""62690""
","
","1142.6000000238419","<img style='border: 4px solid darkgrey;' src='img/tf1_66_M_ss2.jpeg'></img>","0","","exp","","3","<img src='img/tf1_66_T1_ss2_md.jpeg'></img>","0","false",""
"","html-keyboard-response","145","470482","0.0-10.0-0.66","311","""event"",""trial"",""time""
""fullscreenenter"",""0"",""62690""
","
","
","""event"",""trial"",""time""
""fullscreenenter"",""0"",""62690""
","
","null","<div style=""font-size:60px;"">+</div>","","null","fixation","2021-08-10 17:13:21.450","","","","",""
"","mars-trial","146","472072","0.0-10.0-1.66","311","""event"",""trial"",""time""
""fullscreenenter"",""0"",""62690""
","
","
","""event"",""trial"",""time""
""fullscreenenter"",""0"",""62690""
","
","976.8000000715256","<img style='border: 4px solid darkgrey;' src='img/tf1_67_M_ss3.jpeg'></img>","3","","exp","","1","<img src='img/tf1_67_T1_ss3_md.jpeg'></img>","0","false",""
"","html-keyboard-response","147","472574","0.0-10.0-0.67","311","""event"",""trial"",""time""
""fullscreenenter"",""0"",""62690""
","
","
","""event"",""trial"",""time""
""fullscreenenter"",""0"",""62690""
","
","null","<div style=""font-size:60px;"">+</div>","","null","fixation","2021-08-10 17:13:23.542","","","","",""
"","mars-trial","148","474370","0.0-10.0-1.67","311","""event"",""trial"",""time""
""fullscreenenter"",""0"",""62690""
","
","
","""event"",""trial"",""time""
""fullscreenenter"",""0"",""62690""
","
","1183.1000000238419","<img style='border: 4px solid darkgrey;' src='img/tf1_68_M_ss1.jpeg'></img>","0","","exp","","0","<img src='img/tf1_68_T1_ss1_md.jpeg'></img>","0","true",""
"","html-keyboard-response","149","474877","0.0-10.0-0.68","311","""event"",""trial"",""time""
""fullscreenenter"",""0"",""62690""
","
","
","""event"",""trial"",""time""
""fullscreenenter"",""0"",""62690""
","
","null","<div style=""font-size:60px;"">+</div>","","null","fixation","2021-08-10 17:13:25.845","","","","",""
"","mars-trial","150","480460","0.0-10.0-1.68","311","""event"",""trial"",""time""
""fullscreenenter"",""0"",""62690""
","
","
","""event"",""trial"",""time""
""fullscreenenter"",""0"",""62690""
","
","4967.800000071526","<img style='border: 4px solid darkgrey;' src='img/tf1_69_M_ss2.jpeg'></img>","3","","exp","","0","<img src='img/tf1_69_T1_ss2_md.jpeg'></img>","0","true",""
"","html-keyboard-response","151","480966","0.0-10.0-0.69","311","""event"",""trial"",""time""
""fullscreenenter"",""0"",""62690""
","
","
","""event"",""trial"",""time""
""fullscreenenter"",""0"",""62690""
","
","null","<div style=""font-size:60px;"">+</div>","","null","fixation","2021-08-10 17:13:31.934","","","","",""
"","mars-trial","152","485697","0.0-10.0-1.69","311","""event"",""trial"",""time""
""fullscreenenter"",""0"",""62690""
","
","
","""event"",""trial"",""time""
""fullscreenenter"",""0"",""62690""
","
","4119.399999976158","<img style='border: 4px solid darkgrey;' src='img/tf1_70_M_ss3.jpeg'></img>","3","","exp","","0","<img src='img/tf1_70_T1_ss3_md.jpeg'></img>","0","true",""
"","html-keyboard-response","153","486203","0.0-10.0-0.70","311","""event"",""trial"",""time""
""fullscreenenter"",""0"",""62690""
","
","
","""event"",""trial"",""time""
""fullscreenenter"",""0"",""62690""
","
","null","<div style=""font-size:60px;"">+</div>","","null","fixation","2021-08-10 17:13:37.171","","","","",""
"","mars-trial","154","491187","0.0-10.0-1.70","311","""event"",""trial"",""time""
""fullscreenenter"",""0"",""62690""
","
","
","""event"",""trial"",""time""
""fullscreenenter"",""0"",""62690""
","
","4373.199999928474","<img style='border: 4px solid darkgrey;' src='img/tf1_71_M_ss1.jpeg'></img>","1","","exp","","0","<img src='img/tf1_71_T1_ss1_md.jpeg'></img>","0","true",""
"","html-keyboard-response","155","491692","0.0-10.0-0.71","311","""event"",""trial"",""time""
""fullscreenenter"",""0"",""62690""
","
","
","""event"",""trial"",""time""
""fullscreenenter"",""0"",""62690""
","
","null","<div style=""font-size:60px;"">+</div>","","null","fixation","2021-08-10 17:13:42.660","","","","",""
"","mars-trial","156","497340","0.0-10.0-1.71","311","""event"",""trial"",""time""
""fullscreenenter"",""0"",""62690""
","
","
","""event"",""trial"",""time""
""fullscreenenter"",""0"",""62690""
","
","5034.900000095367","<img style='border: 4px solid darkgrey;' src='img/tf1_72_M_ss2.jpeg'></img>","3","","exp","","1","<img src='img/tf1_72_T1_ss2_md.jpeg'></img>","0","false",""
"","html-keyboard-response","157","497846","0.0-10.0-0.72","311","""event"",""trial"",""time""
""fullscreenenter"",""0"",""62690""
","
","
","""event"",""trial"",""time""
""fullscreenenter"",""0"",""62690""
","
","null","<div style=""font-size:60px;"">+</div>","","null","fixation","2021-08-10 17:13:48.814","","","","",""
"","mars-trial","158","499619","0.0-10.0-1.72","311","""event"",""trial"",""time""
""fullscreenenter"",""0"",""62690""
","
","
","""event"",""trial"",""time""
""fullscreenenter"",""0"",""62690""
","
","1163","<img style='border: 4px solid darkgrey;' src='img/tf1_73_M_ss3.jpeg'></img>","1","","exp","","2","<img src='img/tf1_73_T1_ss3_md.jpeg'></img>","0","false",""
"","html-keyboard-response","159","500124","0.0-10.0-0.73","311","""event"",""trial"",""time""
""fullscreenenter"",""0"",""62690""
","
","
","""event"",""trial"",""time""
""fullscreenenter"",""0"",""62690""
","
","null","<div style=""font-size:60px;"">+</div>","","null","fixation","2021-08-10 17:13:51.092","","","","",""
"","mars-trial","160","503678","0.0-10.0-1.73","311","""event"",""trial"",""time""
""fullscreenenter"",""0"",""62690""
","
","
","""event"",""trial"",""time""
""fullscreenenter"",""0"",""62690""
","
","2947.1999999284744","<img style='border: 4px solid darkgrey;' src='img/tf1_74_M_ss1.jpeg'></img>","3","","exp","","0","<img src='img/tf1_74_T1_ss1_md.jpeg'></img>","0","true",""
"","html-keyboard-response","161","504182","0.0-10.0-0.74","311","""event"",""trial"",""time""
""fullscreenenter"",""0"",""62690""
","
","
","""event"",""trial"",""time""
""fullscreenenter"",""0"",""62690""
","
","null","<div style=""font-size:60px;"">+</div>","","null","fixation","2021-08-10 17:13:55.150","","","","",""
"","mars-trial","162","505932","0.0-10.0-1.74","311","""event"",""trial"",""time""
""fullscreenenter"",""0"",""62690""
","
","
","""event"",""trial"",""time""
""fullscreenenter"",""0"",""62690""
","
","1138.8999999761581","<img style='border: 4px solid darkgrey;' src='img/tf1_75_M_ss2.jpeg'></img>","1","","exp","","2","<img src='img/tf1_75_T1_ss2_md.jpeg'></img>","0","false",""
"","html-keyboard-response","163","506438","0.0-10.0-0.75","311","""event"",""trial"",""time""
""fullscreenenter"",""0"",""62690""
","
","
","""event"",""trial"",""time""
""fullscreenenter"",""0"",""62690""
","
","null","<div style=""font-size:60px;"">+</div>","","null","fixation","2021-08-10 17:13:57.407","","","","",""
"","mars-trial","164","508149","0.0-10.0-1.75","311","""event"",""trial"",""time""
""fullscreenenter"",""0"",""62690""
","
","
","""event"",""trial"",""time""
""fullscreenenter"",""0"",""62690""
","
","1095.5","<img style='border: 4px solid darkgrey;' src='img/tf1_76_M_ss3.jpeg'></img>","3","","exp","","0","<img src='img/tf1_76_T1_ss3_md.jpeg'></img>","0","true",""
"","html-keyboard-response","165","508651","0.0-10.0-0.76","311","""event"",""trial"",""time""
""fullscreenenter"",""0"",""62690""
","
","
","""event"",""trial"",""time""
""fullscreenenter"",""0"",""62690""
","
","null","<div style=""font-size:60px;"">+</div>","","null","fixation","2021-08-10 17:13:59.619","","","","",""
"","mars-trial","166","510294","0.0-10.0-1.76","311","""event"",""trial"",""time""
""fullscreenenter"",""0"",""62690""
","
","
","""event"",""trial"",""time""
""fullscreenenter"",""0"",""62690""
","
","1028.2000000476837","<img style='border: 4px solid darkgrey;' src='img/tf1_77_M_ss1.jpeg'></img>","0","","exp","","2","<img src='img/tf1_77_T1_ss1_md.jpeg'></img>","0","false",""
"","html-keyboard-response","167","510795","0.0-10.0-0.77","311","""event"",""trial"",""time""
""fullscreenenter"",""0"",""62690""
","
","
","""event"",""trial"",""time""
""fullscreenenter"",""0"",""62690""
","
","null","<div style=""font-size:60px;"">+</div>","","null","fixation","2021-08-10 17:14:01.764","","","","",""
"","mars-trial","168","513494","0.0-10.0-1.77","311","""event"",""trial"",""time""
""fullscreenenter"",""0"",""62690""
","
","
","""event"",""trial"",""time""
""fullscreenenter"",""0"",""62690""
","
","2087.5","<img style='border: 4px solid darkgrey;' src='img/tf1_78_M_ss2.jpeg'></img>","2","","exp","","3","<img src='img/tf1_78_T1_ss2_md.jpeg'></img>","0","false",""
"","html-keyboard-response","169","514001","0.0-10.0-0.78","311","""event"",""trial"",""time""
""fullscreenenter"",""0"",""62690""
","
","
","""event"",""trial"",""time""
""fullscreenenter"",""0"",""62690""
","
","null","<div style=""font-size:60px;"">+</div>","","null","fixation","2021-08-10 17:14:04.969","","","","",""
"","mars-trial","170","516001","0.0-10.0-1.78","311","""event"",""trial"",""time""
""fullscreenenter"",""0"",""62690""
","
","
","""event"",""trial"",""time""
""fullscreenenter"",""0"",""62690""
","
","1385.5999999046326","<img style='border: 4px solid darkgrey;' src='img/tf1_79_M_ss3.jpeg'></img>","3","","exp","","1","<img src='img/tf1_79_T1_ss3_md.jpeg'></img>","0","false",""
"","html-keyboard-response","171","516507","0.0-10.0-0.79","311","""event"",""trial"",""time""
""fullscreenenter"",""0"",""62690""
","
","
","""event"",""trial"",""time""
""fullscreenenter"",""0"",""62690""
","
","null","<div style=""font-size:60px;"">+</div>","","null","fixation","2021-08-10 17:14:07.475","","","","",""
"","mars-trial","172","520509","0.0-10.0-1.79","311","""event"",""trial"",""time""
""fullscreenenter"",""0"",""62690""
","
","
","""event"",""trial"",""time""
""fullscreenenter"",""0"",""62690""
","
","3393.100000023842","<img style='border: 4px solid darkgrey;' src='img/tf1_80_M_ss1.jpeg'></img>","2","","exp","","2","<img src='img/tf1_80_T1_ss1_md.jpeg'></img>","0","false",""
"","audio-button-response","173","521995","0.0-11.0","311","""event"",""trial"",""time""
""fullscreenenter"",""0"",""62690""
","
","
","""event"",""trial"",""time""
""fullscreenenter"",""0"",""62690""
","
","1483","audio/mars_instructions_slide5.wav","0","","","","","","","",""
