"success","trial_type","trial_index","time_elapsed","internal_node_id","subject_id","interactions","blur_events","focus_events","fullscreenenter_events","fullscreenexit_events","rt","stimulus","button_pressed","key_press","part","timestamp","unshuffled_button","correct_response","correct_button","correct","value"
"true","fullscreen","0","6294","0.0-0.0","960","""event"",""trial"",""time""
""fullscreenenter"",""0"",""5314""
","
","
","""event"",""trial"",""time""
""fullscreenenter"",""0"",""5314""
","
","","","","","","","","","","",""
"","pavlovia","1","6299","0.0-1.0","960","""event"",""trial"",""time""
""fullscreenenter"",""0"",""5314""
","
","
","""event"",""trial"",""time""
""fullscreenenter"",""0"",""5314""
","
","","","","","","","","","","",""
"","html-button-response","2","8746","0.0-2.0","960","""event"",""trial"",""time""
""fullscreenenter"",""0"",""5314""
","
","
","""event"",""trial"",""time""
""fullscreenenter"",""0"",""5314""
","
","2443.399999999441","<p>Welcome! Press START to begin.</p><br>","0","","","","","","","",""
"","audio-button-response","3","23765","0.0-3.0","960","""event"",""trial"",""time""
""fullscreenenter"",""0"",""5314""
","
","
","""event"",""trial"",""time""
""fullscreenenter"",""0"",""5314""
","
","15014.799999999814","audio/mars_instructions_slide2.wav","0","","","","","","","",""
"","audio-button-response","4","39551","0.0-4.0","960","""event"",""trial"",""time""
""fullscreenenter"",""0"",""5314""
","
","
","""event"",""trial"",""time""
""fullscreenenter"",""0"",""5314""
","
","15784","audio/mars_instructions_slide3.wav","0","","","","","","","",""
"","html-keyboard-response","5","40057","0.0-5.0-0.0","960","""event"",""trial"",""time""
""fullscreenenter"",""0"",""5314""
","
","
","""event"",""trial"",""time""
""fullscreenenter"",""0"",""5314""
","
","null","<div style=""font-size:60px;"">+</div>","","null","fixation","2021-07-01 21:34:44.315","","","","",""
"","mars-trial","6","57351","0.0-5.0-1.0","960","""event"",""trial"",""time""
""fullscreenenter"",""0"",""5314""
","
","
","""event"",""trial"",""time""
""fullscreenenter"",""0"",""5314""
","
","15183","<img style='border: 4px solid darkgrey;' src='practice/pt1_M1.png'></img>","2","","practice","","0","<img src='practice/pt1_T1.png'></img>","0","true",""
"","html-keyboard-response","7","57855","0.0-6.0-0.0","960","""event"",""trial"",""time""
""fullscreenenter"",""0"",""5314""
","
","
","""event"",""trial"",""time""
""fullscreenenter"",""0"",""5314""
","
","null","<div style=""font-size:60px;"">+</div>","","null","fixation","2021-07-01 21:35:02.113","","","","",""
"","mars-trial","8","64546","0.0-6.0-1.0","960","""event"",""trial"",""time""
""fullscreenenter"",""0"",""5314""
","
","
","""event"",""trial"",""time""
""fullscreenenter"",""0"",""5314""
","
","4585","<img style='border: 4px solid darkgrey;' src='practice/pt2_M1.png'></img>","1","","practice","","0","<img src='practice/pt2_T1.png'></img>","0","true",""
"","html-keyboard-response","9","65048","0.0-7.0-0.0","960","""event"",""trial"",""time""
""fullscreenenter"",""0"",""5314""
","
","
","""event"",""trial"",""time""
""fullscreenenter"",""0"",""5314""
","
","null","<div style=""font-size:60px;"">+</div>","","null","fixation","2021-07-01 21:35:09.307","","","","",""
"","mars-trial","10","69303","0.0-7.0-1.0","960","""event"",""trial"",""time""
""fullscreenenter"",""0"",""5314""
","
","
","""event"",""trial"",""time""
""fullscreenenter"",""0"",""5314""
","
","2148.199999999255","<img style='border: 4px solid darkgrey;' src='practice/pt3_M1.png'></img>","3","","practice","","0","<img src='practice/pt3_T1.png'></img>","0","true",""
"","audio-button-response","11","70772","0.0-8.0","960","""event"",""trial"",""time""
""fullscreenenter"",""0"",""5314""
","
","
","""event"",""trial"",""time""
""fullscreenenter"",""0"",""5314""
","
","1465.4000000003725","audio/mars_instructions_slide4.wav","0","","","","","","","",""
"","call-function","12","70773","0.0-9.0","960","""event"",""trial"",""time""
""fullscreenenter"",""0"",""5314""
","
","
","""event"",""trial"",""time""
""fullscreenenter"",""0"",""5314""
","
","","","","","","","","","","",""
"","html-keyboard-response","13","71274","0.0-10.0-0.0","960","""event"",""trial"",""time""
""fullscreenenter"",""0"",""5314""
","
","
","""event"",""trial"",""time""
""fullscreenenter"",""0"",""5314""
","
","null","<div style=""font-size:60px;"">+</div>","","null","fixation","2021-07-01 21:35:15.532","","","","",""
"","mars-trial","14","74049","0.0-10.0-1.0","960","""event"",""trial"",""time""
""fullscreenenter"",""0"",""5314""
","
","
","""event"",""trial"",""time""
""fullscreenenter"",""0"",""5314""
","
","2168.2000000001863","<img style='border: 4px solid darkgrey;' src='img/tf1_1_M_ss3.jpeg'></img>","0","","exp","","0","<img src='img/tf1_1_T1_ss3_md.jpeg'></img>","0","true",""
"","html-keyboard-response","15","74551","0.0-10.0-0.1","960","""event"",""trial"",""time""
""fullscreenenter"",""0"",""5314""
","
","
","""event"",""trial"",""time""
""fullscreenenter"",""0"",""5314""
","
","null","<div style=""font-size:60px;"">+</div>","","null","fixation","2021-07-01 21:35:18.809","","","","",""
"","mars-trial","16","78959","0.0-10.0-1.1","960","""event"",""trial"",""time""
""fullscreenenter"",""0"",""5314""
","
","
","""event"",""trial"",""time""
""fullscreenenter"",""0"",""5314""
","
","3801.100000000559","<img style='border: 4px solid darkgrey;' src='img/tf1_2_M_ss1.jpeg'></img>","0","","exp","","0","<img src='img/tf1_2_T1_ss1_md.jpeg'></img>","0","true",""
"","html-keyboard-response","17","79461","0.0-10.0-0.2","960","""event"",""trial"",""time""
""fullscreenenter"",""0"",""5314""
","
","
","""event"",""trial"",""time""
""fullscreenenter"",""0"",""5314""
","
","null","<div style=""font-size:60px;"">+</div>","","null","fixation","2021-07-01 21:35:23.719","","","","",""
"","mars-trial","18","83131","0.0-10.0-1.2","960","""event"",""trial"",""time""
""fullscreenenter"",""0"",""5314""
","
","
","""event"",""trial"",""time""
""fullscreenenter"",""0"",""5314""
","
","3064.2999999998137","<img style='border: 4px solid darkgrey;' src='img/tf1_3_M_ss2.jpeg'></img>","2","","exp","","0","<img src='img/tf1_3_T1_ss2_md.jpeg'></img>","0","true",""
"","html-keyboard-response","19","83633","0.0-10.0-0.3","960","""event"",""trial"",""time""
""fullscreenenter"",""0"",""5314""
","
","
","""event"",""trial"",""time""
""fullscreenenter"",""0"",""5314""
","
","null","<div style=""font-size:60px;"">+</div>","","null","fixation","2021-07-01 21:35:27.891","","","","",""
"","mars-trial","20","88130","0.0-10.0-1.3","960","""event"",""trial"",""time""
""fullscreenenter"",""0"",""5314""
","
","
","""event"",""trial"",""time""
""fullscreenenter"",""0"",""5314""
","
","3890.399999999441","<img style='border: 4px solid darkgrey;' src='img/tf1_4_M_ss3.jpeg'></img>","3","","exp","","0","<img src='img/tf1_4_T1_ss3_md.jpeg'></img>","0","true",""
"","html-keyboard-response","21","88633","0.0-10.0-0.4","960","""event"",""trial"",""time""
""fullscreenenter"",""0"",""5314""
","
","
","""event"",""trial"",""time""
""fullscreenenter"",""0"",""5314""
","
","null","<div style=""font-size:60px;"">+</div>","","null","fixation","2021-07-01 21:35:32.891","","","","",""
"","mars-trial","22","92188","0.0-10.0-1.4","960","""event"",""trial"",""time""
""fullscreenenter"",""0"",""5314""
","
","
","""event"",""trial"",""time""
""fullscreenenter"",""0"",""5314""
","
","2950.2000000001863","<img style='border: 4px solid darkgrey;' src='img/tf1_5_M_ss1.jpeg'></img>","2","","exp","","1","<img src='img/tf1_5_T1_ss1_md.jpeg'></img>","0","false",""
"","html-keyboard-response","23","92690","0.0-10.0-0.5","960","""event"",""trial"",""time""
""fullscreenenter"",""0"",""5314""
","
","
","""event"",""trial"",""time""
""fullscreenenter"",""0"",""5314""
","
","null","<div style=""font-size:60px;"">+</div>","","null","fixation","2021-07-01 21:35:36.948","","","","",""
"","mars-trial","24","102348","0.0-10.0-1.5","960","""event"",""trial"",""time""
""fullscreenenter"",""0"",""5314""
","
","
","""event"",""trial"",""time""
""fullscreenenter"",""0"",""5314""
","
","9051.799999999814","<img style='border: 4px solid darkgrey;' src='img/tf1_6_M_ss2.jpeg'></img>","1","","exp","","0","<img src='img/tf1_6_T1_ss2_md.jpeg'></img>","0","true",""
"","html-keyboard-response","25","102850","0.0-10.0-0.6","960","""event"",""trial"",""time""
""fullscreenenter"",""0"",""5314""
","
","
","""event"",""trial"",""time""
""fullscreenenter"",""0"",""5314""
","
","null","<div style=""font-size:60px;"">+</div>","","null","fixation","2021-07-01 21:35:47.108","","","","",""
"","mars-trial","26","109426","0.0-10.0-1.6","960","""event"",""trial"",""time""
""fullscreenenter"",""0"",""5314""
","
","
","""event"",""trial"",""time""
""fullscreenenter"",""0"",""5314""
","
","5970.700000000186","<img style='border: 4px solid darkgrey;' src='img/tf1_7_M_ss3.jpeg'></img>","0","","exp","","0","<img src='img/tf1_7_T1_ss3_md.jpeg'></img>","0","true",""
"","html-keyboard-response","27","109928","0.0-10.0-0.7","960","""event"",""trial"",""time""
""fullscreenenter"",""0"",""5314""
","
","
","""event"",""trial"",""time""
""fullscreenenter"",""0"",""5314""
","
","null","<div style=""font-size:60px;"">+</div>","","null","fixation","2021-07-01 21:35:54.186","","","","",""
"","mars-trial","28","121439","0.0-10.0-1.7","960","""event"",""trial"",""time""
""fullscreenenter"",""0"",""5314""
","
","
","""event"",""trial"",""time""
""fullscreenenter"",""0"",""5314""
","
","10904.200000000186","<img style='border: 4px solid darkgrey;' src='img/tf1_8_M_ss1.jpeg'></img>","3","","exp","","3","<img src='img/tf1_8_T1_ss1_md.jpeg'></img>","0","false",""
"","html-keyboard-response","29","121941","0.0-10.0-0.8","960","""event"",""trial"",""time""
""fullscreenenter"",""0"",""5314""
","
","
","""event"",""trial"",""time""
""fullscreenenter"",""0"",""5314""
","
","null","<div style=""font-size:60px;"">+</div>","","null","fixation","2021-07-01 21:36:06.199","","","","",""
"","mars-trial","30","129344","0.0-10.0-1.8","960","""event"",""trial"",""time""
""fullscreenenter"",""0"",""5314""
","
","
","""event"",""trial"",""time""
""fullscreenenter"",""0"",""5314""
","
","6797.700000000186","<img style='border: 4px solid darkgrey;' src='img/tf1_9_M_ss2.jpeg'></img>","0","","exp","","0","<img src='img/tf1_9_T1_ss2_md.jpeg'></img>","0","true",""
"","html-keyboard-response","31","129846","0.0-10.0-0.9","960","""event"",""trial"",""time""
""fullscreenenter"",""0"",""5314""
","
","
","""event"",""trial"",""time""
""fullscreenenter"",""0"",""5314""
","
","null","<div style=""font-size:60px;"">+</div>","","null","fixation","2021-07-01 21:36:14.104","","","","",""
"","mars-trial","32","138521","0.0-10.0-1.9","960","""event"",""trial"",""time""
""fullscreenenter"",""0"",""5314""
","
","
","""event"",""trial"",""time""
""fullscreenenter"",""0"",""5314""
","
","8069.199999999255","<img style='border: 4px solid darkgrey;' src='img/tf1_10_M_ss3.jpeg'></img>","1","","exp","","0","<img src='img/tf1_10_T1_ss3_md.jpeg'></img>","0","true",""
"","html-keyboard-response","33","139023","0.0-10.0-0.10","960","""event"",""trial"",""time""
""fullscreenenter"",""0"",""5314""
","
","
","""event"",""trial"",""time""
""fullscreenenter"",""0"",""5314""
","
","null","<div style=""font-size:60px;"">+</div>","","null","fixation","2021-07-01 21:36:23.282","","","","",""
"","mars-trial","34","144288","0.0-10.0-1.10","960","""event"",""trial"",""time""
""fullscreenenter"",""0"",""5314""
","
","
","""event"",""trial"",""time""
""fullscreenenter"",""0"",""5314""
","
","4659","<img style='border: 4px solid darkgrey;' src='img/tf1_11_M_ss1.jpeg'></img>","0","","exp","","3","<img src='img/tf1_11_T1_ss1_md.jpeg'></img>","0","false",""
"","html-keyboard-response","35","144791","0.0-10.0-0.11","960","""event"",""trial"",""time""
""fullscreenenter"",""0"",""5314""
","
","
","""event"",""trial"",""time""
""fullscreenenter"",""0"",""5314""
","
","null","<div style=""font-size:60px;"">+</div>","","null","fixation","2021-07-01 21:36:29.049","","","","",""
"","mars-trial","36","155194","0.0-10.0-1.11","960","""event"",""trial"",""time""
""fullscreenenter"",""0"",""5314""
","
","
","""event"",""trial"",""time""
""fullscreenenter"",""0"",""5314""
","
","9796.699999999255","<img style='border: 4px solid darkgrey;' src='img/tf1_12_M_ss2.jpeg'></img>","2","","exp","","2","<img src='img/tf1_12_T1_ss2_md.jpeg'></img>","0","false",""
"","html-keyboard-response","37","155697","0.0-10.0-0.12","960","""event"",""trial"",""time""
""fullscreenenter"",""0"",""5314""
","
","
","""event"",""trial"",""time""
""fullscreenenter"",""0"",""5314""
","
","null","<div style=""font-size:60px;"">+</div>","","null","fixation","2021-07-01 21:36:39.955","","","","",""
"","mars-trial","38","163523","0.0-10.0-1.12","960","""event"",""trial"",""time""
""fullscreenenter"",""0"",""5314""
","
","
","""event"",""trial"",""time""
""fullscreenenter"",""0"",""5314""
","
","7219.300000000745","<img style='border: 4px solid darkgrey;' src='img/tf1_13_M_ss3.jpeg'></img>","2","","exp","","3","<img src='img/tf1_13_T1_ss3_md.jpeg'></img>","0","false",""
"","html-keyboard-response","39","164025","0.0-10.0-0.13","960","""event"",""trial"",""time""
""fullscreenenter"",""0"",""5314""
","
","
","""event"",""trial"",""time""
""fullscreenenter"",""0"",""5314""
","
","null","<div style=""font-size:60px;"">+</div>","","null","fixation","2021-07-01 21:36:48.283","","","","",""
"","mars-trial","40","164901","0.0-10.0-1.13","960","""event"",""trial"",""time""
""fullscreenenter"",""0"",""5314""
","
","
","""event"",""trial"",""time""
""fullscreenenter"",""0"",""5314""
","
","269.79999999981374","<img style='border: 4px solid darkgrey;' src='img/tf1_14_M_ss1.jpeg'></img>","2","","exp","","2","<img src='img/tf1_14_T1_ss1_md.jpeg'></img>","0","false",""
"","html-keyboard-response","41","165403","0.0-10.0-0.14","960","""event"",""trial"",""time""
""fullscreenenter"",""0"",""5314""
","
","
","""event"",""trial"",""time""
""fullscreenenter"",""0"",""5314""
","
","null","<div style=""font-size:60px;"">+</div>","","null","fixation","2021-07-01 21:36:49.661","","","","",""
"","mars-trial","42","169264","0.0-10.0-1.14","960","""event"",""trial"",""time""
""fullscreenenter"",""0"",""5314""
","
","
","""event"",""trial"",""time""
""fullscreenenter"",""0"",""5314""
","
","3255.2000000001863","<img style='border: 4px solid darkgrey;' src='img/tf1_15_M_ss2.jpeg'></img>","1","","exp","","2","<img src='img/tf1_15_T1_ss2_md.jpeg'></img>","0","false",""
"","html-keyboard-response","43","169766","0.0-10.0-0.15","960","""event"",""trial"",""time""
""fullscreenenter"",""0"",""5314""
","
","
","""event"",""trial"",""time""
""fullscreenenter"",""0"",""5314""
","
","null","<div style=""font-size:60px;"">+</div>","","null","fixation","2021-07-01 21:36:54.025","","","","",""
"","mars-trial","44","175715","0.0-10.0-1.15","960","""event"",""trial"",""time""
""fullscreenenter"",""0"",""5314""
","
","
","""event"",""trial"",""time""
""fullscreenenter"",""0"",""5314""
","
","5343.5","<img style='border: 4px solid darkgrey;' src='img/tf1_16_M_ss3.jpeg'></img>","3","","exp","","0","<img src='img/tf1_16_T1_ss3_md.jpeg'></img>","0","true",""
"","html-keyboard-response","45","176217","0.0-10.0-0.16","960","""event"",""trial"",""time""
""fullscreenenter"",""0"",""5314""
","
","
","""event"",""trial"",""time""
""fullscreenenter"",""0"",""5314""
","
","null","<div style=""font-size:60px;"">+</div>","","null","fixation","2021-07-01 21:37:00.475","","","","",""
"","mars-trial","46","180045","0.0-10.0-1.16","960","""event"",""trial"",""time""
""fullscreenenter"",""0"",""5314""
","
","
","""event"",""trial"",""time""
""fullscreenenter"",""0"",""5314""
","
","3221.0999999996275","<img style='border: 4px solid darkgrey;' src='img/tf1_17_M_ss1.jpeg'></img>","2","","exp","","2","<img src='img/tf1_17_T1_ss1_md.jpeg'></img>","0","false",""
"","html-keyboard-response","47","180547","0.0-10.0-0.17","960","""event"",""trial"",""time""
""fullscreenenter"",""0"",""5314""
","
","
","""event"",""trial"",""time""
""fullscreenenter"",""0"",""5314""
","
","null","<div style=""font-size:60px;"">+</div>","","null","fixation","2021-07-01 21:37:04.805","","","","",""
"","mars-trial","48","191155","0.0-10.0-1.17","960","""event"",""trial"",""time""
""fullscreenenter"",""0"",""5314""
","
","
","""event"",""trial"",""time""
""fullscreenenter"",""0"",""5314""
","
","10002.700000000186","<img style='border: 4px solid darkgrey;' src='img/tf1_18_M_ss2.jpeg'></img>","3","","exp","","0","<img src='img/tf1_18_T1_ss2_md.jpeg'></img>","0","true",""
"","html-keyboard-response","49","191657","0.0-10.0-0.18","960","""event"",""trial"",""time""
""fullscreenenter"",""0"",""5314""
","
","
","""event"",""trial"",""time""
""fullscreenenter"",""0"",""5314""
","
","null","<div style=""font-size:60px;"">+</div>","","null","fixation","2021-07-01 21:37:15.915","","","","",""
"","mars-trial","50","201195","0.0-10.0-1.18","960","""event"",""trial"",""time""
""fullscreenenter"",""0"",""5314""
","
","
","""event"",""trial"",""time""
""fullscreenenter"",""0"",""5314""
","
","8931.699999999255","<img style='border: 4px solid darkgrey;' src='img/tf1_19_M_ss3.jpeg'></img>","3","","exp","","3","<img src='img/tf1_19_T1_ss3_md.jpeg'></img>","0","false",""
"","html-keyboard-response","51","201697","0.0-10.0-0.19","960","""event"",""trial"",""time""
""fullscreenenter"",""0"",""5314""
","
","
","""event"",""trial"",""time""
""fullscreenenter"",""0"",""5314""
","
","null","<div style=""font-size:60px;"">+</div>","","null","fixation","2021-07-01 21:37:25.955","","","","",""
"","mars-trial","52","209234","0.0-10.0-1.19","960","""event"",""trial"",""time""
""fullscreenenter"",""0"",""5314""
","
","
","""event"",""trial"",""time""
""fullscreenenter"",""0"",""5314""
","
","6931.5999999996275","<img style='border: 4px solid darkgrey;' src='img/tf1_20_M_ss1.jpeg'></img>","2","","exp","","0","<img src='img/tf1_20_T1_ss1_md.jpeg'></img>","0","true",""
"","html-keyboard-response","53","209737","0.0-10.0-0.20","960","""event"",""trial"",""time""
""fullscreenenter"",""0"",""5314""
","
","
","""event"",""trial"",""time""
""fullscreenenter"",""0"",""5314""
","
","null","<div style=""font-size:60px;"">+</div>","","null","fixation","2021-07-01 21:37:33.995","","","","",""
"","mars-trial","54","216458","0.0-10.0-1.20","960","""event"",""trial"",""time""
""fullscreenenter"",""0"",""5314""
","
","
","""event"",""trial"",""time""
""fullscreenenter"",""0"",""5314""
","
","6115.5","<img style='border: 4px solid darkgrey;' src='img/tf1_21_M_ss2.jpeg'></img>","0","","exp","","3","<img src='img/tf1_21_T1_ss2_md.jpeg'></img>","0","false",""
"","html-keyboard-response","55","216960","0.0-10.0-0.21","960","""event"",""trial"",""time""
""fullscreenenter"",""0"",""5314""
","
","
","""event"",""trial"",""time""
""fullscreenenter"",""0"",""5314""
","
","null","<div style=""font-size:60px;"">+</div>","","null","fixation","2021-07-01 21:37:41.218","","","","",""
"","mars-trial","56","220842","0.0-10.0-1.21","960","""event"",""trial"",""time""
""fullscreenenter"",""0"",""5314""
","
","
","""event"",""trial"",""time""
""fullscreenenter"",""0"",""5314""
","
","3276.7999999998137","<img style='border: 4px solid darkgrey;' src='img/tf1_22_M_ss3.jpeg'></img>","0","","exp","","2","<img src='img/tf1_22_T1_ss3_md.jpeg'></img>","0","false",""
"","html-keyboard-response","57","221345","0.0-10.0-0.22","960","""event"",""trial"",""time""
""fullscreenenter"",""0"",""5314""
","
","
","""event"",""trial"",""time""
""fullscreenenter"",""0"",""5314""
","
","null","<div style=""font-size:60px;"">+</div>","","null","fixation","2021-07-01 21:37:45.603","","","","",""
"","mars-trial","58","225582","0.0-10.0-1.22","960","""event"",""trial"",""time""
""fullscreenenter"",""0"",""5314""
","
","
","""event"",""trial"",""time""
""fullscreenenter"",""0"",""5314""
","
","3631.9000000003725","<img style='border: 4px solid darkgrey;' src='img/tf1_23_M_ss1.jpeg'></img>","0","","exp","","0","<img src='img/tf1_23_T1_ss1_md.jpeg'></img>","0","true",""
"","html-keyboard-response","59","226084","0.0-10.0-0.23","960","""event"",""trial"",""time""
""fullscreenenter"",""0"",""5314""
","
","
","""event"",""trial"",""time""
""fullscreenenter"",""0"",""5314""
","
","null","<div style=""font-size:60px;"">+</div>","","null","fixation","2021-07-01 21:37:50.342","","","","",""
"","mars-trial","60","234122","0.0-10.0-1.23","960","""event"",""trial"",""time""
""fullscreenenter"",""0"",""5314""
","
","
","""event"",""trial"",""time""
""fullscreenenter"",""0"",""5314""
","
","7432","<img style='border: 4px solid darkgrey;' src='img/tf1_24_M_ss2.jpeg'></img>","3","","exp","","1","<img src='img/tf1_24_T1_ss2_md.jpeg'></img>","0","false",""
"","html-keyboard-response","61","234624","0.0-10.0-0.24","960","""event"",""trial"",""time""
""fullscreenenter"",""0"",""5314""
","
","
","""event"",""trial"",""time""
""fullscreenenter"",""0"",""5314""
","
","null","<div style=""font-size:60px;"">+</div>","","null","fixation","2021-07-01 21:37:58.882","","","","",""
"","mars-trial","62","244814","0.0-10.0-1.24","960","""event"",""trial"",""time""
""fullscreenenter"",""0"",""5314""
","
","
","""event"",""trial"",""time""
""fullscreenenter"",""0"",""5314""
","
","9583.700000000186","<img style='border: 4px solid darkgrey;' src='img/tf1_25_M_ss3.jpeg'></img>","2","","exp","","3","<img src='img/tf1_25_T1_ss3_md.jpeg'></img>","0","false",""
"","html-keyboard-response","63","245317","0.0-10.0-0.25","960","""event"",""trial"",""time""
""fullscreenenter"",""0"",""5314""
","
","
","""event"",""trial"",""time""
""fullscreenenter"",""0"",""5314""
","
","null","<div style=""font-size:60px;"">+</div>","","null","fixation","2021-07-01 21:38:09.575","","","","",""
"","mars-trial","64","258173","0.0-10.0-1.25","960","""event"",""trial"",""time""
""fullscreenenter"",""0"",""5314""
","
","
","""event"",""trial"",""time""
""fullscreenenter"",""0"",""5314""
","
","12251.200000000186","<img style='border: 4px solid darkgrey;' src='img/tf1_26_M_ss1.jpeg'></img>","0","","exp","","2","<img src='img/tf1_26_T1_ss1_md.jpeg'></img>","0","false",""
"","html-keyboard-response","65","258675","0.0-10.0-0.26","960","""event"",""trial"",""time""
""fullscreenenter"",""0"",""5314""
","
","
","""event"",""trial"",""time""
""fullscreenenter"",""0"",""5314""
","
","null","<div style=""font-size:60px;"">+</div>","","null","fixation","2021-07-01 21:38:22.933","","","","",""
"","mars-trial","66","270374","0.0-10.0-1.26","960","""event"",""trial"",""time""
""fullscreenenter"",""0"",""5314""
","
","
","""event"",""trial"",""time""
""fullscreenenter"",""0"",""5314""
","
","11092.400000000373","<img style='border: 4px solid darkgrey;' src='img/tf1_27_M_ss2.jpeg'></img>","2","","exp","","0","<img src='img/tf1_27_T1_ss2_md.jpeg'></img>","0","true",""
"","html-keyboard-response","67","270876","0.0-10.0-0.27","960","""event"",""trial"",""time""
""fullscreenenter"",""0"",""5314""
","
","
","""event"",""trial"",""time""
""fullscreenenter"",""0"",""5314""
","
","null","<div style=""font-size:60px;"">+</div>","","null","fixation","2021-07-01 21:38:35.134","","","","",""
"","mars-trial","68","277904","0.0-10.0-1.27","960","""event"",""trial"",""time""
""fullscreenenter"",""0"",""5314""
","
","
","""event"",""trial"",""time""
""fullscreenenter"",""0"",""5314""
","
","6422.199999999255","<img style='border: 4px solid darkgrey;' src='img/tf1_28_M_ss3.jpeg'></img>","2","","exp","","0","<img src='img/tf1_28_T1_ss3_md.jpeg'></img>","0","true",""
"","html-keyboard-response","69","278407","0.0-10.0-0.28","960","""event"",""trial"",""time""
""fullscreenenter"",""0"",""5314""
","
","
","""event"",""trial"",""time""
""fullscreenenter"",""0"",""5314""
","
","null","<div style=""font-size:60px;"">+</div>","","null","fixation","2021-07-01 21:38:42.665","","","","",""
"","mars-trial","70","284063","0.0-10.0-1.28","960","""event"",""trial"",""time""
""fullscreenenter"",""0"",""5314""
","
","
","""event"",""trial"",""time""
""fullscreenenter"",""0"",""5314""
","
","5051","<img style='border: 4px solid darkgrey;' src='img/tf1_29_M_ss1.jpeg'></img>","0","","exp","","0","<img src='img/tf1_29_T1_ss1_md.jpeg'></img>","0","true",""
"","html-keyboard-response","71","284565","0.0-10.0-0.29","960","""event"",""trial"",""time""
""fullscreenenter"",""0"",""5314""
","
","
","""event"",""trial"",""time""
""fullscreenenter"",""0"",""5314""
","
","null","<div style=""font-size:60px;"">+</div>","","null","fixation","2021-07-01 21:38:48.823","","","","",""
"","mars-trial","72","290547","0.0-10.0-1.29","960","""event"",""trial"",""time""
""fullscreenenter"",""0"",""5314""
","
","
","""event"",""trial"",""time""
""fullscreenenter"",""0"",""5314""
","
","5375.9000000003725","<img style='border: 4px solid darkgrey;' src='img/tf1_30_M_ss2.jpeg'></img>","1","","exp","","0","<img src='img/tf1_30_T1_ss2_md.jpeg'></img>","0","true",""
"","html-keyboard-response","73","291049","0.0-10.0-0.30","960","""event"",""trial"",""time""
""fullscreenenter"",""0"",""5314""
","
","
","""event"",""trial"",""time""
""fullscreenenter"",""0"",""5314""
","
","null","<div style=""font-size:60px;"">+</div>","","null","fixation","2021-07-01 21:38:55.307","","","","",""
"","mars-trial","74","302440","0.0-10.0-1.30","960","""event"",""trial"",""time""
""fullscreenenter"",""0"",""5314""
","
","
","""event"",""trial"",""time""
""fullscreenenter"",""0"",""5314""
","
","10785.5","<img style='border: 4px solid darkgrey;' src='img/tf1_31_M_ss3.jpeg'></img>","3","","exp","","0","<img src='img/tf1_31_T1_ss3_md.jpeg'></img>","0","true",""
"","html-keyboard-response","75","302942","0.0-10.0-0.31","960","""event"",""trial"",""time""
""fullscreenenter"",""0"",""5314""
","
","
","""event"",""trial"",""time""
""fullscreenenter"",""0"",""5314""
","
","null","<div style=""font-size:60px;"">+</div>","","null","fixation","2021-07-01 21:39:07.200","","","","",""
"","mars-trial","76","313884","0.0-10.0-1.31","960","""event"",""trial"",""time""
""fullscreenenter"",""0"",""5314""
","
","
","""event"",""trial"",""time""
""fullscreenenter"",""0"",""5314""
","
","10335.899999999441","<img style='border: 4px solid darkgrey;' src='img/tf1_32_M_ss1.jpeg'></img>","2","","exp","","2","<img src='img/tf1_32_T1_ss1_md.jpeg'></img>","0","false",""
"","html-keyboard-response","77","314386","0.0-10.0-0.32","960","""event"",""trial"",""time""
""fullscreenenter"",""0"",""5314""
","
","
","""event"",""trial"",""time""
""fullscreenenter"",""0"",""5314""
","
","null","<div style=""font-size:60px;"">+</div>","","null","fixation","2021-07-01 21:39:18.644","","","","",""
"","mars-trial","78","319477","0.0-10.0-1.32","960","""event"",""trial"",""time""
""fullscreenenter"",""0"",""5314""
","
","
","""event"",""trial"",""time""
""fullscreenenter"",""0"",""5314""
","
","4485.5","<img style='border: 4px solid darkgrey;' src='img/tf1_33_M_ss2.jpeg'></img>","0","","exp","","2","<img src='img/tf1_33_T1_ss2_md.jpeg'></img>","0","false",""
"","html-keyboard-response","79","319979","0.0-10.0-0.33","960","""event"",""trial"",""time""
""fullscreenenter"",""0"",""5314""
","
","
","""event"",""trial"",""time""
""fullscreenenter"",""0"",""5314""
","
","null","<div style=""font-size:60px;"">+</div>","","null","fixation","2021-07-01 21:39:24.237","","","","",""
"","mars-trial","80","322374","0.0-10.0-1.33","960","""event"",""trial"",""time""
""fullscreenenter"",""0"",""5314""
","
","
","""event"",""trial"",""time""
""fullscreenenter"",""0"",""5314""
","
","1788.6000000005588","<img style='border: 4px solid darkgrey;' src='img/tf1_34_M_ss3.jpeg'></img>","1","","exp","","2","<img src='img/tf1_34_T1_ss3_md.jpeg'></img>","0","false",""
"","html-keyboard-response","81","322875","0.0-10.0-0.34","960","""event"",""trial"",""time""
""fullscreenenter"",""0"",""5314""
","
","
","""event"",""trial"",""time""
""fullscreenenter"",""0"",""5314""
","
","null","<div style=""font-size:60px;"">+</div>","","null","fixation","2021-07-01 21:39:27.133","","","","",""
"","mars-trial","82","327032","0.0-10.0-1.34","960","""event"",""trial"",""time""
""fullscreenenter"",""0"",""5314""
","
","
","""event"",""trial"",""time""
""fullscreenenter"",""0"",""5314""
","
","3550.100000000559","<img style='border: 4px solid darkgrey;' src='img/tf1_35_M_ss1.jpeg'></img>","1","","exp","","0","<img src='img/tf1_35_T1_ss1_md.jpeg'></img>","0","true",""
"","html-keyboard-response","83","327534","0.0-10.0-0.35","960","""event"",""trial"",""time""
""fullscreenenter"",""0"",""5314""
","
","
","""event"",""trial"",""time""
""fullscreenenter"",""0"",""5314""
","
","null","<div style=""font-size:60px;"">+</div>","","null","fixation","2021-07-01 21:39:31.792","","","","",""
"","mars-trial","84","334259","0.0-10.0-1.35","960","""event"",""trial"",""time""
""fullscreenenter"",""0"",""5314""
","
","
","""event"",""trial"",""time""
""fullscreenenter"",""0"",""5314""
","
","6118.200000000186","<img style='border: 4px solid darkgrey;' src='img/tf1_36_M_ss2.jpeg'></img>","3","","exp","","0","<img src='img/tf1_36_T1_ss2_md.jpeg'></img>","0","true",""
"","html-keyboard-response","85","334762","0.0-10.0-0.36","960","""event"",""trial"",""time""
""fullscreenenter"",""0"",""5314""
","
","
","""event"",""trial"",""time""
""fullscreenenter"",""0"",""5314""
","
","null","<div style=""font-size:60px;"">+</div>","","null","fixation","2021-07-01 21:39:39.020","","","","",""
"","mars-trial","86","340718","0.0-10.0-1.36","960","""event"",""trial"",""time""
""fullscreenenter"",""0"",""5314""
","
","
","""event"",""trial"",""time""
""fullscreenenter"",""0"",""5314""
","
","5350.5","<img style='border: 4px solid darkgrey;' src='img/tf1_37_M_ss3.jpeg'></img>","2","","exp","","0","<img src='img/tf1_37_T1_ss3_md.jpeg'></img>","0","true",""
"","html-keyboard-response","87","341221","0.0-10.0-0.37","960","""event"",""trial"",""time""
""fullscreenenter"",""0"",""5314""
","
","
","""event"",""trial"",""time""
""fullscreenenter"",""0"",""5314""
","
","null","<div style=""font-size:60px;"">+</div>","","null","fixation","2021-07-01 21:39:45.479","","","","",""
"","mars-trial","88","351109","0.0-10.0-1.37","960","""event"",""trial"",""time""
""fullscreenenter"",""0"",""5314""
","
","
","""event"",""trial"",""time""
""fullscreenenter"",""0"",""5314""
","
","9281.900000000373","<img style='border: 4px solid darkgrey;' src='img/tf1_38_M_ss1.jpeg'></img>","2","","exp","","0","<img src='img/tf1_38_T1_ss1_md.jpeg'></img>","0","true",""
"","html-keyboard-response","89","351611","0.0-10.0-0.38","960","""event"",""trial"",""time""
""fullscreenenter"",""0"",""5314""
","
","
","""event"",""trial"",""time""
""fullscreenenter"",""0"",""5314""
","
","null","<div style=""font-size:60px;"">+</div>","","null","fixation","2021-07-01 21:39:55.869","","","","",""
"","mars-trial","90","362995","0.0-10.0-1.38","960","""event"",""trial"",""time""
""fullscreenenter"",""0"",""5314""
","
","
","""event"",""trial"",""time""
""fullscreenenter"",""0"",""5314""
","
","10778.799999999814","<img style='border: 4px solid darkgrey;' src='img/tf1_39_M_ss2.jpeg'></img>","0","","exp","","0","<img src='img/tf1_39_T1_ss2_md.jpeg'></img>","0","true",""
"","html-keyboard-response","91","363497","0.0-10.0-0.39","960","""event"",""trial"",""time""
""fullscreenenter"",""0"",""5314""
","
","
","""event"",""trial"",""time""
""fullscreenenter"",""0"",""5314""
","
","null","<div style=""font-size:60px;"">+</div>","","null","fixation","2021-07-01 21:40:07.755","","","","",""
"","mars-trial","92","372949","0.0-10.0-1.39","960","""event"",""trial"",""time""
""fullscreenenter"",""0"",""5314""
","
","
","""event"",""trial"",""time""
""fullscreenenter"",""0"",""5314""
","
","8846.200000000186","<img style='border: 4px solid darkgrey;' src='img/tf1_40_M_ss3.jpeg'></img>","2","","exp","","3","<img src='img/tf1_40_T1_ss3_md.jpeg'></img>","0","false",""
"","html-keyboard-response","93","373451","0.0-10.0-0.40","960","""event"",""trial"",""time""
""fullscreenenter"",""0"",""5314""
","
","
","""event"",""trial"",""time""
""fullscreenenter"",""0"",""5314""
","
","null","<div style=""font-size:60px;"">+</div>","","null","fixation","2021-07-01 21:40:17.709","","","","",""
"","mars-trial","94","379749","0.0-10.0-1.40","960","""event"",""trial"",""time""
""fullscreenenter"",""0"",""5314""
","
","
","""event"",""trial"",""time""
""fullscreenenter"",""0"",""5314""
","
","5692.5999999996275","<img style='border: 4px solid darkgrey;' src='img/tf1_41_M_ss1.jpeg'></img>","3","","exp","","0","<img src='img/tf1_41_T1_ss1_md.jpeg'></img>","0","true",""
"","html-keyboard-response","95","380251","0.0-10.0-0.41","960","""event"",""trial"",""time""
""fullscreenenter"",""0"",""5314""
","
","
","""event"",""trial"",""time""
""fullscreenenter"",""0"",""5314""
","
","null","<div style=""font-size:60px;"">+</div>","","null","fixation","2021-07-01 21:40:24.509","","","","",""
"","mars-trial","96","387559","0.0-10.0-1.41","960","""event"",""trial"",""time""
""fullscreenenter"",""0"",""5314""
","
","
","""event"",""trial"",""time""
""fullscreenenter"",""0"",""5314""
","
","6702.100000000559","<img style='border: 4px solid darkgrey;' src='img/tf1_42_M_ss2.jpeg'></img>","3","","exp","","1","<img src='img/tf1_42_T1_ss2_md.jpeg'></img>","0","false",""
"","html-keyboard-response","97","388062","0.0-10.0-0.42","960","""event"",""trial"",""time""
""fullscreenenter"",""0"",""5314""
","
","
","""event"",""trial"",""time""
""fullscreenenter"",""0"",""5314""
","
","null","<div style=""font-size:60px;"">+</div>","","null","fixation","2021-07-01 21:40:32.320","","","","",""
"","mars-trial","98","396802","0.0-10.0-1.42","960","""event"",""trial"",""time""
""fullscreenenter"",""0"",""5314""
","
","
","""event"",""trial"",""time""
""fullscreenenter"",""0"",""5314""
","
","8134.5999999996275","<img style='border: 4px solid darkgrey;' src='img/tf1_43_M_ss3.jpeg'></img>","1","","exp","","0","<img src='img/tf1_43_T1_ss3_md.jpeg'></img>","0","true",""
"","html-keyboard-response","99","397305","0.0-10.0-0.43","960","""event"",""trial"",""time""
""fullscreenenter"",""0"",""5314""
","
","
","""event"",""trial"",""time""
""fullscreenenter"",""0"",""5314""
","
","null","<div style=""font-size:60px;"">+</div>","","null","fixation","2021-07-01 21:40:41.563","","","","",""
"","mars-trial","100","402694","0.0-10.0-1.43","960","""event"",""trial"",""time""
""fullscreenenter"",""0"",""5314""
","
","
","""event"",""trial"",""time""
""fullscreenenter"",""0"",""5314""
","
","4783.200000000186","<img style='border: 4px solid darkgrey;' src='img/tf1_44_M_ss1.jpeg'></img>","1","","exp","","3","<img src='img/tf1_44_T1_ss1_md.jpeg'></img>","0","false",""
"","html-keyboard-response","101","403197","0.0-10.0-0.44","960","""event"",""trial"",""time""
""fullscreenenter"",""0"",""5314""
","
","
","""event"",""trial"",""time""
""fullscreenenter"",""0"",""5314""
","
","null","<div style=""font-size:60px;"">+</div>","","null","fixation","2021-07-01 21:40:47.455","","","","",""
"","mars-trial","102","410500","0.0-10.0-1.44","960","""event"",""trial"",""time""
""fullscreenenter"",""0"",""5314""
","
","
","""event"",""trial"",""time""
""fullscreenenter"",""0"",""5314""
","
","6695.799999999814","<img style='border: 4px solid darkgrey;' src='img/tf1_45_M_ss2.jpeg'></img>","3","","exp","","3","<img src='img/tf1_45_T1_ss2_md.jpeg'></img>","0","false",""
"","html-keyboard-response","103","411002","0.0-10.0-0.45","960","""event"",""trial"",""time""
""fullscreenenter"",""0"",""5314""
","
","
","""event"",""trial"",""time""
""fullscreenenter"",""0"",""5314""
","
","null","<div style=""font-size:60px;"">+</div>","","null","fixation","2021-07-01 21:40:55.260","","","","",""
"","mars-trial","104","418242","0.0-10.0-1.45","960","""event"",""trial"",""time""
""fullscreenenter"",""0"",""5314""
","
","
","""event"",""trial"",""time""
""fullscreenenter"",""0"",""5314""
","
","6634","<img style='border: 4px solid darkgrey;' src='img/tf1_46_M_ss3.jpeg'></img>","1","","exp","","1","<img src='img/tf1_46_T1_ss3_md.jpeg'></img>","0","false",""
"","html-keyboard-response","105","418744","0.0-10.0-0.46","960","""event"",""trial"",""time""
""fullscreenenter"",""0"",""5314""
","
","
","""event"",""trial"",""time""
""fullscreenenter"",""0"",""5314""
","
","null","<div style=""font-size:60px;"">+</div>","","null","fixation","2021-07-01 21:41:03.002","","","","",""
"","mars-trial","106","420866","0.0-10.0-1.46","960","""event"",""trial"",""time""
""fullscreenenter"",""0"",""5314""
","
","
","""event"",""trial"",""time""
""fullscreenenter"",""0"",""5314""
","
","1517.300000000745","<img style='border: 4px solid darkgrey;' src='img/tf1_47_M_ss1.jpeg'></img>","2","","exp","","1","<img src='img/tf1_47_T1_ss1_md.jpeg'></img>","0","false",""
"","html-keyboard-response","107","421368","0.0-10.0-0.47","960","""event"",""trial"",""time""
""fullscreenenter"",""0"",""5314""
","
","
","""event"",""trial"",""time""
""fullscreenenter"",""0"",""5314""
","
","null","<div style=""font-size:60px;"">+</div>","","null","fixation","2021-07-01 21:41:05.627","","","","",""
"","mars-trial","108","422396","0.0-10.0-1.47","960","""event"",""trial"",""time""
""fullscreenenter"",""0"",""5314""
","
","
","""event"",""trial"",""time""
""fullscreenenter"",""0"",""5314""
","
","422.40000000037253","<img style='border: 4px solid darkgrey;' src='img/tf1_48_M_ss2.jpeg'></img>","1","","exp","","2","<img src='img/tf1_48_T1_ss2_md.jpeg'></img>","0","false",""
"","html-keyboard-response","109","422898","0.0-10.0-0.48","960","""event"",""trial"",""time""
""fullscreenenter"",""0"",""5314""
","
","
","""event"",""trial"",""time""
""fullscreenenter"",""0"",""5314""
","
","null","<div style=""font-size:60px;"">+</div>","","null","fixation","2021-07-01 21:41:07.156","","","","",""
"","mars-trial","110","424002","0.0-10.0-1.48","960","""event"",""trial"",""time""
""fullscreenenter"",""0"",""5314""
","
","
","""event"",""trial"",""time""
""fullscreenenter"",""0"",""5314""
","
","498.79999999981374","<img style='border: 4px solid darkgrey;' src='img/tf1_49_M_ss3.jpeg'></img>","0","","exp","","0","<img src='img/tf1_49_T1_ss3_md.jpeg'></img>","0","true",""
"","html-keyboard-response","111","424504","0.0-10.0-0.49","960","""event"",""trial"",""time""
""fullscreenenter"",""0"",""5314""
","
","
","""event"",""trial"",""time""
""fullscreenenter"",""0"",""5314""
","
","null","<div style=""font-size:60px;"">+</div>","","null","fixation","2021-07-01 21:41:08.762","","","","",""
"","mars-trial","112","430819","0.0-10.0-1.49","960","""event"",""trial"",""time""
""fullscreenenter"",""0"",""5314""
","
","
","""event"",""trial"",""time""
""fullscreenenter"",""0"",""5314""
","
","5710.5","<img style='border: 4px solid darkgrey;' src='img/tf1_50_M_ss1.jpeg'></img>","3","","exp","","2","<img src='img/tf1_50_T1_ss1_md.jpeg'></img>","0","false",""
"","html-keyboard-response","113","431322","0.0-10.0-0.50","960","""event"",""trial"",""time""
""fullscreenenter"",""0"",""5314""
","
","
","""event"",""trial"",""time""
""fullscreenenter"",""0"",""5314""
","
","null","<div style=""font-size:60px;"">+</div>","","null","fixation","2021-07-01 21:41:15.580","","","","",""
"","mars-trial","114","442751","0.0-10.0-1.50","960","""event"",""trial"",""time""
""fullscreenenter"",""0"",""5314""
","
","
","""event"",""trial"",""time""
""fullscreenenter"",""0"",""5314""
","
","10822.399999999441","<img style='border: 4px solid darkgrey;' src='img/tf1_51_M_ss2.jpeg'></img>","2","","exp","","2","<img src='img/tf1_51_T1_ss2_md.jpeg'></img>","0","false",""
"","html-keyboard-response","115","443254","0.0-10.0-0.51","960","""event"",""trial"",""time""
""fullscreenenter"",""0"",""5314""
""blur"",""116"",""447521""
""focus"",""116"",""447545""
""fullscreenexit"",""116"",""447546""
","""event"",""trial"",""time""
""blur"",""116"",""447521""
","""event"",""trial"",""time""
""focus"",""116"",""447545""
","""event"",""trial"",""time""
""fullscreenenter"",""0"",""5314""
","""event"",""trial"",""time""
""fullscreenexit"",""116"",""447546""
","null","<div style=""font-size:60px;"">+</div>","","null","fixation","2021-07-01 21:41:27.512","","","","",""
"","mars-trial","116","447555","0.0-10.0-1.51","960","""event"",""trial"",""time""
""fullscreenenter"",""0"",""5314""
""blur"",""116"",""447521""
""focus"",""116"",""447545""
""fullscreenexit"",""116"",""447546""
","""event"",""trial"",""time""
""blur"",""116"",""447521""
","""event"",""trial"",""time""
""focus"",""116"",""447545""
","""event"",""trial"",""time""
""fullscreenenter"",""0"",""5314""
","""event"",""trial"",""time""
""fullscreenexit"",""116"",""447546""
","2027.0999999996275","<img style='border: 4px solid darkgrey;' src='img/tf1_52_M_ss3.jpeg'></img>","0","","exp","","2","<img src='img/tf1_52_T1_ss3_md.jpeg'></img>","0","false",""
"","html-keyboard-response","117","448057","0.0-10.0-0.52","960","""event"",""trial"",""time""
""fullscreenenter"",""0"",""5314""
""blur"",""116"",""447521""
""focus"",""116"",""447545""
""fullscreenexit"",""116"",""447546""
","""event"",""trial"",""time""
""blur"",""116"",""447521""
","""event"",""trial"",""time""
""focus"",""116"",""447545""
","""event"",""trial"",""time""
""fullscreenenter"",""0"",""5314""
","""event"",""trial"",""time""
""fullscreenexit"",""116"",""447546""
","null","<div style=""font-size:60px;"">+</div>","","null","fixation","2021-07-01 21:41:32.316","","","","",""
"","mars-trial","118","450995","0.0-10.0-1.52","960","""event"",""trial"",""time""
""fullscreenenter"",""0"",""5314""
""blur"",""116"",""447521""
""focus"",""116"",""447545""
""fullscreenexit"",""116"",""447546""
","""event"",""trial"",""time""
""blur"",""116"",""447521""
","""event"",""trial"",""time""
""focus"",""116"",""447545""
","""event"",""trial"",""time""
""fullscreenenter"",""0"",""5314""
","""event"",""trial"",""time""
""fullscreenexit"",""116"",""447546""
","2330.5","<img style='border: 4px solid darkgrey;' src='img/tf1_53_M_ss1.jpeg'></img>","3","","exp","","2","<img src='img/tf1_53_T1_ss1_md.jpeg'></img>","0","false",""
"","html-keyboard-response","119","451497","0.0-10.0-0.53","960","""event"",""trial"",""time""
""fullscreenenter"",""0"",""5314""
""blur"",""116"",""447521""
""focus"",""116"",""447545""
""fullscreenexit"",""116"",""447546""
","""event"",""trial"",""time""
""blur"",""116"",""447521""
","""event"",""trial"",""time""
""focus"",""116"",""447545""
","""event"",""trial"",""time""
""fullscreenenter"",""0"",""5314""
","""event"",""trial"",""time""
""fullscreenexit"",""116"",""447546""
","null","<div style=""font-size:60px;"">+</div>","","null","fixation","2021-07-01 21:41:35.755","","","","",""
"","mars-trial","120","455120","0.0-10.0-1.53","960","""event"",""trial"",""time""
""fullscreenenter"",""0"",""5314""
""blur"",""116"",""447521""
""focus"",""116"",""447545""
""fullscreenexit"",""116"",""447546""
","""event"",""trial"",""time""
""blur"",""116"",""447521""
","""event"",""trial"",""time""
""focus"",""116"",""447545""
","""event"",""trial"",""time""
""fullscreenenter"",""0"",""5314""
","""event"",""trial"",""time""
""fullscreenexit"",""116"",""447546""
","3017","<img style='border: 4px solid darkgrey;' src='img/tf1_54_M_ss2.jpeg'></img>","1","","exp","","0","<img src='img/tf1_54_T1_ss2_md.jpeg'></img>","0","true",""
"","html-keyboard-response","121","455622","0.0-10.0-0.54","960","""event"",""trial"",""time""
""fullscreenenter"",""0"",""5314""
""blur"",""116"",""447521""
""focus"",""116"",""447545""
""fullscreenexit"",""116"",""447546""
","""event"",""trial"",""time""
""blur"",""116"",""447521""
","""event"",""trial"",""time""
""focus"",""116"",""447545""
","""event"",""trial"",""time""
""fullscreenenter"",""0"",""5314""
","""event"",""trial"",""time""
""fullscreenexit"",""116"",""447546""
","null","<div style=""font-size:60px;"">+</div>","","null","fixation","2021-07-01 21:41:39.880","","","","",""
"","mars-trial","122","463298","0.0-10.0-1.54","960","""event"",""trial"",""time""
""fullscreenenter"",""0"",""5314""
""blur"",""116"",""447521""
""focus"",""116"",""447545""
""fullscreenexit"",""116"",""447546""
","""event"",""trial"",""time""
""blur"",""116"",""447521""
","""event"",""trial"",""time""
""focus"",""116"",""447545""
","""event"",""trial"",""time""
""fullscreenenter"",""0"",""5314""
","""event"",""trial"",""time""
""fullscreenexit"",""116"",""447546""
","7070.5999999996275","<img style='border: 4px solid darkgrey;' src='img/tf1_55_M_ss3.jpeg'></img>","3","","exp","","1","<img src='img/tf1_55_T1_ss3_md.jpeg'></img>","0","false",""
"","html-keyboard-response","123","463800","0.0-10.0-0.55","960","""event"",""trial"",""time""
""fullscreenenter"",""0"",""5314""
""blur"",""116"",""447521""
""focus"",""116"",""447545""
""fullscreenexit"",""116"",""447546""
","""event"",""trial"",""time""
""blur"",""116"",""447521""
","""event"",""trial"",""time""
""focus"",""116"",""447545""
","""event"",""trial"",""time""
""fullscreenenter"",""0"",""5314""
","""event"",""trial"",""time""
""fullscreenexit"",""116"",""447546""
","null","<div style=""font-size:60px;"">+</div>","","null","fixation","2021-07-01 21:41:48.058","","","","",""
"","mars-trial","124","473383","0.0-10.0-1.55","960","""event"",""trial"",""time""
""fullscreenenter"",""0"",""5314""
""blur"",""116"",""447521""
""focus"",""116"",""447545""
""fullscreenexit"",""116"",""447546""
","""event"",""trial"",""time""
""blur"",""116"",""447521""
","""event"",""trial"",""time""
""focus"",""116"",""447545""
","""event"",""trial"",""time""
""fullscreenenter"",""0"",""5314""
","""event"",""trial"",""time""
""fullscreenexit"",""116"",""447546""
","8977.299999999814","<img style='border: 4px solid darkgrey;' src='img/tf1_56_M_ss1.jpeg'></img>","3","","exp","","3","<img src='img/tf1_56_T1_ss1_md.jpeg'></img>","0","false",""
"","html-keyboard-response","125","473886","0.0-10.0-0.56","960","""event"",""trial"",""time""
""fullscreenenter"",""0"",""5314""
""blur"",""116"",""447521""
""focus"",""116"",""447545""
""fullscreenexit"",""116"",""447546""
","""event"",""trial"",""time""
""blur"",""116"",""447521""
","""event"",""trial"",""time""
""focus"",""116"",""447545""
","""event"",""trial"",""time""
""fullscreenenter"",""0"",""5314""
","""event"",""trial"",""time""
""fullscreenexit"",""116"",""447546""
","null","<div style=""font-size:60px;"">+</div>","","null","fixation","2021-07-01 21:41:58.144","","","","",""
"","mars-trial","126","482176","0.0-10.0-1.56","960","""event"",""trial"",""time""
""fullscreenenter"",""0"",""5314""
""blur"",""116"",""447521""
""focus"",""116"",""447545""
""fullscreenexit"",""116"",""447546""
","""event"",""trial"",""time""
""blur"",""116"",""447521""
","""event"",""trial"",""time""
""focus"",""116"",""447545""
","""event"",""trial"",""time""
""fullscreenenter"",""0"",""5314""
","""event"",""trial"",""time""
""fullscreenexit"",""116"",""447546""
","7684","<img style='border: 4px solid darkgrey;' src='img/tf1_57_M_ss2.jpeg'></img>","2","","exp","","3","<img src='img/tf1_57_T1_ss2_md.jpeg'></img>","0","false",""
"","html-keyboard-response","127","482678","0.0-10.0-0.57","960","""event"",""trial"",""time""
""fullscreenenter"",""0"",""5314""
""blur"",""116"",""447521""
""focus"",""116"",""447545""
""fullscreenexit"",""116"",""447546""
","""event"",""trial"",""time""
""blur"",""116"",""447521""
","""event"",""trial"",""time""
""focus"",""116"",""447545""
","""event"",""trial"",""time""
""fullscreenenter"",""0"",""5314""
","""event"",""trial"",""time""
""fullscreenexit"",""116"",""447546""
","null","<div style=""font-size:60px;"">+</div>","","null","fixation","2021-07-01 21:42:06.936","","","","",""
"","mars-trial","128","492868","0.0-10.0-1.57","960","""event"",""trial"",""time""
""fullscreenenter"",""0"",""5314""
""blur"",""116"",""447521""
""focus"",""116"",""447545""
""fullscreenexit"",""116"",""447546""
","""event"",""trial"",""time""
""blur"",""116"",""447521""
","""event"",""trial"",""time""
""focus"",""116"",""447545""
","""event"",""trial"",""time""
""fullscreenenter"",""0"",""5314""
","""event"",""trial"",""time""
""fullscreenexit"",""116"",""447546""
","9584.099999999627","<img style='border: 4px solid darkgrey;' src='img/tf1_58_M_ss3.jpeg'></img>","0","","exp","","0","<img src='img/tf1_58_T1_ss3_md.jpeg'></img>","0","true",""
"","html-keyboard-response","129","493370","0.0-10.0-0.58","960","""event"",""trial"",""time""
""fullscreenenter"",""0"",""5314""
""blur"",""116"",""447521""
""focus"",""116"",""447545""
""fullscreenexit"",""116"",""447546""
","""event"",""trial"",""time""
""blur"",""116"",""447521""
","""event"",""trial"",""time""
""focus"",""116"",""447545""
","""event"",""trial"",""time""
""fullscreenenter"",""0"",""5314""
","""event"",""trial"",""time""
""fullscreenexit"",""116"",""447546""
","null","<div style=""font-size:60px;"">+</div>","","null","fixation","2021-07-01 21:42:17.628","","","","",""
"","mars-trial","130","505016","0.0-10.0-1.58","960","""event"",""trial"",""time""
""fullscreenenter"",""0"",""5314""
""blur"",""116"",""447521""
""focus"",""116"",""447545""
""fullscreenexit"",""116"",""447546""
","""event"",""trial"",""time""
""blur"",""116"",""447521""
","""event"",""trial"",""time""
""focus"",""116"",""447545""
","""event"",""trial"",""time""
""fullscreenenter"",""0"",""5314""
","""event"",""trial"",""time""
""fullscreenexit"",""116"",""447546""
","11040.299999999814","<img style='border: 4px solid darkgrey;' src='img/tf1_59_M_ss1.jpeg'></img>","3","","exp","","2","<img src='img/tf1_59_T1_ss1_md.jpeg'></img>","0","false",""
"","html-keyboard-response","131","505518","0.0-10.0-0.59","960","""event"",""trial"",""time""
""fullscreenenter"",""0"",""5314""
""blur"",""116"",""447521""
""focus"",""116"",""447545""
""fullscreenexit"",""116"",""447546""
","""event"",""trial"",""time""
""blur"",""116"",""447521""
","""event"",""trial"",""time""
""focus"",""116"",""447545""
","""event"",""trial"",""time""
""fullscreenenter"",""0"",""5314""
","""event"",""trial"",""time""
""fullscreenexit"",""116"",""447546""
","null","<div style=""font-size:60px;"">+</div>","","null","fixation","2021-07-01 21:42:29.776","","","","",""
"","mars-trial","132","511802","0.0-10.0-1.59","960","""event"",""trial"",""time""
""fullscreenenter"",""0"",""5314""
""blur"",""116"",""447521""
""focus"",""116"",""447545""
""fullscreenexit"",""116"",""447546""
","""event"",""trial"",""time""
""blur"",""116"",""447521""
","""event"",""trial"",""time""
""focus"",""116"",""447545""
","""event"",""trial"",""time""
""fullscreenenter"",""0"",""5314""
","""event"",""trial"",""time""
""fullscreenexit"",""116"",""447546""
","5677.200000000186","<img style='border: 4px solid darkgrey;' src='img/tf1_60_M_ss2.jpeg'></img>","2","","exp","","2","<img src='img/tf1_60_T1_ss2_md.jpeg'></img>","0","false",""
"","html-keyboard-response","133","512304","0.0-10.0-0.60","960","""event"",""trial"",""time""
""fullscreenenter"",""0"",""5314""
""blur"",""116"",""447521""
""focus"",""116"",""447545""
""fullscreenexit"",""116"",""447546""
","""event"",""trial"",""time""
""blur"",""116"",""447521""
","""event"",""trial"",""time""
""focus"",""116"",""447545""
","""event"",""trial"",""time""
""fullscreenenter"",""0"",""5314""
","""event"",""trial"",""time""
""fullscreenexit"",""116"",""447546""
","null","<div style=""font-size:60px;"">+</div>","","null","fixation","2021-07-01 21:42:36.562","","","","",""
"","mars-trial","134","516514","0.0-10.0-1.60","960","""event"",""trial"",""time""
""fullscreenenter"",""0"",""5314""
""blur"",""116"",""447521""
""focus"",""116"",""447545""
""fullscreenexit"",""116"",""447546""
","""event"",""trial"",""time""
""blur"",""116"",""447521""
","""event"",""trial"",""time""
""focus"",""116"",""447545""
","""event"",""trial"",""time""
""fullscreenenter"",""0"",""5314""
","""event"",""trial"",""time""
""fullscreenexit"",""116"",""447546""
","3605.0999999996275","<img style='border: 4px solid darkgrey;' src='img/tf1_61_M_ss3.jpeg'></img>","0","","exp","","1","<img src='img/tf1_61_T1_ss3_md.jpeg'></img>","0","false",""
"","html-keyboard-response","135","517016","0.0-10.0-0.61","960","""event"",""trial"",""time""
""fullscreenenter"",""0"",""5314""
""blur"",""116"",""447521""
""focus"",""116"",""447545""
""fullscreenexit"",""116"",""447546""
","""event"",""trial"",""time""
""blur"",""116"",""447521""
","""event"",""trial"",""time""
""focus"",""116"",""447545""
","""event"",""trial"",""time""
""fullscreenenter"",""0"",""5314""
","""event"",""trial"",""time""
""fullscreenexit"",""116"",""447546""
","null","<div style=""font-size:60px;"">+</div>","","null","fixation","2021-07-01 21:42:41.274","","","","",""
"","mars-trial","136","518821","0.0-10.0-1.61","960","""event"",""trial"",""time""
""fullscreenenter"",""0"",""5314""
""blur"",""116"",""447521""
""focus"",""116"",""447545""
""fullscreenexit"",""116"",""447546""
","""event"",""trial"",""time""
""blur"",""116"",""447521""
","""event"",""trial"",""time""
""focus"",""116"",""447545""
","""event"",""trial"",""time""
""fullscreenenter"",""0"",""5314""
","""event"",""trial"",""time""
""fullscreenexit"",""116"",""447546""
","1198.9000000003725","<img style='border: 4px solid darkgrey;' src='img/tf1_62_M_ss1.jpeg'></img>","3","","exp","","0","<img src='img/tf1_62_T1_ss1_md.jpeg'></img>","0","true",""
"","html-keyboard-response","137","519324","0.0-10.0-0.62","960","""event"",""trial"",""time""
""fullscreenenter"",""0"",""5314""
""blur"",""116"",""447521""
""focus"",""116"",""447545""
""fullscreenexit"",""116"",""447546""
","""event"",""trial"",""time""
""blur"",""116"",""447521""
","""event"",""trial"",""time""
""focus"",""116"",""447545""
","""event"",""trial"",""time""
""fullscreenenter"",""0"",""5314""
","""event"",""trial"",""time""
""fullscreenexit"",""116"",""447546""
","null","<div style=""font-size:60px;"">+</div>","","null","fixation","2021-07-01 21:42:43.582","","","","",""
"","mars-trial","138","535446","0.0-10.0-1.62","960","""event"",""trial"",""time""
""fullscreenenter"",""0"",""5314""
""blur"",""116"",""447521""
""focus"",""116"",""447545""
""fullscreenexit"",""116"",""447546""
","""event"",""trial"",""time""
""blur"",""116"",""447521""
","""event"",""trial"",""time""
""focus"",""116"",""447545""
","""event"",""trial"",""time""
""fullscreenenter"",""0"",""5314""
","""event"",""trial"",""time""
""fullscreenexit"",""116"",""447546""
","15516.299999999814","<img style='border: 4px solid darkgrey;' src='img/tf1_63_M_ss2.jpeg'></img>","0","","exp","","2","<img src='img/tf1_63_T1_ss2_md.jpeg'></img>","0","false",""
"","html-keyboard-response","139","535948","0.0-10.0-0.63","960","""event"",""trial"",""time""
""fullscreenenter"",""0"",""5314""
""blur"",""116"",""447521""
""focus"",""116"",""447545""
""fullscreenexit"",""116"",""447546""
","""event"",""trial"",""time""
""blur"",""116"",""447521""
","""event"",""trial"",""time""
""focus"",""116"",""447545""
","""event"",""trial"",""time""
""fullscreenenter"",""0"",""5314""
","""event"",""trial"",""time""
""fullscreenexit"",""116"",""447546""
","null","<div style=""font-size:60px;"">+</div>","","null","fixation","2021-07-01 21:43:00.206","","","","",""
"","mars-trial","140","542049","0.0-10.0-1.63","960","""event"",""trial"",""time""
""fullscreenenter"",""0"",""5314""
""blur"",""116"",""447521""
""focus"",""116"",""447545""
""fullscreenexit"",""116"",""447546""
","""event"",""trial"",""time""
""blur"",""116"",""447521""
","""event"",""trial"",""time""
""focus"",""116"",""447545""
","""event"",""trial"",""time""
""fullscreenenter"",""0"",""5314""
","""event"",""trial"",""time""
""fullscreenexit"",""116"",""447546""
","5495.199999999255","<img style='border: 4px solid darkgrey;' src='img/tf1_64_M_ss3.jpeg'></img>","3","","exp","","1","<img src='img/tf1_64_T1_ss3_md.jpeg'></img>","0","false",""
"","html-keyboard-response","141","542551","0.0-10.0-0.64","960","""event"",""trial"",""time""
""fullscreenenter"",""0"",""5314""
""blur"",""116"",""447521""
""focus"",""116"",""447545""
""fullscreenexit"",""116"",""447546""
","""event"",""trial"",""time""
""blur"",""116"",""447521""
","""event"",""trial"",""time""
""focus"",""116"",""447545""
","""event"",""trial"",""time""
""fullscreenenter"",""0"",""5314""
","""event"",""trial"",""time""
""fullscreenexit"",""116"",""447546""
","null","<div style=""font-size:60px;"">+</div>","","null","fixation","2021-07-01 21:43:06.809","","","","",""
"","mars-trial","142","550773","0.0-10.0-1.64","960","""event"",""trial"",""time""
""fullscreenenter"",""0"",""5314""
""blur"",""116"",""447521""
""focus"",""116"",""447545""
""fullscreenexit"",""116"",""447546""
","""event"",""trial"",""time""
""blur"",""116"",""447521""
","""event"",""trial"",""time""
""focus"",""116"",""447545""
","""event"",""trial"",""time""
""fullscreenenter"",""0"",""5314""
","""event"",""trial"",""time""
""fullscreenexit"",""116"",""447546""
","","","","","exp","","","<img src='img/tf1_65_T1_ss1_md.jpeg'></img>","0","false",""
"","html-keyboard-response","143","551275","0.0-10.0-0.65","960","""event"",""trial"",""time""
""fullscreenenter"",""0"",""5314""
""blur"",""116"",""447521""
""focus"",""116"",""447545""
""fullscreenexit"",""116"",""447546""
","""event"",""trial"",""time""
""blur"",""116"",""447521""
","""event"",""trial"",""time""
""focus"",""116"",""447545""
","""event"",""trial"",""time""
""fullscreenenter"",""0"",""5314""
","""event"",""trial"",""time""
""fullscreenexit"",""116"",""447546""
","null","<div style=""font-size:60px;"">+</div>","","null","fixation","2021-07-01 21:43:15.533","","","","",""
"","audio-button-response","144","554502","0.0-11.0","960","""event"",""trial"",""time""
""fullscreenenter"",""0"",""5314""
""blur"",""116"",""447521""
""focus"",""116"",""447545""
""fullscreenexit"",""116"",""447546""
","""event"",""trial"",""time""
""blur"",""116"",""447521""
","""event"",""trial"",""time""
""focus"",""116"",""447545""
","""event"",""trial"",""time""
""fullscreenenter"",""0"",""5314""
","""event"",""trial"",""time""
""fullscreenexit"",""116"",""447546""
","3124.0999999996275","audio/mars_instructions_slide5.wav","0","","","","","","","",""
