"success","trial_type","trial_index","time_elapsed","internal_node_id","subject_id","interactions","blur_events","focus_events","fullscreenenter_events","fullscreenexit_events","rt","stimulus","button_pressed","key_press","part","timestamp","unshuffled_button","correct_response","correct_button","correct","value"
"true","fullscreen","0","3806","0.0-0.0","A941","""event"",""trial"",""time""
""fullscreenenter"",""0"",""2876""
","
","
","""event"",""trial"",""time""
""fullscreenenter"",""0"",""2876""
","
","","","","","","","","","","",""
"","pavlovia","1","3829","0.0-1.0","A941","""event"",""trial"",""time""
""fullscreenenter"",""0"",""2876""
","
","
","""event"",""trial"",""time""
""fullscreenenter"",""0"",""2876""
","
","","","","","","","","","","",""
"","html-button-response","2","5598","0.0-2.0","A941","""event"",""trial"",""time""
""fullscreenenter"",""0"",""2876""
","
","
","""event"",""trial"",""time""
""fullscreenenter"",""0"",""2876""
","
","1763.4600000455976","<p>Welcome! Press START to begin.</p><br>","0","","","","","","","",""
"","audio-button-response","3","26621","0.0-3.0","A941","""event"",""trial"",""time""
""fullscreenenter"",""0"",""2876""
","
","
","""event"",""trial"",""time""
""fullscreenenter"",""0"",""2876""
","
","21017.969999928027","audio/mars_instructions_slide2.wav","0","","","","","","","",""
"","audio-button-response","4","43048","0.0-4.0","A941","""event"",""trial"",""time""
""fullscreenenter"",""0"",""2876""
","
","
","""event"",""trial"",""time""
""fullscreenenter"",""0"",""2876""
","
","16425.014999927953","audio/mars_instructions_slide3.wav","0","","","","","","","",""
"","html-keyboard-response","5","43555","0.0-5.0-0.0","A941","""event"",""trial"",""time""
""fullscreenenter"",""0"",""2876""
","
","
","""event"",""trial"",""time""
""fullscreenenter"",""0"",""2876""
","
","null","<div style=""font-size:60px;"">+</div>","","null","fixation","2021-04-06 03:40:48.153","","","","",""
"","mars-trial","6","51128","0.0-5.0-1.0","A941","""event"",""trial"",""time""
""fullscreenenter"",""0"",""2876""
","
","
","""event"",""trial"",""time""
""fullscreenenter"",""0"",""2876""
","
","5446.840000106022","<img style='border: 4px solid darkgrey;' src='practice/pt1_M1.png'></img>","1","","practice","","0","<img src='practice/pt1_T1.png'></img>","0","true",""
"","html-keyboard-response","7","51641","0.0-6.0-0.0","A941","""event"",""trial"",""time""
""fullscreenenter"",""0"",""2876""
","
","
","""event"",""trial"",""time""
""fullscreenenter"",""0"",""2876""
","
","null","<div style=""font-size:60px;"">+</div>","","null","fixation","2021-04-06 03:40:56.239","","","","",""
"","mars-trial","8","58487","0.0-6.0-1.0","A941","""event"",""trial"",""time""
""fullscreenenter"",""0"",""2876""
","
","
","""event"",""trial"",""time""
""fullscreenenter"",""0"",""2876""
","
","4723.410000093281","<img style='border: 4px solid darkgrey;' src='practice/pt2_M1.png'></img>","0","","practice","","0","<img src='practice/pt2_T1.png'></img>","0","true",""
"","html-keyboard-response","9","59004","0.0-7.0-0.0","A941","""event"",""trial"",""time""
""fullscreenenter"",""0"",""2876""
","
","
","""event"",""trial"",""time""
""fullscreenenter"",""0"",""2876""
","
","null","<div style=""font-size:60px;"">+</div>","","null","fixation","2021-04-06 03:41:03.602","","","","",""
"","mars-trial","10","63476","0.0-7.0-1.0","A941","""event"",""trial"",""time""
""fullscreenenter"",""0"",""2876""
","
","
","""event"",""trial"",""time""
""fullscreenenter"",""0"",""2876""
","
","2341.7799999006093","<img style='border: 4px solid darkgrey;' src='practice/pt3_M1.png'></img>","1","","practice","","0","<img src='practice/pt3_T1.png'></img>","0","true",""
"","audio-button-response","11","67733","0.0-8.0","A941","""event"",""trial"",""time""
""fullscreenenter"",""0"",""2876""
","
","
","""event"",""trial"",""time""
""fullscreenenter"",""0"",""2876""
","
","4252.014999976382","audio/mars_instructions_slide4.wav","0","","","","","","","",""
"","call-function","12","67735","0.0-9.0","A941","""event"",""trial"",""time""
""fullscreenenter"",""0"",""2876""
","
","
","""event"",""trial"",""time""
""fullscreenenter"",""0"",""2876""
","
","","","","","","","","","","",""
"","html-keyboard-response","13","68238","0.0-10.0-0.0","A941","""event"",""trial"",""time""
""fullscreenenter"",""0"",""2876""
","
","
","""event"",""trial"",""time""
""fullscreenenter"",""0"",""2876""
","
","null","<div style=""font-size:60px;"">+</div>","","null","fixation","2021-04-06 03:41:12.836","","","","",""
"","mars-trial","14","70781","0.0-10.0-1.0","A941","""event"",""trial"",""time""
""fullscreenenter"",""0"",""2876""
","
","
","""event"",""trial"",""time""
""fullscreenenter"",""0"",""2876""
","
","1920.5350000411272","<img style='border: 4px solid darkgrey;' src='img/tf1_1_M_ss3.jpeg'></img>","1","","exp","","0","<img src='img/tf1_1_T1_ss3_md.jpeg'></img>","0","true",""
"","html-keyboard-response","15","71288","0.0-10.0-0.1","A941","""event"",""trial"",""time""
""fullscreenenter"",""0"",""2876""
","
","
","""event"",""trial"",""time""
""fullscreenenter"",""0"",""2876""
","
","null","<div style=""font-size:60px;"">+</div>","","null","fixation","2021-04-06 03:41:15.886","","","","",""
"","mars-trial","16","74024","0.0-10.0-1.1","A941","""event"",""trial"",""time""
""fullscreenenter"",""0"",""2876""
","
","
","""event"",""trial"",""time""
""fullscreenenter"",""0"",""2876""
","
","2114.860000088811","<img style='border: 4px solid darkgrey;' src='img/tf1_2_M_ss1.jpeg'></img>","2","","exp","","0","<img src='img/tf1_2_T1_ss1_md.jpeg'></img>","0","true",""
"","html-keyboard-response","17","74531","0.0-10.0-0.2","A941","""event"",""trial"",""time""
""fullscreenenter"",""0"",""2876""
","
","
","""event"",""trial"",""time""
""fullscreenenter"",""0"",""2876""
","
","null","<div style=""font-size:60px;"">+</div>","","null","fixation","2021-04-06 03:41:19.130","","","","",""
"","mars-trial","18","77944","0.0-10.0-1.2","A941","""event"",""trial"",""time""
""fullscreenenter"",""0"",""2876""
","
","
","""event"",""trial"",""time""
""fullscreenenter"",""0"",""2876""
","
","2788.2350001018494","<img style='border: 4px solid darkgrey;' src='img/tf1_3_M_ss2.jpeg'></img>","1","","exp","","0","<img src='img/tf1_3_T1_ss2_md.jpeg'></img>","0","true",""
"","html-keyboard-response","19","78462","0.0-10.0-0.3","A941","""event"",""trial"",""time""
""fullscreenenter"",""0"",""2876""
","
","
","""event"",""trial"",""time""
""fullscreenenter"",""0"",""2876""
","
","null","<div style=""font-size:60px;"">+</div>","","null","fixation","2021-04-06 03:41:23.060","","","","",""
"","mars-trial","20","81680","0.0-10.0-1.3","A941","""event"",""trial"",""time""
""fullscreenenter"",""0"",""2876""
","
","
","""event"",""trial"",""time""
""fullscreenenter"",""0"",""2876""
","
","2602.764999959618","<img style='border: 4px solid darkgrey;' src='img/tf1_4_M_ss3.jpeg'></img>","2","","exp","","0","<img src='img/tf1_4_T1_ss3_md.jpeg'></img>","0","true",""
"","html-keyboard-response","21","82191","0.0-10.0-0.4","A941","""event"",""trial"",""time""
""fullscreenenter"",""0"",""2876""
","
","
","""event"",""trial"",""time""
""fullscreenenter"",""0"",""2876""
","
","null","<div style=""font-size:60px;"">+</div>","","null","fixation","2021-04-06 03:41:26.791","","","","",""
"","mars-trial","22","84756","0.0-10.0-1.4","A941","""event"",""trial"",""time""
""fullscreenenter"",""0"",""2876""
","
","
","""event"",""trial"",""time""
""fullscreenenter"",""0"",""2876""
","
","1942.2750000376254","<img style='border: 4px solid darkgrey;' src='img/tf1_5_M_ss1.jpeg'></img>","0","","exp","","0","<img src='img/tf1_5_T1_ss1_md.jpeg'></img>","0","true",""
"","html-keyboard-response","23","85277","0.0-10.0-0.5","A941","""event"",""trial"",""time""
""fullscreenenter"",""0"",""2876""
","
","
","""event"",""trial"",""time""
""fullscreenenter"",""0"",""2876""
","
","null","<div style=""font-size:60px;"">+</div>","","null","fixation","2021-04-06 03:41:29.875","","","","",""
"","mars-trial","24","91572","0.0-10.0-1.5","A941","""event"",""trial"",""time""
""fullscreenenter"",""0"",""2876""
","
","
","""event"",""trial"",""time""
""fullscreenenter"",""0"",""2876""
","
","5682.925000088289","<img style='border: 4px solid darkgrey;' src='img/tf1_6_M_ss2.jpeg'></img>","3","","exp","","2","<img src='img/tf1_6_T1_ss2_md.jpeg'></img>","0","false",""
"","html-keyboard-response","25","92077","0.0-10.0-0.6","A941","""event"",""trial"",""time""
""fullscreenenter"",""0"",""2876""
","
","
","""event"",""trial"",""time""
""fullscreenenter"",""0"",""2876""
","
","null","<div style=""font-size:60px;"">+</div>","","null","fixation","2021-04-06 03:41:36.675","","","","",""
"","mars-trial","26","95390","0.0-10.0-1.6","A941","""event"",""trial"",""time""
""fullscreenenter"",""0"",""2876""
","
","
","""event"",""trial"",""time""
""fullscreenenter"",""0"",""2876""
","
","2696.4950000401586","<img style='border: 4px solid darkgrey;' src='img/tf1_7_M_ss3.jpeg'></img>","2","","exp","","0","<img src='img/tf1_7_T1_ss3_md.jpeg'></img>","0","true",""
"","html-keyboard-response","27","95901","0.0-10.0-0.7","A941","""event"",""trial"",""time""
""fullscreenenter"",""0"",""2876""
","
","
","""event"",""trial"",""time""
""fullscreenenter"",""0"",""2876""
","
","null","<div style=""font-size:60px;"">+</div>","","null","fixation","2021-04-06 03:41:40.500","","","","",""
"","mars-trial","28","100389","0.0-10.0-1.7","A941","""event"",""trial"",""time""
""fullscreenenter"",""0"",""2876""
","
","
","""event"",""trial"",""time""
""fullscreenenter"",""0"",""2876""
","
","3867.9800000973046","<img style='border: 4px solid darkgrey;' src='img/tf1_8_M_ss1.jpeg'></img>","3","","exp","","0","<img src='img/tf1_8_T1_ss1_md.jpeg'></img>","0","true",""
"","html-keyboard-response","29","100898","0.0-10.0-0.8","A941","""event"",""trial"",""time""
""fullscreenenter"",""0"",""2876""
","
","
","""event"",""trial"",""time""
""fullscreenenter"",""0"",""2876""
","
","null","<div style=""font-size:60px;"">+</div>","","null","fixation","2021-04-06 03:41:45.496","","","","",""
"","mars-trial","30","106270","0.0-10.0-1.8","A941","""event"",""trial"",""time""
""fullscreenenter"",""0"",""2876""
","
","
","""event"",""trial"",""time""
""fullscreenenter"",""0"",""2876""
","
","4748.129999963567","<img style='border: 4px solid darkgrey;' src='img/tf1_9_M_ss2.jpeg'></img>","0","","exp","","2","<img src='img/tf1_9_T1_ss2_md.jpeg'></img>","0","false",""
"","html-keyboard-response","31","106776","0.0-10.0-0.9","A941","""event"",""trial"",""time""
""fullscreenenter"",""0"",""2876""
","
","
","""event"",""trial"",""time""
""fullscreenenter"",""0"",""2876""
","
","null","<div style=""font-size:60px;"">+</div>","","null","fixation","2021-04-06 03:41:51.375","","","","",""
"","mars-trial","32","113647","0.0-10.0-1.9","A941","""event"",""trial"",""time""
""fullscreenenter"",""0"",""2876""
","
","
","""event"",""trial"",""time""
""fullscreenenter"",""0"",""2876""
","
","6251.784999854863","<img style='border: 4px solid darkgrey;' src='img/tf1_10_M_ss3.jpeg'></img>","1","","exp","","1","<img src='img/tf1_10_T1_ss3_md.jpeg'></img>","0","false",""
"","html-keyboard-response","33","114155","0.0-10.0-0.10","A941","""event"",""trial"",""time""
""fullscreenenter"",""0"",""2876""
","
","
","""event"",""trial"",""time""
""fullscreenenter"",""0"",""2876""
","
","null","<div style=""font-size:60px;"">+</div>","","null","fixation","2021-04-06 03:41:58.753","","","","",""
"","mars-trial","34","126529","0.0-10.0-1.10","A941","""event"",""trial"",""time""
""fullscreenenter"",""0"",""2876""
","
","
","""event"",""trial"",""time""
""fullscreenenter"",""0"",""2876""
","
","11759.42000001669","<img style='border: 4px solid darkgrey;' src='img/tf1_11_M_ss1.jpeg'></img>","1","","exp","","2","<img src='img/tf1_11_T1_ss1_md.jpeg'></img>","0","false",""
"","html-keyboard-response","35","127033","0.0-10.0-0.11","A941","""event"",""trial"",""time""
""fullscreenenter"",""0"",""2876""
","
","
","""event"",""trial"",""time""
""fullscreenenter"",""0"",""2876""
","
","null","<div style=""font-size:60px;"">+</div>","","null","fixation","2021-04-06 03:42:11.631","","","","",""
"","mars-trial","36","143023","0.0-10.0-1.11","A941","""event"",""trial"",""time""
""fullscreenenter"",""0"",""2876""
","
","
","""event"",""trial"",""time""
""fullscreenenter"",""0"",""2876""
","
","15374.665000010282","<img style='border: 4px solid darkgrey;' src='img/tf1_12_M_ss2.jpeg'></img>","0","","exp","","2","<img src='img/tf1_12_T1_ss2_md.jpeg'></img>","0","false",""
"","html-keyboard-response","37","143529","0.0-10.0-0.12","A941","""event"",""trial"",""time""
""fullscreenenter"",""0"",""2876""
","
","
","""event"",""trial"",""time""
""fullscreenenter"",""0"",""2876""
","
","null","<div style=""font-size:60px;"">+</div>","","null","fixation","2021-04-06 03:42:28.128","","","","",""
"","mars-trial","38","154770","0.0-10.0-1.12","A941","""event"",""trial"",""time""
""fullscreenenter"",""0"",""2876""
","
","
","""event"",""trial"",""time""
""fullscreenenter"",""0"",""2876""
","
","10619.715000037104","<img style='border: 4px solid darkgrey;' src='img/tf1_13_M_ss3.jpeg'></img>","0","","exp","","3","<img src='img/tf1_13_T1_ss3_md.jpeg'></img>","0","false",""
"","html-keyboard-response","39","155276","0.0-10.0-0.13","A941","""event"",""trial"",""time""
""fullscreenenter"",""0"",""2876""
","
","
","""event"",""trial"",""time""
""fullscreenenter"",""0"",""2876""
","
","null","<div style=""font-size:60px;"">+</div>","","null","fixation","2021-04-06 03:42:39.874","","","","",""
"","mars-trial","40","171939","0.0-10.0-1.13","A941","""event"",""trial"",""time""
""fullscreenenter"",""0"",""2876""
","
","
","""event"",""trial"",""time""
""fullscreenenter"",""0"",""2876""
","
","16049.179999856278","<img style='border: 4px solid darkgrey;' src='img/tf1_14_M_ss1.jpeg'></img>","3","","exp","","1","<img src='img/tf1_14_T1_ss1_md.jpeg'></img>","0","false",""
"","html-keyboard-response","41","172448","0.0-10.0-0.14","A941","""event"",""trial"",""time""
""fullscreenenter"",""0"",""2876""
","
","
","""event"",""trial"",""time""
""fullscreenenter"",""0"",""2876""
","
","null","<div style=""font-size:60px;"">+</div>","","null","fixation","2021-04-06 03:42:57.046","","","","",""
"","mars-trial","42","181771","0.0-10.0-1.14","A941","""event"",""trial"",""time""
""fullscreenenter"",""0"",""2876""
","
","
","""event"",""trial"",""time""
""fullscreenenter"",""0"",""2876""
","
","8689.465000061318","<img style='border: 4px solid darkgrey;' src='img/tf1_15_M_ss2.jpeg'></img>","3","","exp","","1","<img src='img/tf1_15_T1_ss2_md.jpeg'></img>","0","false",""
"","html-keyboard-response","43","182277","0.0-10.0-0.15","A941","""event"",""trial"",""time""
""fullscreenenter"",""0"",""2876""
","
","
","""event"",""trial"",""time""
""fullscreenenter"",""0"",""2876""
","
","null","<div style=""font-size:60px;"">+</div>","","null","fixation","2021-04-06 03:43:06.875","","","","",""
"","mars-trial","44","196403","0.0-10.0-1.15","A941","""event"",""trial"",""time""
""fullscreenenter"",""0"",""2876""
","
","
","""event"",""trial"",""time""
""fullscreenenter"",""0"",""2876""
","
","13513.795000035316","<img style='border: 4px solid darkgrey;' src='img/tf1_16_M_ss3.jpeg'></img>","2","","exp","","1","<img src='img/tf1_16_T1_ss3_md.jpeg'></img>","0","false",""
"","html-keyboard-response","45","196907","0.0-10.0-0.16","A941","""event"",""trial"",""time""
""fullscreenenter"",""0"",""2876""
","
","
","""event"",""trial"",""time""
""fullscreenenter"",""0"",""2876""
","
","null","<div style=""font-size:60px;"">+</div>","","null","fixation","2021-04-06 03:43:21.505","","","","",""
"","mars-trial","46","199024","0.0-10.0-1.16","A941","""event"",""trial"",""time""
""fullscreenenter"",""0"",""2876""
","
","
","""event"",""trial"",""time""
""fullscreenenter"",""0"",""2876""
","
","1504.3649999424815","<img style='border: 4px solid darkgrey;' src='img/tf1_17_M_ss1.jpeg'></img>","2","","exp","","0","<img src='img/tf1_17_T1_ss1_md.jpeg'></img>","0","true",""
"","html-keyboard-response","47","199530","0.0-10.0-0.17","A941","""event"",""trial"",""time""
""fullscreenenter"",""0"",""2876""
","
","
","""event"",""trial"",""time""
""fullscreenenter"",""0"",""2876""
","
","null","<div style=""font-size:60px;"">+</div>","","null","fixation","2021-04-06 03:43:24.128","","","","",""
"","mars-trial","48","201705","0.0-10.0-1.17","A941","""event"",""trial"",""time""
""fullscreenenter"",""0"",""2876""
","
","
","""event"",""trial"",""time""
""fullscreenenter"",""0"",""2876""
","
","1563.734999857843","<img style='border: 4px solid darkgrey;' src='img/tf1_18_M_ss2.jpeg'></img>","1","","exp","","1","<img src='img/tf1_18_T1_ss2_md.jpeg'></img>","0","false",""
"","html-keyboard-response","49","202207","0.0-10.0-0.18","A941","""event"",""trial"",""time""
""fullscreenenter"",""0"",""2876""
","
","
","""event"",""trial"",""time""
""fullscreenenter"",""0"",""2876""
","
","null","<div style=""font-size:60px;"">+</div>","","null","fixation","2021-04-06 03:43:26.806","","","","",""
"","mars-trial","50","209245","0.0-10.0-1.18","A941","""event"",""trial"",""time""
""fullscreenenter"",""0"",""2876""
","
","
","""event"",""trial"",""time""
""fullscreenenter"",""0"",""2876""
","
","6424.240000080317","<img style='border: 4px solid darkgrey;' src='img/tf1_19_M_ss3.jpeg'></img>","2","","exp","","3","<img src='img/tf1_19_T1_ss3_md.jpeg'></img>","0","false",""
"","html-keyboard-response","51","209751","0.0-10.0-0.19","A941","""event"",""trial"",""time""
""fullscreenenter"",""0"",""2876""
","
","
","""event"",""trial"",""time""
""fullscreenenter"",""0"",""2876""
","
","null","<div style=""font-size:60px;"">+</div>","","null","fixation","2021-04-06 03:43:34.349","","","","",""
"","mars-trial","52","211597","0.0-10.0-1.19","A941","""event"",""trial"",""time""
""fullscreenenter"",""0"",""2876""
","
","
","""event"",""trial"",""time""
""fullscreenenter"",""0"",""2876""
","
","1232.4999999254942","<img style='border: 4px solid darkgrey;' src='img/tf1_20_M_ss1.jpeg'></img>","3","","exp","","2","<img src='img/tf1_20_T1_ss1_md.jpeg'></img>","0","false",""
"","html-keyboard-response","53","212107","0.0-10.0-0.20","A941","""event"",""trial"",""time""
""fullscreenenter"",""0"",""2876""
","
","
","""event"",""trial"",""time""
""fullscreenenter"",""0"",""2876""
","
","null","<div style=""font-size:60px;"">+</div>","","null","fixation","2021-04-06 03:43:36.705","","","","",""
"","mars-trial","54","213401","0.0-10.0-1.20","A941","""event"",""trial"",""time""
""fullscreenenter"",""0"",""2876""
","
","
","""event"",""trial"",""time""
""fullscreenenter"",""0"",""2876""
","
","683.0899999476969","<img style='border: 4px solid darkgrey;' src='img/tf1_21_M_ss2.jpeg'></img>","1","","exp","","3","<img src='img/tf1_21_T1_ss2_md.jpeg'></img>","0","false",""
"","html-keyboard-response","55","213905","0.0-10.0-0.21","A941","""event"",""trial"",""time""
""fullscreenenter"",""0"",""2876""
","
","
","""event"",""trial"",""time""
""fullscreenenter"",""0"",""2876""
","
","null","<div style=""font-size:60px;"">+</div>","","null","fixation","2021-04-06 03:43:38.503","","","","",""
"","mars-trial","56","217450","0.0-10.0-1.21","A941","""event"",""trial"",""time""
""fullscreenenter"",""0"",""2876""
","
","
","""event"",""trial"",""time""
""fullscreenenter"",""0"",""2876""
","
","2934.2100000940263","<img style='border: 4px solid darkgrey;' src='img/tf1_22_M_ss3.jpeg'></img>","3","","exp","","2","<img src='img/tf1_22_T1_ss3_md.jpeg'></img>","0","false",""
"","html-keyboard-response","57","217955","0.0-10.0-0.22","A941","""event"",""trial"",""time""
""fullscreenenter"",""0"",""2876""
","
","
","""event"",""trial"",""time""
""fullscreenenter"",""0"",""2876""
","
","null","<div style=""font-size:60px;"">+</div>","","null","fixation","2021-04-06 03:43:42.553","","","","",""
"","mars-trial","58","227324","0.0-10.0-1.22","A941","""event"",""trial"",""time""
""fullscreenenter"",""0"",""2876""
","
","
","""event"",""trial"",""time""
""fullscreenenter"",""0"",""2876""
","
","8752.025000052527","<img style='border: 4px solid darkgrey;' src='img/tf1_23_M_ss1.jpeg'></img>","0","","exp","","0","<img src='img/tf1_23_T1_ss1_md.jpeg'></img>","0","true",""
"","html-keyboard-response","59","227829","0.0-10.0-0.23","A941","""event"",""trial"",""time""
""fullscreenenter"",""0"",""2876""
","
","
","""event"",""trial"",""time""
""fullscreenenter"",""0"",""2876""
","
","null","<div style=""font-size:60px;"">+</div>","","null","fixation","2021-04-06 03:43:52.428","","","","",""
"","mars-trial","60","233814","0.0-10.0-1.23","A941","""event"",""trial"",""time""
""fullscreenenter"",""0"",""2876""
","
","
","""event"",""trial"",""time""
""fullscreenenter"",""0"",""2876""
","
","5371.959999902174","<img style='border: 4px solid darkgrey;' src='img/tf1_24_M_ss2.jpeg'></img>","3","","exp","","1","<img src='img/tf1_24_T1_ss2_md.jpeg'></img>","0","false",""
"","html-keyboard-response","61","234320","0.0-10.0-0.24","A941","""event"",""trial"",""time""
""fullscreenenter"",""0"",""2876""
","
","
","""event"",""trial"",""time""
""fullscreenenter"",""0"",""2876""
","
","null","<div style=""font-size:60px;"">+</div>","","null","fixation","2021-04-06 03:43:58.919","","","","",""
"","mars-trial","62","241273","0.0-10.0-1.24","A941","""event"",""trial"",""time""
""fullscreenenter"",""0"",""2876""
","
","
","""event"",""trial"",""time""
""fullscreenenter"",""0"",""2876""
","
","6325.0550001394","<img style='border: 4px solid darkgrey;' src='img/tf1_25_M_ss3.jpeg'></img>","1","","exp","","0","<img src='img/tf1_25_T1_ss3_md.jpeg'></img>","0","true",""
"","html-keyboard-response","63","241777","0.0-10.0-0.25","A941","""event"",""trial"",""time""
""fullscreenenter"",""0"",""2876""
","
","
","""event"",""trial"",""time""
""fullscreenenter"",""0"",""2876""
","
","null","<div style=""font-size:60px;"">+</div>","","null","fixation","2021-04-06 03:44:06.375","","","","",""
"","mars-trial","64","249193","0.0-10.0-1.25","A941","""event"",""trial"",""time""
""fullscreenenter"",""0"",""2876""
","
","
","""event"",""trial"",""time""
""fullscreenenter"",""0"",""2876""
","
","6805.015000049025","<img style='border: 4px solid darkgrey;' src='img/tf1_26_M_ss1.jpeg'></img>","2","","exp","","0","<img src='img/tf1_26_T1_ss1_md.jpeg'></img>","0","true",""
"","html-keyboard-response","65","249697","0.0-10.0-0.26","A941","""event"",""trial"",""time""
""fullscreenenter"",""0"",""2876""
","
","
","""event"",""trial"",""time""
""fullscreenenter"",""0"",""2876""
","
","null","<div style=""font-size:60px;"">+</div>","","null","fixation","2021-04-06 03:44:14.296","","","","",""
"","mars-trial","66","262624","0.0-10.0-1.26","A941","""event"",""trial"",""time""
""fullscreenenter"",""0"",""2876""
","
","
","""event"",""trial"",""time""
""fullscreenenter"",""0"",""2876""
","
","12309.055000077933","<img style='border: 4px solid darkgrey;' src='img/tf1_27_M_ss2.jpeg'></img>","2","","exp","","0","<img src='img/tf1_27_T1_ss2_md.jpeg'></img>","0","true",""
"","html-keyboard-response","67","263127","0.0-10.0-0.27","A941","""event"",""trial"",""time""
""fullscreenenter"",""0"",""2876""
","
","
","""event"",""trial"",""time""
""fullscreenenter"",""0"",""2876""
","
","null","<div style=""font-size:60px;"">+</div>","","null","fixation","2021-04-06 03:44:27.725","","","","",""
"","mars-trial","68","274819","0.0-10.0-1.27","A941","""event"",""trial"",""time""
""fullscreenenter"",""0"",""2876""
","
","
","""event"",""trial"",""time""
""fullscreenenter"",""0"",""2876""
","
","11080.164999933913","<img style='border: 4px solid darkgrey;' src='img/tf1_28_M_ss3.jpeg'></img>","2","","exp","","2","<img src='img/tf1_28_T1_ss3_md.jpeg'></img>","0","false",""
"","html-keyboard-response","69","275322","0.0-10.0-0.28","A941","""event"",""trial"",""time""
""fullscreenenter"",""0"",""2876""
","
","
","""event"",""trial"",""time""
""fullscreenenter"",""0"",""2876""
","
","null","<div style=""font-size:60px;"">+</div>","","null","fixation","2021-04-06 03:44:39.921","","","","",""
"","mars-trial","70","278657","0.0-10.0-1.28","A941","""event"",""trial"",""time""
""fullscreenenter"",""0"",""2876""
","
","
","""event"",""trial"",""time""
""fullscreenenter"",""0"",""2876""
","
","2718.3149999473244","<img style='border: 4px solid darkgrey;' src='img/tf1_29_M_ss1.jpeg'></img>","1","","exp","","1","<img src='img/tf1_29_T1_ss1_md.jpeg'></img>","0","false",""
"","html-keyboard-response","71","279161","0.0-10.0-0.29","A941","""event"",""trial"",""time""
""fullscreenenter"",""0"",""2876""
","
","
","""event"",""trial"",""time""
""fullscreenenter"",""0"",""2876""
","
","null","<div style=""font-size:60px;"">+</div>","","null","fixation","2021-04-06 03:44:43.759","","","","",""
"","mars-trial","72","281236","0.0-10.0-1.29","A941","""event"",""trial"",""time""
""fullscreenenter"",""0"",""2876""
","
","
","""event"",""trial"",""time""
""fullscreenenter"",""0"",""2876""
","
","1458.8349999394268","<img style='border: 4px solid darkgrey;' src='img/tf1_30_M_ss2.jpeg'></img>","2","","exp","","1","<img src='img/tf1_30_T1_ss2_md.jpeg'></img>","0","false",""
"","html-keyboard-response","73","281739","0.0-10.0-0.30","A941","""event"",""trial"",""time""
""fullscreenenter"",""0"",""2876""
","
","
","""event"",""trial"",""time""
""fullscreenenter"",""0"",""2876""
","
","null","<div style=""font-size:60px;"">+</div>","","null","fixation","2021-04-06 03:44:46.338","","","","",""
"","mars-trial","74","283128","0.0-10.0-1.30","A941","""event"",""trial"",""time""
""fullscreenenter"",""0"",""2876""
","
","
","""event"",""trial"",""time""
""fullscreenenter"",""0"",""2876""
","
","769.8800000362098","<img style='border: 4px solid darkgrey;' src='img/tf1_31_M_ss3.jpeg'></img>","3","","exp","","2","<img src='img/tf1_31_T1_ss3_md.jpeg'></img>","0","false",""
"","html-keyboard-response","75","283632","0.0-10.0-0.31","A941","""event"",""trial"",""time""
""fullscreenenter"",""0"",""2876""
","
","
","""event"",""trial"",""time""
""fullscreenenter"",""0"",""2876""
","
","null","<div style=""font-size:60px;"">+</div>","","null","fixation","2021-04-06 03:44:48.230","","","","",""
"","mars-trial","76","284665","0.0-10.0-1.31","A941","""event"",""trial"",""time""
""fullscreenenter"",""0"",""2876""
","
","
","""event"",""trial"",""time""
""fullscreenenter"",""0"",""2876""
","
","423.6949998885393","<img style='border: 4px solid darkgrey;' src='img/tf1_32_M_ss1.jpeg'></img>","1","","exp","","3","<img src='img/tf1_32_T1_ss1_md.jpeg'></img>","0","false",""
"","html-keyboard-response","77","285169","0.0-10.0-0.32","A941","""event"",""trial"",""time""
""fullscreenenter"",""0"",""2876""
","
","
","""event"",""trial"",""time""
""fullscreenenter"",""0"",""2876""
","
","null","<div style=""font-size:60px;"">+</div>","","null","fixation","2021-04-06 03:44:49.767","","","","",""
"","mars-trial","78","286182","0.0-10.0-1.32","A941","""event"",""trial"",""time""
""fullscreenenter"",""0"",""2876""
","
","
","""event"",""trial"",""time""
""fullscreenenter"",""0"",""2876""
","
","398.49000005051494","<img style='border: 4px solid darkgrey;' src='img/tf1_33_M_ss2.jpeg'></img>","2","","exp","","1","<img src='img/tf1_33_T1_ss2_md.jpeg'></img>","0","false",""
"","html-keyboard-response","79","286688","0.0-10.0-0.33","A941","""event"",""trial"",""time""
""fullscreenenter"",""0"",""2876""
","
","
","""event"",""trial"",""time""
""fullscreenenter"",""0"",""2876""
","
","null","<div style=""font-size:60px;"">+</div>","","null","fixation","2021-04-06 03:44:51.286","","","","",""
"","mars-trial","80","288342","0.0-10.0-1.33","A941","""event"",""trial"",""time""
""fullscreenenter"",""0"",""2876""
","
","
","""event"",""trial"",""time""
""fullscreenenter"",""0"",""2876""
","
","1037.9649999085814","<img style='border: 4px solid darkgrey;' src='img/tf1_34_M_ss3.jpeg'></img>","1","","exp","","0","<img src='img/tf1_34_T1_ss3_md.jpeg'></img>","0","true",""
"","html-keyboard-response","81","288844","0.0-10.0-0.34","A941","""event"",""trial"",""time""
""fullscreenenter"",""0"",""2876""
","
","
","""event"",""trial"",""time""
""fullscreenenter"",""0"",""2876""
","
","null","<div style=""font-size:60px;"">+</div>","","null","fixation","2021-04-06 03:44:53.443","","","","",""
"","mars-trial","82","290575","0.0-10.0-1.34","A941","""event"",""trial"",""time""
""fullscreenenter"",""0"",""2876""
","
","
","""event"",""trial"",""time""
""fullscreenenter"",""0"",""2876""
","
","1115.0249999482185","<img style='border: 4px solid darkgrey;' src='img/tf1_35_M_ss1.jpeg'></img>","0","","exp","","3","<img src='img/tf1_35_T1_ss1_md.jpeg'></img>","0","false",""
"","html-keyboard-response","83","291083","0.0-10.0-0.35","A941","""event"",""trial"",""time""
""fullscreenenter"",""0"",""2876""
","
","
","""event"",""trial"",""time""
""fullscreenenter"",""0"",""2876""
","
","null","<div style=""font-size:60px;"">+</div>","","null","fixation","2021-04-06 03:44:55.681","","","","",""
"","mars-trial","84","292068","0.0-10.0-1.35","A941","""event"",""trial"",""time""
""fullscreenenter"",""0"",""2876""
","
","
","""event"",""trial"",""time""
""fullscreenenter"",""0"",""2876""
","
","373.35500004701316","<img style='border: 4px solid darkgrey;' src='img/tf1_36_M_ss2.jpeg'></img>","1","","exp","","3","<img src='img/tf1_36_T1_ss2_md.jpeg'></img>","0","false",""
"","html-keyboard-response","85","292576","0.0-10.0-0.36","A941","""event"",""trial"",""time""
""fullscreenenter"",""0"",""2876""
","
","
","""event"",""trial"",""time""
""fullscreenenter"",""0"",""2876""
","
","null","<div style=""font-size:60px;"">+</div>","","null","fixation","2021-04-06 03:44:57.174","","","","",""
"","mars-trial","86","293547","0.0-10.0-1.36","A941","""event"",""trial"",""time""
""fullscreenenter"",""0"",""2876""
","
","
","""event"",""trial"",""time""
""fullscreenenter"",""0"",""2876""
","
","346.90499980933964","<img style='border: 4px solid darkgrey;' src='img/tf1_37_M_ss3.jpeg'></img>","2","","exp","","0","<img src='img/tf1_37_T1_ss3_md.jpeg'></img>","0","true",""
"","html-keyboard-response","87","294053","0.0-10.0-0.37","A941","""event"",""trial"",""time""
""fullscreenenter"",""0"",""2876""
","
","
","""event"",""trial"",""time""
""fullscreenenter"",""0"",""2876""
","
","null","<div style=""font-size:60px;"">+</div>","","null","fixation","2021-04-06 03:44:58.651","","","","",""
"","mars-trial","88","295026","0.0-10.0-1.37","A941","""event"",""trial"",""time""
""fullscreenenter"",""0"",""2876""
","
","
","""event"",""trial"",""time""
""fullscreenenter"",""0"",""2876""
","
","358.7899999693036","<img style='border: 4px solid darkgrey;' src='img/tf1_38_M_ss1.jpeg'></img>","2","","exp","","0","<img src='img/tf1_38_T1_ss1_md.jpeg'></img>","0","true",""
"","html-keyboard-response","89","295540","0.0-10.0-0.38","A941","""event"",""trial"",""time""
""fullscreenenter"",""0"",""2876""
","
","
","""event"",""trial"",""time""
""fullscreenenter"",""0"",""2876""
","
","null","<div style=""font-size:60px;"">+</div>","","null","fixation","2021-04-06 03:45:00.138","","","","",""
"","mars-trial","90","296540","0.0-10.0-1.38","A941","""event"",""trial"",""time""
""fullscreenenter"",""0"",""2876""
","
","
","""event"",""trial"",""time""
""fullscreenenter"",""0"",""2876""
","
","392.1650000847876","<img style='border: 4px solid darkgrey;' src='img/tf1_39_M_ss2.jpeg'></img>","2","","exp","","0","<img src='img/tf1_39_T1_ss2_md.jpeg'></img>","0","true",""
"","html-keyboard-response","91","297045","0.0-10.0-0.39","A941","""event"",""trial"",""time""
""fullscreenenter"",""0"",""2876""
","
","
","""event"",""trial"",""time""
""fullscreenenter"",""0"",""2876""
","
","null","<div style=""font-size:60px;"">+</div>","","null","fixation","2021-04-06 03:45:01.644","","","","",""
"","mars-trial","92","298037","0.0-10.0-1.39","A941","""event"",""trial"",""time""
""fullscreenenter"",""0"",""2876""
","
","
","""event"",""trial"",""time""
""fullscreenenter"",""0"",""2876""
","
","377.8849998489022","<img style='border: 4px solid darkgrey;' src='img/tf1_40_M_ss3.jpeg'></img>","2","","exp","","3","<img src='img/tf1_40_T1_ss3_md.jpeg'></img>","0","false",""
"","html-keyboard-response","93","298539","0.0-10.0-0.40","A941","""event"",""trial"",""time""
""fullscreenenter"",""0"",""2876""
","
","
","""event"",""trial"",""time""
""fullscreenenter"",""0"",""2876""
","
","null","<div style=""font-size:60px;"">+</div>","","null","fixation","2021-04-06 03:45:03.137","","","","",""
"","mars-trial","94","299519","0.0-10.0-1.40","A941","""event"",""trial"",""time""
""fullscreenenter"",""0"",""2876""
","
","
","""event"",""trial"",""time""
""fullscreenenter"",""0"",""2876""
","
","373.9750001113862","<img style='border: 4px solid darkgrey;' src='img/tf1_41_M_ss1.jpeg'></img>","3","","exp","","0","<img src='img/tf1_41_T1_ss1_md.jpeg'></img>","0","true",""
"","html-keyboard-response","95","300027","0.0-10.0-0.41","A941","""event"",""trial"",""time""
""fullscreenenter"",""0"",""2876""
","
","
","""event"",""trial"",""time""
""fullscreenenter"",""0"",""2876""
","
","null","<div style=""font-size:60px;"">+</div>","","null","fixation","2021-04-06 03:45:04.625","","","","",""
"","mars-trial","96","300989","0.0-10.0-1.41","A941","""event"",""trial"",""time""
""fullscreenenter"",""0"",""2876""
","
","
","""event"",""trial"",""time""
""fullscreenenter"",""0"",""2876""
","
","348.10999990440905","<img style='border: 4px solid darkgrey;' src='img/tf1_42_M_ss2.jpeg'></img>","1","","exp","","2","<img src='img/tf1_42_T1_ss2_md.jpeg'></img>","0","false",""
"","html-keyboard-response","97","301497","0.0-10.0-0.42","A941","""event"",""trial"",""time""
""fullscreenenter"",""0"",""2876""
","
","
","""event"",""trial"",""time""
""fullscreenenter"",""0"",""2876""
","
","null","<div style=""font-size:60px;"">+</div>","","null","fixation","2021-04-06 03:45:06.095","","","","",""
"","mars-trial","98","302434","0.0-10.0-1.42","A941","""event"",""trial"",""time""
""fullscreenenter"",""0"",""2876""
","
","
","""event"",""trial"",""time""
""fullscreenenter"",""0"",""2876""
","
","316.9700000435114","<img style='border: 4px solid darkgrey;' src='img/tf1_43_M_ss3.jpeg'></img>","0","","exp","","2","<img src='img/tf1_43_T1_ss3_md.jpeg'></img>","0","false",""
"","html-keyboard-response","99","302941","0.0-10.0-0.43","A941","""event"",""trial"",""time""
""fullscreenenter"",""0"",""2876""
","
","
","""event"",""trial"",""time""
""fullscreenenter"",""0"",""2876""
","
","null","<div style=""font-size:60px;"">+</div>","","null","fixation","2021-04-06 03:45:07.540","","","","",""
"","mars-trial","100","303804","0.0-10.0-1.43","A941","""event"",""trial"",""time""
""fullscreenenter"",""0"",""2876""
","
","
","""event"",""trial"",""time""
""fullscreenenter"",""0"",""2876""
","
","246.68999994173646","<img style='border: 4px solid darkgrey;' src='img/tf1_44_M_ss1.jpeg'></img>","2","","exp","","3","<img src='img/tf1_44_T1_ss1_md.jpeg'></img>","0","false",""
"","html-keyboard-response","101","304309","0.0-10.0-0.44","A941","""event"",""trial"",""time""
""fullscreenenter"",""0"",""2876""
","
","
","""event"",""trial"",""time""
""fullscreenenter"",""0"",""2876""
","
","null","<div style=""font-size:60px;"">+</div>","","null","fixation","2021-04-06 03:45:08.907","","","","",""
"","mars-trial","102","305190","0.0-10.0-1.44","A941","""event"",""trial"",""time""
""fullscreenenter"",""0"",""2876""
","
","
","""event"",""trial"",""time""
""fullscreenenter"",""0"",""2876""
","
","267.72499992512167","<img style='border: 4px solid darkgrey;' src='img/tf1_45_M_ss2.jpeg'></img>","3","","exp","","1","<img src='img/tf1_45_T1_ss2_md.jpeg'></img>","0","false",""
"","html-keyboard-response","103","305692","0.0-10.0-0.45","A941","""event"",""trial"",""time""
""fullscreenenter"",""0"",""2876""
","
","
","""event"",""trial"",""time""
""fullscreenenter"",""0"",""2876""
","
","null","<div style=""font-size:60px;"">+</div>","","null","fixation","2021-04-06 03:45:10.290","","","","",""
"","mars-trial","104","306554","0.0-10.0-1.45","A941","""event"",""trial"",""time""
""fullscreenenter"",""0"",""2876""
","
","
","""event"",""trial"",""time""
""fullscreenenter"",""0"",""2876""
","
","246.58999987877905","<img style='border: 4px solid darkgrey;' src='img/tf1_46_M_ss3.jpeg'></img>","2","","exp","","3","<img src='img/tf1_46_T1_ss3_md.jpeg'></img>","0","false",""
"","html-keyboard-response","105","307060","0.0-10.0-0.46","A941","""event"",""trial"",""time""
""fullscreenenter"",""0"",""2876""
","
","
","""event"",""trial"",""time""
""fullscreenenter"",""0"",""2876""
","
","null","<div style=""font-size:60px;"">+</div>","","null","fixation","2021-04-06 03:45:11.658","","","","",""
"","mars-trial","106","307856","0.0-10.0-1.46","A941","""event"",""trial"",""time""
""fullscreenenter"",""0"",""2876""
","
","
","""event"",""trial"",""time""
""fullscreenenter"",""0"",""2876""
","
","183.06499999016523","<img style='border: 4px solid darkgrey;' src='img/tf1_47_M_ss1.jpeg'></img>","1","","exp","","3","<img src='img/tf1_47_T1_ss1_md.jpeg'></img>","0","false",""
"","html-keyboard-response","107","308359","0.0-10.0-0.47","A941","""event"",""trial"",""time""
""fullscreenenter"",""0"",""2876""
","
","
","""event"",""trial"",""time""
""fullscreenenter"",""0"",""2876""
","
","null","<div style=""font-size:60px;"">+</div>","","null","fixation","2021-04-06 03:45:12.958","","","","",""
"","mars-trial","108","309169","0.0-10.0-1.47","A941","""event"",""trial"",""time""
""fullscreenenter"",""0"",""2876""
","
","
","""event"",""trial"",""time""
""fullscreenenter"",""0"",""2876""
","
","197.26000004447997","<img style='border: 4px solid darkgrey;' src='img/tf1_48_M_ss2.jpeg'></img>","0","","exp","","1","<img src='img/tf1_48_T1_ss2_md.jpeg'></img>","0","false",""
"","html-keyboard-response","109","309677","0.0-10.0-0.48","A941","""event"",""trial"",""time""
""fullscreenenter"",""0"",""2876""
","
","
","""event"",""trial"",""time""
""fullscreenenter"",""0"",""2876""
","
","null","<div style=""font-size:60px;"">+</div>","","null","fixation","2021-04-06 03:45:14.276","","","","",""
"","mars-trial","110","310482","0.0-10.0-1.48","A941","""event"",""trial"",""time""
""fullscreenenter"",""0"",""2876""
","
","
","""event"",""trial"",""time""
""fullscreenenter"",""0"",""2876""
","
","172.05499997362494","<img style='border: 4px solid darkgrey;' src='img/tf1_49_M_ss3.jpeg'></img>","2","","exp","","2","<img src='img/tf1_49_T1_ss3_md.jpeg'></img>","0","false",""
"","html-keyboard-response","111","311003","0.0-10.0-0.49","A941","""event"",""trial"",""time""
""fullscreenenter"",""0"",""2876""
","
","
","""event"",""trial"",""time""
""fullscreenenter"",""0"",""2876""
","
","null","<div style=""font-size:60px;"">+</div>","","null","fixation","2021-04-06 03:45:15.601","","","","",""
"","mars-trial","112","316295","0.0-10.0-1.49","A941","""event"",""trial"",""time""
""fullscreenenter"",""0"",""2876""
","
","
","""event"",""trial"",""time""
""fullscreenenter"",""0"",""2876""
","
","4679.550000000745","<img style='border: 4px solid darkgrey;' src='img/tf1_50_M_ss1.jpeg'></img>","0","","exp","","0","<img src='img/tf1_50_T1_ss1_md.jpeg'></img>","0","true",""
"","html-keyboard-response","113","316800","0.0-10.0-0.50","A941","""event"",""trial"",""time""
""fullscreenenter"",""0"",""2876""
","
","
","""event"",""trial"",""time""
""fullscreenenter"",""0"",""2876""
","
","null","<div style=""font-size:60px;"">+</div>","","null","fixation","2021-04-06 03:45:21.398","","","","",""
"","mars-trial","114","335878","0.0-10.0-1.50","A941","""event"",""trial"",""time""
""fullscreenenter"",""0"",""2876""
","
","
","""event"",""trial"",""time""
""fullscreenenter"",""0"",""2876""
","
","18463.314999826252","<img style='border: 4px solid darkgrey;' src='img/tf1_51_M_ss2.jpeg'></img>","3","","exp","","2","<img src='img/tf1_51_T1_ss2_md.jpeg'></img>","0","false",""
"","html-keyboard-response","115","336384","0.0-10.0-0.51","A941","""event"",""trial"",""time""
""fullscreenenter"",""0"",""2876""
","
","
","""event"",""trial"",""time""
""fullscreenenter"",""0"",""2876""
","
","null","<div style=""font-size:60px;"">+</div>","","null","fixation","2021-04-06 03:45:40.982","","","","",""
"","mars-trial","116","338280","0.0-10.0-1.51","A941","""event"",""trial"",""time""
""fullscreenenter"",""0"",""2876""
","
","
","""event"",""trial"",""time""
""fullscreenenter"",""0"",""2876""
","
","1278.104999801144","<img style='border: 4px solid darkgrey;' src='img/tf1_52_M_ss3.jpeg'></img>","2","","exp","","1","<img src='img/tf1_52_T1_ss3_md.jpeg'></img>","0","false",""
"","html-keyboard-response","117","338786","0.0-10.0-0.52","A941","""event"",""trial"",""time""
""fullscreenenter"",""0"",""2876""
","
","
","""event"",""trial"",""time""
""fullscreenenter"",""0"",""2876""
","
","null","<div style=""font-size:60px;"">+</div>","","null","fixation","2021-04-06 03:45:43.385","","","","",""
"","mars-trial","118","339575","0.0-10.0-1.52","A941","""event"",""trial"",""time""
""fullscreenenter"",""0"",""2876""
","
","
","""event"",""trial"",""time""
""fullscreenenter"",""0"",""2876""
","
","176.56000005081296","<img style='border: 4px solid darkgrey;' src='img/tf1_53_M_ss1.jpeg'></img>","3","","exp","","1","<img src='img/tf1_53_T1_ss1_md.jpeg'></img>","0","false",""
"","html-keyboard-response","119","340105","0.0-10.0-0.53","A941","""event"",""trial"",""time""
""fullscreenenter"",""0"",""2876""
","
","
","""event"",""trial"",""time""
""fullscreenenter"",""0"",""2876""
","
","null","<div style=""font-size:60px;"">+</div>","","null","fixation","2021-04-06 03:45:44.703","","","","",""
"","mars-trial","120","341442","0.0-10.0-1.53","A941","""event"",""trial"",""time""
""fullscreenenter"",""0"",""2876""
","
","
","""event"",""trial"",""time""
""fullscreenenter"",""0"",""2876""
","
","728.8600001484156","<img style='border: 4px solid darkgrey;' src='img/tf1_54_M_ss2.jpeg'></img>","1","","exp","","0","<img src='img/tf1_54_T1_ss2_md.jpeg'></img>","0","true",""
"","html-keyboard-response","121","341948","0.0-10.0-0.54","A941","""event"",""trial"",""time""
""fullscreenenter"",""0"",""2876""
","
","
","""event"",""trial"",""time""
""fullscreenenter"",""0"",""2876""
","
","null","<div style=""font-size:60px;"">+</div>","","null","fixation","2021-04-06 03:45:46.546","","","","",""
"","mars-trial","122","343216","0.0-10.0-1.54","A941","""event"",""trial"",""time""
""fullscreenenter"",""0"",""2876""
","
","
","""event"",""trial"",""time""
""fullscreenenter"",""0"",""2876""
","
","654.3450001627207","<img style='border: 4px solid darkgrey;' src='img/tf1_55_M_ss3.jpeg'></img>","2","","exp","","1","<img src='img/tf1_55_T1_ss3_md.jpeg'></img>","0","false",""
"","html-keyboard-response","123","343718","0.0-10.0-0.55","A941","""event"",""trial"",""time""
""fullscreenenter"",""0"",""2876""
","
","
","""event"",""trial"",""time""
""fullscreenenter"",""0"",""2876""
","
","null","<div style=""font-size:60px;"">+</div>","","null","fixation","2021-04-06 03:45:48.316","","","","",""
"","mars-trial","124","344605","0.0-10.0-1.55","A941","""event"",""trial"",""time""
""fullscreenenter"",""0"",""2876""
","
","
","""event"",""trial"",""time""
""fullscreenenter"",""0"",""2876""
","
","263.499999884516","<img style='border: 4px solid darkgrey;' src='img/tf1_56_M_ss1.jpeg'></img>","1","","exp","","2","<img src='img/tf1_56_T1_ss1_md.jpeg'></img>","0","false",""
"","html-keyboard-response","125","345110","0.0-10.0-0.56","A941","""event"",""trial"",""time""
""fullscreenenter"",""0"",""2876""
","
","
","""event"",""trial"",""time""
""fullscreenenter"",""0"",""2876""
","
","null","<div style=""font-size:60px;"">+</div>","","null","fixation","2021-04-06 03:45:49.708","","","","",""
"","mars-trial","126","345889","0.0-10.0-1.56","A941","""event"",""trial"",""time""
""fullscreenenter"",""0"",""2876""
","
","
","""event"",""trial"",""time""
""fullscreenenter"",""0"",""2876""
","
","164.84500002115965","<img style='border: 4px solid darkgrey;' src='img/tf1_57_M_ss2.jpeg'></img>","0","","exp","","3","<img src='img/tf1_57_T1_ss2_md.jpeg'></img>","0","false",""
"","html-keyboard-response","127","346392","0.0-10.0-0.57","A941","""event"",""trial"",""time""
""fullscreenenter"",""0"",""2876""
","
","
","""event"",""trial"",""time""
""fullscreenenter"",""0"",""2876""
","
","null","<div style=""font-size:60px;"">+</div>","","null","fixation","2021-04-06 03:45:50.991","","","","",""
"","mars-trial","128","347200","0.0-10.0-1.57","A941","""event"",""trial"",""time""
""fullscreenenter"",""0"",""2876""
","
","
","""event"",""trial"",""time""
""fullscreenenter"",""0"",""2876""
","
","187.75500007905066","<img style='border: 4px solid darkgrey;' src='img/tf1_58_M_ss3.jpeg'></img>","2","","exp","","0","<img src='img/tf1_58_T1_ss3_md.jpeg'></img>","0","true",""
"","html-keyboard-response","129","347705","0.0-10.0-0.58","A941","""event"",""trial"",""time""
""fullscreenenter"",""0"",""2876""
","
","
","""event"",""trial"",""time""
""fullscreenenter"",""0"",""2876""
","
","null","<div style=""font-size:60px;"">+</div>","","null","fixation","2021-04-06 03:45:52.303","","","","",""
"","mars-trial","130","348806","0.0-10.0-1.58","A941","""event"",""trial"",""time""
""fullscreenenter"",""0"",""2876""
","
","
","""event"",""trial"",""time""
""fullscreenenter"",""0"",""2876""
","
","491.05000006966293","<img style='border: 4px solid darkgrey;' src='img/tf1_59_M_ss1.jpeg'></img>","3","","exp","","0","<img src='img/tf1_59_T1_ss1_md.jpeg'></img>","0","true",""
"","html-keyboard-response","131","349309","0.0-10.0-0.59","A941","""event"",""trial"",""time""
""fullscreenenter"",""0"",""2876""
","
","
","""event"",""trial"",""time""
""fullscreenenter"",""0"",""2876""
","
","null","<div style=""font-size:60px;"">+</div>","","null","fixation","2021-04-06 03:45:53.907","","","","",""
"","mars-trial","132","350316","0.0-10.0-1.59","A941","""event"",""trial"",""time""
""fullscreenenter"",""0"",""2876""
","
","
","""event"",""trial"",""time""
""fullscreenenter"",""0"",""2876""
","
","390.21500013768673","<img style='border: 4px solid darkgrey;' src='img/tf1_60_M_ss2.jpeg'></img>","2","","exp","","3","<img src='img/tf1_60_T1_ss2_md.jpeg'></img>","0","false",""
"","html-keyboard-response","133","350819","0.0-10.0-0.60","A941","""event"",""trial"",""time""
""fullscreenenter"",""0"",""2876""
","
","
","""event"",""trial"",""time""
""fullscreenenter"",""0"",""2876""
","
","null","<div style=""font-size:60px;"">+</div>","","null","fixation","2021-04-06 03:45:55.417","","","","",""
"","mars-trial","134","351604","0.0-10.0-1.60","A941","""event"",""trial"",""time""
""fullscreenenter"",""0"",""2876""
","
","
","""event"",""trial"",""time""
""fullscreenenter"",""0"",""2876""
","
","169.05999998562038","<img style='border: 4px solid darkgrey;' src='img/tf1_61_M_ss3.jpeg'></img>","3","","exp","","2","<img src='img/tf1_61_T1_ss3_md.jpeg'></img>","0","false",""
"","html-keyboard-response","135","352110","0.0-10.0-0.61","A941","""event"",""trial"",""time""
""fullscreenenter"",""0"",""2876""
","
","
","""event"",""trial"",""time""
""fullscreenenter"",""0"",""2876""
","
","null","<div style=""font-size:60px;"">+</div>","","null","fixation","2021-04-06 03:45:56.708","","","","",""
"","mars-trial","136","353021","0.0-10.0-1.61","A941","""event"",""trial"",""time""
""fullscreenenter"",""0"",""2876""
","
","
","""event"",""trial"",""time""
""fullscreenenter"",""0"",""2876""
","
","297.90500015951693","<img style='border: 4px solid darkgrey;' src='img/tf1_62_M_ss1.jpeg'></img>","2","","exp","","1","<img src='img/tf1_62_T1_ss1_md.jpeg'></img>","0","false",""
"","html-keyboard-response","137","353527","0.0-10.0-0.62","A941","""event"",""trial"",""time""
""fullscreenenter"",""0"",""2876""
","
","
","""event"",""trial"",""time""
""fullscreenenter"",""0"",""2876""
","
","null","<div style=""font-size:60px;"">+</div>","","null","fixation","2021-04-06 03:45:58.125","","","","",""
"","mars-trial","138","354340","0.0-10.0-1.62","A941","""event"",""trial"",""time""
""fullscreenenter"",""0"",""2876""
","
","
","""event"",""trial"",""time""
""fullscreenenter"",""0"",""2876""
","
","199.2649999447167","<img style='border: 4px solid darkgrey;' src='img/tf1_63_M_ss2.jpeg'></img>","1","","exp","","1","<img src='img/tf1_63_T1_ss2_md.jpeg'></img>","0","false",""
"","html-keyboard-response","139","354846","0.0-10.0-0.63","A941","""event"",""trial"",""time""
""fullscreenenter"",""0"",""2876""
","
","
","""event"",""trial"",""time""
""fullscreenenter"",""0"",""2876""
","
","null","<div style=""font-size:60px;"">+</div>","","null","fixation","2021-04-06 03:45:59.445","","","","",""
"","mars-trial","140","355633","0.0-10.0-1.63","A941","""event"",""trial"",""time""
""fullscreenenter"",""0"",""2876""
","
","
","""event"",""trial"",""time""
""fullscreenenter"",""0"",""2876""
","
","180.74500001966953","<img style='border: 4px solid darkgrey;' src='img/tf1_64_M_ss3.jpeg'></img>","2","","exp","","2","<img src='img/tf1_64_T1_ss3_md.jpeg'></img>","0","false",""
"","html-keyboard-response","141","356138","0.0-10.0-0.64","A941","""event"",""trial"",""time""
""fullscreenenter"",""0"",""2876""
","
","
","""event"",""trial"",""time""
""fullscreenenter"",""0"",""2876""
","
","null","<div style=""font-size:60px;"">+</div>","","null","fixation","2021-04-06 03:46:00.737","","","","",""
"","mars-trial","142","357045","0.0-10.0-1.64","A941","""event"",""trial"",""time""
""fullscreenenter"",""0"",""2876""
","
","
","""event"",""trial"",""time""
""fullscreenenter"",""0"",""2876""
","
","289.77999999187887","<img style='border: 4px solid darkgrey;' src='img/tf1_65_M_ss1.jpeg'></img>","0","","exp","","3","<img src='img/tf1_65_T1_ss1_md.jpeg'></img>","0","false",""
"","html-keyboard-response","143","357549","0.0-10.0-0.65","A941","""event"",""trial"",""time""
""fullscreenenter"",""0"",""2876""
","
","
","""event"",""trial"",""time""
""fullscreenenter"",""0"",""2876""
","
","null","<div style=""font-size:60px;"">+</div>","","null","fixation","2021-04-06 03:46:02.147","","","","",""
"","mars-trial","144","358385","0.0-10.0-1.65","A941","""event"",""trial"",""time""
""fullscreenenter"",""0"",""2876""
","
","
","""event"",""trial"",""time""
""fullscreenenter"",""0"",""2876""
","
","226.2099999934435","<img style='border: 4px solid darkgrey;' src='img/tf1_66_M_ss2.jpeg'></img>","3","","exp","","0","<img src='img/tf1_66_T1_ss2_md.jpeg'></img>","0","true",""
"","html-keyboard-response","145","358888","0.0-10.0-0.66","A941","""event"",""trial"",""time""
""fullscreenenter"",""0"",""2876""
","
","
","""event"",""trial"",""time""
""fullscreenenter"",""0"",""2876""
","
","null","<div style=""font-size:60px;"">+</div>","","null","fixation","2021-04-06 03:46:03.487","","","","",""
"","mars-trial","146","359856","0.0-10.0-1.66","A941","""event"",""trial"",""time""
""fullscreenenter"",""0"",""2876""
","
","
","""event"",""trial"",""time""
""fullscreenenter"",""0"",""2876""
","
","354.6700000297278","<img style='border: 4px solid darkgrey;' src='img/tf1_67_M_ss3.jpeg'></img>","3","","exp","","3","<img src='img/tf1_67_T1_ss3_md.jpeg'></img>","0","false",""
"","html-keyboard-response","147","360363","0.0-10.0-0.67","A941","""event"",""trial"",""time""
""fullscreenenter"",""0"",""2876""
","
","
","""event"",""trial"",""time""
""fullscreenenter"",""0"",""2876""
","
","null","<div style=""font-size:60px;"">+</div>","","null","fixation","2021-04-06 03:46:04.961","","","","",""
"","mars-trial","148","361237","0.0-10.0-1.67","A941","""event"",""trial"",""time""
""fullscreenenter"",""0"",""2876""
","
","
","""event"",""trial"",""time""
""fullscreenenter"",""0"",""2876""
","
","260.0850001908839","<img style='border: 4px solid darkgrey;' src='img/tf1_68_M_ss1.jpeg'></img>","2","","exp","","3","<img src='img/tf1_68_T1_ss1_md.jpeg'></img>","0","false",""
"","html-keyboard-response","149","361743","0.0-10.0-0.68","A941","""event"",""trial"",""time""
""fullscreenenter"",""0"",""2876""
","
","
","""event"",""trial"",""time""
""fullscreenenter"",""0"",""2876""
","
","null","<div style=""font-size:60px;"">+</div>","","null","fixation","2021-04-06 03:46:06.341","","","","",""
"","mars-trial","150","363139","0.0-10.0-1.68","A941","""event"",""trial"",""time""
""fullscreenenter"",""0"",""2876""
","
","
","""event"",""trial"",""time""
""fullscreenenter"",""0"",""2876""
","
","782.9599999822676","<img style='border: 4px solid darkgrey;' src='img/tf1_69_M_ss2.jpeg'></img>","3","","exp","","2","<img src='img/tf1_69_T1_ss2_md.jpeg'></img>","0","false",""
"","html-keyboard-response","151","363646","0.0-10.0-0.69","A941","""event"",""trial"",""time""
""fullscreenenter"",""0"",""2876""
","
","
","""event"",""trial"",""time""
""fullscreenenter"",""0"",""2876""
","
","null","<div style=""font-size:60px;"">+</div>","","null","fixation","2021-04-06 03:46:08.244","","","","",""
"","mars-trial","152","364470","0.0-10.0-1.69","A941","""event"",""trial"",""time""
""fullscreenenter"",""0"",""2876""
","
","
","""event"",""trial"",""time""
""fullscreenenter"",""0"",""2876""
","
","207.43000018410385","<img style='border: 4px solid darkgrey;' src='img/tf1_70_M_ss3.jpeg'></img>","2","","exp","","0","<img src='img/tf1_70_T1_ss3_md.jpeg'></img>","0","true",""
"","html-keyboard-response","153","364981","0.0-10.0-0.70","A941","""event"",""trial"",""time""
""fullscreenenter"",""0"",""2876""
","
","
","""event"",""trial"",""time""
""fullscreenenter"",""0"",""2876""
","
","null","<div style=""font-size:60px;"">+</div>","","null","fixation","2021-04-06 03:46:09.580","","","","",""
"","mars-trial","154","365781","0.0-10.0-1.70","A941","""event"",""trial"",""time""
""fullscreenenter"",""0"",""2876""
","
","
","""event"",""trial"",""time""
""fullscreenenter"",""0"",""2876""
","
","186.84000009670854","<img style='border: 4px solid darkgrey;' src='img/tf1_71_M_ss1.jpeg'></img>","1","","exp","","1","<img src='img/tf1_71_T1_ss1_md.jpeg'></img>","0","false",""
"","html-keyboard-response","155","366288","0.0-10.0-0.71","A941","""event"",""trial"",""time""
""fullscreenenter"",""0"",""2876""
","
","
","""event"",""trial"",""time""
""fullscreenenter"",""0"",""2876""
","
","null","<div style=""font-size:60px;"">+</div>","","null","fixation","2021-04-06 03:46:10.886","","","","",""
"","mars-trial","156","367134","0.0-10.0-1.71","A941","""event"",""trial"",""time""
""fullscreenenter"",""0"",""2876""
","
","
","""event"",""trial"",""time""
""fullscreenenter"",""0"",""2876""
","
","223.3200001064688","<img style='border: 4px solid darkgrey;' src='img/tf1_72_M_ss2.jpeg'></img>","0","","exp","","3","<img src='img/tf1_72_T1_ss2_md.jpeg'></img>","0","false",""
"","html-keyboard-response","157","367636","0.0-10.0-0.72","A941","""event"",""trial"",""time""
""fullscreenenter"",""0"",""2876""
","
","
","""event"",""trial"",""time""
""fullscreenenter"",""0"",""2876""
","
","null","<div style=""font-size:60px;"">+</div>","","null","fixation","2021-04-06 03:46:12.234","","","","",""
"","mars-trial","158","368511","0.0-10.0-1.72","A941","""event"",""trial"",""time""
""fullscreenenter"",""0"",""2876""
","
","
","""event"",""trial"",""time""
""fullscreenenter"",""0"",""2876""
","
","266.8300000950694","<img style='border: 4px solid darkgrey;' src='img/tf1_73_M_ss3.jpeg'></img>","2","","exp","","2","<img src='img/tf1_73_T1_ss3_md.jpeg'></img>","0","false",""
"","html-keyboard-response","159","369016","0.0-10.0-0.73","A941","""event"",""trial"",""time""
""fullscreenenter"",""0"",""2876""
","
","
","""event"",""trial"",""time""
""fullscreenenter"",""0"",""2876""
","
","null","<div style=""font-size:60px;"">+</div>","","null","fixation","2021-04-06 03:46:13.614","","","","",""
"","mars-trial","160","399131","0.0-10.0-1.73","A941","""event"",""trial"",""time""
""fullscreenenter"",""0"",""2876""
","
","
","""event"",""trial"",""time""
""fullscreenenter"",""0"",""2876""
","
","null","<img style='border: 4px solid darkgrey;' src='img/tf1_74_M_ss1.jpeg'></img>","null","","exp","","null","<img src='img/tf1_74_T1_ss1_md.jpeg'></img>","0","false",""
"","html-keyboard-response","161","399636","0.0-10.0-0.74","A941","""event"",""trial"",""time""
""fullscreenenter"",""0"",""2876""
","
","
","""event"",""trial"",""time""
""fullscreenenter"",""0"",""2876""
","
","null","<div style=""font-size:60px;"">+</div>","","null","fixation","2021-04-06 03:46:44.235","","","","",""
"","mars-trial","162","401104","0.0-10.0-1.74","A941","""event"",""trial"",""time""
""fullscreenenter"",""0"",""2876""
","
","
","""event"",""trial"",""time""
""fullscreenenter"",""0"",""2876""
","
","855.2149999886751","<img style='border: 4px solid darkgrey;' src='img/tf1_75_M_ss2.jpeg'></img>","2","","exp","","1","<img src='img/tf1_75_T1_ss2_md.jpeg'></img>","0","false",""
"","html-keyboard-response","163","401608","0.0-10.0-0.75","A941","""event"",""trial"",""time""
""fullscreenenter"",""0"",""2876""
","
","
","""event"",""trial"",""time""
""fullscreenenter"",""0"",""2876""
","
","null","<div style=""font-size:60px;"">+</div>","","null","fixation","2021-04-06 03:46:46.207","","","","",""
"","mars-trial","164","402734","0.0-10.0-1.75","A941","""event"",""trial"",""time""
""fullscreenenter"",""0"",""2876""
","
","
","""event"",""trial"",""time""
""fullscreenenter"",""0"",""2876""
","
","517.6800000481308","<img style='border: 4px solid darkgrey;' src='img/tf1_76_M_ss3.jpeg'></img>","1","","exp","","1","<img src='img/tf1_76_T1_ss3_md.jpeg'></img>","0","false",""
"","html-keyboard-response","165","403246","0.0-10.0-0.76","A941","""event"",""trial"",""time""
""fullscreenenter"",""0"",""2876""
","
","
","""event"",""trial"",""time""
""fullscreenenter"",""0"",""2876""
","
","null","<div style=""font-size:60px;"">+</div>","","null","fixation","2021-04-06 03:46:47.844","","","","",""
"","mars-trial","166","404020","0.0-10.0-1.76","A941","""event"",""trial"",""time""
""fullscreenenter"",""0"",""2876""
","
","
","""event"",""trial"",""time""
""fullscreenenter"",""0"",""2876""
","
","161.409999942407","<img style='border: 4px solid darkgrey;' src='img/tf1_77_M_ss1.jpeg'></img>","3","","exp","","3","<img src='img/tf1_77_T1_ss1_md.jpeg'></img>","0","false",""
"","html-keyboard-response","167","404526","0.0-10.0-0.77","A941","""event"",""trial"",""time""
""fullscreenenter"",""0"",""2876""
","
","
","""event"",""trial"",""time""
""fullscreenenter"",""0"",""2876""
","
","null","<div style=""font-size:60px;"">+</div>","","null","fixation","2021-04-06 03:46:49.124","","","","",""
"","mars-trial","168","405612","0.0-10.0-1.77","A941","""event"",""trial"",""time""
""fullscreenenter"",""0"",""2876""
","
","
","""event"",""trial"",""time""
""fullscreenenter"",""0"",""2876""
","
","473.2200000435114","<img style='border: 4px solid darkgrey;' src='img/tf1_78_M_ss2.jpeg'></img>","0","","exp","","2","<img src='img/tf1_78_T1_ss2_md.jpeg'></img>","0","false",""
"","html-keyboard-response","169","406117","0.0-10.0-0.78","A941","""event"",""trial"",""time""
""fullscreenenter"",""0"",""2876""
","
","
","""event"",""trial"",""time""
""fullscreenenter"",""0"",""2876""
","
","null","<div style=""font-size:60px;"">+</div>","","null","fixation","2021-04-06 03:46:50.715","","","","",""
"","mars-trial","170","407197","0.0-10.0-1.78","A941","""event"",""trial"",""time""
""fullscreenenter"",""0"",""2876""
","
","
","""event"",""trial"",""time""
""fullscreenenter"",""0"",""2876""
","
","468.4150000102818","<img style='border: 4px solid darkgrey;' src='img/tf1_79_M_ss3.jpeg'></img>","1","","exp","","2","<img src='img/tf1_79_T1_ss3_md.jpeg'></img>","0","false",""
"","html-keyboard-response","171","407701","0.0-10.0-0.79","A941","""event"",""trial"",""time""
""fullscreenenter"",""0"",""2876""
","
","
","""event"",""trial"",""time""
""fullscreenenter"",""0"",""2876""
","
","null","<div style=""font-size:60px;"">+</div>","","null","fixation","2021-04-06 03:46:52.299","","","","",""
"","mars-trial","172","408387","0.0-10.0-1.79","A941","""event"",""trial"",""time""
""fullscreenenter"",""0"",""2876""
","
","
","""event"",""trial"",""time""
""fullscreenenter"",""0"",""2876""
","
","68.4000002220273","<img style='border: 4px solid darkgrey;' src='img/tf1_80_M_ss1.jpeg'></img>","2","","exp","","0","<img src='img/tf1_80_T1_ss1_md.jpeg'></img>","0","true",""
"","audio-button-response","173","412280","0.0-11.0","A941","""event"",""trial"",""time""
""fullscreenenter"",""0"",""2876""
","
","
","""event"",""trial"",""time""
""fullscreenenter"",""0"",""2876""
","
","3888.8050001114607","audio/mars_instructions_slide5.wav","0","","","","","","","",""
