"success","trial_type","trial_index","time_elapsed","internal_node_id","subject_id","interactions","blur_events","focus_events","fullscreenenter_events","fullscreenexit_events","rt","stimulus","button_pressed","key_press","part","timestamp","unshuffled_button","correct_response","correct_button","correct","value"
"true","fullscreen","0","4953","0.0-0.0","139","""event"",""trial"",""time""
""fullscreenenter"",""0"",""3960""
","
","
","""event"",""trial"",""time""
""fullscreenenter"",""0"",""3960""
","
","","","","","","","","","","",""
"","pavlovia","1","4957","0.0-1.0","139","""event"",""trial"",""time""
""fullscreenenter"",""0"",""3960""
","
","
","""event"",""trial"",""time""
""fullscreenenter"",""0"",""3960""
","
","","","","","","","","","","",""
"","html-button-response","2","6258","0.0-2.0","139","""event"",""trial"",""time""
""fullscreenenter"",""0"",""3960""
","
","
","""event"",""trial"",""time""
""fullscreenenter"",""0"",""3960""
","
","1299.8999999999069","<p>Welcome! Press START to begin.</p><br>","0","","","","","","","",""
"","audio-button-response","3","13374","0.0-3.0","139","""event"",""trial"",""time""
""fullscreenenter"",""0"",""3960""
","
","
","""event"",""trial"",""time""
""fullscreenenter"",""0"",""3960""
","
","7113.899999999907","audio/mars_instructions_slide2.wav","0","","","","","","","",""
"","audio-button-response","4","14898","0.0-4.0","139","""event"",""trial"",""time""
""fullscreenenter"",""0"",""3960""
","
","
","""event"",""trial"",""time""
""fullscreenenter"",""0"",""3960""
","
","1521.7999999998137","audio/mars_instructions_slide3.wav","0","","","","","","","",""
"","html-keyboard-response","5","15419","0.0-5.0-0.0","139","""event"",""trial"",""time""
""fullscreenenter"",""0"",""3960""
","
","
","""event"",""trial"",""time""
""fullscreenenter"",""0"",""3960""
","
","null","<div style=""font-size:60px;"">+</div>","","null","fixation","2021-06-22 20:40:31.862","","","","",""
"","mars-trial","6","23275","0.0-5.0-1.0","139","""event"",""trial"",""time""
""fullscreenenter"",""0"",""3960""
","
","
","""event"",""trial"",""time""
""fullscreenenter"",""0"",""3960""
","
","5745.800000000279","<img style='border: 4px solid darkgrey;' src='practice/pt1_M1.png'></img>","3","","practice","","3","<img src='practice/pt1_T1.png'></img>","0","false",""
"","html-keyboard-response","7","23779","0.0-5.1-0.1","139","""event"",""trial"",""time""
""fullscreenenter"",""0"",""3960""
","
","
","""event"",""trial"",""time""
""fullscreenenter"",""0"",""3960""
","
","null","<div style=""font-size:60px;"">+</div>","","null","fixation","2021-06-22 20:40:40.222","","","","",""
"","mars-trial","8","31621","0.0-5.1-1.1","139","""event"",""trial"",""time""
""fullscreenenter"",""0"",""3960""
","
","
","""event"",""trial"",""time""
""fullscreenenter"",""0"",""3960""
","
","5726.799999999814","<img style='border: 4px solid darkgrey;' src='practice/pt1_M1.png'></img>","2","","practice","","2","<img src='practice/pt1_T1.png'></img>","0","false",""
"","html-keyboard-response","9","32134","0.0-5.2-0.2","139","""event"",""trial"",""time""
""fullscreenenter"",""0"",""3960""
","
","
","""event"",""trial"",""time""
""fullscreenenter"",""0"",""3960""
","
","null","<div style=""font-size:60px;"">+</div>","","null","fixation","2021-06-22 20:40:48.577","","","","",""
"","mars-trial","10","37511","0.0-5.2-1.2","139","""event"",""trial"",""time""
""fullscreenenter"",""0"",""3960""
","
","
","""event"",""trial"",""time""
""fullscreenenter"",""0"",""3960""
","
","3273","<img style='border: 4px solid darkgrey;' src='practice/pt1_M1.png'></img>","1","","practice","","3","<img src='practice/pt1_T1.png'></img>","0","false",""
"","html-keyboard-response","11","38022","0.0-5.3-0.3","139","""event"",""trial"",""time""
""fullscreenenter"",""0"",""3960""
","
","
","""event"",""trial"",""time""
""fullscreenenter"",""0"",""3960""
","
","null","<div style=""font-size:60px;"">+</div>","","null","fixation","2021-06-22 20:40:54.465","","","","",""
"","mars-trial","12","41227","0.0-5.3-1.3","139","""event"",""trial"",""time""
""fullscreenenter"",""0"",""3960""
","
","
","""event"",""trial"",""time""
""fullscreenenter"",""0"",""3960""
","
","1072.7000000001863","<img style='border: 4px solid darkgrey;' src='practice/pt1_M1.png'></img>","2","","practice","","0","<img src='practice/pt1_T1.png'></img>","0","true",""
"","html-keyboard-response","13","41732","0.0-6.0-0.0","139","""event"",""trial"",""time""
""fullscreenenter"",""0"",""3960""
","
","
","""event"",""trial"",""time""
""fullscreenenter"",""0"",""3960""
","
","null","<div style=""font-size:60px;"">+</div>","","null","fixation","2021-06-22 20:40:58.175","","","","",""
"","mars-trial","14","47634","0.0-6.0-1.0","139","""event"",""trial"",""time""
""fullscreenenter"",""0"",""3960""
","
","
","""event"",""trial"",""time""
""fullscreenenter"",""0"",""3960""
","
","3786.600000000093","<img style='border: 4px solid darkgrey;' src='practice/pt2_M1.png'></img>","0","","practice","","0","<img src='practice/pt2_T1.png'></img>","0","true",""
"","html-keyboard-response","15","48136","0.0-7.0-0.0","139","""event"",""trial"",""time""
""fullscreenenter"",""0"",""3960""
","
","
","""event"",""trial"",""time""
""fullscreenenter"",""0"",""3960""
","
","null","<div style=""font-size:60px;"">+</div>","","null","fixation","2021-06-22 20:41:04.579","","","","",""
"","mars-trial","16","52035","0.0-7.0-1.0","139","""event"",""trial"",""time""
""fullscreenenter"",""0"",""3960""
","
","
","""event"",""trial"",""time""
""fullscreenenter"",""0"",""3960""
","
","1793.5999999996275","<img style='border: 4px solid darkgrey;' src='practice/pt3_M1.png'></img>","3","","practice","","0","<img src='practice/pt3_T1.png'></img>","0","true",""
"","audio-button-response","17","53845","0.0-8.0","139","""event"",""trial"",""time""
""fullscreenenter"",""0"",""3960""
","
","
","""event"",""trial"",""time""
""fullscreenenter"",""0"",""3960""
","
","1808.1999999997206","audio/mars_instructions_slide4.wav","0","","","","","","","",""
"","call-function","18","53846","0.0-9.0","139","""event"",""trial"",""time""
""fullscreenenter"",""0"",""3960""
","
","
","""event"",""trial"",""time""
""fullscreenenter"",""0"",""3960""
","
","","","","","","","","","","",""
"","html-keyboard-response","19","54353","0.0-10.0-0.0","139","""event"",""trial"",""time""
""fullscreenenter"",""0"",""3960""
","
","
","""event"",""trial"",""time""
""fullscreenenter"",""0"",""3960""
","
","null","<div style=""font-size:60px;"">+</div>","","null","fixation","2021-06-22 20:41:10.797","","","","",""
"","mars-trial","20","56972","0.0-10.0-1.0","139","""event"",""trial"",""time""
""fullscreenenter"",""0"",""3960""
","
","
","""event"",""trial"",""time""
""fullscreenenter"",""0"",""3960""
","
","1999.6000000000931","<img style='border: 4px solid darkgrey;' src='img/tf1_1_M_ss3.jpeg'></img>","3","","exp","","0","<img src='img/tf1_1_T1_ss3_md.jpeg'></img>","0","true",""
"","html-keyboard-response","21","57475","0.0-10.0-0.1","139","""event"",""trial"",""time""
""fullscreenenter"",""0"",""3960""
","
","
","""event"",""trial"",""time""
""fullscreenenter"",""0"",""3960""
","
","null","<div style=""font-size:60px;"">+</div>","","null","fixation","2021-06-22 20:41:13.918","","","","",""
"","mars-trial","22","60725","0.0-10.0-1.1","139","""event"",""trial"",""time""
""fullscreenenter"",""0"",""3960""
","
","
","""event"",""trial"",""time""
""fullscreenenter"",""0"",""3960""
","
","2623.2000000001863","<img style='border: 4px solid darkgrey;' src='img/tf1_2_M_ss1.jpeg'></img>","3","","exp","","0","<img src='img/tf1_2_T1_ss1_md.jpeg'></img>","0","true",""
"","html-keyboard-response","23","61226","0.0-10.0-0.2","139","""event"",""trial"",""time""
""fullscreenenter"",""0"",""3960""
","
","
","""event"",""trial"",""time""
""fullscreenenter"",""0"",""3960""
","
","null","<div style=""font-size:60px;"">+</div>","","null","fixation","2021-06-22 20:41:17.670","","","","",""
"","mars-trial","24","63635","0.0-10.0-1.2","139","""event"",""trial"",""time""
""fullscreenenter"",""0"",""3960""
","
","
","""event"",""trial"",""time""
""fullscreenenter"",""0"",""3960""
","
","1790.5","<img style='border: 4px solid darkgrey;' src='img/tf1_3_M_ss2.jpeg'></img>","2","","exp","","0","<img src='img/tf1_3_T1_ss2_md.jpeg'></img>","0","true",""
"","html-keyboard-response","25","64145","0.0-10.0-0.3","139","""event"",""trial"",""time""
""fullscreenenter"",""0"",""3960""
","
","
","""event"",""trial"",""time""
""fullscreenenter"",""0"",""3960""
","
","null","<div style=""font-size:60px;"">+</div>","","null","fixation","2021-06-22 20:41:20.588","","","","",""
"","mars-trial","26","68596","0.0-10.0-1.3","139","""event"",""trial"",""time""
""fullscreenenter"",""0"",""3960""
","
","
","""event"",""trial"",""time""
""fullscreenenter"",""0"",""3960""
","
","3813","<img style='border: 4px solid darkgrey;' src='img/tf1_4_M_ss3.jpeg'></img>","2","","exp","","0","<img src='img/tf1_4_T1_ss3_md.jpeg'></img>","0","true",""
"","html-keyboard-response","27","69098","0.0-10.0-0.4","139","""event"",""trial"",""time""
""fullscreenenter"",""0"",""3960""
","
","
","""event"",""trial"",""time""
""fullscreenenter"",""0"",""3960""
","
","null","<div style=""font-size:60px;"">+</div>","","null","fixation","2021-06-22 20:41:25.541","","","","",""
"","mars-trial","28","76697","0.0-10.0-1.4","139","""event"",""trial"",""time""
""fullscreenenter"",""0"",""3960""
","
","
","""event"",""trial"",""time""
""fullscreenenter"",""0"",""3960""
","
","6972.799999999814","<img style='border: 4px solid darkgrey;' src='img/tf1_5_M_ss1.jpeg'></img>","3","","exp","","0","<img src='img/tf1_5_T1_ss1_md.jpeg'></img>","0","true",""
"","html-keyboard-response","29","77206","0.0-10.0-0.5","139","""event"",""trial"",""time""
""fullscreenenter"",""0"",""3960""
","
","
","""event"",""trial"",""time""
""fullscreenenter"",""0"",""3960""
","
","null","<div style=""font-size:60px;"">+</div>","","null","fixation","2021-06-22 20:41:33.649","","","","",""
"","mars-trial","30","84615","0.0-10.0-1.5","139","""event"",""trial"",""time""
""fullscreenenter"",""0"",""3960""
","
","
","""event"",""trial"",""time""
""fullscreenenter"",""0"",""3960""
","
","6787.5","<img style='border: 4px solid darkgrey;' src='img/tf1_6_M_ss2.jpeg'></img>","0","","exp","","3","<img src='img/tf1_6_T1_ss2_md.jpeg'></img>","0","false",""
"","html-keyboard-response","31","85117","0.0-10.0-0.6","139","""event"",""trial"",""time""
""fullscreenenter"",""0"",""3960""
","
","
","""event"",""trial"",""time""
""fullscreenenter"",""0"",""3960""
","
","null","<div style=""font-size:60px;"">+</div>","","null","fixation","2021-06-22 20:41:41.560","","","","",""
"","mars-trial","32","89670","0.0-10.0-1.6","139","""event"",""trial"",""time""
""fullscreenenter"",""0"",""3960""
","
","
","""event"",""trial"",""time""
""fullscreenenter"",""0"",""3960""
","
","3947.100000000093","<img style='border: 4px solid darkgrey;' src='img/tf1_7_M_ss3.jpeg'></img>","3","","exp","","0","<img src='img/tf1_7_T1_ss3_md.jpeg'></img>","0","true",""
"","html-keyboard-response","33","90171","0.0-10.0-0.7","139","""event"",""trial"",""time""
""fullscreenenter"",""0"",""3960""
","
","
","""event"",""trial"",""time""
""fullscreenenter"",""0"",""3960""
","
","null","<div style=""font-size:60px;"">+</div>","","null","fixation","2021-06-22 20:41:46.614","","","","",""
"","mars-trial","34","99234","0.0-10.0-1.7","139","""event"",""trial"",""time""
""fullscreenenter"",""0"",""3960""
","
","
","""event"",""trial"",""time""
""fullscreenenter"",""0"",""3960""
","
","8458","<img style='border: 4px solid darkgrey;' src='img/tf1_8_M_ss1.jpeg'></img>","3","","exp","","0","<img src='img/tf1_8_T1_ss1_md.jpeg'></img>","0","true",""
"","html-keyboard-response","35","99735","0.0-10.0-0.8","139","""event"",""trial"",""time""
""fullscreenenter"",""0"",""3960""
","
","
","""event"",""trial"",""time""
""fullscreenenter"",""0"",""3960""
","
","null","<div style=""font-size:60px;"">+</div>","","null","fixation","2021-06-22 20:41:56.179","","","","",""
"","mars-trial","36","108915","0.0-10.0-1.8","139","""event"",""trial"",""time""
""fullscreenenter"",""0"",""3960""
","
","
","""event"",""trial"",""time""
""fullscreenenter"",""0"",""3960""
","
","8574.299999999814","<img style='border: 4px solid darkgrey;' src='img/tf1_9_M_ss2.jpeg'></img>","3","","exp","","1","<img src='img/tf1_9_T1_ss2_md.jpeg'></img>","0","false",""
"","html-keyboard-response","37","109417","0.0-10.0-0.9","139","""event"",""trial"",""time""
""fullscreenenter"",""0"",""3960""
","
","
","""event"",""trial"",""time""
""fullscreenenter"",""0"",""3960""
","
","null","<div style=""font-size:60px;"">+</div>","","null","fixation","2021-06-22 20:42:05.860","","","","",""
"","mars-trial","38","120609","0.0-10.0-1.9","139","""event"",""trial"",""time""
""fullscreenenter"",""0"",""3960""
","
","
","""event"",""trial"",""time""
""fullscreenenter"",""0"",""3960""
","
","10587.100000000093","<img style='border: 4px solid darkgrey;' src='img/tf1_10_M_ss3.jpeg'></img>","0","","exp","","2","<img src='img/tf1_10_T1_ss3_md.jpeg'></img>","0","false",""
"","html-keyboard-response","39","121111","0.0-10.0-0.10","139","""event"",""trial"",""time""
""fullscreenenter"",""0"",""3960""
","
","
","""event"",""trial"",""time""
""fullscreenenter"",""0"",""3960""
","
","null","<div style=""font-size:60px;"">+</div>","","null","fixation","2021-06-22 20:42:17.554","","","","",""
"","mars-trial","40","141370","0.0-10.0-1.10","139","""event"",""trial"",""time""
""fullscreenenter"",""0"",""3960""
","
","
","""event"",""trial"",""time""
""fullscreenenter"",""0"",""3960""
","
","19652.100000000093","<img style='border: 4px solid darkgrey;' src='img/tf1_11_M_ss1.jpeg'></img>","0","","exp","","2","<img src='img/tf1_11_T1_ss1_md.jpeg'></img>","0","false",""
"","html-keyboard-response","41","141872","0.0-10.0-0.11","139","""event"",""trial"",""time""
""fullscreenenter"",""0"",""3960""
","
","
","""event"",""trial"",""time""
""fullscreenenter"",""0"",""3960""
","
","null","<div style=""font-size:60px;"">+</div>","","null","fixation","2021-06-22 20:42:38.315","","","","",""
"","mars-trial","42","146354","0.0-10.0-1.11","139","""event"",""trial"",""time""
""fullscreenenter"",""0"",""3960""
","
","
","""event"",""trial"",""time""
""fullscreenenter"",""0"",""3960""
","
","3876.2999999998137","<img style='border: 4px solid darkgrey;' src='img/tf1_12_M_ss2.jpeg'></img>","2","","exp","","2","<img src='img/tf1_12_T1_ss2_md.jpeg'></img>","0","false",""
"","html-keyboard-response","43","146856","0.0-10.0-0.12","139","""event"",""trial"",""time""
""fullscreenenter"",""0"",""3960""
","
","
","""event"",""trial"",""time""
""fullscreenenter"",""0"",""3960""
","
","null","<div style=""font-size:60px;"">+</div>","","null","fixation","2021-06-22 20:42:43.300","","","","",""
"","mars-trial","44","150018","0.0-10.0-1.12","139","""event"",""trial"",""time""
""fullscreenenter"",""0"",""3960""
","
","
","""event"",""trial"",""time""
""fullscreenenter"",""0"",""3960""
","
","2555.2999999998137","<img style='border: 4px solid darkgrey;' src='img/tf1_13_M_ss3.jpeg'></img>","2","","exp","","2","<img src='img/tf1_13_T1_ss3_md.jpeg'></img>","0","false",""
"","html-keyboard-response","45","150520","0.0-10.0-0.13","139","""event"",""trial"",""time""
""fullscreenenter"",""0"",""3960""
","
","
","""event"",""trial"",""time""
""fullscreenenter"",""0"",""3960""
","
","null","<div style=""font-size:60px;"">+</div>","","null","fixation","2021-06-22 20:42:46.963","","","","",""
"","mars-trial","46","153333","0.0-10.0-1.13","139","""event"",""trial"",""time""
""fullscreenenter"",""0"",""3960""
","
","
","""event"",""trial"",""time""
""fullscreenenter"",""0"",""3960""
","
","2208.6999999997206","<img style='border: 4px solid darkgrey;' src='img/tf1_14_M_ss1.jpeg'></img>","2","","exp","","3","<img src='img/tf1_14_T1_ss1_md.jpeg'></img>","0","false",""
"","html-keyboard-response","47","153834","0.0-10.0-0.14","139","""event"",""trial"",""time""
""fullscreenenter"",""0"",""3960""
","
","
","""event"",""trial"",""time""
""fullscreenenter"",""0"",""3960""
","
","null","<div style=""font-size:60px;"">+</div>","","null","fixation","2021-06-22 20:42:50.277","","","","",""
"","mars-trial","48","155308","0.0-10.0-1.14","139","""event"",""trial"",""time""
""fullscreenenter"",""0"",""3960""
","
","
","""event"",""trial"",""time""
""fullscreenenter"",""0"",""3960""
","
","868.6999999997206","<img style='border: 4px solid darkgrey;' src='img/tf1_15_M_ss2.jpeg'></img>","1","","exp","","1","<img src='img/tf1_15_T1_ss2_md.jpeg'></img>","0","false",""
"","html-keyboard-response","49","155809","0.0-10.0-0.15","139","""event"",""trial"",""time""
""fullscreenenter"",""0"",""3960""
","
","
","""event"",""trial"",""time""
""fullscreenenter"",""0"",""3960""
","
","null","<div style=""font-size:60px;"">+</div>","","null","fixation","2021-06-22 20:42:52.252","","","","",""
"","mars-trial","50","160924","0.0-10.0-1.15","139","""event"",""trial"",""time""
""fullscreenenter"",""0"",""3960""
","
","
","""event"",""trial"",""time""
""fullscreenenter"",""0"",""3960""
","
","4496.4000000003725","<img style='border: 4px solid darkgrey;' src='img/tf1_16_M_ss3.jpeg'></img>","2","","exp","","0","<img src='img/tf1_16_T1_ss3_md.jpeg'></img>","0","true",""
"","html-keyboard-response","51","161426","0.0-10.0-0.16","139","""event"",""trial"",""time""
""fullscreenenter"",""0"",""3960""
","
","
","""event"",""trial"",""time""
""fullscreenenter"",""0"",""3960""
","
","null","<div style=""font-size:60px;"">+</div>","","null","fixation","2021-06-22 20:42:57.869","","","","",""
"","mars-trial","52","173346","0.0-10.0-1.16","139","""event"",""trial"",""time""
""fullscreenenter"",""0"",""3960""
","
","
","""event"",""trial"",""time""
""fullscreenenter"",""0"",""3960""
","
","11316.299999999814","<img style='border: 4px solid darkgrey;' src='img/tf1_17_M_ss1.jpeg'></img>","0","","exp","","2","<img src='img/tf1_17_T1_ss1_md.jpeg'></img>","0","false",""
"","html-keyboard-response","53","173849","0.0-10.0-0.17","139","""event"",""trial"",""time""
""fullscreenenter"",""0"",""3960""
","
","
","""event"",""trial"",""time""
""fullscreenenter"",""0"",""3960""
","
","null","<div style=""font-size:60px;"">+</div>","","null","fixation","2021-06-22 20:43:10.292","","","","",""
"","mars-trial","54","175728","0.0-10.0-1.17","139","""event"",""trial"",""time""
""fullscreenenter"",""0"",""3960""
","
","
","""event"",""trial"",""time""
""fullscreenenter"",""0"",""3960""
","
","1274.3000000002794","<img style='border: 4px solid darkgrey;' src='img/tf1_18_M_ss2.jpeg'></img>","1","","exp","","0","<img src='img/tf1_18_T1_ss2_md.jpeg'></img>","0","true",""
"","html-keyboard-response","55","176229","0.0-10.0-0.18","139","""event"",""trial"",""time""
""fullscreenenter"",""0"",""3960""
","
","
","""event"",""trial"",""time""
""fullscreenenter"",""0"",""3960""
","
","null","<div style=""font-size:60px;"">+</div>","","null","fixation","2021-06-22 20:43:12.673","","","","",""
"","mars-trial","56","185389","0.0-10.0-1.18","139","""event"",""trial"",""time""
""fullscreenenter"",""0"",""3960""
","
","
","""event"",""trial"",""time""
""fullscreenenter"",""0"",""3960""
","
","8551.200000000186","<img style='border: 4px solid darkgrey;' src='img/tf1_19_M_ss3.jpeg'></img>","0","","exp","","3","<img src='img/tf1_19_T1_ss3_md.jpeg'></img>","0","false",""
"","html-keyboard-response","57","185892","0.0-10.0-0.19","139","""event"",""trial"",""time""
""fullscreenenter"",""0"",""3960""
","
","
","""event"",""trial"",""time""
""fullscreenenter"",""0"",""3960""
","
","null","<div style=""font-size:60px;"">+</div>","","null","fixation","2021-06-22 20:43:22.335","","","","",""
"","mars-trial","58","188105","0.0-10.0-1.19","139","""event"",""trial"",""time""
""fullscreenenter"",""0"",""3960""
","
","
","""event"",""trial"",""time""
""fullscreenenter"",""0"",""3960""
","
","1607.8999999999069","<img style='border: 4px solid darkgrey;' src='img/tf1_20_M_ss1.jpeg'></img>","1","","exp","","0","<img src='img/tf1_20_T1_ss1_md.jpeg'></img>","0","true",""
"","html-keyboard-response","59","188608","0.0-10.0-0.20","139","""event"",""trial"",""time""
""fullscreenenter"",""0"",""3960""
","
","
","""event"",""trial"",""time""
""fullscreenenter"",""0"",""3960""
","
","null","<div style=""font-size:60px;"">+</div>","","null","fixation","2021-06-22 20:43:25.051","","","","",""
"","mars-trial","60","191464","0.0-10.0-1.20","139","""event"",""trial"",""time""
""fullscreenenter"",""0"",""3960""
","
","
","""event"",""trial"",""time""
""fullscreenenter"",""0"",""3960""
","
","2251.2999999998137","<img style='border: 4px solid darkgrey;' src='img/tf1_21_M_ss2.jpeg'></img>","2","","exp","","1","<img src='img/tf1_21_T1_ss2_md.jpeg'></img>","0","false",""
"","html-keyboard-response","61","191970","0.0-10.0-0.21","139","""event"",""trial"",""time""
""fullscreenenter"",""0"",""3960""
","
","
","""event"",""trial"",""time""
""fullscreenenter"",""0"",""3960""
","
","null","<div style=""font-size:60px;"">+</div>","","null","fixation","2021-06-22 20:43:28.413","","","","",""
"","mars-trial","62","196481","0.0-10.0-1.21","139","""event"",""trial"",""time""
""fullscreenenter"",""0"",""3960""
","
","
","""event"",""trial"",""time""
""fullscreenenter"",""0"",""3960""
","
","3905.7000000001863","<img style='border: 4px solid darkgrey;' src='img/tf1_22_M_ss3.jpeg'></img>","1","","exp","","3","<img src='img/tf1_22_T1_ss3_md.jpeg'></img>","0","false",""
"","html-keyboard-response","63","196985","0.0-10.0-0.22","139","""event"",""trial"",""time""
""fullscreenenter"",""0"",""3960""
","
","
","""event"",""trial"",""time""
""fullscreenenter"",""0"",""3960""
","
","null","<div style=""font-size:60px;"">+</div>","","null","fixation","2021-06-22 20:43:33.428","","","","",""
"","mars-trial","64","201340","0.0-10.0-1.22","139","""event"",""trial"",""time""
""fullscreenenter"",""0"",""3960""
","
","
","""event"",""trial"",""time""
""fullscreenenter"",""0"",""3960""
","
","3750.600000000093","<img style='border: 4px solid darkgrey;' src='img/tf1_23_M_ss1.jpeg'></img>","0","","exp","","1","<img src='img/tf1_23_T1_ss1_md.jpeg'></img>","0","false",""
"","html-keyboard-response","65","201842","0.0-10.0-0.23","139","""event"",""trial"",""time""
""fullscreenenter"",""0"",""3960""
","
","
","""event"",""trial"",""time""
""fullscreenenter"",""0"",""3960""
","
","null","<div style=""font-size:60px;"">+</div>","","null","fixation","2021-06-22 20:43:38.285","","","","",""
"","mars-trial","66","203653","0.0-10.0-1.23","139","""event"",""trial"",""time""
""fullscreenenter"",""0"",""3960""
","
","
","""event"",""trial"",""time""
""fullscreenenter"",""0"",""3960""
","
","1205.5","<img style='border: 4px solid darkgrey;' src='img/tf1_24_M_ss2.jpeg'></img>","1","","exp","","3","<img src='img/tf1_24_T1_ss2_md.jpeg'></img>","0","false",""
"","html-keyboard-response","67","204154","0.0-10.0-0.24","139","""event"",""trial"",""time""
""fullscreenenter"",""0"",""3960""
","
","
","""event"",""trial"",""time""
""fullscreenenter"",""0"",""3960""
","
","null","<div style=""font-size:60px;"">+</div>","","null","fixation","2021-06-22 20:43:40.597","","","","",""
"","mars-trial","68","206091","0.0-10.0-1.24","139","""event"",""trial"",""time""
""fullscreenenter"",""0"",""3960""
","
","
","""event"",""trial"",""time""
""fullscreenenter"",""0"",""3960""
","
","1332.3000000002794","<img style='border: 4px solid darkgrey;' src='img/tf1_25_M_ss3.jpeg'></img>","2","","exp","","3","<img src='img/tf1_25_T1_ss3_md.jpeg'></img>","0","false",""
"","html-keyboard-response","69","206593","0.0-10.0-0.25","139","""event"",""trial"",""time""
""fullscreenenter"",""0"",""3960""
","
","
","""event"",""trial"",""time""
""fullscreenenter"",""0"",""3960""
","
","null","<div style=""font-size:60px;"">+</div>","","null","fixation","2021-06-22 20:43:43.036","","","","",""
"","mars-trial","70","207920","0.0-10.0-1.25","139","""event"",""trial"",""time""
""fullscreenenter"",""0"",""3960""
","
","
","""event"",""trial"",""time""
""fullscreenenter"",""0"",""3960""
","
","720.7999999998137","<img style='border: 4px solid darkgrey;' src='img/tf1_26_M_ss1.jpeg'></img>","1","","exp","","1","<img src='img/tf1_26_T1_ss1_md.jpeg'></img>","0","false",""
"","html-keyboard-response","71","208421","0.0-10.0-0.26","139","""event"",""trial"",""time""
""fullscreenenter"",""0"",""3960""
","
","
","""event"",""trial"",""time""
""fullscreenenter"",""0"",""3960""
","
","null","<div style=""font-size:60px;"">+</div>","","null","fixation","2021-06-22 20:43:44.864","","","","",""
"","mars-trial","72","209911","0.0-10.0-1.26","139","""event"",""trial"",""time""
""fullscreenenter"",""0"",""3960""
","
","
","""event"",""trial"",""time""
""fullscreenenter"",""0"",""3960""
","
","885.5","<img style='border: 4px solid darkgrey;' src='img/tf1_27_M_ss2.jpeg'></img>","3","","exp","","3","<img src='img/tf1_27_T1_ss2_md.jpeg'></img>","0","false",""
"","html-keyboard-response","73","210414","0.0-10.0-0.27","139","""event"",""trial"",""time""
""fullscreenenter"",""0"",""3960""
","
","
","""event"",""trial"",""time""
""fullscreenenter"",""0"",""3960""
","
","null","<div style=""font-size:60px;"">+</div>","","null","fixation","2021-06-22 20:43:46.857","","","","",""
"","mars-trial","74","211514","0.0-10.0-1.27","139","""event"",""trial"",""time""
""fullscreenenter"",""0"",""3960""
","
","
","""event"",""trial"",""time""
""fullscreenenter"",""0"",""3960""
","
","495","<img style='border: 4px solid darkgrey;' src='img/tf1_28_M_ss3.jpeg'></img>","2","","exp","","1","<img src='img/tf1_28_T1_ss3_md.jpeg'></img>","0","false",""
"","html-keyboard-response","75","212016","0.0-10.0-0.28","139","""event"",""trial"",""time""
""fullscreenenter"",""0"",""3960""
","
","
","""event"",""trial"",""time""
""fullscreenenter"",""0"",""3960""
","
","null","<div style=""font-size:60px;"">+</div>","","null","fixation","2021-06-22 20:43:48.459","","","","",""
"","mars-trial","76","213419","0.0-10.0-1.28","139","""event"",""trial"",""time""
""fullscreenenter"",""0"",""3960""
","
","
","""event"",""trial"",""time""
""fullscreenenter"",""0"",""3960""
","
","798.6999999997206","<img style='border: 4px solid darkgrey;' src='img/tf1_29_M_ss1.jpeg'></img>","1","","exp","","0","<img src='img/tf1_29_T1_ss1_md.jpeg'></img>","0","true",""
"","html-keyboard-response","77","213920","0.0-10.0-0.29","139","""event"",""trial"",""time""
""fullscreenenter"",""0"",""3960""
","
","
","""event"",""trial"",""time""
""fullscreenenter"",""0"",""3960""
","
","null","<div style=""font-size:60px;"">+</div>","","null","fixation","2021-06-22 20:43:50.363","","","","",""
"","mars-trial","78","215060","0.0-10.0-1.29","139","""event"",""trial"",""time""
""fullscreenenter"",""0"",""3960""
","
","
","""event"",""trial"",""time""
""fullscreenenter"",""0"",""3960""
","
","535.5","<img style='border: 4px solid darkgrey;' src='img/tf1_30_M_ss2.jpeg'></img>","1","","exp","","1","<img src='img/tf1_30_T1_ss2_md.jpeg'></img>","0","false",""
"","html-keyboard-response","79","215562","0.0-10.0-0.30","139","""event"",""trial"",""time""
""fullscreenenter"",""0"",""3960""
","
","
","""event"",""trial"",""time""
""fullscreenenter"",""0"",""3960""
","
","null","<div style=""font-size:60px;"">+</div>","","null","fixation","2021-06-22 20:43:52.005","","","","",""
"","mars-trial","80","216575","0.0-10.0-1.30","139","""event"",""trial"",""time""
""fullscreenenter"",""0"",""3960""
","
","
","""event"",""trial"",""time""
""fullscreenenter"",""0"",""3960""
","
","409.10000000009313","<img style='border: 4px solid darkgrey;' src='img/tf1_31_M_ss3.jpeg'></img>","2","","exp","","3","<img src='img/tf1_31_T1_ss3_md.jpeg'></img>","0","false",""
"","html-keyboard-response","81","217078","0.0-10.0-0.31","139","""event"",""trial"",""time""
""fullscreenenter"",""0"",""3960""
","
","
","""event"",""trial"",""time""
""fullscreenenter"",""0"",""3960""
","
","null","<div style=""font-size:60px;"">+</div>","","null","fixation","2021-06-22 20:43:53.521","","","","",""
"","mars-trial","82","218263","0.0-10.0-1.31","139","""event"",""trial"",""time""
""fullscreenenter"",""0"",""3960""
","
","
","""event"",""trial"",""time""
""fullscreenenter"",""0"",""3960""
","
","581.1000000000931","<img style='border: 4px solid darkgrey;' src='img/tf1_32_M_ss1.jpeg'></img>","2","","exp","","3","<img src='img/tf1_32_T1_ss1_md.jpeg'></img>","0","false",""
"","html-keyboard-response","83","218765","0.0-10.0-0.32","139","""event"",""trial"",""time""
""fullscreenenter"",""0"",""3960""
","
","
","""event"",""trial"",""time""
""fullscreenenter"",""0"",""3960""
","
","null","<div style=""font-size:60px;"">+</div>","","null","fixation","2021-06-22 20:43:55.208","","","","",""
"","mars-trial","84","219825","0.0-10.0-1.32","139","""event"",""trial"",""time""
""fullscreenenter"",""0"",""3960""
","
","
","""event"",""trial"",""time""
""fullscreenenter"",""0"",""3960""
","
","456.5","<img style='border: 4px solid darkgrey;' src='img/tf1_33_M_ss2.jpeg'></img>","1","","exp","","0","<img src='img/tf1_33_T1_ss2_md.jpeg'></img>","0","true",""
"","html-keyboard-response","85","220326","0.0-10.0-0.33","139","""event"",""trial"",""time""
""fullscreenenter"",""0"",""3960""
","
","
","""event"",""trial"",""time""
""fullscreenenter"",""0"",""3960""
","
","null","<div style=""font-size:60px;"">+</div>","","null","fixation","2021-06-22 20:43:56.769","","","","",""
"","mars-trial","86","221544","0.0-10.0-1.33","139","""event"",""trial"",""time""
""fullscreenenter"",""0"",""3960""
","
","
","""event"",""trial"",""time""
""fullscreenenter"",""0"",""3960""
","
","613.0999999996275","<img style='border: 4px solid darkgrey;' src='img/tf1_34_M_ss3.jpeg'></img>","0","","exp","","0","<img src='img/tf1_34_T1_ss3_md.jpeg'></img>","0","true",""
"","html-keyboard-response","87","222045","0.0-10.0-0.34","139","""event"",""trial"",""time""
""fullscreenenter"",""0"",""3960""
","
","
","""event"",""trial"",""time""
""fullscreenenter"",""0"",""3960""
","
","null","<div style=""font-size:60px;"">+</div>","","null","fixation","2021-06-22 20:43:58.488","","","","",""
"","mars-trial","88","223858","0.0-10.0-1.34","139","""event"",""trial"",""time""
""fullscreenenter"",""0"",""3960""
","
","
","""event"",""trial"",""time""
""fullscreenenter"",""0"",""3960""
","
","1208.1000000000931","<img style='border: 4px solid darkgrey;' src='img/tf1_35_M_ss1.jpeg'></img>","3","","exp","","3","<img src='img/tf1_35_T1_ss1_md.jpeg'></img>","0","false",""
"","html-keyboard-response","89","224360","0.0-10.0-0.35","139","""event"",""trial"",""time""
""fullscreenenter"",""0"",""3960""
","
","
","""event"",""trial"",""time""
""fullscreenenter"",""0"",""3960""
","
","null","<div style=""font-size:60px;"">+</div>","","null","fixation","2021-06-22 20:44:00.803","","","","",""
"","mars-trial","90","225936","0.0-10.0-1.35","139","""event"",""trial"",""time""
""fullscreenenter"",""0"",""3960""
","
","
","""event"",""trial"",""time""
""fullscreenenter"",""0"",""3960""
","
","958.9000000003725","<img style='border: 4px solid darkgrey;' src='img/tf1_36_M_ss2.jpeg'></img>","2","","exp","","3","<img src='img/tf1_36_T1_ss2_md.jpeg'></img>","0","false",""
"","html-keyboard-response","91","226439","0.0-10.0-0.36","139","""event"",""trial"",""time""
""fullscreenenter"",""0"",""3960""
","
","
","""event"",""trial"",""time""
""fullscreenenter"",""0"",""3960""
","
","null","<div style=""font-size:60px;"">+</div>","","null","fixation","2021-06-22 20:44:02.882","","","","",""
"","mars-trial","92","227638","0.0-10.0-1.36","139","""event"",""trial"",""time""
""fullscreenenter"",""0"",""3960""
","
","
","""event"",""trial"",""time""
""fullscreenenter"",""0"",""3960""
","
","594.9000000003725","<img style='border: 4px solid darkgrey;' src='img/tf1_37_M_ss3.jpeg'></img>","0","","exp","","3","<img src='img/tf1_37_T1_ss3_md.jpeg'></img>","0","false",""
"","html-keyboard-response","93","228140","0.0-10.0-0.37","139","""event"",""trial"",""time""
""fullscreenenter"",""0"",""3960""
","
","
","""event"",""trial"",""time""
""fullscreenenter"",""0"",""3960""
","
","null","<div style=""font-size:60px;"">+</div>","","null","fixation","2021-06-22 20:44:04.583","","","","",""
"","mars-trial","94","229326","0.0-10.0-1.37","139","""event"",""trial"",""time""
""fullscreenenter"",""0"",""3960""
","
","
","""event"",""trial"",""time""
""fullscreenenter"",""0"",""3960""
","
","581.8000000002794","<img style='border: 4px solid darkgrey;' src='img/tf1_38_M_ss1.jpeg'></img>","1","","exp","","1","<img src='img/tf1_38_T1_ss1_md.jpeg'></img>","0","false",""
"","html-keyboard-response","95","229829","0.0-10.0-0.38","139","""event"",""trial"",""time""
""fullscreenenter"",""0"",""3960""
","
","
","""event"",""trial"",""time""
""fullscreenenter"",""0"",""3960""
","
","null","<div style=""font-size:60px;"">+</div>","","null","fixation","2021-06-22 20:44:06.272","","","","",""
"","mars-trial","96","234744","0.0-10.0-1.38","139","""event"",""trial"",""time""
""fullscreenenter"",""0"",""3960""
","
","
","""event"",""trial"",""time""
""fullscreenenter"",""0"",""3960""
","
","4310.100000000093","<img style='border: 4px solid darkgrey;' src='img/tf1_39_M_ss2.jpeg'></img>","3","","exp","","2","<img src='img/tf1_39_T1_ss2_md.jpeg'></img>","0","false",""
"","html-keyboard-response","97","235245","0.0-10.0-0.39","139","""event"",""trial"",""time""
""fullscreenenter"",""0"",""3960""
","
","
","""event"",""trial"",""time""
""fullscreenenter"",""0"",""3960""
","
","null","<div style=""font-size:60px;"">+</div>","","null","fixation","2021-06-22 20:44:11.688","","","","",""
"","mars-trial","98","237388","0.0-10.0-1.39","139","""event"",""trial"",""time""
""fullscreenenter"",""0"",""3960""
","
","
","""event"",""trial"",""time""
""fullscreenenter"",""0"",""3960""
","
","1536.8999999999069","<img style='border: 4px solid darkgrey;' src='img/tf1_40_M_ss3.jpeg'></img>","3","","exp","","0","<img src='img/tf1_40_T1_ss3_md.jpeg'></img>","0","true",""
"","html-keyboard-response","99","237889","0.0-10.0-0.40","139","""event"",""trial"",""time""
""fullscreenenter"",""0"",""3960""
","
","
","""event"",""trial"",""time""
""fullscreenenter"",""0"",""3960""
","
","null","<div style=""font-size:60px;"">+</div>","","null","fixation","2021-06-22 20:44:14.332","","","","",""
"","mars-trial","100","239250","0.0-10.0-1.40","139","""event"",""trial"",""time""
""fullscreenenter"",""0"",""3960""
","
","
","""event"",""trial"",""time""
""fullscreenenter"",""0"",""3960""
","
","755","<img style='border: 4px solid darkgrey;' src='img/tf1_41_M_ss1.jpeg'></img>","0","","exp","","3","<img src='img/tf1_41_T1_ss1_md.jpeg'></img>","0","false",""
"","html-keyboard-response","101","239751","0.0-10.0-0.41","139","""event"",""trial"",""time""
""fullscreenenter"",""0"",""3960""
","
","
","""event"",""trial"",""time""
""fullscreenenter"",""0"",""3960""
","
","null","<div style=""font-size:60px;"">+</div>","","null","fixation","2021-06-22 20:44:16.194","","","","",""
"","mars-trial","102","241226","0.0-10.0-1.41","139","""event"",""trial"",""time""
""fullscreenenter"",""0"",""3960""
","
","
","""event"",""trial"",""time""
""fullscreenenter"",""0"",""3960""
","
","870.2999999998137","<img style='border: 4px solid darkgrey;' src='img/tf1_42_M_ss2.jpeg'></img>","2","","exp","","1","<img src='img/tf1_42_T1_ss2_md.jpeg'></img>","0","false",""
"","html-keyboard-response","103","241729","0.0-10.0-0.42","139","""event"",""trial"",""time""
""fullscreenenter"",""0"",""3960""
","
","
","""event"",""trial"",""time""
""fullscreenenter"",""0"",""3960""
","
","null","<div style=""font-size:60px;"">+</div>","","null","fixation","2021-06-22 20:44:18.172","","","","",""
"","mars-trial","104","242796","0.0-10.0-1.42","139","""event"",""trial"",""time""
""fullscreenenter"",""0"",""3960""
","
","
","""event"",""trial"",""time""
""fullscreenenter"",""0"",""3960""
","
","462.70000000018626","<img style='border: 4px solid darkgrey;' src='img/tf1_43_M_ss3.jpeg'></img>","1","","exp","","2","<img src='img/tf1_43_T1_ss3_md.jpeg'></img>","0","false",""
"","html-keyboard-response","105","243297","0.0-10.0-0.43","139","""event"",""trial"",""time""
""fullscreenenter"",""0"",""3960""
","
","
","""event"",""trial"",""time""
""fullscreenenter"",""0"",""3960""
","
","null","<div style=""font-size:60px;"">+</div>","","null","fixation","2021-06-22 20:44:19.741","","","","",""
"","mars-trial","106","244914","0.0-10.0-1.43","139","""event"",""trial"",""time""
""fullscreenenter"",""0"",""3960""
","
","
","""event"",""trial"",""time""
""fullscreenenter"",""0"",""3960""
","
","1006.2999999998137","<img style='border: 4px solid darkgrey;' src='img/tf1_44_M_ss1.jpeg'></img>","2","","exp","","3","<img src='img/tf1_44_T1_ss1_md.jpeg'></img>","0","false",""
"","html-keyboard-response","107","245417","0.0-10.0-0.44","139","""event"",""trial"",""time""
""fullscreenenter"",""0"",""3960""
","
","
","""event"",""trial"",""time""
""fullscreenenter"",""0"",""3960""
","
","null","<div style=""font-size:60px;"">+</div>","","null","fixation","2021-06-22 20:44:21.860","","","","",""
"","mars-trial","108","247046","0.0-10.0-1.44","139","""event"",""trial"",""time""
""fullscreenenter"",""0"",""3960""
","
","
","""event"",""trial"",""time""
""fullscreenenter"",""0"",""3960""
","
","1023","<img style='border: 4px solid darkgrey;' src='img/tf1_45_M_ss2.jpeg'></img>","1","","exp","","0","<img src='img/tf1_45_T1_ss2_md.jpeg'></img>","0","true",""
"","html-keyboard-response","109","247548","0.0-10.0-0.45","139","""event"",""trial"",""time""
""fullscreenenter"",""0"",""3960""
","
","
","""event"",""trial"",""time""
""fullscreenenter"",""0"",""3960""
","
","null","<div style=""font-size:60px;"">+</div>","","null","fixation","2021-06-22 20:44:23.991","","","","",""
"","mars-trial","110","248947","0.0-10.0-1.45","139","""event"",""trial"",""time""
""fullscreenenter"",""0"",""3960""
","
","
","""event"",""trial"",""time""
""fullscreenenter"",""0"",""3960""
","
","794.6999999997206","<img style='border: 4px solid darkgrey;' src='img/tf1_46_M_ss3.jpeg'></img>","0","","exp","","2","<img src='img/tf1_46_T1_ss3_md.jpeg'></img>","0","false",""
"","html-keyboard-response","111","249449","0.0-10.0-0.46","139","""event"",""trial"",""time""
""fullscreenenter"",""0"",""3960""
","
","
","""event"",""trial"",""time""
""fullscreenenter"",""0"",""3960""
","
","null","<div style=""font-size:60px;"">+</div>","","null","fixation","2021-06-22 20:44:25.892","","","","",""
"","mars-trial","112","252657","0.0-10.0-1.46","139","""event"",""trial"",""time""
""fullscreenenter"",""0"",""3960""
","
","
","""event"",""trial"",""time""
""fullscreenenter"",""0"",""3960""
","
","2601.600000000093","<img style='border: 4px solid darkgrey;' src='img/tf1_47_M_ss1.jpeg'></img>","2","","exp","","1","<img src='img/tf1_47_T1_ss1_md.jpeg'></img>","0","false",""
"","html-keyboard-response","113","253159","0.0-10.0-0.47","139","""event"",""trial"",""time""
""fullscreenenter"",""0"",""3960""
","
","
","""event"",""trial"",""time""
""fullscreenenter"",""0"",""3960""
","
","null","<div style=""font-size:60px;"">+</div>","","null","fixation","2021-06-22 20:44:29.602","","","","",""
"","mars-trial","114","254624","0.0-10.0-1.47","139","""event"",""trial"",""time""
""fullscreenenter"",""0"",""3960""
","
","
","""event"",""trial"",""time""
""fullscreenenter"",""0"",""3960""
","
","859.8999999999069","<img style='border: 4px solid darkgrey;' src='img/tf1_48_M_ss2.jpeg'></img>","2","","exp","","0","<img src='img/tf1_48_T1_ss2_md.jpeg'></img>","0","true",""
"","html-keyboard-response","115","255127","0.0-10.0-0.48","139","""event"",""trial"",""time""
""fullscreenenter"",""0"",""3960""
","
","
","""event"",""trial"",""time""
""fullscreenenter"",""0"",""3960""
","
","null","<div style=""font-size:60px;"">+</div>","","null","fixation","2021-06-22 20:44:31.570","","","","",""
"","mars-trial","116","256539","0.0-10.0-1.48","139","""event"",""trial"",""time""
""fullscreenenter"",""0"",""3960""
","
","
","""event"",""trial"",""time""
""fullscreenenter"",""0"",""3960""
","
","806.8999999999069","<img style='border: 4px solid darkgrey;' src='img/tf1_49_M_ss3.jpeg'></img>","1","","exp","","2","<img src='img/tf1_49_T1_ss3_md.jpeg'></img>","0","false",""
"","html-keyboard-response","117","257040","0.0-10.0-0.49","139","""event"",""trial"",""time""
""fullscreenenter"",""0"",""3960""
","
","
","""event"",""trial"",""time""
""fullscreenenter"",""0"",""3960""
","
","null","<div style=""font-size:60px;"">+</div>","","null","fixation","2021-06-22 20:44:33.483","","","","",""
"","mars-trial","118","258805","0.0-10.0-1.49","139","""event"",""trial"",""time""
""fullscreenenter"",""0"",""3960""
","
","
","""event"",""trial"",""time""
""fullscreenenter"",""0"",""3960""
","
","1160.5","<img style='border: 4px solid darkgrey;' src='img/tf1_50_M_ss1.jpeg'></img>","2","","exp","","3","<img src='img/tf1_50_T1_ss1_md.jpeg'></img>","0","false",""
"","html-keyboard-response","119","259307","0.0-10.0-0.50","139","""event"",""trial"",""time""
""fullscreenenter"",""0"",""3960""
","
","
","""event"",""trial"",""time""
""fullscreenenter"",""0"",""3960""
","
","null","<div style=""font-size:60px;"">+</div>","","null","fixation","2021-06-22 20:44:35.750","","","","",""
"","mars-trial","120","260849","0.0-10.0-1.50","139","""event"",""trial"",""time""
""fullscreenenter"",""0"",""3960""
","
","
","""event"",""trial"",""time""
""fullscreenenter"",""0"",""3960""
","
","925.5","<img style='border: 4px solid darkgrey;' src='img/tf1_51_M_ss2.jpeg'></img>","2","","exp","","2","<img src='img/tf1_51_T1_ss2_md.jpeg'></img>","0","false",""
"","html-keyboard-response","121","261351","0.0-10.0-0.51","139","""event"",""trial"",""time""
""fullscreenenter"",""0"",""3960""
","
","
","""event"",""trial"",""time""
""fullscreenenter"",""0"",""3960""
","
","null","<div style=""font-size:60px;"">+</div>","","null","fixation","2021-06-22 20:44:37.794","","","","",""
"","mars-trial","122","262595","0.0-10.0-1.51","139","""event"",""trial"",""time""
""fullscreenenter"",""0"",""3960""
","
","
","""event"",""trial"",""time""
""fullscreenenter"",""0"",""3960""
","
","639.5","<img style='border: 4px solid darkgrey;' src='img/tf1_52_M_ss3.jpeg'></img>","1","","exp","","0","<img src='img/tf1_52_T1_ss3_md.jpeg'></img>","0","true",""
"","html-keyboard-response","123","263097","0.0-10.0-0.52","139","""event"",""trial"",""time""
""fullscreenenter"",""0"",""3960""
","
","
","""event"",""trial"",""time""
""fullscreenenter"",""0"",""3960""
","
","null","<div style=""font-size:60px;"">+</div>","","null","fixation","2021-06-22 20:44:39.540","","","","",""
"","mars-trial","124","264589","0.0-10.0-1.52","139","""event"",""trial"",""time""
""fullscreenenter"",""0"",""3960""
","
","
","""event"",""trial"",""time""
""fullscreenenter"",""0"",""3960""
","
","885.0999999996275","<img style='border: 4px solid darkgrey;' src='img/tf1_53_M_ss1.jpeg'></img>","2","","exp","","1","<img src='img/tf1_53_T1_ss1_md.jpeg'></img>","0","false",""
"","html-keyboard-response","125","265091","0.0-10.0-0.53","139","""event"",""trial"",""time""
""fullscreenenter"",""0"",""3960""
","
","
","""event"",""trial"",""time""
""fullscreenenter"",""0"",""3960""
","
","null","<div style=""font-size:60px;"">+</div>","","null","fixation","2021-06-22 20:44:41.534","","","","",""
"","mars-trial","126","266297","0.0-10.0-1.53","139","""event"",""trial"",""time""
""fullscreenenter"",""0"",""3960""
","
","
","""event"",""trial"",""time""
""fullscreenenter"",""0"",""3960""
","
","600","<img style='border: 4px solid darkgrey;' src='img/tf1_54_M_ss2.jpeg'></img>","2","","exp","","3","<img src='img/tf1_54_T1_ss2_md.jpeg'></img>","0","false",""
"","html-keyboard-response","127","266799","0.0-10.0-0.54","139","""event"",""trial"",""time""
""fullscreenenter"",""0"",""3960""
","
","
","""event"",""trial"",""time""
""fullscreenenter"",""0"",""3960""
","
","null","<div style=""font-size:60px;"">+</div>","","null","fixation","2021-06-22 20:44:43.242","","","","",""
"","mars-trial","128","268540","0.0-10.0-1.54","139","""event"",""trial"",""time""
""fullscreenenter"",""0"",""3960""
","
","
","""event"",""trial"",""time""
""fullscreenenter"",""0"",""3960""
","
","1135.8999999999069","<img style='border: 4px solid darkgrey;' src='img/tf1_55_M_ss3.jpeg'></img>","0","","exp","","2","<img src='img/tf1_55_T1_ss3_md.jpeg'></img>","0","false",""
"","html-keyboard-response","129","269046","0.0-10.0-0.55","139","""event"",""trial"",""time""
""fullscreenenter"",""0"",""3960""
","
","
","""event"",""trial"",""time""
""fullscreenenter"",""0"",""3960""
","
","null","<div style=""font-size:60px;"">+</div>","","null","fixation","2021-06-22 20:44:45.489","","","","",""
"","mars-trial","130","271181","0.0-10.0-1.55","139","""event"",""trial"",""time""
""fullscreenenter"",""0"",""3960""
","
","
","""event"",""trial"",""time""
""fullscreenenter"",""0"",""3960""
","
","1530.2000000001863","<img style='border: 4px solid darkgrey;' src='img/tf1_56_M_ss1.jpeg'></img>","1","","exp","","2","<img src='img/tf1_56_T1_ss1_md.jpeg'></img>","0","false",""
"","html-keyboard-response","131","271683","0.0-10.0-0.56","139","""event"",""trial"",""time""
""fullscreenenter"",""0"",""3960""
","
","
","""event"",""trial"",""time""
""fullscreenenter"",""0"",""3960""
","
","null","<div style=""font-size:60px;"">+</div>","","null","fixation","2021-06-22 20:44:48.126","","","","",""
"","mars-trial","132","272683","0.0-10.0-1.56","139","""event"",""trial"",""time""
""fullscreenenter"",""0"",""3960""
","
","
","""event"",""trial"",""time""
""fullscreenenter"",""0"",""3960""
","
","394.09999999962747","<img style='border: 4px solid darkgrey;' src='img/tf1_57_M_ss2.jpeg'></img>","0","","exp","","2","<img src='img/tf1_57_T1_ss2_md.jpeg'></img>","0","false",""
"","html-keyboard-response","133","273184","0.0-10.0-0.57","139","""event"",""trial"",""time""
""fullscreenenter"",""0"",""3960""
","
","
","""event"",""trial"",""time""
""fullscreenenter"",""0"",""3960""
","
","null","<div style=""font-size:60px;"">+</div>","","null","fixation","2021-06-22 20:44:49.627","","","","",""
"","mars-trial","134","275705","0.0-10.0-1.57","139","""event"",""trial"",""time""
""fullscreenenter"",""0"",""3960""
","
","
","""event"",""trial"",""time""
""fullscreenenter"",""0"",""3960""
","
","1915.7999999998137","<img style='border: 4px solid darkgrey;' src='img/tf1_58_M_ss3.jpeg'></img>","0","","exp","","0","<img src='img/tf1_58_T1_ss3_md.jpeg'></img>","0","true",""
"","html-keyboard-response","135","276207","0.0-10.0-0.58","139","""event"",""trial"",""time""
""fullscreenenter"",""0"",""3960""
","
","
","""event"",""trial"",""time""
""fullscreenenter"",""0"",""3960""
","
","null","<div style=""font-size:60px;"">+</div>","","null","fixation","2021-06-22 20:44:52.651","","","","",""
"","mars-trial","136","278735","0.0-10.0-1.58","139","""event"",""trial"",""time""
""fullscreenenter"",""0"",""3960""
","
","
","""event"",""trial"",""time""
""fullscreenenter"",""0"",""3960""
","
","1922.3999999999069","<img style='border: 4px solid darkgrey;' src='img/tf1_59_M_ss1.jpeg'></img>","3","","exp","","0","<img src='img/tf1_59_T1_ss1_md.jpeg'></img>","0","true",""
"","html-keyboard-response","137","279237","0.0-10.0-0.59","139","""event"",""trial"",""time""
""fullscreenenter"",""0"",""3960""
","
","
","""event"",""trial"",""time""
""fullscreenenter"",""0"",""3960""
","
","null","<div style=""font-size:60px;"">+</div>","","null","fixation","2021-06-22 20:44:55.680","","","","",""
"","mars-trial","138","281318","0.0-10.0-1.59","139","""event"",""trial"",""time""
""fullscreenenter"",""0"",""3960""
","
","
","""event"",""trial"",""time""
""fullscreenenter"",""0"",""3960""
","
","1470.3000000002794","<img style='border: 4px solid darkgrey;' src='img/tf1_60_M_ss2.jpeg'></img>","0","","exp","","0","<img src='img/tf1_60_T1_ss2_md.jpeg'></img>","0","true",""
"","html-keyboard-response","139","281821","0.0-10.0-0.60","139","""event"",""trial"",""time""
""fullscreenenter"",""0"",""3960""
","
","
","""event"",""trial"",""time""
""fullscreenenter"",""0"",""3960""
","
","null","<div style=""font-size:60px;"">+</div>","","null","fixation","2021-06-22 20:44:58.264","","","","",""
"","mars-trial","140","283221","0.0-10.0-1.60","139","""event"",""trial"",""time""
""fullscreenenter"",""0"",""3960""
","
","
","""event"",""trial"",""time""
""fullscreenenter"",""0"",""3960""
","
","791.7999999998137","<img style='border: 4px solid darkgrey;' src='img/tf1_61_M_ss3.jpeg'></img>","1","","exp","","1","<img src='img/tf1_61_T1_ss3_md.jpeg'></img>","0","false",""
"","html-keyboard-response","141","283722","0.0-10.0-0.61","139","""event"",""trial"",""time""
""fullscreenenter"",""0"",""3960""
","
","
","""event"",""trial"",""time""
""fullscreenenter"",""0"",""3960""
","
","null","<div style=""font-size:60px;"">+</div>","","null","fixation","2021-06-22 20:45:00.165","","","","",""
"","mars-trial","142","285626","0.0-10.0-1.61","139","""event"",""trial"",""time""
""fullscreenenter"",""0"",""3960""
","
","
","""event"",""trial"",""time""
""fullscreenenter"",""0"",""3960""
","
","1300.3999999999069","<img style='border: 4px solid darkgrey;' src='img/tf1_62_M_ss1.jpeg'></img>","0","","exp","","3","<img src='img/tf1_62_T1_ss1_md.jpeg'></img>","0","false",""
"","html-keyboard-response","143","286127","0.0-10.0-0.62","139","""event"",""trial"",""time""
""fullscreenenter"",""0"",""3960""
","
","
","""event"",""trial"",""time""
""fullscreenenter"",""0"",""3960""
","
","null","<div style=""font-size:60px;"">+</div>","","null","fixation","2021-06-22 20:45:02.570","","","","",""
"","mars-trial","144","287315","0.0-10.0-1.62","139","""event"",""trial"",""time""
""fullscreenenter"",""0"",""3960""
","
","
","""event"",""trial"",""time""
""fullscreenenter"",""0"",""3960""
","
","567.6000000000931","<img style='border: 4px solid darkgrey;' src='img/tf1_63_M_ss2.jpeg'></img>","2","","exp","","2","<img src='img/tf1_63_T1_ss2_md.jpeg'></img>","0","false",""
"","html-keyboard-response","145","287817","0.0-10.0-0.63","139","""event"",""trial"",""time""
""fullscreenenter"",""0"",""3960""
","
","
","""event"",""trial"",""time""
""fullscreenenter"",""0"",""3960""
","
","null","<div style=""font-size:60px;"">+</div>","","null","fixation","2021-06-22 20:45:04.260","","","","",""
"","mars-trial","146","288690","0.0-10.0-1.63","139","""event"",""trial"",""time""
""fullscreenenter"",""0"",""3960""
","
","
","""event"",""trial"",""time""
""fullscreenenter"",""0"",""3960""
","
","267.5","<img style='border: 4px solid darkgrey;' src='img/tf1_64_M_ss3.jpeg'></img>","1","","exp","","0","<img src='img/tf1_64_T1_ss3_md.jpeg'></img>","0","true",""
"","html-keyboard-response","147","289193","0.0-10.0-0.64","139","""event"",""trial"",""time""
""fullscreenenter"",""0"",""3960""
","
","
","""event"",""trial"",""time""
""fullscreenenter"",""0"",""3960""
","
","null","<div style=""font-size:60px;"">+</div>","","null","fixation","2021-06-22 20:45:05.636","","","","",""
"","mars-trial","148","291426","0.0-10.0-1.64","139","""event"",""trial"",""time""
""fullscreenenter"",""0"",""3960""
","
","
","""event"",""trial"",""time""
""fullscreenenter"",""0"",""3960""
","
","1626.7999999998137","<img style='border: 4px solid darkgrey;' src='img/tf1_65_M_ss1.jpeg'></img>","3","","exp","","0","<img src='img/tf1_65_T1_ss1_md.jpeg'></img>","0","true",""
"","html-keyboard-response","149","291928","0.0-10.0-0.65","139","""event"",""trial"",""time""
""fullscreenenter"",""0"",""3960""
","
","
","""event"",""trial"",""time""
""fullscreenenter"",""0"",""3960""
","
","null","<div style=""font-size:60px;"">+</div>","","null","fixation","2021-06-22 20:45:08.371","","","","",""
"","mars-trial","150","293511","0.0-10.0-1.65","139","""event"",""trial"",""time""
""fullscreenenter"",""0"",""3960""
","
","
","""event"",""trial"",""time""
""fullscreenenter"",""0"",""3960""
","
","977.8000000002794","<img style='border: 4px solid darkgrey;' src='img/tf1_66_M_ss2.jpeg'></img>","0","","exp","","2","<img src='img/tf1_66_T1_ss2_md.jpeg'></img>","0","false",""
"","html-keyboard-response","151","294013","0.0-10.0-0.66","139","""event"",""trial"",""time""
""fullscreenenter"",""0"",""3960""
","
","
","""event"",""trial"",""time""
""fullscreenenter"",""0"",""3960""
","
","null","<div style=""font-size:60px;"">+</div>","","null","fixation","2021-06-22 20:45:10.457","","","","",""
"","mars-trial","152","295205","0.0-10.0-1.66","139","""event"",""trial"",""time""
""fullscreenenter"",""0"",""3960""
","
","
","""event"",""trial"",""time""
""fullscreenenter"",""0"",""3960""
","
","587.2999999998137","<img style='border: 4px solid darkgrey;' src='img/tf1_67_M_ss3.jpeg'></img>","2","","exp","","2","<img src='img/tf1_67_T1_ss3_md.jpeg'></img>","0","false",""
"","html-keyboard-response","153","295707","0.0-10.0-0.67","139","""event"",""trial"",""time""
""fullscreenenter"",""0"",""3960""
","
","
","""event"",""trial"",""time""
""fullscreenenter"",""0"",""3960""
","
","null","<div style=""font-size:60px;"">+</div>","","null","fixation","2021-06-22 20:45:12.150","","","","",""
"","mars-trial","154","300417","0.0-10.0-1.67","139","""event"",""trial"",""time""
""fullscreenenter"",""0"",""3960""
","
","
","""event"",""trial"",""time""
""fullscreenenter"",""0"",""3960""
","
","4105","<img style='border: 4px solid darkgrey;' src='img/tf1_68_M_ss1.jpeg'></img>","2","","exp","","0","<img src='img/tf1_68_T1_ss1_md.jpeg'></img>","0","true",""
"","html-keyboard-response","155","300919","0.0-10.0-0.68","139","""event"",""trial"",""time""
""fullscreenenter"",""0"",""3960""
","
","
","""event"",""trial"",""time""
""fullscreenenter"",""0"",""3960""
","
","null","<div style=""font-size:60px;"">+</div>","","null","fixation","2021-06-22 20:45:17.363","","","","",""
"","mars-trial","156","303309","0.0-10.0-1.68","139","""event"",""trial"",""time""
""fullscreenenter"",""0"",""3960""
","
","
","""event"",""trial"",""time""
""fullscreenenter"",""0"",""3960""
","
","1783.7999999998137","<img style='border: 4px solid darkgrey;' src='img/tf1_69_M_ss2.jpeg'></img>","2","","exp","","2","<img src='img/tf1_69_T1_ss2_md.jpeg'></img>","0","false",""
"","html-keyboard-response","157","303811","0.0-10.0-0.69","139","""event"",""trial"",""time""
""fullscreenenter"",""0"",""3960""
","
","
","""event"",""trial"",""time""
""fullscreenenter"",""0"",""3960""
","
","null","<div style=""font-size:60px;"">+</div>","","null","fixation","2021-06-22 20:45:20.254","","","","",""
"","mars-trial","158","308958","0.0-10.0-1.69","139","""event"",""trial"",""time""
""fullscreenenter"",""0"",""3960""
","
","
","""event"",""trial"",""time""
""fullscreenenter"",""0"",""3960""
","
","4540","<img style='border: 4px solid darkgrey;' src='img/tf1_70_M_ss3.jpeg'></img>","0","","exp","","0","<img src='img/tf1_70_T1_ss3_md.jpeg'></img>","0","true",""
"","html-keyboard-response","159","309460","0.0-10.0-0.70","139","""event"",""trial"",""time""
""fullscreenenter"",""0"",""3960""
","
","
","""event"",""trial"",""time""
""fullscreenenter"",""0"",""3960""
","
","null","<div style=""font-size:60px;"">+</div>","","null","fixation","2021-06-22 20:45:25.903","","","","",""
"","mars-trial","160","311388","0.0-10.0-1.70","139","""event"",""trial"",""time""
""fullscreenenter"",""0"",""3960""
","
","
","""event"",""trial"",""time""
""fullscreenenter"",""0"",""3960""
","
","1313","<img style='border: 4px solid darkgrey;' src='img/tf1_71_M_ss1.jpeg'></img>","0","","exp","","3","<img src='img/tf1_71_T1_ss1_md.jpeg'></img>","0","false",""
"","html-keyboard-response","161","311890","0.0-10.0-0.71","139","""event"",""trial"",""time""
""fullscreenenter"",""0"",""3960""
","
","
","""event"",""trial"",""time""
""fullscreenenter"",""0"",""3960""
","
","null","<div style=""font-size:60px;"">+</div>","","null","fixation","2021-06-22 20:45:28.333","","","","",""
"","mars-trial","162","313370","0.0-10.0-1.71","139","""event"",""trial"",""time""
""fullscreenenter"",""0"",""3960""
","
","
","""event"",""trial"",""time""
""fullscreenenter"",""0"",""3960""
","
","876.4000000003725","<img style='border: 4px solid darkgrey;' src='img/tf1_72_M_ss2.jpeg'></img>","1","","exp","","3","<img src='img/tf1_72_T1_ss2_md.jpeg'></img>","0","false",""
"","html-keyboard-response","163","313872","0.0-10.0-0.72","139","""event"",""trial"",""time""
""fullscreenenter"",""0"",""3960""
","
","
","""event"",""trial"",""time""
""fullscreenenter"",""0"",""3960""
","
","null","<div style=""font-size:60px;"">+</div>","","null","fixation","2021-06-22 20:45:30.315","","","","",""
"","mars-trial","164","315019","0.0-10.0-1.72","139","""event"",""trial"",""time""
""fullscreenenter"",""0"",""3960""
","
","
","""event"",""trial"",""time""
""fullscreenenter"",""0"",""3960""
","
","530.7000000001863","<img style='border: 4px solid darkgrey;' src='img/tf1_73_M_ss3.jpeg'></img>","2","","exp","","2","<img src='img/tf1_73_T1_ss3_md.jpeg'></img>","0","false",""
"","html-keyboard-response","165","315521","0.0-10.0-0.73","139","""event"",""trial"",""time""
""fullscreenenter"",""0"",""3960""
","
","
","""event"",""trial"",""time""
""fullscreenenter"",""0"",""3960""
","
","null","<div style=""font-size:60px;"">+</div>","","null","fixation","2021-06-22 20:45:31.965","","","","",""
"","mars-trial","166","317011","0.0-10.0-1.73","139","""event"",""trial"",""time""
""fullscreenenter"",""0"",""3960""
","
","
","""event"",""trial"",""time""
""fullscreenenter"",""0"",""3960""
","
","884.5","<img style='border: 4px solid darkgrey;' src='img/tf1_74_M_ss1.jpeg'></img>","0","","exp","","0","<img src='img/tf1_74_T1_ss1_md.jpeg'></img>","0","true",""
"","html-keyboard-response","167","317512","0.0-10.0-0.74","139","""event"",""trial"",""time""
""fullscreenenter"",""0"",""3960""
","
","
","""event"",""trial"",""time""
""fullscreenenter"",""0"",""3960""
","
","null","<div style=""font-size:60px;"">+</div>","","null","fixation","2021-06-22 20:45:33.955","","","","",""
"","mars-trial","168","319096","0.0-10.0-1.74","139","""event"",""trial"",""time""
""fullscreenenter"",""0"",""3960""
","
","
","""event"",""trial"",""time""
""fullscreenenter"",""0"",""3960""
","
","979.7999999998137","<img style='border: 4px solid darkgrey;' src='img/tf1_75_M_ss2.jpeg'></img>","2","","exp","","3","<img src='img/tf1_75_T1_ss2_md.jpeg'></img>","0","false",""
"","html-keyboard-response","169","319598","0.0-10.0-0.75","139","""event"",""trial"",""time""
""fullscreenenter"",""0"",""3960""
","
","
","""event"",""trial"",""time""
""fullscreenenter"",""0"",""3960""
","
","null","<div style=""font-size:60px;"">+</div>","","null","fixation","2021-06-22 20:45:36.041","","","","",""
"","mars-trial","170","321419","0.0-10.0-1.75","139","""event"",""trial"",""time""
""fullscreenenter"",""0"",""3960""
","
","
","""event"",""trial"",""time""
""fullscreenenter"",""0"",""3960""
","
","1215.6000000000931","<img style='border: 4px solid darkgrey;' src='img/tf1_76_M_ss3.jpeg'></img>","1","","exp","","2","<img src='img/tf1_76_T1_ss3_md.jpeg'></img>","0","false",""
"","html-keyboard-response","171","321920","0.0-10.0-0.76","139","""event"",""trial"",""time""
""fullscreenenter"",""0"",""3960""
","
","
","""event"",""trial"",""time""
""fullscreenenter"",""0"",""3960""
","
","null","<div style=""font-size:60px;"">+</div>","","null","fixation","2021-06-22 20:45:38.363","","","","",""
"","mars-trial","172","324231","0.0-10.0-1.76","139","""event"",""trial"",""time""
""fullscreenenter"",""0"",""3960""
","
","
","""event"",""trial"",""time""
""fullscreenenter"",""0"",""3960""
","
","1706.1000000000931","<img style='border: 4px solid darkgrey;' src='img/tf1_77_M_ss1.jpeg'></img>","2","","exp","","0","<img src='img/tf1_77_T1_ss1_md.jpeg'></img>","0","true",""
"","html-keyboard-response","173","324733","0.0-10.0-0.77","139","""event"",""trial"",""time""
""fullscreenenter"",""0"",""3960""
","
","
","""event"",""trial"",""time""
""fullscreenenter"",""0"",""3960""
","
","null","<div style=""font-size:60px;"">+</div>","","null","fixation","2021-06-22 20:45:41.176","","","","",""
"","mars-trial","174","326434","0.0-10.0-1.77","139","""event"",""trial"",""time""
""fullscreenenter"",""0"",""3960""
","
","
","""event"",""trial"",""time""
""fullscreenenter"",""0"",""3960""
","
","1095.6000000000931","<img style='border: 4px solid darkgrey;' src='img/tf1_78_M_ss2.jpeg'></img>","2","","exp","","0","<img src='img/tf1_78_T1_ss2_md.jpeg'></img>","0","true",""
"","html-keyboard-response","175","326936","0.0-10.0-0.78","139","""event"",""trial"",""time""
""fullscreenenter"",""0"",""3960""
","
","
","""event"",""trial"",""time""
""fullscreenenter"",""0"",""3960""
","
","null","<div style=""font-size:60px;"">+</div>","","null","fixation","2021-06-22 20:45:43.379","","","","",""
"","mars-trial","176","329966","0.0-10.0-1.78","139","""event"",""trial"",""time""
""fullscreenenter"",""0"",""3960""
","
","
","""event"",""trial"",""time""
""fullscreenenter"",""0"",""3960""
","
","2425.600000000093","<img style='border: 4px solid darkgrey;' src='img/tf1_79_M_ss3.jpeg'></img>","2","","exp","","1","<img src='img/tf1_79_T1_ss3_md.jpeg'></img>","0","false",""
"","html-keyboard-response","177","330467","0.0-10.0-0.79","139","""event"",""trial"",""time""
""fullscreenenter"",""0"",""3960""
","
","
","""event"",""trial"",""time""
""fullscreenenter"",""0"",""3960""
","
","null","<div style=""font-size:60px;"">+</div>","","null","fixation","2021-06-22 20:45:46.910","","","","",""
"","mars-trial","178","332425","0.0-10.0-1.79","139","""event"",""trial"",""time""
""fullscreenenter"",""0"",""3960""
","
","
","""event"",""trial"",""time""
""fullscreenenter"",""0"",""3960""
","
","1353.8000000002794","<img style='border: 4px solid darkgrey;' src='img/tf1_80_M_ss1.jpeg'></img>","2","","exp","","2","<img src='img/tf1_80_T1_ss1_md.jpeg'></img>","0","false",""
"","audio-button-response","179","335440","0.0-11.0","139","""event"",""trial"",""time""
""fullscreenenter"",""0"",""3960""
","
","
","""event"",""trial"",""time""
""fullscreenenter"",""0"",""3960""
","
","3013","audio/mars_instructions_slide5.wav","0","","","","","","","",""
