"success","trial_type","trial_index","time_elapsed","internal_node_id","subject_id","interactions","blur_events","focus_events","fullscreenenter_events","fullscreenexit_events","rt","stimulus","button_pressed","key_press","part","timestamp","unshuffled_button","correct_response","correct_button","correct","value"
"true","fullscreen","0","23903","0.0-0.0","197","""event"",""trial"",""time""
""blur"",""0"",""4182""
""focus"",""0"",""22097""
""fullscreenenter"",""0"",""22910""
","""event"",""trial"",""time""
""blur"",""0"",""4182""
","""event"",""trial"",""time""
""focus"",""0"",""22097""
","""event"",""trial"",""time""
""fullscreenenter"",""0"",""22910""
","
","","","","","","","","","","",""
"","pavlovia","1","23907","0.0-1.0","197","""event"",""trial"",""time""
""blur"",""0"",""4182""
""focus"",""0"",""22097""
""fullscreenenter"",""0"",""22910""
","""event"",""trial"",""time""
""blur"",""0"",""4182""
","""event"",""trial"",""time""
""focus"",""0"",""22097""
","""event"",""trial"",""time""
""fullscreenenter"",""0"",""22910""
","
","","","","","","","","","","",""
"","html-button-response","2","25133","0.0-2.0","197","""event"",""trial"",""time""
""blur"",""0"",""4182""
""focus"",""0"",""22097""
""fullscreenenter"",""0"",""22910""
","""event"",""trial"",""time""
""blur"",""0"",""4182""
","""event"",""trial"",""time""
""focus"",""0"",""22097""
","""event"",""trial"",""time""
""fullscreenenter"",""0"",""22910""
","
","1224.580000009155","<p>Welcome! Press START to begin.</p><br>","0","","","","","","","",""
"","audio-button-response","3","51339","0.0-3.0","197","""event"",""trial"",""time""
""blur"",""0"",""4182""
""focus"",""0"",""22097""
""fullscreenenter"",""0"",""22910""
","""event"",""trial"",""time""
""blur"",""0"",""4182""
","""event"",""trial"",""time""
""focus"",""0"",""22097""
","""event"",""trial"",""time""
""fullscreenenter"",""0"",""22910""
","
","26203.91500002006","audio/mars_instructions_slide2.wav","0","","","","","","","",""
"","audio-button-response","4","53267","0.0-4.0","197","""event"",""trial"",""time""
""blur"",""0"",""4182""
""focus"",""0"",""22097""
""fullscreenenter"",""0"",""22910""
","""event"",""trial"",""time""
""blur"",""0"",""4182""
","""event"",""trial"",""time""
""focus"",""0"",""22097""
","""event"",""trial"",""time""
""fullscreenenter"",""0"",""22910""
","
","1926.5849999792408","audio/mars_instructions_slide3.wav","0","","","","","","","",""
"","html-keyboard-response","5","53778","0.0-5.0-0.0","197","""event"",""trial"",""time""
""blur"",""0"",""4182""
""focus"",""0"",""22097""
""fullscreenenter"",""0"",""22910""
","""event"",""trial"",""time""
""blur"",""0"",""4182""
","""event"",""trial"",""time""
""focus"",""0"",""22097""
","""event"",""trial"",""time""
""fullscreenenter"",""0"",""22910""
","
","null","<div style=""font-size:60px;"">+</div>","","null","fixation","2021-04-11 15:55:20.456","","","","",""
"","mars-trial","6","61363","0.0-5.0-1.0","197","""event"",""trial"",""time""
""blur"",""0"",""4182""
""focus"",""0"",""22097""
""fullscreenenter"",""0"",""22910""
","""event"",""trial"",""time""
""blur"",""0"",""4182""
","""event"",""trial"",""time""
""focus"",""0"",""22097""
","""event"",""trial"",""time""
""fullscreenenter"",""0"",""22910""
","
","5462.490000005346","<img style='border: 4px solid darkgrey;' src='practice/pt1_M1.png'></img>","0","","practice","","3","<img src='practice/pt1_T1.png'></img>","0","false",""
"","html-keyboard-response","7","61877","0.0-5.1-0.1","197","""event"",""trial"",""time""
""blur"",""0"",""4182""
""focus"",""0"",""22097""
""fullscreenenter"",""0"",""22910""
","""event"",""trial"",""time""
""blur"",""0"",""4182""
","""event"",""trial"",""time""
""focus"",""0"",""22097""
","""event"",""trial"",""time""
""fullscreenenter"",""0"",""22910""
","
","null","<div style=""font-size:60px;"">+</div>","","null","fixation","2021-04-11 15:55:28.555","","","","",""
"","mars-trial","8","66400","0.0-5.1-1.1","197","""event"",""trial"",""time""
""blur"",""0"",""4182""
""focus"",""0"",""22097""
""fullscreenenter"",""0"",""22910""
","""event"",""trial"",""time""
""blur"",""0"",""4182""
","""event"",""trial"",""time""
""focus"",""0"",""22097""
","""event"",""trial"",""time""
""fullscreenenter"",""0"",""22910""
","
","2419.144999992568","<img style='border: 4px solid darkgrey;' src='practice/pt1_M1.png'></img>","2","","practice","","0","<img src='practice/pt1_T1.png'></img>","0","true",""
"","html-keyboard-response","9","66907","0.0-6.0-0.0","197","""event"",""trial"",""time""
""blur"",""0"",""4182""
""focus"",""0"",""22097""
""fullscreenenter"",""0"",""22910""
","""event"",""trial"",""time""
""blur"",""0"",""4182""
","""event"",""trial"",""time""
""focus"",""0"",""22097""
","""event"",""trial"",""time""
""fullscreenenter"",""0"",""22910""
","
","null","<div style=""font-size:60px;"">+</div>","","null","fixation","2021-04-11 15:55:33.585","","","","",""
"","mars-trial","10","70526","0.0-6.0-1.0","197","""event"",""trial"",""time""
""blur"",""0"",""4182""
""focus"",""0"",""22097""
""fullscreenenter"",""0"",""22910""
","""event"",""trial"",""time""
""blur"",""0"",""4182""
","""event"",""trial"",""time""
""focus"",""0"",""22097""
","""event"",""trial"",""time""
""fullscreenenter"",""0"",""22910""
","
","1505.78000000678","<img style='border: 4px solid darkgrey;' src='practice/pt2_M1.png'></img>","3","","practice","","0","<img src='practice/pt2_T1.png'></img>","0","true",""
"","html-keyboard-response","11","71041","0.0-7.0-0.0","197","""event"",""trial"",""time""
""blur"",""0"",""4182""
""focus"",""0"",""22097""
""fullscreenenter"",""0"",""22910""
","""event"",""trial"",""time""
""blur"",""0"",""4182""
","""event"",""trial"",""time""
""focus"",""0"",""22097""
","""event"",""trial"",""time""
""fullscreenenter"",""0"",""22910""
","
","null","<div style=""font-size:60px;"">+</div>","","null","fixation","2021-04-11 15:55:37.719","","","","",""
"","mars-trial","12","74732","0.0-7.0-1.0","197","""event"",""trial"",""time""
""blur"",""0"",""4182""
""focus"",""0"",""22097""
""fullscreenenter"",""0"",""22910""
","""event"",""trial"",""time""
""blur"",""0"",""4182""
","""event"",""trial"",""time""
""focus"",""0"",""22097""
","""event"",""trial"",""time""
""fullscreenenter"",""0"",""22910""
","
","1577.9050000128336","<img style='border: 4px solid darkgrey;' src='practice/pt3_M1.png'></img>","1","","practice","","0","<img src='practice/pt3_T1.png'></img>","0","true",""
"","audio-button-response","13","75876","0.0-8.0","197","""event"",""trial"",""time""
""blur"",""0"",""4182""
""focus"",""0"",""22097""
""fullscreenenter"",""0"",""22910""
","""event"",""trial"",""time""
""blur"",""0"",""4182""
","""event"",""trial"",""time""
""focus"",""0"",""22097""
","""event"",""trial"",""time""
""fullscreenenter"",""0"",""22910""
","
","1142.7700000058394","audio/mars_instructions_slide4.wav","0","","","","","","","",""
"","call-function","14","75877","0.0-9.0","197","""event"",""trial"",""time""
""blur"",""0"",""4182""
""focus"",""0"",""22097""
""fullscreenenter"",""0"",""22910""
","""event"",""trial"",""time""
""blur"",""0"",""4182""
","""event"",""trial"",""time""
""focus"",""0"",""22097""
","""event"",""trial"",""time""
""fullscreenenter"",""0"",""22910""
","
","","","","","","","","","","",""
"","html-keyboard-response","15","76381","0.0-10.0-0.0","197","""event"",""trial"",""time""
""blur"",""0"",""4182""
""focus"",""0"",""22097""
""fullscreenenter"",""0"",""22910""
","""event"",""trial"",""time""
""blur"",""0"",""4182""
","""event"",""trial"",""time""
""focus"",""0"",""22097""
","""event"",""trial"",""time""
""fullscreenenter"",""0"",""22910""
","
","null","<div style=""font-size:60px;"">+</div>","","null","fixation","2021-04-11 15:55:43.060","","","","",""
"","mars-trial","16","78256","0.0-10.0-1.0","197","""event"",""trial"",""time""
""blur"",""0"",""4182""
""focus"",""0"",""22097""
""fullscreenenter"",""0"",""22910""
","""event"",""trial"",""time""
""blur"",""0"",""4182""
","""event"",""trial"",""time""
""focus"",""0"",""22097""
","""event"",""trial"",""time""
""fullscreenenter"",""0"",""22910""
","
","1265.1349999941885","<img style='border: 4px solid darkgrey;' src='img/tf1_1_M_ss3.jpeg'></img>","2","","exp","","0","<img src='img/tf1_1_T1_ss3_md.jpeg'></img>","0","true",""
"","html-keyboard-response","17","78766","0.0-10.0-0.1","197","""event"",""trial"",""time""
""blur"",""0"",""4182""
""focus"",""0"",""22097""
""fullscreenenter"",""0"",""22910""
","""event"",""trial"",""time""
""blur"",""0"",""4182""
","""event"",""trial"",""time""
""focus"",""0"",""22097""
","""event"",""trial"",""time""
""fullscreenenter"",""0"",""22910""
","
","null","<div style=""font-size:60px;"">+</div>","","null","fixation","2021-04-11 15:55:45.444","","","","",""
"","mars-trial","18","81132","0.0-10.0-1.1","197","""event"",""trial"",""time""
""blur"",""0"",""4182""
""focus"",""0"",""22097""
""fullscreenenter"",""0"",""22910""
","""event"",""trial"",""time""
""blur"",""0"",""4182""
","""event"",""trial"",""time""
""focus"",""0"",""22097""
","""event"",""trial"",""time""
""fullscreenenter"",""0"",""22910""
","
","1762.2649999975692","<img style='border: 4px solid darkgrey;' src='img/tf1_2_M_ss1.jpeg'></img>","0","","exp","","0","<img src='img/tf1_2_T1_ss1_md.jpeg'></img>","0","true",""
"","html-keyboard-response","19","81634","0.0-10.0-0.2","197","""event"",""trial"",""time""
""blur"",""0"",""4182""
""focus"",""0"",""22097""
""fullscreenenter"",""0"",""22910""
","""event"",""trial"",""time""
""blur"",""0"",""4182""
","""event"",""trial"",""time""
""focus"",""0"",""22097""
","""event"",""trial"",""time""
""fullscreenenter"",""0"",""22910""
","
","null","<div style=""font-size:60px;"">+</div>","","null","fixation","2021-04-11 15:55:48.312","","","","",""
"","mars-trial","20","85228","0.0-10.0-1.2","197","""event"",""trial"",""time""
""blur"",""0"",""4182""
""focus"",""0"",""22097""
""fullscreenenter"",""0"",""22910""
","""event"",""trial"",""time""
""blur"",""0"",""4182""
","""event"",""trial"",""time""
""focus"",""0"",""22097""
","""event"",""trial"",""time""
""fullscreenenter"",""0"",""22910""
","
","2977.7549999998882","<img style='border: 4px solid darkgrey;' src='img/tf1_3_M_ss2.jpeg'></img>","3","","exp","","0","<img src='img/tf1_3_T1_ss2_md.jpeg'></img>","0","true",""
"","html-keyboard-response","21","85741","0.0-10.0-0.3","197","""event"",""trial"",""time""
""blur"",""0"",""4182""
""focus"",""0"",""22097""
""fullscreenenter"",""0"",""22910""
","""event"",""trial"",""time""
""blur"",""0"",""4182""
","""event"",""trial"",""time""
""focus"",""0"",""22097""
","""event"",""trial"",""time""
""fullscreenenter"",""0"",""22910""
","
","null","<div style=""font-size:60px;"">+</div>","","null","fixation","2021-04-11 15:55:52.419","","","","",""
"","mars-trial","22","88611","0.0-10.0-1.3","197","""event"",""trial"",""time""
""blur"",""0"",""4182""
""focus"",""0"",""22097""
""fullscreenenter"",""0"",""22910""
","""event"",""trial"",""time""
""blur"",""0"",""4182""
","""event"",""trial"",""time""
""focus"",""0"",""22097""
","""event"",""trial"",""time""
""fullscreenenter"",""0"",""22910""
","
","2257.6150000095367","<img style='border: 4px solid darkgrey;' src='img/tf1_4_M_ss3.jpeg'></img>","1","","exp","","0","<img src='img/tf1_4_T1_ss3_md.jpeg'></img>","0","true",""
"","html-keyboard-response","23","89122","0.0-10.0-0.4","197","""event"",""trial"",""time""
""blur"",""0"",""4182""
""focus"",""0"",""22097""
""fullscreenenter"",""0"",""22910""
","""event"",""trial"",""time""
""blur"",""0"",""4182""
","""event"",""trial"",""time""
""focus"",""0"",""22097""
","""event"",""trial"",""time""
""fullscreenenter"",""0"",""22910""
","
","null","<div style=""font-size:60px;"">+</div>","","null","fixation","2021-04-11 15:55:55.800","","","","",""
"","mars-trial","24","91705","0.0-10.0-1.4","197","""event"",""trial"",""time""
""blur"",""0"",""4182""
""focus"",""0"",""22097""
""fullscreenenter"",""0"",""22910""
","""event"",""trial"",""time""
""blur"",""0"",""4182""
","""event"",""trial"",""time""
""focus"",""0"",""22097""
","""event"",""trial"",""time""
""fullscreenenter"",""0"",""22910""
","
","1971.7250000103377","<img style='border: 4px solid darkgrey;' src='img/tf1_5_M_ss1.jpeg'></img>","0","","exp","","0","<img src='img/tf1_5_T1_ss1_md.jpeg'></img>","0","true",""
"","html-keyboard-response","25","92207","0.0-10.0-0.5","197","""event"",""trial"",""time""
""blur"",""0"",""4182""
""focus"",""0"",""22097""
""fullscreenenter"",""0"",""22910""
","""event"",""trial"",""time""
""blur"",""0"",""4182""
","""event"",""trial"",""time""
""focus"",""0"",""22097""
","""event"",""trial"",""time""
""fullscreenenter"",""0"",""22910""
","
","null","<div style=""font-size:60px;"">+</div>","","null","fixation","2021-04-11 15:55:58.885","","","","",""
"","mars-trial","26","98775","0.0-10.0-1.5","197","""event"",""trial"",""time""
""blur"",""0"",""4182""
""focus"",""0"",""22097""
""fullscreenenter"",""0"",""22910""
","""event"",""trial"",""time""
""blur"",""0"",""4182""
","""event"",""trial"",""time""
""focus"",""0"",""22097""
","""event"",""trial"",""time""
""fullscreenenter"",""0"",""22910""
","
","5961.639999994077","<img style='border: 4px solid darkgrey;' src='img/tf1_6_M_ss2.jpeg'></img>","1","","exp","","3","<img src='img/tf1_6_T1_ss2_md.jpeg'></img>","0","false",""
"","html-keyboard-response","27","99282","0.0-10.0-0.6","197","""event"",""trial"",""time""
""blur"",""0"",""4182""
""focus"",""0"",""22097""
""fullscreenenter"",""0"",""22910""
","""event"",""trial"",""time""
""blur"",""0"",""4182""
","""event"",""trial"",""time""
""focus"",""0"",""22097""
","""event"",""trial"",""time""
""fullscreenenter"",""0"",""22910""
","
","null","<div style=""font-size:60px;"">+</div>","","null","fixation","2021-04-11 15:56:05.960","","","","",""
"","mars-trial","28","103536","0.0-10.0-1.6","197","""event"",""trial"",""time""
""blur"",""0"",""4182""
""focus"",""0"",""22097""
""fullscreenenter"",""0"",""22910""
","""event"",""trial"",""time""
""blur"",""0"",""4182""
","""event"",""trial"",""time""
""focus"",""0"",""22097""
","""event"",""trial"",""time""
""fullscreenenter"",""0"",""22910""
","
","3643.9100000134204","<img style='border: 4px solid darkgrey;' src='img/tf1_7_M_ss3.jpeg'></img>","3","","exp","","0","<img src='img/tf1_7_T1_ss3_md.jpeg'></img>","0","true",""
"","html-keyboard-response","29","104039","0.0-10.0-0.7","197","""event"",""trial"",""time""
""blur"",""0"",""4182""
""focus"",""0"",""22097""
""fullscreenenter"",""0"",""22910""
","""event"",""trial"",""time""
""blur"",""0"",""4182""
","""event"",""trial"",""time""
""focus"",""0"",""22097""
","""event"",""trial"",""time""
""fullscreenenter"",""0"",""22910""
","
","null","<div style=""font-size:60px;"">+</div>","","null","fixation","2021-04-11 15:56:10.717","","","","",""
"","mars-trial","30","107073","0.0-10.0-1.7","197","""event"",""trial"",""time""
""blur"",""0"",""4182""
""focus"",""0"",""22097""
""fullscreenenter"",""0"",""22910""
","""event"",""trial"",""time""
""blur"",""0"",""4182""
","""event"",""trial"",""time""
""focus"",""0"",""22097""
","""event"",""trial"",""time""
""fullscreenenter"",""0"",""22910""
","
","2419.995000003837","<img style='border: 4px solid darkgrey;' src='img/tf1_8_M_ss1.jpeg'></img>","2","","exp","","0","<img src='img/tf1_8_T1_ss1_md.jpeg'></img>","0","true",""
"","html-keyboard-response","31","107575","0.0-10.0-0.8","197","""event"",""trial"",""time""
""blur"",""0"",""4182""
""focus"",""0"",""22097""
""fullscreenenter"",""0"",""22910""
","""event"",""trial"",""time""
""blur"",""0"",""4182""
","""event"",""trial"",""time""
""focus"",""0"",""22097""
","""event"",""trial"",""time""
""fullscreenenter"",""0"",""22910""
","
","null","<div style=""font-size:60px;"">+</div>","","null","fixation","2021-04-11 15:56:14.253","","","","",""
"","mars-trial","32","112749","0.0-10.0-1.8","197","""event"",""trial"",""time""
""blur"",""0"",""4182""
""focus"",""0"",""22097""
""fullscreenenter"",""0"",""22910""
","""event"",""trial"",""time""
""blur"",""0"",""4182""
","""event"",""trial"",""time""
""focus"",""0"",""22097""
","""event"",""trial"",""time""
""fullscreenenter"",""0"",""22910""
","
","4567.6300000050105","<img style='border: 4px solid darkgrey;' src='img/tf1_9_M_ss2.jpeg'></img>","1","","exp","","0","<img src='img/tf1_9_T1_ss2_md.jpeg'></img>","0","true",""
"","html-keyboard-response","33","113251","0.0-10.0-0.9","197","""event"",""trial"",""time""
""blur"",""0"",""4182""
""focus"",""0"",""22097""
""fullscreenenter"",""0"",""22910""
","""event"",""trial"",""time""
""blur"",""0"",""4182""
","""event"",""trial"",""time""
""focus"",""0"",""22097""
","""event"",""trial"",""time""
""fullscreenenter"",""0"",""22910""
","
","null","<div style=""font-size:60px;"">+</div>","","null","fixation","2021-04-11 15:56:19.929","","","","",""
"","mars-trial","34","119355","0.0-10.0-1.9","197","""event"",""trial"",""time""
""blur"",""0"",""4182""
""focus"",""0"",""22097""
""fullscreenenter"",""0"",""22910""
","""event"",""trial"",""time""
""blur"",""0"",""4182""
","""event"",""trial"",""time""
""focus"",""0"",""22097""
","""event"",""trial"",""time""
""fullscreenenter"",""0"",""22910""
","
","5497.195000003558","<img style='border: 4px solid darkgrey;' src='img/tf1_10_M_ss3.jpeg'></img>","3","","exp","","0","<img src='img/tf1_10_T1_ss3_md.jpeg'></img>","0","true",""
"","html-keyboard-response","35","119858","0.0-10.0-0.10","197","""event"",""trial"",""time""
""blur"",""0"",""4182""
""focus"",""0"",""22097""
""fullscreenenter"",""0"",""22910""
","""event"",""trial"",""time""
""blur"",""0"",""4182""
","""event"",""trial"",""time""
""focus"",""0"",""22097""
","""event"",""trial"",""time""
""fullscreenenter"",""0"",""22910""
","
","null","<div style=""font-size:60px;"">+</div>","","null","fixation","2021-04-11 15:56:26.536","","","","",""
"","mars-trial","36","126306","0.0-10.0-1.10","197","""event"",""trial"",""time""
""blur"",""0"",""4182""
""focus"",""0"",""22097""
""fullscreenenter"",""0"",""22910""
","""event"",""trial"",""time""
""blur"",""0"",""4182""
","""event"",""trial"",""time""
""focus"",""0"",""22097""
","""event"",""trial"",""time""
""fullscreenenter"",""0"",""22910""
","
","5843.519999994896","<img style='border: 4px solid darkgrey;' src='img/tf1_11_M_ss1.jpeg'></img>","2","","exp","","3","<img src='img/tf1_11_T1_ss1_md.jpeg'></img>","0","false",""
"","html-keyboard-response","37","126807","0.0-10.0-0.11","197","""event"",""trial"",""time""
""blur"",""0"",""4182""
""focus"",""0"",""22097""
""fullscreenenter"",""0"",""22910""
","""event"",""trial"",""time""
""blur"",""0"",""4182""
","""event"",""trial"",""time""
""focus"",""0"",""22097""
","""event"",""trial"",""time""
""fullscreenenter"",""0"",""22910""
","
","null","<div style=""font-size:60px;"">+</div>","","null","fixation","2021-04-11 15:56:33.485","","","","",""
"","mars-trial","38","133698","0.0-10.0-1.11","197","""event"",""trial"",""time""
""blur"",""0"",""4182""
""focus"",""0"",""22097""
""fullscreenenter"",""0"",""22910""
","""event"",""trial"",""time""
""blur"",""0"",""4182""
","""event"",""trial"",""time""
""focus"",""0"",""22097""
","""event"",""trial"",""time""
""fullscreenenter"",""0"",""22910""
","
","6287.299999996321","<img style='border: 4px solid darkgrey;' src='img/tf1_12_M_ss2.jpeg'></img>","3","","exp","","1","<img src='img/tf1_12_T1_ss2_md.jpeg'></img>","0","false",""
"","html-keyboard-response","39","134199","0.0-10.0-0.12","197","""event"",""trial"",""time""
""blur"",""0"",""4182""
""focus"",""0"",""22097""
""fullscreenenter"",""0"",""22910""
","""event"",""trial"",""time""
""blur"",""0"",""4182""
","""event"",""trial"",""time""
""focus"",""0"",""22097""
","""event"",""trial"",""time""
""fullscreenenter"",""0"",""22910""
","
","null","<div style=""font-size:60px;"">+</div>","","null","fixation","2021-04-11 15:56:40.877","","","","",""
"","mars-trial","40","139682","0.0-10.0-1.12","197","""event"",""trial"",""time""
""blur"",""0"",""4182""
""focus"",""0"",""22097""
""fullscreenenter"",""0"",""22910""
","""event"",""trial"",""time""
""blur"",""0"",""4182""
","""event"",""trial"",""time""
""focus"",""0"",""22097""
","""event"",""trial"",""time""
""fullscreenenter"",""0"",""22910""
","
","4878.004999976838","<img style='border: 4px solid darkgrey;' src='img/tf1_13_M_ss3.jpeg'></img>","3","","exp","","1","<img src='img/tf1_13_T1_ss3_md.jpeg'></img>","0","false",""
"","html-keyboard-response","41","140184","0.0-10.0-0.13","197","""event"",""trial"",""time""
""blur"",""0"",""4182""
""focus"",""0"",""22097""
""fullscreenenter"",""0"",""22910""
","""event"",""trial"",""time""
""blur"",""0"",""4182""
","""event"",""trial"",""time""
""focus"",""0"",""22097""
","""event"",""trial"",""time""
""fullscreenenter"",""0"",""22910""
","
","null","<div style=""font-size:60px;"">+</div>","","null","fixation","2021-04-11 15:56:46.862","","","","",""
"","mars-trial","42","147085","0.0-10.0-1.13","197","""event"",""trial"",""time""
""blur"",""0"",""4182""
""focus"",""0"",""22097""
""fullscreenenter"",""0"",""22910""
","""event"",""trial"",""time""
""blur"",""0"",""4182""
","""event"",""trial"",""time""
""focus"",""0"",""22097""
","""event"",""trial"",""time""
""fullscreenenter"",""0"",""22910""
","
","6295.4850000096485","<img style='border: 4px solid darkgrey;' src='img/tf1_14_M_ss1.jpeg'></img>","1","","exp","","3","<img src='img/tf1_14_T1_ss1_md.jpeg'></img>","0","false",""
"","html-keyboard-response","43","147587","0.0-10.0-0.14","197","""event"",""trial"",""time""
""blur"",""0"",""4182""
""focus"",""0"",""22097""
""fullscreenenter"",""0"",""22910""
","""event"",""trial"",""time""
""blur"",""0"",""4182""
","""event"",""trial"",""time""
""focus"",""0"",""22097""
","""event"",""trial"",""time""
""fullscreenenter"",""0"",""22910""
","
","null","<div style=""font-size:60px;"">+</div>","","null","fixation","2021-04-11 15:56:54.265","","","","",""
"","mars-trial","44","153103","0.0-10.0-1.14","197","""event"",""trial"",""time""
""blur"",""0"",""4182""
""focus"",""0"",""22097""
""fullscreenenter"",""0"",""22910""
","""event"",""trial"",""time""
""blur"",""0"",""4182""
","""event"",""trial"",""time""
""focus"",""0"",""22097""
","""event"",""trial"",""time""
""fullscreenenter"",""0"",""22910""
","
","4910.0499999767635","<img style='border: 4px solid darkgrey;' src='img/tf1_15_M_ss2.jpeg'></img>","0","","exp","","2","<img src='img/tf1_15_T1_ss2_md.jpeg'></img>","0","false",""
"","html-keyboard-response","45","153605","0.0-10.0-0.15","197","""event"",""trial"",""time""
""blur"",""0"",""4182""
""focus"",""0"",""22097""
""fullscreenenter"",""0"",""22910""
","""event"",""trial"",""time""
""blur"",""0"",""4182""
","""event"",""trial"",""time""
""focus"",""0"",""22097""
","""event"",""trial"",""time""
""fullscreenenter"",""0"",""22910""
","
","null","<div style=""font-size:60px;"">+</div>","","null","fixation","2021-04-11 15:57:00.283","","","","",""
"","mars-trial","46","161481","0.0-10.0-1.15","197","""event"",""trial"",""time""
""blur"",""0"",""4182""
""focus"",""0"",""22097""
""fullscreenenter"",""0"",""22910""
","""event"",""trial"",""time""
""blur"",""0"",""4182""
","""event"",""trial"",""time""
""focus"",""0"",""22097""
","""event"",""trial"",""time""
""fullscreenenter"",""0"",""22910""
","
","7270.550000015646","<img style='border: 4px solid darkgrey;' src='img/tf1_16_M_ss3.jpeg'></img>","0","","exp","","1","<img src='img/tf1_16_T1_ss3_md.jpeg'></img>","0","false",""
"","html-keyboard-response","47","161983","0.0-10.0-0.16","197","""event"",""trial"",""time""
""blur"",""0"",""4182""
""focus"",""0"",""22097""
""fullscreenenter"",""0"",""22910""
","""event"",""trial"",""time""
""blur"",""0"",""4182""
","""event"",""trial"",""time""
""focus"",""0"",""22097""
","""event"",""trial"",""time""
""fullscreenenter"",""0"",""22910""
","
","null","<div style=""font-size:60px;"">+</div>","","null","fixation","2021-04-11 15:57:08.661","","","","",""
"","mars-trial","48","165946","0.0-10.0-1.16","197","""event"",""trial"",""time""
""blur"",""0"",""4182""
""focus"",""0"",""22097""
""fullscreenenter"",""0"",""22910""
","""event"",""trial"",""time""
""blur"",""0"",""4182""
","""event"",""trial"",""time""
""focus"",""0"",""22097""
","""event"",""trial"",""time""
""fullscreenenter"",""0"",""22910""
","
","3358.265000017127","<img style='border: 4px solid darkgrey;' src='img/tf1_17_M_ss1.jpeg'></img>","1","","exp","","2","<img src='img/tf1_17_T1_ss1_md.jpeg'></img>","0","false",""
"","html-keyboard-response","49","166447","0.0-10.0-0.17","197","""event"",""trial"",""time""
""blur"",""0"",""4182""
""focus"",""0"",""22097""
""fullscreenenter"",""0"",""22910""
","""event"",""trial"",""time""
""blur"",""0"",""4182""
","""event"",""trial"",""time""
""focus"",""0"",""22097""
","""event"",""trial"",""time""
""fullscreenenter"",""0"",""22910""
","
","null","<div style=""font-size:60px;"">+</div>","","null","fixation","2021-04-11 15:57:13.125","","","","",""
"","mars-trial","50","171778","0.0-10.0-1.17","197","""event"",""trial"",""time""
""blur"",""0"",""4182""
""focus"",""0"",""22097""
""fullscreenenter"",""0"",""22910""
","""event"",""trial"",""time""
""blur"",""0"",""4182""
","""event"",""trial"",""time""
""focus"",""0"",""22097""
","""event"",""trial"",""time""
""fullscreenenter"",""0"",""22910""
","
","4727.2850000008475","<img style='border: 4px solid darkgrey;' src='img/tf1_18_M_ss2.jpeg'></img>","0","","exp","","1","<img src='img/tf1_18_T1_ss2_md.jpeg'></img>","0","false",""
"","html-keyboard-response","51","172280","0.0-10.0-0.18","197","""event"",""trial"",""time""
""blur"",""0"",""4182""
""focus"",""0"",""22097""
""fullscreenenter"",""0"",""22910""
","""event"",""trial"",""time""
""blur"",""0"",""4182""
","""event"",""trial"",""time""
""focus"",""0"",""22097""
","""event"",""trial"",""time""
""fullscreenenter"",""0"",""22910""
","
","null","<div style=""font-size:60px;"">+</div>","","null","fixation","2021-04-11 15:57:18.958","","","","",""
"","mars-trial","52","175012","0.0-10.0-1.18","197","""event"",""trial"",""time""
""blur"",""0"",""4182""
""focus"",""0"",""22097""
""fullscreenenter"",""0"",""22910""
","""event"",""trial"",""time""
""blur"",""0"",""4182""
","""event"",""trial"",""time""
""focus"",""0"",""22097""
","""event"",""trial"",""time""
""fullscreenenter"",""0"",""22910""
","
","2127.6700000162236","<img style='border: 4px solid darkgrey;' src='img/tf1_19_M_ss3.jpeg'></img>","1","","exp","","3","<img src='img/tf1_19_T1_ss3_md.jpeg'></img>","0","false",""
"","html-keyboard-response","53","175514","0.0-10.0-0.19","197","""event"",""trial"",""time""
""blur"",""0"",""4182""
""focus"",""0"",""22097""
""fullscreenenter"",""0"",""22910""
","""event"",""trial"",""time""
""blur"",""0"",""4182""
","""event"",""trial"",""time""
""focus"",""0"",""22097""
","""event"",""trial"",""time""
""fullscreenenter"",""0"",""22910""
","
","null","<div style=""font-size:60px;"">+</div>","","null","fixation","2021-04-11 15:57:22.192","","","","",""
"","mars-trial","54","181522","0.0-10.0-1.19","197","""event"",""trial"",""time""
""blur"",""0"",""4182""
""focus"",""0"",""22097""
""fullscreenenter"",""0"",""22910""
","""event"",""trial"",""time""
""blur"",""0"",""4182""
","""event"",""trial"",""time""
""focus"",""0"",""22097""
","""event"",""trial"",""time""
""fullscreenenter"",""0"",""22910""
","
","5403.964999975869","<img style='border: 4px solid darkgrey;' src='img/tf1_20_M_ss1.jpeg'></img>","1","","exp","","3","<img src='img/tf1_20_T1_ss1_md.jpeg'></img>","0","false",""
"","html-keyboard-response","55","182025","0.0-10.0-0.20","197","""event"",""trial"",""time""
""blur"",""0"",""4182""
""focus"",""0"",""22097""
""fullscreenenter"",""0"",""22910""
","""event"",""trial"",""time""
""blur"",""0"",""4182""
","""event"",""trial"",""time""
""focus"",""0"",""22097""
","""event"",""trial"",""time""
""fullscreenenter"",""0"",""22910""
","
","null","<div style=""font-size:60px;"">+</div>","","null","fixation","2021-04-11 15:57:28.703","","","","",""
"","mars-trial","56","189596","0.0-10.0-1.20","197","""event"",""trial"",""time""
""blur"",""0"",""4182""
""focus"",""0"",""22097""
""fullscreenenter"",""0"",""22910""
","""event"",""trial"",""time""
""blur"",""0"",""4182""
","""event"",""trial"",""time""
""focus"",""0"",""22097""
","""event"",""trial"",""time""
""fullscreenenter"",""0"",""22910""
","
","6967.649999976857","<img style='border: 4px solid darkgrey;' src='img/tf1_21_M_ss2.jpeg'></img>","2","","exp","","0","<img src='img/tf1_21_T1_ss2_md.jpeg'></img>","0","true",""
"","html-keyboard-response","57","190098","0.0-10.0-0.21","197","""event"",""trial"",""time""
""blur"",""0"",""4182""
""focus"",""0"",""22097""
""fullscreenenter"",""0"",""22910""
","""event"",""trial"",""time""
""blur"",""0"",""4182""
","""event"",""trial"",""time""
""focus"",""0"",""22097""
","""event"",""trial"",""time""
""fullscreenenter"",""0"",""22910""
","
","null","<div style=""font-size:60px;"">+</div>","","null","fixation","2021-04-11 15:57:36.776","","","","",""
"","mars-trial","58","193342","0.0-10.0-1.21","197","""event"",""trial"",""time""
""blur"",""0"",""4182""
""focus"",""0"",""22097""
""fullscreenenter"",""0"",""22910""
","""event"",""trial"",""time""
""blur"",""0"",""4182""
","""event"",""trial"",""time""
""focus"",""0"",""22097""
","""event"",""trial"",""time""
""fullscreenenter"",""0"",""22910""
","
","2639.5550000015646","<img style='border: 4px solid darkgrey;' src='img/tf1_22_M_ss3.jpeg'></img>","0","","exp","","0","<img src='img/tf1_22_T1_ss3_md.jpeg'></img>","0","true",""
"","html-keyboard-response","59","193844","0.0-10.0-0.22","197","""event"",""trial"",""time""
""blur"",""0"",""4182""
""focus"",""0"",""22097""
""fullscreenenter"",""0"",""22910""
","""event"",""trial"",""time""
""blur"",""0"",""4182""
","""event"",""trial"",""time""
""focus"",""0"",""22097""
","""event"",""trial"",""time""
""fullscreenenter"",""0"",""22910""
","
","null","<div style=""font-size:60px;"">+</div>","","null","fixation","2021-04-11 15:57:40.522","","","","",""
"","mars-trial","60","199547","0.0-10.0-1.22","197","""event"",""trial"",""time""
""blur"",""0"",""4182""
""focus"",""0"",""22097""
""fullscreenenter"",""0"",""22910""
","""event"",""trial"",""time""
""blur"",""0"",""4182""
","""event"",""trial"",""time""
""focus"",""0"",""22097""
","""event"",""trial"",""time""
""fullscreenenter"",""0"",""22910""
","
","5097.420000005513","<img style='border: 4px solid darkgrey;' src='img/tf1_23_M_ss1.jpeg'></img>","0","","exp","","0","<img src='img/tf1_23_T1_ss1_md.jpeg'></img>","0","true",""
"","html-keyboard-response","61","200048","0.0-10.0-0.23","197","""event"",""trial"",""time""
""blur"",""0"",""4182""
""focus"",""0"",""22097""
""fullscreenenter"",""0"",""22910""
","""event"",""trial"",""time""
""blur"",""0"",""4182""
","""event"",""trial"",""time""
""focus"",""0"",""22097""
","""event"",""trial"",""time""
""fullscreenenter"",""0"",""22910""
","
","null","<div style=""font-size:60px;"">+</div>","","null","fixation","2021-04-11 15:57:46.726","","","","",""
"","mars-trial","62","206704","0.0-10.0-1.23","197","""event"",""trial"",""time""
""blur"",""0"",""4182""
""focus"",""0"",""22097""
""fullscreenenter"",""0"",""22910""
","""event"",""trial"",""time""
""blur"",""0"",""4182""
","""event"",""trial"",""time""
""focus"",""0"",""22097""
","""event"",""trial"",""time""
""fullscreenenter"",""0"",""22910""
","
","6051.945000013802","<img style='border: 4px solid darkgrey;' src='img/tf1_24_M_ss2.jpeg'></img>","2","","exp","","1","<img src='img/tf1_24_T1_ss2_md.jpeg'></img>","0","false",""
"","html-keyboard-response","63","207205","0.0-10.0-0.24","197","""event"",""trial"",""time""
""blur"",""0"",""4182""
""focus"",""0"",""22097""
""fullscreenenter"",""0"",""22910""
","""event"",""trial"",""time""
""blur"",""0"",""4182""
","""event"",""trial"",""time""
""focus"",""0"",""22097""
","""event"",""trial"",""time""
""fullscreenenter"",""0"",""22910""
","
","null","<div style=""font-size:60px;"">+</div>","","null","fixation","2021-04-11 15:57:53.883","","","","",""
"","mars-trial","64","210920","0.0-10.0-1.24","197","""event"",""trial"",""time""
""blur"",""0"",""4182""
""focus"",""0"",""22097""
""fullscreenenter"",""0"",""22910""
","""event"",""trial"",""time""
""blur"",""0"",""4182""
","""event"",""trial"",""time""
""focus"",""0"",""22097""
","""event"",""trial"",""time""
""fullscreenenter"",""0"",""22910""
","
","3110.5699999898206","<img style='border: 4px solid darkgrey;' src='img/tf1_25_M_ss3.jpeg'></img>","2","","exp","","0","<img src='img/tf1_25_T1_ss3_md.jpeg'></img>","0","true",""
"","html-keyboard-response","65","211421","0.0-10.0-0.25","197","""event"",""trial"",""time""
""blur"",""0"",""4182""
""focus"",""0"",""22097""
""fullscreenenter"",""0"",""22910""
","""event"",""trial"",""time""
""blur"",""0"",""4182""
","""event"",""trial"",""time""
""focus"",""0"",""22097""
","""event"",""trial"",""time""
""fullscreenenter"",""0"",""22910""
","
","null","<div style=""font-size:60px;"">+</div>","","null","fixation","2021-04-11 15:57:58.099","","","","",""
"","mars-trial","66","217581","0.0-10.0-1.25","197","""event"",""trial"",""time""
""blur"",""0"",""4182""
""focus"",""0"",""22097""
""fullscreenenter"",""0"",""22910""
","""event"",""trial"",""time""
""blur"",""0"",""4182""
","""event"",""trial"",""time""
""focus"",""0"",""22097""
","""event"",""trial"",""time""
""fullscreenenter"",""0"",""22910""
","
","5554.449999995995","<img style='border: 4px solid darkgrey;' src='img/tf1_26_M_ss1.jpeg'></img>","0","","exp","","0","<img src='img/tf1_26_T1_ss1_md.jpeg'></img>","0","true",""
"","html-keyboard-response","67","218083","0.0-10.0-0.26","197","""event"",""trial"",""time""
""blur"",""0"",""4182""
""focus"",""0"",""22097""
""fullscreenenter"",""0"",""22910""
","""event"",""trial"",""time""
""blur"",""0"",""4182""
","""event"",""trial"",""time""
""focus"",""0"",""22097""
","""event"",""trial"",""time""
""fullscreenenter"",""0"",""22910""
","
","null","<div style=""font-size:60px;"">+</div>","","null","fixation","2021-04-11 15:58:04.761","","","","",""
"","mars-trial","68","224496","0.0-10.0-1.26","197","""event"",""trial"",""time""
""blur"",""0"",""4182""
""focus"",""0"",""22097""
""fullscreenenter"",""0"",""22910""
","""event"",""trial"",""time""
""blur"",""0"",""4182""
","""event"",""trial"",""time""
""focus"",""0"",""22097""
","""event"",""trial"",""time""
""fullscreenenter"",""0"",""22910""
","
","5808.799999998882","<img style='border: 4px solid darkgrey;' src='img/tf1_27_M_ss2.jpeg'></img>","1","","exp","","0","<img src='img/tf1_27_T1_ss2_md.jpeg'></img>","0","true",""
"","html-keyboard-response","69","224998","0.0-10.0-0.27","197","""event"",""trial"",""time""
""blur"",""0"",""4182""
""focus"",""0"",""22097""
""fullscreenenter"",""0"",""22910""
","""event"",""trial"",""time""
""blur"",""0"",""4182""
","""event"",""trial"",""time""
""focus"",""0"",""22097""
","""event"",""trial"",""time""
""fullscreenenter"",""0"",""22910""
","
","null","<div style=""font-size:60px;"">+</div>","","null","fixation","2021-04-11 15:58:11.676","","","","",""
"","mars-trial","70","232591","0.0-10.0-1.27","197","""event"",""trial"",""time""
""blur"",""0"",""4182""
""focus"",""0"",""22097""
""fullscreenenter"",""0"",""22910""
","""event"",""trial"",""time""
""blur"",""0"",""4182""
","""event"",""trial"",""time""
""focus"",""0"",""22097""
","""event"",""trial"",""time""
""fullscreenenter"",""0"",""22910""
","
","6988.295000017388","<img style='border: 4px solid darkgrey;' src='img/tf1_28_M_ss3.jpeg'></img>","1","","exp","","2","<img src='img/tf1_28_T1_ss3_md.jpeg'></img>","0","false",""
"","html-keyboard-response","71","233093","0.0-10.0-0.28","197","""event"",""trial"",""time""
""blur"",""0"",""4182""
""focus"",""0"",""22097""
""fullscreenenter"",""0"",""22910""
","""event"",""trial"",""time""
""blur"",""0"",""4182""
","""event"",""trial"",""time""
""focus"",""0"",""22097""
","""event"",""trial"",""time""
""fullscreenenter"",""0"",""22910""
","
","null","<div style=""font-size:60px;"">+</div>","","null","fixation","2021-04-11 15:58:19.771","","","","",""
"","mars-trial","72","241008","0.0-10.0-1.28","197","""event"",""trial"",""time""
""blur"",""0"",""4182""
""focus"",""0"",""22097""
""fullscreenenter"",""0"",""22910""
","""event"",""trial"",""time""
""blur"",""0"",""4182""
","""event"",""trial"",""time""
""focus"",""0"",""22097""
","""event"",""trial"",""time""
""fullscreenenter"",""0"",""22910""
","
","7310.055000009015","<img style='border: 4px solid darkgrey;' src='img/tf1_29_M_ss1.jpeg'></img>","0","","exp","","3","<img src='img/tf1_29_T1_ss1_md.jpeg'></img>","0","false",""
"","html-keyboard-response","73","241519","0.0-10.0-0.29","197","""event"",""trial"",""time""
""blur"",""0"",""4182""
""focus"",""0"",""22097""
""fullscreenenter"",""0"",""22910""
","""event"",""trial"",""time""
""blur"",""0"",""4182""
","""event"",""trial"",""time""
""focus"",""0"",""22097""
","""event"",""trial"",""time""
""fullscreenenter"",""0"",""22910""
","
","null","<div style=""font-size:60px;"">+</div>","","null","fixation","2021-04-11 15:58:28.197","","","","",""
"","mars-trial","74","245791","0.0-10.0-1.29","197","""event"",""trial"",""time""
""blur"",""0"",""4182""
""focus"",""0"",""22097""
""fullscreenenter"",""0"",""22910""
","""event"",""trial"",""time""
""blur"",""0"",""4182""
","""event"",""trial"",""time""
""focus"",""0"",""22097""
","""event"",""trial"",""time""
""fullscreenenter"",""0"",""22910""
","
","3668.455000006361","<img style='border: 4px solid darkgrey;' src='img/tf1_30_M_ss2.jpeg'></img>","1","","exp","","3","<img src='img/tf1_30_T1_ss2_md.jpeg'></img>","0","false",""
"","html-keyboard-response","75","246293","0.0-10.0-0.30","197","""event"",""trial"",""time""
""blur"",""0"",""4182""
""focus"",""0"",""22097""
""fullscreenenter"",""0"",""22910""
","""event"",""trial"",""time""
""blur"",""0"",""4182""
","""event"",""trial"",""time""
""focus"",""0"",""22097""
","""event"",""trial"",""time""
""fullscreenenter"",""0"",""22910""
","
","null","<div style=""font-size:60px;"">+</div>","","null","fixation","2021-04-11 15:58:32.971","","","","",""
"","mars-trial","76","254563","0.0-10.0-1.30","197","""event"",""trial"",""time""
""blur"",""0"",""4182""
""focus"",""0"",""22097""
""fullscreenenter"",""0"",""22910""
","""event"",""trial"",""time""
""blur"",""0"",""4182""
","""event"",""trial"",""time""
""focus"",""0"",""22097""
","""event"",""trial"",""time""
""fullscreenenter"",""0"",""22910""
","
","7666.04000001098","<img style='border: 4px solid darkgrey;' src='img/tf1_31_M_ss3.jpeg'></img>","0","","exp","","3","<img src='img/tf1_31_T1_ss3_md.jpeg'></img>","0","false",""
"","html-keyboard-response","77","255065","0.0-10.0-0.31","197","""event"",""trial"",""time""
""blur"",""0"",""4182""
""focus"",""0"",""22097""
""fullscreenenter"",""0"",""22910""
","""event"",""trial"",""time""
""blur"",""0"",""4182""
","""event"",""trial"",""time""
""focus"",""0"",""22097""
","""event"",""trial"",""time""
""fullscreenenter"",""0"",""22910""
","
","null","<div style=""font-size:60px;"">+</div>","","null","fixation","2021-04-11 15:58:41.743","","","","",""
"","mars-trial","78","259575","0.0-10.0-1.31","197","""event"",""trial"",""time""
""blur"",""0"",""4182""
""focus"",""0"",""22097""
""fullscreenenter"",""0"",""22910""
","""event"",""trial"",""time""
""blur"",""0"",""4182""
","""event"",""trial"",""time""
""focus"",""0"",""22097""
","""event"",""trial"",""time""
""fullscreenenter"",""0"",""22910""
","
","3900.3500000108033","<img style='border: 4px solid darkgrey;' src='img/tf1_32_M_ss1.jpeg'></img>","1","","exp","","3","<img src='img/tf1_32_T1_ss1_md.jpeg'></img>","0","false",""
"","html-keyboard-response","79","260077","0.0-10.0-0.32","197","""event"",""trial"",""time""
""blur"",""0"",""4182""
""focus"",""0"",""22097""
""fullscreenenter"",""0"",""22910""
","""event"",""trial"",""time""
""blur"",""0"",""4182""
","""event"",""trial"",""time""
""focus"",""0"",""22097""
","""event"",""trial"",""time""
""fullscreenenter"",""0"",""22910""
","
","null","<div style=""font-size:60px;"">+</div>","","null","fixation","2021-04-11 15:58:46.755","","","","",""
"","mars-trial","80","264985","0.0-10.0-1.32","197","""event"",""trial"",""time""
""blur"",""0"",""4182""
""focus"",""0"",""22097""
""fullscreenenter"",""0"",""22910""
","""event"",""trial"",""time""
""blur"",""0"",""4182""
","""event"",""trial"",""time""
""focus"",""0"",""22097""
","""event"",""trial"",""time""
""fullscreenenter"",""0"",""22910""
","
","4303.245000017341","<img style='border: 4px solid darkgrey;' src='img/tf1_33_M_ss2.jpeg'></img>","3","","exp","","0","<img src='img/tf1_33_T1_ss2_md.jpeg'></img>","0","true",""
"","html-keyboard-response","81","265499","0.0-10.0-0.33","197","""event"",""trial"",""time""
""blur"",""0"",""4182""
""focus"",""0"",""22097""
""fullscreenenter"",""0"",""22910""
","""event"",""trial"",""time""
""blur"",""0"",""4182""
","""event"",""trial"",""time""
""focus"",""0"",""22097""
","""event"",""trial"",""time""
""fullscreenenter"",""0"",""22910""
","
","null","<div style=""font-size:60px;"">+</div>","","null","fixation","2021-04-11 15:58:52.177","","","","",""
"","mars-trial","82","272841","0.0-10.0-1.33","197","""event"",""trial"",""time""
""blur"",""0"",""4182""
""focus"",""0"",""22097""
""fullscreenenter"",""0"",""22910""
","""event"",""trial"",""time""
""blur"",""0"",""4182""
","""event"",""trial"",""time""
""focus"",""0"",""22097""
","""event"",""trial"",""time""
""fullscreenenter"",""0"",""22910""
","
","6737.024999980349","<img style='border: 4px solid darkgrey;' src='img/tf1_34_M_ss3.jpeg'></img>","1","","exp","","3","<img src='img/tf1_34_T1_ss3_md.jpeg'></img>","0","false",""
"","html-keyboard-response","83","273343","0.0-10.0-0.34","197","""event"",""trial"",""time""
""blur"",""0"",""4182""
""focus"",""0"",""22097""
""fullscreenenter"",""0"",""22910""
","""event"",""trial"",""time""
""blur"",""0"",""4182""
","""event"",""trial"",""time""
""focus"",""0"",""22097""
","""event"",""trial"",""time""
""fullscreenenter"",""0"",""22910""
","
","null","<div style=""font-size:60px;"">+</div>","","null","fixation","2021-04-11 15:59:00.021","","","","",""
"","mars-trial","84","278453","0.0-10.0-1.34","197","""event"",""trial"",""time""
""blur"",""0"",""4182""
""focus"",""0"",""22097""
""fullscreenenter"",""0"",""22910""
","""event"",""trial"",""time""
""blur"",""0"",""4182""
","""event"",""trial"",""time""
""focus"",""0"",""22097""
","""event"",""trial"",""time""
""fullscreenenter"",""0"",""22910""
","
","4505.5649999994785","<img style='border: 4px solid darkgrey;' src='img/tf1_35_M_ss1.jpeg'></img>","0","","exp","","2","<img src='img/tf1_35_T1_ss1_md.jpeg'></img>","0","false",""
"","html-keyboard-response","85","278956","0.0-10.0-0.35","197","""event"",""trial"",""time""
""blur"",""0"",""4182""
""focus"",""0"",""22097""
""fullscreenenter"",""0"",""22910""
","""event"",""trial"",""time""
""blur"",""0"",""4182""
","""event"",""trial"",""time""
""focus"",""0"",""22097""
","""event"",""trial"",""time""
""fullscreenenter"",""0"",""22910""
","
","null","<div style=""font-size:60px;"">+</div>","","null","fixation","2021-04-11 15:59:05.634","","","","",""
"","mars-trial","86","282030","0.0-10.0-1.35","197","""event"",""trial"",""time""
""blur"",""0"",""4182""
""focus"",""0"",""22097""
""fullscreenenter"",""0"",""22910""
","""event"",""trial"",""time""
""blur"",""0"",""4182""
","""event"",""trial"",""time""
""focus"",""0"",""22097""
","""event"",""trial"",""time""
""fullscreenenter"",""0"",""22910""
","
","2469.0000000118744","<img style='border: 4px solid darkgrey;' src='img/tf1_36_M_ss2.jpeg'></img>","1","","exp","","3","<img src='img/tf1_36_T1_ss2_md.jpeg'></img>","0","false",""
"","html-keyboard-response","87","282536","0.0-10.0-0.36","197","""event"",""trial"",""time""
""blur"",""0"",""4182""
""focus"",""0"",""22097""
""fullscreenenter"",""0"",""22910""
","""event"",""trial"",""time""
""blur"",""0"",""4182""
","""event"",""trial"",""time""
""focus"",""0"",""22097""
","""event"",""trial"",""time""
""fullscreenenter"",""0"",""22910""
","
","null","<div style=""font-size:60px;"">+</div>","","null","fixation","2021-04-11 15:59:09.214","","","","",""
"","mars-trial","88","287611","0.0-10.0-1.36","197","""event"",""trial"",""time""
""blur"",""0"",""4182""
""focus"",""0"",""22097""
""fullscreenenter"",""0"",""22910""
","""event"",""trial"",""time""
""blur"",""0"",""4182""
","""event"",""trial"",""time""
""focus"",""0"",""22097""
","""event"",""trial"",""time""
""fullscreenenter"",""0"",""22910""
","
","4468.594999983907","<img style='border: 4px solid darkgrey;' src='img/tf1_37_M_ss3.jpeg'></img>","0","","exp","","2","<img src='img/tf1_37_T1_ss3_md.jpeg'></img>","0","false",""
"","html-keyboard-response","89","288112","0.0-10.0-0.37","197","""event"",""trial"",""time""
""blur"",""0"",""4182""
""focus"",""0"",""22097""
""fullscreenenter"",""0"",""22910""
","""event"",""trial"",""time""
""blur"",""0"",""4182""
","""event"",""trial"",""time""
""focus"",""0"",""22097""
","""event"",""trial"",""time""
""fullscreenenter"",""0"",""22910""
","
","null","<div style=""font-size:60px;"">+</div>","","null","fixation","2021-04-11 15:59:14.790","","","","",""
"","mars-trial","90","291427","0.0-10.0-1.37","197","""event"",""trial"",""time""
""blur"",""0"",""4182""
""focus"",""0"",""22097""
""fullscreenenter"",""0"",""22910""
","""event"",""trial"",""time""
""blur"",""0"",""4182""
","""event"",""trial"",""time""
""focus"",""0"",""22097""
","""event"",""trial"",""time""
""fullscreenenter"",""0"",""22910""
","
","2710.609999980079","<img style='border: 4px solid darkgrey;' src='img/tf1_38_M_ss1.jpeg'></img>","3","","exp","","0","<img src='img/tf1_38_T1_ss1_md.jpeg'></img>","0","true",""
"","html-keyboard-response","91","291928","0.0-10.0-0.38","197","""event"",""trial"",""time""
""blur"",""0"",""4182""
""focus"",""0"",""22097""
""fullscreenenter"",""0"",""22910""
","""event"",""trial"",""time""
""blur"",""0"",""4182""
","""event"",""trial"",""time""
""focus"",""0"",""22097""
","""event"",""trial"",""time""
""fullscreenenter"",""0"",""22910""
","
","null","<div style=""font-size:60px;"">+</div>","","null","fixation","2021-04-11 15:59:18.606","","","","",""
"","mars-trial","92","298703","0.0-10.0-1.38","197","""event"",""trial"",""time""
""blur"",""0"",""4182""
""focus"",""0"",""22097""
""fullscreenenter"",""0"",""22910""
","""event"",""trial"",""time""
""blur"",""0"",""4182""
","""event"",""trial"",""time""
""focus"",""0"",""22097""
","""event"",""trial"",""time""
""fullscreenenter"",""0"",""22910""
","
","6171.669999981532","<img style='border: 4px solid darkgrey;' src='img/tf1_39_M_ss2.jpeg'></img>","0","","exp","","1","<img src='img/tf1_39_T1_ss2_md.jpeg'></img>","0","false",""
"","html-keyboard-response","93","299206","0.0-10.0-0.39","197","""event"",""trial"",""time""
""blur"",""0"",""4182""
""focus"",""0"",""22097""
""fullscreenenter"",""0"",""22910""
","""event"",""trial"",""time""
""blur"",""0"",""4182""
","""event"",""trial"",""time""
""focus"",""0"",""22097""
","""event"",""trial"",""time""
""fullscreenenter"",""0"",""22910""
","
","null","<div style=""font-size:60px;"">+</div>","","null","fixation","2021-04-11 15:59:25.884","","","","",""
"","mars-trial","94","305017","0.0-10.0-1.39","197","""event"",""trial"",""time""
""blur"",""0"",""4182""
""focus"",""0"",""22097""
""fullscreenenter"",""0"",""22910""
","""event"",""trial"",""time""
""blur"",""0"",""4182""
","""event"",""trial"",""time""
""focus"",""0"",""22097""
","""event"",""trial"",""time""
""fullscreenenter"",""0"",""22910""
","
","5208.024999999907","<img style='border: 4px solid darkgrey;' src='img/tf1_40_M_ss3.jpeg'></img>","1","","exp","","3","<img src='img/tf1_40_T1_ss3_md.jpeg'></img>","0","false",""
"","html-keyboard-response","95","305519","0.0-10.0-0.40","197","""event"",""trial"",""time""
""blur"",""0"",""4182""
""focus"",""0"",""22097""
""fullscreenenter"",""0"",""22910""
","""event"",""trial"",""time""
""blur"",""0"",""4182""
","""event"",""trial"",""time""
""focus"",""0"",""22097""
","""event"",""trial"",""time""
""fullscreenenter"",""0"",""22910""
","
","null","<div style=""font-size:60px;"">+</div>","","null","fixation","2021-04-11 15:59:32.197","","","","",""
"","mars-trial","96","308816","0.0-10.0-1.40","197","""event"",""trial"",""time""
""blur"",""0"",""4182""
""focus"",""0"",""22097""
""fullscreenenter"",""0"",""22910""
","""event"",""trial"",""time""
""blur"",""0"",""4182""
","""event"",""trial"",""time""
""focus"",""0"",""22097""
","""event"",""trial"",""time""
""fullscreenenter"",""0"",""22910""
","
","2692.8199999965727","<img style='border: 4px solid darkgrey;' src='img/tf1_41_M_ss1.jpeg'></img>","2","","exp","","0","<img src='img/tf1_41_T1_ss1_md.jpeg'></img>","0","true",""
"","html-keyboard-response","97","309323","0.0-10.0-0.41","197","""event"",""trial"",""time""
""blur"",""0"",""4182""
""focus"",""0"",""22097""
""fullscreenenter"",""0"",""22910""
","""event"",""trial"",""time""
""blur"",""0"",""4182""
","""event"",""trial"",""time""
""focus"",""0"",""22097""
","""event"",""trial"",""time""
""fullscreenenter"",""0"",""22910""
","
","null","<div style=""font-size:60px;"">+</div>","","null","fixation","2021-04-11 15:59:36.002","","","","",""
"","mars-trial","98","317103","0.0-10.0-1.41","197","""event"",""trial"",""time""
""blur"",""0"",""4182""
""focus"",""0"",""22097""
""fullscreenenter"",""0"",""22910""
","""event"",""trial"",""time""
""blur"",""0"",""4182""
","""event"",""trial"",""time""
""focus"",""0"",""22097""
","""event"",""trial"",""time""
""fullscreenenter"",""0"",""22910""
","
","7174.505000002682","<img style='border: 4px solid darkgrey;' src='img/tf1_42_M_ss2.jpeg'></img>","2","","exp","","1","<img src='img/tf1_42_T1_ss2_md.jpeg'></img>","0","false",""
"","html-keyboard-response","99","317604","0.0-10.0-0.42","197","""event"",""trial"",""time""
""blur"",""0"",""4182""
""focus"",""0"",""22097""
""fullscreenenter"",""0"",""22910""
","""event"",""trial"",""time""
""blur"",""0"",""4182""
","""event"",""trial"",""time""
""focus"",""0"",""22097""
","""event"",""trial"",""time""
""fullscreenenter"",""0"",""22910""
","
","null","<div style=""font-size:60px;"">+</div>","","null","fixation","2021-04-11 15:59:44.282","","","","",""
"","mars-trial","100","323876","0.0-10.0-1.42","197","""event"",""trial"",""time""
""blur"",""0"",""4182""
""focus"",""0"",""22097""
""fullscreenenter"",""0"",""22910""
","""event"",""trial"",""time""
""blur"",""0"",""4182""
","""event"",""trial"",""time""
""focus"",""0"",""22097""
","""event"",""trial"",""time""
""fullscreenenter"",""0"",""22910""
","
","5665.775000001304","<img style='border: 4px solid darkgrey;' src='img/tf1_43_M_ss3.jpeg'></img>","0","","exp","","0","<img src='img/tf1_43_T1_ss3_md.jpeg'></img>","0","true",""
"","html-keyboard-response","101","324377","0.0-10.0-0.43","197","""event"",""trial"",""time""
""blur"",""0"",""4182""
""focus"",""0"",""22097""
""fullscreenenter"",""0"",""22910""
","""event"",""trial"",""time""
""blur"",""0"",""4182""
","""event"",""trial"",""time""
""focus"",""0"",""22097""
","""event"",""trial"",""time""
""fullscreenenter"",""0"",""22910""
","
","null","<div style=""font-size:60px;"">+</div>","","null","fixation","2021-04-11 15:59:51.055","","","","",""
"","mars-trial","102","328146","0.0-10.0-1.43","197","""event"",""trial"",""time""
""blur"",""0"",""4182""
""focus"",""0"",""22097""
""fullscreenenter"",""0"",""22910""
","""event"",""trial"",""time""
""blur"",""0"",""4182""
","""event"",""trial"",""time""
""focus"",""0"",""22097""
","""event"",""trial"",""time""
""fullscreenenter"",""0"",""22910""
","
","3164.245000021765","<img style='border: 4px solid darkgrey;' src='img/tf1_44_M_ss1.jpeg'></img>","1","","exp","","2","<img src='img/tf1_44_T1_ss1_md.jpeg'></img>","0","false",""
"","html-keyboard-response","103","328648","0.0-10.0-0.44","197","""event"",""trial"",""time""
""blur"",""0"",""4182""
""focus"",""0"",""22097""
""fullscreenenter"",""0"",""22910""
","""event"",""trial"",""time""
""blur"",""0"",""4182""
","""event"",""trial"",""time""
""focus"",""0"",""22097""
","""event"",""trial"",""time""
""fullscreenenter"",""0"",""22910""
","
","null","<div style=""font-size:60px;"">+</div>","","null","fixation","2021-04-11 15:59:55.326","","","","",""
"","mars-trial","104","334320","0.0-10.0-1.44","197","""event"",""trial"",""time""
""blur"",""0"",""4182""
""focus"",""0"",""22097""
""fullscreenenter"",""0"",""22910""
","""event"",""trial"",""time""
""blur"",""0"",""4182""
","""event"",""trial"",""time""
""focus"",""0"",""22097""
","""event"",""trial"",""time""
""fullscreenenter"",""0"",""22910""
","
","5068.4000000183005","<img style='border: 4px solid darkgrey;' src='img/tf1_45_M_ss2.jpeg'></img>","0","","exp","","2","<img src='img/tf1_45_T1_ss2_md.jpeg'></img>","0","false",""
"","html-keyboard-response","105","334823","0.0-10.0-0.45","197","""event"",""trial"",""time""
""blur"",""0"",""4182""
""focus"",""0"",""22097""
""fullscreenenter"",""0"",""22910""
","""event"",""trial"",""time""
""blur"",""0"",""4182""
","""event"",""trial"",""time""
""focus"",""0"",""22097""
","""event"",""trial"",""time""
""fullscreenenter"",""0"",""22910""
","
","null","<div style=""font-size:60px;"">+</div>","","null","fixation","2021-04-11 16:00:01.501","","","","",""
"","mars-trial","106","342183","0.0-10.0-1.45","197","""event"",""trial"",""time""
""blur"",""0"",""4182""
""focus"",""0"",""22097""
""fullscreenenter"",""0"",""22910""
","""event"",""trial"",""time""
""blur"",""0"",""4182""
","""event"",""trial"",""time""
""focus"",""0"",""22097""
","""event"",""trial"",""time""
""fullscreenenter"",""0"",""22910""
","
","6753.484999993816","<img style='border: 4px solid darkgrey;' src='img/tf1_46_M_ss3.jpeg'></img>","0","","exp","","0","<img src='img/tf1_46_T1_ss3_md.jpeg'></img>","0","true",""
"","html-keyboard-response","107","342684","0.0-10.0-0.46","197","""event"",""trial"",""time""
""blur"",""0"",""4182""
""focus"",""0"",""22097""
""fullscreenenter"",""0"",""22910""
","""event"",""trial"",""time""
""blur"",""0"",""4182""
","""event"",""trial"",""time""
""focus"",""0"",""22097""
","""event"",""trial"",""time""
""fullscreenenter"",""0"",""22910""
","
","null","<div style=""font-size:60px;"">+</div>","","null","fixation","2021-04-11 16:00:09.362","","","","",""
"","mars-trial","108","350164","0.0-10.0-1.46","197","""event"",""trial"",""time""
""blur"",""0"",""4182""
""focus"",""0"",""22097""
""fullscreenenter"",""0"",""22910""
","""event"",""trial"",""time""
""blur"",""0"",""4182""
","""event"",""trial"",""time""
""focus"",""0"",""22097""
","""event"",""trial"",""time""
""fullscreenenter"",""0"",""22910""
","
","6874.94500001776","<img style='border: 4px solid darkgrey;' src='img/tf1_47_M_ss1.jpeg'></img>","1","","exp","","0","<img src='img/tf1_47_T1_ss1_md.jpeg'></img>","0","true",""
"","html-keyboard-response","109","350665","0.0-10.0-0.47","197","""event"",""trial"",""time""
""blur"",""0"",""4182""
""focus"",""0"",""22097""
""fullscreenenter"",""0"",""22910""
","""event"",""trial"",""time""
""blur"",""0"",""4182""
","""event"",""trial"",""time""
""focus"",""0"",""22097""
","""event"",""trial"",""time""
""fullscreenenter"",""0"",""22910""
","
","null","<div style=""font-size:60px;"">+</div>","","null","fixation","2021-04-11 16:00:17.344","","","","",""
"","mars-trial","110","358052","0.0-10.0-1.47","197","""event"",""trial"",""time""
""blur"",""0"",""4182""
""focus"",""0"",""22097""
""fullscreenenter"",""0"",""22910""
","""event"",""trial"",""time""
""blur"",""0"",""4182""
","""event"",""trial"",""time""
""focus"",""0"",""22097""
","""event"",""trial"",""time""
""fullscreenenter"",""0"",""22910""
","
","6782.555000012508","<img style='border: 4px solid darkgrey;' src='img/tf1_48_M_ss2.jpeg'></img>","1","","exp","","0","<img src='img/tf1_48_T1_ss2_md.jpeg'></img>","0","true",""
"","html-keyboard-response","111","358554","0.0-10.0-0.48","197","""event"",""trial"",""time""
""blur"",""0"",""4182""
""focus"",""0"",""22097""
""fullscreenenter"",""0"",""22910""
","""event"",""trial"",""time""
""blur"",""0"",""4182""
","""event"",""trial"",""time""
""focus"",""0"",""22097""
","""event"",""trial"",""time""
""fullscreenenter"",""0"",""22910""
","
","null","<div style=""font-size:60px;"">+</div>","","null","fixation","2021-04-11 16:00:25.232","","","","",""
"","mars-trial","112","362103","0.0-10.0-1.48","197","""event"",""trial"",""time""
""blur"",""0"",""4182""
""focus"",""0"",""22097""
""fullscreenenter"",""0"",""22910""
","""event"",""trial"",""time""
""blur"",""0"",""4182""
","""event"",""trial"",""time""
""focus"",""0"",""22097""
","""event"",""trial"",""time""
""fullscreenenter"",""0"",""22910""
","
","2945.019999984652","<img style='border: 4px solid darkgrey;' src='img/tf1_49_M_ss3.jpeg'></img>","1","","exp","","0","<img src='img/tf1_49_T1_ss3_md.jpeg'></img>","0","true",""
"","html-keyboard-response","113","362605","0.0-10.0-0.49","197","""event"",""trial"",""time""
""blur"",""0"",""4182""
""focus"",""0"",""22097""
""fullscreenenter"",""0"",""22910""
","""event"",""trial"",""time""
""blur"",""0"",""4182""
","""event"",""trial"",""time""
""focus"",""0"",""22097""
","""event"",""trial"",""time""
""fullscreenenter"",""0"",""22910""
","
","null","<div style=""font-size:60px;"">+</div>","","null","fixation","2021-04-11 16:00:29.283","","","","",""
"","mars-trial","114","366012","0.0-10.0-1.49","197","""event"",""trial"",""time""
""blur"",""0"",""4182""
""focus"",""0"",""22097""
""fullscreenenter"",""0"",""22910""
","""event"",""trial"",""time""
""blur"",""0"",""4182""
","""event"",""trial"",""time""
""focus"",""0"",""22097""
","""event"",""trial"",""time""
""fullscreenenter"",""0"",""22910""
","
","2802.7250000159256","<img style='border: 4px solid darkgrey;' src='img/tf1_50_M_ss1.jpeg'></img>","3","","exp","","0","<img src='img/tf1_50_T1_ss1_md.jpeg'></img>","0","true",""
"","html-keyboard-response","115","366514","0.0-10.0-0.50","197","""event"",""trial"",""time""
""blur"",""0"",""4182""
""focus"",""0"",""22097""
""fullscreenenter"",""0"",""22910""
","""event"",""trial"",""time""
""blur"",""0"",""4182""
","""event"",""trial"",""time""
""focus"",""0"",""22097""
","""event"",""trial"",""time""
""fullscreenenter"",""0"",""22910""
","
","null","<div style=""font-size:60px;"">+</div>","","null","fixation","2021-04-11 16:00:33.192","","","","",""
"","mars-trial","116","370059","0.0-10.0-1.50","197","""event"",""trial"",""time""
""blur"",""0"",""4182""
""focus"",""0"",""22097""
""fullscreenenter"",""0"",""22910""
","""event"",""trial"",""time""
""blur"",""0"",""4182""
","""event"",""trial"",""time""
""focus"",""0"",""22097""
","""event"",""trial"",""time""
""fullscreenenter"",""0"",""22910""
","
","2939.8400000063702","<img style='border: 4px solid darkgrey;' src='img/tf1_51_M_ss2.jpeg'></img>","3","","exp","","0","<img src='img/tf1_51_T1_ss2_md.jpeg'></img>","0","true",""
"","html-keyboard-response","117","370560","0.0-10.0-0.51","197","""event"",""trial"",""time""
""blur"",""0"",""4182""
""focus"",""0"",""22097""
""fullscreenenter"",""0"",""22910""
","""event"",""trial"",""time""
""blur"",""0"",""4182""
","""event"",""trial"",""time""
""focus"",""0"",""22097""
","""event"",""trial"",""time""
""fullscreenenter"",""0"",""22910""
","
","null","<div style=""font-size:60px;"">+</div>","","null","fixation","2021-04-11 16:00:37.238","","","","",""
"","mars-trial","118","373073","0.0-10.0-1.51","197","""event"",""trial"",""time""
""blur"",""0"",""4182""
""focus"",""0"",""22097""
""fullscreenenter"",""0"",""22910""
","""event"",""trial"",""time""
""blur"",""0"",""4182""
","""event"",""trial"",""time""
""focus"",""0"",""22097""
","""event"",""trial"",""time""
""fullscreenenter"",""0"",""22910""
","
","1907.42499998305","<img style='border: 4px solid darkgrey;' src='img/tf1_52_M_ss3.jpeg'></img>","1","","exp","","0","<img src='img/tf1_52_T1_ss3_md.jpeg'></img>","0","true",""
"","html-keyboard-response","119","373575","0.0-10.0-0.52","197","""event"",""trial"",""time""
""blur"",""0"",""4182""
""focus"",""0"",""22097""
""fullscreenenter"",""0"",""22910""
","""event"",""trial"",""time""
""blur"",""0"",""4182""
","""event"",""trial"",""time""
""focus"",""0"",""22097""
","""event"",""trial"",""time""
""fullscreenenter"",""0"",""22910""
","
","null","<div style=""font-size:60px;"">+</div>","","null","fixation","2021-04-11 16:00:40.253","","","","",""
"","mars-trial","120","382425","0.0-10.0-1.52","197","""event"",""trial"",""time""
""blur"",""0"",""4182""
""focus"",""0"",""22097""
""fullscreenenter"",""0"",""22910""
","""event"",""trial"",""time""
""blur"",""0"",""4182""
","""event"",""trial"",""time""
""focus"",""0"",""22097""
","""event"",""trial"",""time""
""fullscreenenter"",""0"",""22910""
","
","8244.055000017397","<img style='border: 4px solid darkgrey;' src='img/tf1_53_M_ss1.jpeg'></img>","1","","exp","","1","<img src='img/tf1_53_T1_ss1_md.jpeg'></img>","0","false",""
"","html-keyboard-response","121","382926","0.0-10.0-0.53","197","""event"",""trial"",""time""
""blur"",""0"",""4182""
""focus"",""0"",""22097""
""fullscreenenter"",""0"",""22910""
","""event"",""trial"",""time""
""blur"",""0"",""4182""
","""event"",""trial"",""time""
""focus"",""0"",""22097""
","""event"",""trial"",""time""
""fullscreenenter"",""0"",""22910""
","
","null","<div style=""font-size:60px;"">+</div>","","null","fixation","2021-04-11 16:00:49.604","","","","",""
"","mars-trial","122","389701","0.0-10.0-1.53","197","""event"",""trial"",""time""
""blur"",""0"",""4182""
""focus"",""0"",""22097""
""fullscreenenter"",""0"",""22910""
","""event"",""trial"",""time""
""blur"",""0"",""4182""
","""event"",""trial"",""time""
""focus"",""0"",""22097""
","""event"",""trial"",""time""
""fullscreenenter"",""0"",""22910""
","
","6170.2299999888055","<img style='border: 4px solid darkgrey;' src='img/tf1_54_M_ss2.jpeg'></img>","1","","exp","","0","<img src='img/tf1_54_T1_ss2_md.jpeg'></img>","0","true",""
"","html-keyboard-response","123","390204","0.0-10.0-0.54","197","""event"",""trial"",""time""
""blur"",""0"",""4182""
""focus"",""0"",""22097""
""fullscreenenter"",""0"",""22910""
","""event"",""trial"",""time""
""blur"",""0"",""4182""
","""event"",""trial"",""time""
""focus"",""0"",""22097""
","""event"",""trial"",""time""
""fullscreenenter"",""0"",""22910""
","
","null","<div style=""font-size:60px;"">+</div>","","null","fixation","2021-04-11 16:00:56.882","","","","",""
"","mars-trial","124","393486","0.0-10.0-1.54","197","""event"",""trial"",""time""
""blur"",""0"",""4182""
""focus"",""0"",""22097""
""fullscreenenter"",""0"",""22910""
","""event"",""trial"",""time""
""blur"",""0"",""4182""
","""event"",""trial"",""time""
""focus"",""0"",""22097""
","""event"",""trial"",""time""
""fullscreenenter"",""0"",""22910""
","
","2678.6750000028405","<img style='border: 4px solid darkgrey;' src='img/tf1_55_M_ss3.jpeg'></img>","0","","exp","","2","<img src='img/tf1_55_T1_ss3_md.jpeg'></img>","0","false",""
"","html-keyboard-response","125","393987","0.0-10.0-0.55","197","""event"",""trial"",""time""
""blur"",""0"",""4182""
""focus"",""0"",""22097""
""fullscreenenter"",""0"",""22910""
","""event"",""trial"",""time""
""blur"",""0"",""4182""
","""event"",""trial"",""time""
""focus"",""0"",""22097""
","""event"",""trial"",""time""
""fullscreenenter"",""0"",""22910""
","
","null","<div style=""font-size:60px;"">+</div>","","null","fixation","2021-04-11 16:01:00.665","","","","",""
"","mars-trial","126","399274","0.0-10.0-1.55","197","""event"",""trial"",""time""
""blur"",""0"",""4182""
""focus"",""0"",""22097""
""fullscreenenter"",""0"",""22910""
","""event"",""trial"",""time""
""blur"",""0"",""4182""
","""event"",""trial"",""time""
""focus"",""0"",""22097""
","""event"",""trial"",""time""
""fullscreenenter"",""0"",""22910""
","
","4682.845000002999","<img style='border: 4px solid darkgrey;' src='img/tf1_56_M_ss1.jpeg'></img>","2","","exp","","0","<img src='img/tf1_56_T1_ss1_md.jpeg'></img>","0","true",""
"","html-keyboard-response","127","399776","0.0-10.0-0.56","197","""event"",""trial"",""time""
""blur"",""0"",""4182""
""focus"",""0"",""22097""
""fullscreenenter"",""0"",""22910""
","""event"",""trial"",""time""
""blur"",""0"",""4182""
","""event"",""trial"",""time""
""focus"",""0"",""22097""
","""event"",""trial"",""time""
""fullscreenenter"",""0"",""22910""
","
","null","<div style=""font-size:60px;"">+</div>","","null","fixation","2021-04-11 16:01:06.454","","","","",""
"","mars-trial","128","404038","0.0-10.0-1.56","197","""event"",""trial"",""time""
""blur"",""0"",""4182""
""focus"",""0"",""22097""
""fullscreenenter"",""0"",""22910""
","""event"",""trial"",""time""
""blur"",""0"",""4182""
","""event"",""trial"",""time""
""focus"",""0"",""22097""
","""event"",""trial"",""time""
""fullscreenenter"",""0"",""22910""
","
","3658.100000000559","<img style='border: 4px solid darkgrey;' src='img/tf1_57_M_ss2.jpeg'></img>","3","","exp","","0","<img src='img/tf1_57_T1_ss2_md.jpeg'></img>","0","true",""
"","html-keyboard-response","129","404541","0.0-10.0-0.57","197","""event"",""trial"",""time""
""blur"",""0"",""4182""
""focus"",""0"",""22097""
""fullscreenenter"",""0"",""22910""
","""event"",""trial"",""time""
""blur"",""0"",""4182""
","""event"",""trial"",""time""
""focus"",""0"",""22097""
","""event"",""trial"",""time""
""fullscreenenter"",""0"",""22910""
","
","null","<div style=""font-size:60px;"">+</div>","","null","fixation","2021-04-11 16:01:11.219","","","","",""
"","mars-trial","130","409969","0.0-10.0-1.57","197","""event"",""trial"",""time""
""blur"",""0"",""4182""
""focus"",""0"",""22097""
""fullscreenenter"",""0"",""22910""
","""event"",""trial"",""time""
""blur"",""0"",""4182""
","""event"",""trial"",""time""
""focus"",""0"",""22097""
","""event"",""trial"",""time""
""fullscreenenter"",""0"",""22910""
","
","4825.015000009444","<img style='border: 4px solid darkgrey;' src='img/tf1_58_M_ss3.jpeg'></img>","0","","exp","","1","<img src='img/tf1_58_T1_ss3_md.jpeg'></img>","0","false",""
"","html-keyboard-response","131","410470","0.0-10.0-0.58","197","""event"",""trial"",""time""
""blur"",""0"",""4182""
""focus"",""0"",""22097""
""fullscreenenter"",""0"",""22910""
","""event"",""trial"",""time""
""blur"",""0"",""4182""
","""event"",""trial"",""time""
""focus"",""0"",""22097""
","""event"",""trial"",""time""
""fullscreenenter"",""0"",""22910""
","
","null","<div style=""font-size:60px;"">+</div>","","null","fixation","2021-04-11 16:01:17.148","","","","",""
"","mars-trial","132","414328","0.0-10.0-1.58","197","""event"",""trial"",""time""
""blur"",""0"",""4182""
""focus"",""0"",""22097""
""fullscreenenter"",""0"",""22910""
","""event"",""trial"",""time""
""blur"",""0"",""4182""
","""event"",""trial"",""time""
""focus"",""0"",""22097""
","""event"",""trial"",""time""
""fullscreenenter"",""0"",""22910""
","
","3253.599999996368","<img style='border: 4px solid darkgrey;' src='img/tf1_59_M_ss1.jpeg'></img>","2","","exp","","3","<img src='img/tf1_59_T1_ss1_md.jpeg'></img>","0","false",""
"","html-keyboard-response","133","414829","0.0-10.0-0.59","197","""event"",""trial"",""time""
""blur"",""0"",""4182""
""focus"",""0"",""22097""
""fullscreenenter"",""0"",""22910""
","""event"",""trial"",""time""
""blur"",""0"",""4182""
","""event"",""trial"",""time""
""focus"",""0"",""22097""
","""event"",""trial"",""time""
""fullscreenenter"",""0"",""22910""
","
","null","<div style=""font-size:60px;"">+</div>","","null","fixation","2021-04-11 16:01:21.507","","","","",""
"","mars-trial","134","418707","0.0-10.0-1.59","197","""event"",""trial"",""time""
""blur"",""0"",""4182""
""focus"",""0"",""22097""
""fullscreenenter"",""0"",""22910""
","""event"",""trial"",""time""
""blur"",""0"",""4182""
","""event"",""trial"",""time""
""focus"",""0"",""22097""
","""event"",""trial"",""time""
""fullscreenenter"",""0"",""22910""
","
","3275.3349999838974","<img style='border: 4px solid darkgrey;' src='img/tf1_60_M_ss2.jpeg'></img>","0","","exp","","1","<img src='img/tf1_60_T1_ss2_md.jpeg'></img>","0","false",""
"","html-keyboard-response","135","419209","0.0-10.0-0.60","197","""event"",""trial"",""time""
""blur"",""0"",""4182""
""focus"",""0"",""22097""
""fullscreenenter"",""0"",""22910""
","""event"",""trial"",""time""
""blur"",""0"",""4182""
","""event"",""trial"",""time""
""focus"",""0"",""22097""
","""event"",""trial"",""time""
""fullscreenenter"",""0"",""22910""
","
","null","<div style=""font-size:60px;"">+</div>","","null","fixation","2021-04-11 16:01:25.887","","","","",""
"","mars-trial","136","421434","0.0-10.0-1.60","197","""event"",""trial"",""time""
""blur"",""0"",""4182""
""focus"",""0"",""22097""
""fullscreenenter"",""0"",""22910""
","""event"",""trial"",""time""
""blur"",""0"",""4182""
","""event"",""trial"",""time""
""focus"",""0"",""22097""
","""event"",""trial"",""time""
""fullscreenenter"",""0"",""22910""
","
","1621.015000011539","<img style='border: 4px solid darkgrey;' src='img/tf1_61_M_ss3.jpeg'></img>","1","","exp","","2","<img src='img/tf1_61_T1_ss3_md.jpeg'></img>","0","false",""
"","html-keyboard-response","137","421936","0.0-10.0-0.61","197","""event"",""trial"",""time""
""blur"",""0"",""4182""
""focus"",""0"",""22097""
""fullscreenenter"",""0"",""22910""
","""event"",""trial"",""time""
""blur"",""0"",""4182""
","""event"",""trial"",""time""
""focus"",""0"",""22097""
","""event"",""trial"",""time""
""fullscreenenter"",""0"",""22910""
","
","null","<div style=""font-size:60px;"">+</div>","","null","fixation","2021-04-11 16:01:28.615","","","","",""
"","mars-trial","138","429204","0.0-10.0-1.61","197","""event"",""trial"",""time""
""blur"",""0"",""4182""
""focus"",""0"",""22097""
""fullscreenenter"",""0"",""22910""
","""event"",""trial"",""time""
""blur"",""0"",""4182""
","""event"",""trial"",""time""
""focus"",""0"",""22097""
","""event"",""trial"",""time""
""fullscreenenter"",""0"",""22910""
","
","6663.5649999952875","<img style='border: 4px solid darkgrey;' src='img/tf1_62_M_ss1.jpeg'></img>","1","","exp","","0","<img src='img/tf1_62_T1_ss1_md.jpeg'></img>","0","true",""
"","html-keyboard-response","139","429706","0.0-10.0-0.62","197","""event"",""trial"",""time""
""blur"",""0"",""4182""
""focus"",""0"",""22097""
""fullscreenenter"",""0"",""22910""
","""event"",""trial"",""time""
""blur"",""0"",""4182""
","""event"",""trial"",""time""
""focus"",""0"",""22097""
","""event"",""trial"",""time""
""fullscreenenter"",""0"",""22910""
","
","null","<div style=""font-size:60px;"">+</div>","","null","fixation","2021-04-11 16:01:36.384","","","","",""
"","mars-trial","140","438612","0.0-10.0-1.62","197","""event"",""trial"",""time""
""blur"",""0"",""4182""
""focus"",""0"",""22097""
""fullscreenenter"",""0"",""22910""
","""event"",""trial"",""time""
""blur"",""0"",""4182""
","""event"",""trial"",""time""
""focus"",""0"",""22097""
","""event"",""trial"",""time""
""fullscreenenter"",""0"",""22910""
","
","8301.70999999973","<img style='border: 4px solid darkgrey;' src='img/tf1_63_M_ss2.jpeg'></img>","1","","exp","","3","<img src='img/tf1_63_T1_ss2_md.jpeg'></img>","0","false",""
"","html-keyboard-response","141","439114","0.0-10.0-0.63","197","""event"",""trial"",""time""
""blur"",""0"",""4182""
""focus"",""0"",""22097""
""fullscreenenter"",""0"",""22910""
","""event"",""trial"",""time""
""blur"",""0"",""4182""
","""event"",""trial"",""time""
""focus"",""0"",""22097""
","""event"",""trial"",""time""
""fullscreenenter"",""0"",""22910""
","
","null","<div style=""font-size:60px;"">+</div>","","null","fixation","2021-04-11 16:01:45.792","","","","",""
"","mars-trial","142","446598","0.0-10.0-1.63","197","""event"",""trial"",""time""
""blur"",""0"",""4182""
""focus"",""0"",""22097""
""fullscreenenter"",""0"",""22910""
","""event"",""trial"",""time""
""blur"",""0"",""4182""
","""event"",""trial"",""time""
""focus"",""0"",""22097""
","""event"",""trial"",""time""
""fullscreenenter"",""0"",""22910""
","
","6880.020000011427","<img style='border: 4px solid darkgrey;' src='img/tf1_64_M_ss3.jpeg'></img>","3","","exp","","0","<img src='img/tf1_64_T1_ss3_md.jpeg'></img>","0","true",""
"","html-keyboard-response","143","447100","0.0-10.0-0.64","197","""event"",""trial"",""time""
""blur"",""0"",""4182""
""focus"",""0"",""22097""
""fullscreenenter"",""0"",""22910""
","""event"",""trial"",""time""
""blur"",""0"",""4182""
","""event"",""trial"",""time""
""focus"",""0"",""22097""
","""event"",""trial"",""time""
""fullscreenenter"",""0"",""22910""
","
","null","<div style=""font-size:60px;"">+</div>","","null","fixation","2021-04-11 16:01:53.778","","","","",""
"","mars-trial","144","452094","0.0-10.0-1.64","197","""event"",""trial"",""time""
""blur"",""0"",""4182""
""focus"",""0"",""22097""
""fullscreenenter"",""0"",""22910""
","""event"",""trial"",""time""
""blur"",""0"",""4182""
","""event"",""trial"",""time""
""focus"",""0"",""22097""
","""event"",""trial"",""time""
""fullscreenenter"",""0"",""22910""
","
","4388.475000014296","<img style='border: 4px solid darkgrey;' src='img/tf1_65_M_ss1.jpeg'></img>","0","","exp","","3","<img src='img/tf1_65_T1_ss1_md.jpeg'></img>","0","false",""
"","html-keyboard-response","145","452595","0.0-10.0-0.65","197","""event"",""trial"",""time""
""blur"",""0"",""4182""
""focus"",""0"",""22097""
""fullscreenenter"",""0"",""22910""
","""event"",""trial"",""time""
""blur"",""0"",""4182""
","""event"",""trial"",""time""
""focus"",""0"",""22097""
","""event"",""trial"",""time""
""fullscreenenter"",""0"",""22910""
","
","null","<div style=""font-size:60px;"">+</div>","","null","fixation","2021-04-11 16:01:59.273","","","","",""
"","mars-trial","146","459131","0.0-10.0-1.65","197","""event"",""trial"",""time""
""blur"",""0"",""4182""
""focus"",""0"",""22097""
""fullscreenenter"",""0"",""22910""
","""event"",""trial"",""time""
""blur"",""0"",""4182""
","""event"",""trial"",""time""
""focus"",""0"",""22097""
","""event"",""trial"",""time""
""fullscreenenter"",""0"",""22910""
","
","5929.709999996703","<img style='border: 4px solid darkgrey;' src='img/tf1_66_M_ss2.jpeg'></img>","0","","exp","","0","<img src='img/tf1_66_T1_ss2_md.jpeg'></img>","0","true",""
"","html-keyboard-response","147","459633","0.0-10.0-0.66","197","""event"",""trial"",""time""
""blur"",""0"",""4182""
""focus"",""0"",""22097""
""fullscreenenter"",""0"",""22910""
","""event"",""trial"",""time""
""blur"",""0"",""4182""
","""event"",""trial"",""time""
""focus"",""0"",""22097""
","""event"",""trial"",""time""
""fullscreenenter"",""0"",""22910""
","
","null","<div style=""font-size:60px;"">+</div>","","null","fixation","2021-04-11 16:02:06.312","","","","",""
"","mars-trial","148","463554","0.0-10.0-1.66","197","""event"",""trial"",""time""
""blur"",""0"",""4182""
""focus"",""0"",""22097""
""fullscreenenter"",""0"",""22910""
","""event"",""trial"",""time""
""blur"",""0"",""4182""
","""event"",""trial"",""time""
""focus"",""0"",""22097""
","""event"",""trial"",""time""
""fullscreenenter"",""0"",""22910""
","
","3316.3650000060443","<img style='border: 4px solid darkgrey;' src='img/tf1_67_M_ss3.jpeg'></img>","0","","exp","","0","<img src='img/tf1_67_T1_ss3_md.jpeg'></img>","0","true",""
"","html-keyboard-response","149","464056","0.0-10.0-0.67","197","""event"",""trial"",""time""
""blur"",""0"",""4182""
""focus"",""0"",""22097""
""fullscreenenter"",""0"",""22910""
","""event"",""trial"",""time""
""blur"",""0"",""4182""
","""event"",""trial"",""time""
""focus"",""0"",""22097""
","""event"",""trial"",""time""
""fullscreenenter"",""0"",""22910""
","
","null","<div style=""font-size:60px;"">+</div>","","null","fixation","2021-04-11 16:02:10.734","","","","",""
"","mars-trial","150","465734","0.0-10.0-1.67","197","""event"",""trial"",""time""
""blur"",""0"",""4182""
""focus"",""0"",""22097""
""fullscreenenter"",""0"",""22910""
","""event"",""trial"",""time""
""blur"",""0"",""4182""
","""event"",""trial"",""time""
""focus"",""0"",""22097""
","""event"",""trial"",""time""
""fullscreenenter"",""0"",""22910""
","
","1074.0550000045914","<img style='border: 4px solid darkgrey;' src='img/tf1_68_M_ss1.jpeg'></img>","0","","exp","","0","<img src='img/tf1_68_T1_ss1_md.jpeg'></img>","0","true",""
"","html-keyboard-response","151","466235","0.0-10.0-0.68","197","""event"",""trial"",""time""
""blur"",""0"",""4182""
""focus"",""0"",""22097""
""fullscreenenter"",""0"",""22910""
","""event"",""trial"",""time""
""blur"",""0"",""4182""
","""event"",""trial"",""time""
""focus"",""0"",""22097""
","""event"",""trial"",""time""
""fullscreenenter"",""0"",""22910""
","
","null","<div style=""font-size:60px;"">+</div>","","null","fixation","2021-04-11 16:02:12.914","","","","",""
"","mars-trial","152","469890","0.0-10.0-1.68","197","""event"",""trial"",""time""
""blur"",""0"",""4182""
""focus"",""0"",""22097""
""fullscreenenter"",""0"",""22910""
","""event"",""trial"",""time""
""blur"",""0"",""4182""
","""event"",""trial"",""time""
""focus"",""0"",""22097""
","""event"",""trial"",""time""
""fullscreenenter"",""0"",""22910""
","
","3051.0249999933876","<img style='border: 4px solid darkgrey;' src='img/tf1_69_M_ss2.jpeg'></img>","0","","exp","","0","<img src='img/tf1_69_T1_ss2_md.jpeg'></img>","0","true",""
"","html-keyboard-response","153","470403","0.0-10.0-0.69","197","""event"",""trial"",""time""
""blur"",""0"",""4182""
""focus"",""0"",""22097""
""fullscreenenter"",""0"",""22910""
","""event"",""trial"",""time""
""blur"",""0"",""4182""
","""event"",""trial"",""time""
""focus"",""0"",""22097""
","""event"",""trial"",""time""
""fullscreenenter"",""0"",""22910""
","
","null","<div style=""font-size:60px;"">+</div>","","null","fixation","2021-04-11 16:02:17.081","","","","",""
"","mars-trial","154","476835","0.0-10.0-1.69","197","""event"",""trial"",""time""
""blur"",""0"",""4182""
""focus"",""0"",""22097""
""fullscreenenter"",""0"",""22910""
","""event"",""trial"",""time""
""blur"",""0"",""4182""
","""event"",""trial"",""time""
""focus"",""0"",""22097""
","""event"",""trial"",""time""
""fullscreenenter"",""0"",""22910""
","
","5826.8800000078045","<img style='border: 4px solid darkgrey;' src='img/tf1_70_M_ss3.jpeg'></img>","2","","exp","","0","<img src='img/tf1_70_T1_ss3_md.jpeg'></img>","0","true",""
"","html-keyboard-response","155","477336","0.0-10.0-0.70","197","""event"",""trial"",""time""
""blur"",""0"",""4182""
""focus"",""0"",""22097""
""fullscreenenter"",""0"",""22910""
","""event"",""trial"",""time""
""blur"",""0"",""4182""
","""event"",""trial"",""time""
""focus"",""0"",""22097""
","""event"",""trial"",""time""
""fullscreenenter"",""0"",""22910""
","
","null","<div style=""font-size:60px;"">+</div>","","null","fixation","2021-04-11 16:02:24.014","","","","",""
"","mars-trial","156","484285","0.0-10.0-1.70","197","""event"",""trial"",""time""
""blur"",""0"",""4182""
""focus"",""0"",""22097""
""fullscreenenter"",""0"",""22910""
","""event"",""trial"",""time""
""blur"",""0"",""4182""
","""event"",""trial"",""time""
""focus"",""0"",""22097""
","""event"",""trial"",""time""
""fullscreenenter"",""0"",""22910""
","
","6343.450000014855","<img style='border: 4px solid darkgrey;' src='img/tf1_71_M_ss1.jpeg'></img>","0","","exp","","1","<img src='img/tf1_71_T1_ss1_md.jpeg'></img>","0","false",""
"","html-keyboard-response","157","484786","0.0-10.0-0.71","197","""event"",""trial"",""time""
""blur"",""0"",""4182""
""focus"",""0"",""22097""
""fullscreenenter"",""0"",""22910""
","""event"",""trial"",""time""
""blur"",""0"",""4182""
","""event"",""trial"",""time""
""focus"",""0"",""22097""
","""event"",""trial"",""time""
""fullscreenenter"",""0"",""22910""
","
","null","<div style=""font-size:60px;"">+</div>","","null","fixation","2021-04-11 16:02:31.464","","","","",""
"","mars-trial","158","489264","0.0-10.0-1.71","197","""event"",""trial"",""time""
""blur"",""0"",""4182""
""focus"",""0"",""22097""
""fullscreenenter"",""0"",""22910""
","""event"",""trial"",""time""
""blur"",""0"",""4182""
","""event"",""trial"",""time""
""focus"",""0"",""22097""
","""event"",""trial"",""time""
""fullscreenenter"",""0"",""22910""
","
","3872.849999985192","<img style='border: 4px solid darkgrey;' src='img/tf1_72_M_ss2.jpeg'></img>","2","","exp","","2","<img src='img/tf1_72_T1_ss2_md.jpeg'></img>","0","false",""
"","html-keyboard-response","159","489765","0.0-10.0-0.72","197","""event"",""trial"",""time""
""blur"",""0"",""4182""
""focus"",""0"",""22097""
""fullscreenenter"",""0"",""22910""
","""event"",""trial"",""time""
""blur"",""0"",""4182""
","""event"",""trial"",""time""
""focus"",""0"",""22097""
","""event"",""trial"",""time""
""fullscreenenter"",""0"",""22910""
","
","null","<div style=""font-size:60px;"">+</div>","","null","fixation","2021-04-11 16:02:36.443","","","","",""
"","mars-trial","160","495019","0.0-10.0-1.72","197","""event"",""trial"",""time""
""blur"",""0"",""4182""
""focus"",""0"",""22097""
""fullscreenenter"",""0"",""22910""
","""event"",""trial"",""time""
""blur"",""0"",""4182""
","""event"",""trial"",""time""
""focus"",""0"",""22097""
","""event"",""trial"",""time""
""fullscreenenter"",""0"",""22910""
","
","4648.610000003828","<img style='border: 4px solid darkgrey;' src='img/tf1_73_M_ss3.jpeg'></img>","1","","exp","","2","<img src='img/tf1_73_T1_ss3_md.jpeg'></img>","0","false",""
"","html-keyboard-response","161","495521","0.0-10.0-0.73","197","""event"",""trial"",""time""
""blur"",""0"",""4182""
""focus"",""0"",""22097""
""fullscreenenter"",""0"",""22910""
","""event"",""trial"",""time""
""blur"",""0"",""4182""
","""event"",""trial"",""time""
""focus"",""0"",""22097""
","""event"",""trial"",""time""
""fullscreenenter"",""0"",""22910""
","
","null","<div style=""font-size:60px;"">+</div>","","null","fixation","2021-04-11 16:02:42.199","","","","",""
"","mars-trial","162","499715","0.0-10.0-1.73","197","""event"",""trial"",""time""
""blur"",""0"",""4182""
""focus"",""0"",""22097""
""fullscreenenter"",""0"",""22910""
","""event"",""trial"",""time""
""blur"",""0"",""4182""
","""event"",""trial"",""time""
""focus"",""0"",""22097""
","""event"",""trial"",""time""
""fullscreenenter"",""0"",""22910""
","
","3588.870000006864","<img style='border: 4px solid darkgrey;' src='img/tf1_74_M_ss1.jpeg'></img>","0","","exp","","0","<img src='img/tf1_74_T1_ss1_md.jpeg'></img>","0","true",""
"","html-keyboard-response","163","500217","0.0-10.0-0.74","197","""event"",""trial"",""time""
""blur"",""0"",""4182""
""focus"",""0"",""22097""
""fullscreenenter"",""0"",""22910""
","""event"",""trial"",""time""
""blur"",""0"",""4182""
","""event"",""trial"",""time""
""focus"",""0"",""22097""
","""event"",""trial"",""time""
""fullscreenenter"",""0"",""22910""
","
","null","<div style=""font-size:60px;"">+</div>","","null","fixation","2021-04-11 16:02:46.895","","","","",""
"","mars-trial","164","504080","0.0-10.0-1.74","197","""event"",""trial"",""time""
""blur"",""0"",""4182""
""focus"",""0"",""22097""
""fullscreenenter"",""0"",""22910""
","""event"",""trial"",""time""
""blur"",""0"",""4182""
","""event"",""trial"",""time""
""focus"",""0"",""22097""
","""event"",""trial"",""time""
""fullscreenenter"",""0"",""22910""
","
","3260.2000000188127","<img style='border: 4px solid darkgrey;' src='img/tf1_75_M_ss2.jpeg'></img>","1","","exp","","3","<img src='img/tf1_75_T1_ss2_md.jpeg'></img>","0","false",""
"","html-keyboard-response","165","504582","0.0-10.0-0.75","197","""event"",""trial"",""time""
""blur"",""0"",""4182""
""focus"",""0"",""22097""
""fullscreenenter"",""0"",""22910""
","""event"",""trial"",""time""
""blur"",""0"",""4182""
","""event"",""trial"",""time""
""focus"",""0"",""22097""
","""event"",""trial"",""time""
""fullscreenenter"",""0"",""22910""
","
","null","<div style=""font-size:60px;"">+</div>","","null","fixation","2021-04-11 16:02:51.260","","","","",""
"","mars-trial","166","509595","0.0-10.0-1.75","197","""event"",""trial"",""time""
""blur"",""0"",""4182""
""focus"",""0"",""22097""
""fullscreenenter"",""0"",""22910""
","""event"",""trial"",""time""
""blur"",""0"",""4182""
","""event"",""trial"",""time""
""focus"",""0"",""22097""
","""event"",""trial"",""time""
""fullscreenenter"",""0"",""22910""
","
","4408.435000019381","<img style='border: 4px solid darkgrey;' src='img/tf1_76_M_ss3.jpeg'></img>","1","","exp","","2","<img src='img/tf1_76_T1_ss3_md.jpeg'></img>","0","false",""
"","html-keyboard-response","167","510097","0.0-10.0-0.76","197","""event"",""trial"",""time""
""blur"",""0"",""4182""
""focus"",""0"",""22097""
""fullscreenenter"",""0"",""22910""
","""event"",""trial"",""time""
""blur"",""0"",""4182""
","""event"",""trial"",""time""
""focus"",""0"",""22097""
","""event"",""trial"",""time""
""fullscreenenter"",""0"",""22910""
","
","null","<div style=""font-size:60px;"">+</div>","","null","fixation","2021-04-11 16:02:56.775","","","","",""
"","mars-trial","168","516068","0.0-10.0-1.76","197","""event"",""trial"",""time""
""blur"",""0"",""4182""
""focus"",""0"",""22097""
""fullscreenenter"",""0"",""22910""
","""event"",""trial"",""time""
""blur"",""0"",""4182""
","""event"",""trial"",""time""
""focus"",""0"",""22097""
","""event"",""trial"",""time""
""fullscreenenter"",""0"",""22910""
","
","5365.965000004508","<img style='border: 4px solid darkgrey;' src='img/tf1_77_M_ss1.jpeg'></img>","2","","exp","","0","<img src='img/tf1_77_T1_ss1_md.jpeg'></img>","0","true",""
"","html-keyboard-response","169","516575","0.0-10.0-0.77","197","""event"",""trial"",""time""
""blur"",""0"",""4182""
""focus"",""0"",""22097""
""fullscreenenter"",""0"",""22910""
","""event"",""trial"",""time""
""blur"",""0"",""4182""
","""event"",""trial"",""time""
""focus"",""0"",""22097""
","""event"",""trial"",""time""
""fullscreenenter"",""0"",""22910""
","
","null","<div style=""font-size:60px;"">+</div>","","null","fixation","2021-04-11 16:03:03.254","","","","",""
"","mars-trial","170","521062","0.0-10.0-1.77","197","""event"",""trial"",""time""
""blur"",""0"",""4182""
""focus"",""0"",""22097""
""fullscreenenter"",""0"",""22910""
","""event"",""trial"",""time""
""blur"",""0"",""4182""
","""event"",""trial"",""time""
""focus"",""0"",""22097""
","""event"",""trial"",""time""
""fullscreenenter"",""0"",""22910""
","
","3882.884999999078","<img style='border: 4px solid darkgrey;' src='img/tf1_78_M_ss2.jpeg'></img>","0","","exp","","3","<img src='img/tf1_78_T1_ss2_md.jpeg'></img>","0","false",""
"","html-keyboard-response","171","521565","0.0-10.0-0.78","197","""event"",""trial"",""time""
""blur"",""0"",""4182""
""focus"",""0"",""22097""
""fullscreenenter"",""0"",""22910""
","""event"",""trial"",""time""
""blur"",""0"",""4182""
","""event"",""trial"",""time""
""focus"",""0"",""22097""
","""event"",""trial"",""time""
""fullscreenenter"",""0"",""22910""
","
","null","<div style=""font-size:60px;"">+</div>","","null","fixation","2021-04-11 16:03:08.243","","","","",""
"","mars-trial","172","529761","0.0-10.0-1.78","197","""event"",""trial"",""time""
""blur"",""0"",""4182""
""focus"",""0"",""22097""
""fullscreenenter"",""0"",""22910""
","""event"",""trial"",""time""
""blur"",""0"",""4182""
","""event"",""trial"",""time""
""focus"",""0"",""22097""
","""event"",""trial"",""time""
""fullscreenenter"",""0"",""22910""
","
","7590.815000003204","<img style='border: 4px solid darkgrey;' src='img/tf1_79_M_ss3.jpeg'></img>","2","","exp","","0","<img src='img/tf1_79_T1_ss3_md.jpeg'></img>","0","true",""
"","html-keyboard-response","173","530262","0.0-10.0-0.79","197","""event"",""trial"",""time""
""blur"",""0"",""4182""
""focus"",""0"",""22097""
""fullscreenenter"",""0"",""22910""
","""event"",""trial"",""time""
""blur"",""0"",""4182""
","""event"",""trial"",""time""
""focus"",""0"",""22097""
","""event"",""trial"",""time""
""fullscreenenter"",""0"",""22910""
","
","null","<div style=""font-size:60px;"">+</div>","","null","fixation","2021-04-11 16:03:16.940","","","","",""
"","mars-trial","174","534568","0.0-10.0-1.79","197","""event"",""trial"",""time""
""blur"",""0"",""4182""
""focus"",""0"",""22097""
""fullscreenenter"",""0"",""22910""
","""event"",""trial"",""time""
""blur"",""0"",""4182""
","""event"",""trial"",""time""
""focus"",""0"",""22097""
","""event"",""trial"",""time""
""fullscreenenter"",""0"",""22910""
","
","3699.4850000191946","<img style='border: 4px solid darkgrey;' src='img/tf1_80_M_ss1.jpeg'></img>","0","","exp","","1","<img src='img/tf1_80_T1_ss1_md.jpeg'></img>","0","false",""
"","audio-button-response","175","536576","0.0-11.0","197","""event"",""trial"",""time""
""blur"",""0"",""4182""
""focus"",""0"",""22097""
""fullscreenenter"",""0"",""22910""
","""event"",""trial"",""time""
""blur"",""0"",""4182""
","""event"",""trial"",""time""
""focus"",""0"",""22097""
","""event"",""trial"",""time""
""fullscreenenter"",""0"",""22910""
","
","2006.5250000043306","audio/mars_instructions_slide5.wav","0","","","","","","","",""
