"success","trial_type","trial_index","time_elapsed","internal_node_id","subject_id","interactions","blur_events","focus_events","fullscreenenter_events","fullscreenexit_events","rt","stimulus","button_pressed","key_press","part","timestamp","unshuffled_button","correct_response","correct_button","correct","value"
"true","fullscreen","0","4529","0.0-0.0","A107","""event"",""trial"",""time""
""fullscreenenter"",""0"",""3575""
","
","
","""event"",""trial"",""time""
""fullscreenenter"",""0"",""3575""
","
","","","","","","","","","","",""
"","pavlovia","1","4537","0.0-1.0","A107","""event"",""trial"",""time""
""fullscreenenter"",""0"",""3575""
","
","
","""event"",""trial"",""time""
""fullscreenenter"",""0"",""3575""
","
","","","","","","","","","","",""
"","html-button-response","2","5840","0.0-2.0","A107","""event"",""trial"",""time""
""fullscreenenter"",""0"",""3575""
","
","
","""event"",""trial"",""time""
""fullscreenenter"",""0"",""3575""
","
","1301.179999998567","<p>Welcome! Press START to begin.</p><br>","0","","","","","","","",""
"","audio-button-response","3","25793","0.0-3.0","A107","""event"",""trial"",""time""
""fullscreenenter"",""0"",""3575""
","
","
","""event"",""trial"",""time""
""fullscreenenter"",""0"",""3575""
","
","19948.645000000397","audio/mars_instructions_slide2.wav","0","","","","","","","",""
"","audio-button-response","4","38047","0.0-4.0","A107","""event"",""trial"",""time""
""fullscreenenter"",""0"",""3575""
","
","
","""event"",""trial"",""time""
""fullscreenenter"",""0"",""3575""
","
","12252.215000000433","audio/mars_instructions_slide3.wav","0","","","","","","","",""
"","html-keyboard-response","5","38550","0.0-5.0-0.0","A107","""event"",""trial"",""time""
""fullscreenenter"",""0"",""3575""
","
","
","""event"",""trial"",""time""
""fullscreenenter"",""0"",""3575""
","
","null","<div style=""font-size:60px;"">+</div>","","null","fixation","2021-04-02 17:23:28.485","","","","",""
"","mars-trial","6","46135","0.0-5.0-1.0","A107","""event"",""trial"",""time""
""fullscreenenter"",""0"",""3575""
","
","
","""event"",""trial"",""time""
""fullscreenenter"",""0"",""3575""
","
","5471.620000000257","<img style='border: 4px solid darkgrey;' src='practice/pt1_M1.png'></img>","3","","practice","","0","<img src='practice/pt1_T1.png'></img>","0","true",""
"","html-keyboard-response","7","46638","0.0-6.0-0.0","A107","""event"",""trial"",""time""
""fullscreenenter"",""0"",""3575""
","
","
","""event"",""trial"",""time""
""fullscreenenter"",""0"",""3575""
","
","null","<div style=""font-size:60px;"">+</div>","","null","fixation","2021-04-02 17:23:36.572","","","","",""
"","mars-trial","8","51809","0.0-6.0-1.0","A107","""event"",""trial"",""time""
""fullscreenenter"",""0"",""3575""
","
","
","""event"",""trial"",""time""
""fullscreenenter"",""0"",""3575""
","
","3062.610000000859","<img style='border: 4px solid darkgrey;' src='practice/pt2_M1.png'></img>","1","","practice","","0","<img src='practice/pt2_T1.png'></img>","0","true",""
"","html-keyboard-response","9","52316","0.0-7.0-0.0","A107","""event"",""trial"",""time""
""fullscreenenter"",""0"",""3575""
","
","
","""event"",""trial"",""time""
""fullscreenenter"",""0"",""3575""
","
","null","<div style=""font-size:60px;"">+</div>","","null","fixation","2021-04-02 17:23:42.250","","","","",""
"","mars-trial","10","55697","0.0-7.0-1.0","A107","""event"",""trial"",""time""
""fullscreenenter"",""0"",""3575""
","
","
","""event"",""trial"",""time""
""fullscreenenter"",""0"",""3575""
","
","1274.9499999990803","<img style='border: 4px solid darkgrey;' src='practice/pt3_M1.png'></img>","2","","practice","","0","<img src='practice/pt3_T1.png'></img>","0","true",""
"","audio-button-response","11","57624","0.0-8.0","A107","""event"",""trial"",""time""
""fullscreenenter"",""0"",""3575""
","
","
","""event"",""trial"",""time""
""fullscreenenter"",""0"",""3575""
","
","1924.3700000006356","audio/mars_instructions_slide4.wav","0","","","","","","","",""
"","call-function","12","57625","0.0-9.0","A107","""event"",""trial"",""time""
""fullscreenenter"",""0"",""3575""
","
","
","""event"",""trial"",""time""
""fullscreenenter"",""0"",""3575""
","
","","","","","","","","","","",""
"","html-keyboard-response","13","58130","0.0-10.0-0.0","A107","""event"",""trial"",""time""
""fullscreenenter"",""0"",""3575""
","
","
","""event"",""trial"",""time""
""fullscreenenter"",""0"",""3575""
","
","null","<div style=""font-size:60px;"">+</div>","","null","fixation","2021-04-02 17:23:48.064","","","","",""
"","mars-trial","14","60284","0.0-10.0-1.0","A107","""event"",""trial"",""time""
""fullscreenenter"",""0"",""3575""
","
","
","""event"",""trial"",""time""
""fullscreenenter"",""0"",""3575""
","
","1544.804999997723","<img style='border: 4px solid darkgrey;' src='img/tf1_1_M_ss3.jpeg'></img>","2","","exp","","2","<img src='img/tf1_1_T1_ss3_md.jpeg'></img>","0","false",""
"","html-keyboard-response","15","60791","0.0-10.0-0.1","A107","""event"",""trial"",""time""
""fullscreenenter"",""0"",""3575""
","
","
","""event"",""trial"",""time""
""fullscreenenter"",""0"",""3575""
","
","null","<div style=""font-size:60px;"">+</div>","","null","fixation","2021-04-02 17:23:50.725","","","","",""
"","mars-trial","16","63410","0.0-10.0-1.1","A107","""event"",""trial"",""time""
""fullscreenenter"",""0"",""3575""
","
","
","""event"",""trial"",""time""
""fullscreenenter"",""0"",""3575""
","
","2009.7750000022643","<img style='border: 4px solid darkgrey;' src='img/tf1_2_M_ss1.jpeg'></img>","3","","exp","","0","<img src='img/tf1_2_T1_ss1_md.jpeg'></img>","0","true",""
"","html-keyboard-response","17","63911","0.0-10.0-0.2","A107","""event"",""trial"",""time""
""fullscreenenter"",""0"",""3575""
","
","
","""event"",""trial"",""time""
""fullscreenenter"",""0"",""3575""
","
","null","<div style=""font-size:60px;"">+</div>","","null","fixation","2021-04-02 17:23:53.845","","","","",""
"","mars-trial","18","66223","0.0-10.0-1.2","A107","""event"",""trial"",""time""
""fullscreenenter"",""0"",""3575""
","
","
","""event"",""trial"",""time""
""fullscreenenter"",""0"",""3575""
","
","1700.5150000004505","<img style='border: 4px solid darkgrey;' src='img/tf1_3_M_ss2.jpeg'></img>","2","","exp","","0","<img src='img/tf1_3_T1_ss2_md.jpeg'></img>","0","true",""
"","html-keyboard-response","19","66727","0.0-10.0-0.3","A107","""event"",""trial"",""time""
""fullscreenenter"",""0"",""3575""
","
","
","""event"",""trial"",""time""
""fullscreenenter"",""0"",""3575""
","
","null","<div style=""font-size:60px;"">+</div>","","null","fixation","2021-04-02 17:23:56.661","","","","",""
"","mars-trial","20","70668","0.0-10.0-1.3","A107","""event"",""trial"",""time""
""fullscreenenter"",""0"",""3575""
","
","
","""event"",""trial"",""time""
""fullscreenenter"",""0"",""3575""
","
","3330.630000000383","<img style='border: 4px solid darkgrey;' src='img/tf1_4_M_ss3.jpeg'></img>","1","","exp","","0","<img src='img/tf1_4_T1_ss3_md.jpeg'></img>","0","true",""
"","html-keyboard-response","21","71175","0.0-10.0-0.4","A107","""event"",""trial"",""time""
""fullscreenenter"",""0"",""3575""
","
","
","""event"",""trial"",""time""
""fullscreenenter"",""0"",""3575""
","
","null","<div style=""font-size:60px;"">+</div>","","null","fixation","2021-04-02 17:24:01.109","","","","",""
"","mars-trial","22","73159","0.0-10.0-1.4","A107","""event"",""trial"",""time""
""fullscreenenter"",""0"",""3575""
","
","
","""event"",""trial"",""time""
""fullscreenenter"",""0"",""3575""
","
","1373.8149999990128","<img style='border: 4px solid darkgrey;' src='img/tf1_5_M_ss1.jpeg'></img>","3","","exp","","0","<img src='img/tf1_5_T1_ss1_md.jpeg'></img>","0","true",""
"","html-keyboard-response","23","73661","0.0-10.0-0.5","A107","""event"",""trial"",""time""
""fullscreenenter"",""0"",""3575""
","
","
","""event"",""trial"",""time""
""fullscreenenter"",""0"",""3575""
","
","null","<div style=""font-size:60px;"">+</div>","","null","fixation","2021-04-02 17:24:03.595","","","","",""
"","mars-trial","24","80754","0.0-10.0-1.5","A107","""event"",""trial"",""time""
""fullscreenenter"",""0"",""3575""
","
","
","""event"",""trial"",""time""
""fullscreenenter"",""0"",""3575""
","
","6482.67499999929","<img style='border: 4px solid darkgrey;' src='img/tf1_6_M_ss2.jpeg'></img>","0","","exp","","3","<img src='img/tf1_6_T1_ss2_md.jpeg'></img>","0","false",""
"","html-keyboard-response","25","81260","0.0-10.0-0.6","A107","""event"",""trial"",""time""
""fullscreenenter"",""0"",""3575""
","
","
","""event"",""trial"",""time""
""fullscreenenter"",""0"",""3575""
","
","null","<div style=""font-size:60px;"">+</div>","","null","fixation","2021-04-02 17:24:11.195","","","","",""
"","mars-trial","26","87629","0.0-10.0-1.6","A107","""event"",""trial"",""time""
""fullscreenenter"",""0"",""3575""
","
","
","""event"",""trial"",""time""
""fullscreenenter"",""0"",""3575""
","
","5760.644999998476","<img style='border: 4px solid darkgrey;' src='img/tf1_7_M_ss3.jpeg'></img>","1","","exp","","0","<img src='img/tf1_7_T1_ss3_md.jpeg'></img>","0","true",""
"","html-keyboard-response","27","88132","0.0-10.0-0.7","A107","""event"",""trial"",""time""
""fullscreenenter"",""0"",""3575""
","
","
","""event"",""trial"",""time""
""fullscreenenter"",""0"",""3575""
","
","null","<div style=""font-size:60px;"">+</div>","","null","fixation","2021-04-02 17:24:18.066","","","","",""
"","mars-trial","28","94479","0.0-10.0-1.7","A107","""event"",""trial"",""time""
""fullscreenenter"",""0"",""3575""
","
","
","""event"",""trial"",""time""
""fullscreenenter"",""0"",""3575""
","
","5737.004999999044","<img style='border: 4px solid darkgrey;' src='img/tf1_8_M_ss1.jpeg'></img>","1","","exp","","0","<img src='img/tf1_8_T1_ss1_md.jpeg'></img>","0","true",""
"","html-keyboard-response","29","94985","0.0-10.0-0.8","A107","""event"",""trial"",""time""
""fullscreenenter"",""0"",""3575""
","
","
","""event"",""trial"",""time""
""fullscreenenter"",""0"",""3575""
","
","null","<div style=""font-size:60px;"">+</div>","","null","fixation","2021-04-02 17:24:24.919","","","","",""
"","mars-trial","30","102229","0.0-10.0-1.8","A107","""event"",""trial"",""time""
""fullscreenenter"",""0"",""3575""
","
","
","""event"",""trial"",""time""
""fullscreenenter"",""0"",""3575""
","
","6636.91000000108","<img style='border: 4px solid darkgrey;' src='img/tf1_9_M_ss2.jpeg'></img>","0","","exp","","0","<img src='img/tf1_9_T1_ss2_md.jpeg'></img>","0","true",""
"","html-keyboard-response","31","102731","0.0-10.0-0.9","A107","""event"",""trial"",""time""
""fullscreenenter"",""0"",""3575""
","
","
","""event"",""trial"",""time""
""fullscreenenter"",""0"",""3575""
","
","null","<div style=""font-size:60px;"">+</div>","","null","fixation","2021-04-02 17:24:32.665","","","","",""
"","mars-trial","32","114304","0.0-10.0-1.9","A107","""event"",""trial"",""time""
""fullscreenenter"",""0"",""3575""
","
","
","""event"",""trial"",""time""
""fullscreenenter"",""0"",""3575""
","
","10959.659999996802","<img style='border: 4px solid darkgrey;' src='img/tf1_10_M_ss3.jpeg'></img>","3","","exp","","0","<img src='img/tf1_10_T1_ss3_md.jpeg'></img>","0","true",""
"","html-keyboard-response","33","114809","0.0-10.0-0.10","A107","""event"",""trial"",""time""
""fullscreenenter"",""0"",""3575""
","
","
","""event"",""trial"",""time""
""fullscreenenter"",""0"",""3575""
","
","null","<div style=""font-size:60px;"">+</div>","","null","fixation","2021-04-02 17:24:44.743","","","","",""
"","mars-trial","34","136597","0.0-10.0-1.10","A107","""event"",""trial"",""time""
""fullscreenenter"",""0"",""3575""
","
","
","""event"",""trial"",""time""
""fullscreenenter"",""0"",""3575""
","
","21177.08499999935","<img style='border: 4px solid darkgrey;' src='img/tf1_11_M_ss1.jpeg'></img>","1","","exp","","0","<img src='img/tf1_11_T1_ss1_md.jpeg'></img>","0","true",""
"","html-keyboard-response","35","137099","0.0-10.0-0.11","A107","""event"",""trial"",""time""
""fullscreenenter"",""0"",""3575""
","
","
","""event"",""trial"",""time""
""fullscreenenter"",""0"",""3575""
","
","null","<div style=""font-size:60px;"">+</div>","","null","fixation","2021-04-02 17:25:07.033","","","","",""
"","mars-trial","36","144107","0.0-10.0-1.11","A107","""event"",""trial"",""time""
""fullscreenenter"",""0"",""3575""
","
","
","""event"",""trial"",""time""
""fullscreenenter"",""0"",""3575""
","
","6402.089999999589","<img style='border: 4px solid darkgrey;' src='img/tf1_12_M_ss2.jpeg'></img>","3","","exp","","1","<img src='img/tf1_12_T1_ss2_md.jpeg'></img>","0","false",""
"","html-keyboard-response","37","144610","0.0-10.0-0.12","A107","""event"",""trial"",""time""
""fullscreenenter"",""0"",""3575""
","
","
","""event"",""trial"",""time""
""fullscreenenter"",""0"",""3575""
","
","null","<div style=""font-size:60px;"">+</div>","","null","fixation","2021-04-02 17:25:14.544","","","","",""
"","mars-trial","38","160582","0.0-10.0-1.12","A107","""event"",""trial"",""time""
""fullscreenenter"",""0"",""3575""
","
","
","""event"",""trial"",""time""
""fullscreenenter"",""0"",""3575""
","
","15361.744999998336","<img style='border: 4px solid darkgrey;' src='img/tf1_13_M_ss3.jpeg'></img>","1","","exp","","0","<img src='img/tf1_13_T1_ss3_md.jpeg'></img>","0","true",""
"","html-keyboard-response","39","161089","0.0-10.0-0.13","A107","""event"",""trial"",""time""
""fullscreenenter"",""0"",""3575""
","
","
","""event"",""trial"",""time""
""fullscreenenter"",""0"",""3575""
","
","null","<div style=""font-size:60px;"">+</div>","","null","fixation","2021-04-02 17:25:31.023","","","","",""
"","mars-trial","40","174360","0.0-10.0-1.13","A107","""event"",""trial"",""time""
""fullscreenenter"",""0"",""3575""
","
","
","""event"",""trial"",""time""
""fullscreenenter"",""0"",""3575""
","
","12660.50499999983","<img style='border: 4px solid darkgrey;' src='img/tf1_14_M_ss1.jpeg'></img>","3","","exp","","0","<img src='img/tf1_14_T1_ss1_md.jpeg'></img>","0","true",""
"","html-keyboard-response","41","174866","0.0-10.0-0.14","A107","""event"",""trial"",""time""
""fullscreenenter"",""0"",""3575""
","
","
","""event"",""trial"",""time""
""fullscreenenter"",""0"",""3575""
","
","null","<div style=""font-size:60px;"">+</div>","","null","fixation","2021-04-02 17:25:44.800","","","","",""
"","mars-trial","42","180844","0.0-10.0-1.14","A107","""event"",""trial"",""time""
""fullscreenenter"",""0"",""3575""
","
","
","""event"",""trial"",""time""
""fullscreenenter"",""0"",""3575""
","
","5366.115000000718","<img style='border: 4px solid darkgrey;' src='img/tf1_15_M_ss2.jpeg'></img>","0","","exp","","3","<img src='img/tf1_15_T1_ss2_md.jpeg'></img>","0","false",""
"","html-keyboard-response","43","181350","0.0-10.0-0.15","A107","""event"",""trial"",""time""
""fullscreenenter"",""0"",""3575""
","
","
","""event"",""trial"",""time""
""fullscreenenter"",""0"",""3575""
","
","null","<div style=""font-size:60px;"">+</div>","","null","fixation","2021-04-02 17:25:51.284","","","","",""
"","mars-trial","44","199832","0.0-10.0-1.15","A107","""event"",""trial"",""time""
""fullscreenenter"",""0"",""3575""
","
","
","""event"",""trial"",""time""
""fullscreenenter"",""0"",""3575""
","
","17870.45500000022","<img style='border: 4px solid darkgrey;' src='img/tf1_16_M_ss3.jpeg'></img>","3","","exp","","1","<img src='img/tf1_16_T1_ss3_md.jpeg'></img>","0","false",""
"","html-keyboard-response","45","200338","0.0-10.0-0.16","A107","""event"",""trial"",""time""
""fullscreenenter"",""0"",""3575""
","
","
","""event"",""trial"",""time""
""fullscreenenter"",""0"",""3575""
","
","null","<div style=""font-size:60px;"">+</div>","","null","fixation","2021-04-02 17:26:10.272","","","","",""
"","mars-trial","46","202942","0.0-10.0-1.16","A107","""event"",""trial"",""time""
""fullscreenenter"",""0"",""3575""
","
","
","""event"",""trial"",""time""
""fullscreenenter"",""0"",""3575""
","
","1994.6449999988545","<img style='border: 4px solid darkgrey;' src='img/tf1_17_M_ss1.jpeg'></img>","3","","exp","","0","<img src='img/tf1_17_T1_ss1_md.jpeg'></img>","0","true",""
"","html-keyboard-response","47","203443","0.0-10.0-0.17","A107","""event"",""trial"",""time""
""fullscreenenter"",""0"",""3575""
","
","
","""event"",""trial"",""time""
""fullscreenenter"",""0"",""3575""
","
","null","<div style=""font-size:60px;"">+</div>","","null","fixation","2021-04-02 17:26:13.377","","","","",""
"","mars-trial","48","205260","0.0-10.0-1.17","A107","""event"",""trial"",""time""
""fullscreenenter"",""0"",""3575""
","
","
","""event"",""trial"",""time""
""fullscreenenter"",""0"",""3575""
","
","1211.155000000872","<img style='border: 4px solid darkgrey;' src='img/tf1_18_M_ss2.jpeg'></img>","1","","exp","","3","<img src='img/tf1_18_T1_ss2_md.jpeg'></img>","0","false",""
"","html-keyboard-response","49","205762","0.0-10.0-0.18","A107","""event"",""trial"",""time""
""fullscreenenter"",""0"",""3575""
","
","
","""event"",""trial"",""time""
""fullscreenenter"",""0"",""3575""
","
","null","<div style=""font-size:60px;"">+</div>","","null","fixation","2021-04-02 17:26:15.696","","","","",""
"","mars-trial","50","208221","0.0-10.0-1.18","A107","""event"",""trial"",""time""
""fullscreenenter"",""0"",""3575""
","
","
","""event"",""trial"",""time""
""fullscreenenter"",""0"",""3575""
","
","1849.4900000005146","<img style='border: 4px solid darkgrey;' src='img/tf1_19_M_ss3.jpeg'></img>","1","","exp","","3","<img src='img/tf1_19_T1_ss3_md.jpeg'></img>","0","false",""
"","html-keyboard-response","51","208722","0.0-10.0-0.19","A107","""event"",""trial"",""time""
""fullscreenenter"",""0"",""3575""
","
","
","""event"",""trial"",""time""
""fullscreenenter"",""0"",""3575""
","
","null","<div style=""font-size:60px;"">+</div>","","null","fixation","2021-04-02 17:26:18.657","","","","",""
"","mars-trial","52","209997","0.0-10.0-1.19","A107","""event"",""trial"",""time""
""fullscreenenter"",""0"",""3575""
","
","
","""event"",""trial"",""time""
""fullscreenenter"",""0"",""3575""
","
","664.9350000006962","<img style='border: 4px solid darkgrey;' src='img/tf1_20_M_ss1.jpeg'></img>","1","","exp","","0","<img src='img/tf1_20_T1_ss1_md.jpeg'></img>","0","true",""
"","html-keyboard-response","53","210498","0.0-10.0-0.20","A107","""event"",""trial"",""time""
""fullscreenenter"",""0"",""3575""
","
","
","""event"",""trial"",""time""
""fullscreenenter"",""0"",""3575""
","
","null","<div style=""font-size:60px;"">+</div>","","null","fixation","2021-04-02 17:26:20.432","","","","",""
"","mars-trial","54","212256","0.0-10.0-1.20","A107","""event"",""trial"",""time""
""fullscreenenter"",""0"",""3575""
","
","
","""event"",""trial"",""time""
""fullscreenenter"",""0"",""3575""
","
","1147.6199999997334","<img style='border: 4px solid darkgrey;' src='img/tf1_21_M_ss2.jpeg'></img>","1","","exp","","0","<img src='img/tf1_21_T1_ss2_md.jpeg'></img>","0","true",""
"","html-keyboard-response","55","212760","0.0-10.0-0.21","A107","""event"",""trial"",""time""
""fullscreenenter"",""0"",""3575""
","
","
","""event"",""trial"",""time""
""fullscreenenter"",""0"",""3575""
","
","null","<div style=""font-size:60px;"">+</div>","","null","fixation","2021-04-02 17:26:22.694","","","","",""
"","mars-trial","56","216381","0.0-10.0-1.21","A107","""event"",""trial"",""time""
""fullscreenenter"",""0"",""3575""
","
","
","""event"",""trial"",""time""
""fullscreenenter"",""0"",""3575""
","
","3016.415000001871","<img style='border: 4px solid darkgrey;' src='img/tf1_22_M_ss3.jpeg'></img>","0","","exp","","2","<img src='img/tf1_22_T1_ss3_md.jpeg'></img>","0","false",""
"","html-keyboard-response","57","216883","0.0-10.0-0.22","A107","""event"",""trial"",""time""
""fullscreenenter"",""0"",""3575""
","
","
","""event"",""trial"",""time""
""fullscreenenter"",""0"",""3575""
","
","null","<div style=""font-size:60px;"">+</div>","","null","fixation","2021-04-02 17:26:26.817","","","","",""
"","mars-trial","58","218804","0.0-10.0-1.22","A107","""event"",""trial"",""time""
""fullscreenenter"",""0"",""3575""
","
","
","""event"",""trial"",""time""
""fullscreenenter"",""0"",""3575""
","
","1312.19499999861","<img style='border: 4px solid darkgrey;' src='img/tf1_23_M_ss1.jpeg'></img>","2","","exp","","0","<img src='img/tf1_23_T1_ss1_md.jpeg'></img>","0","true",""
"","html-keyboard-response","59","219307","0.0-10.0-0.23","A107","""event"",""trial"",""time""
""fullscreenenter"",""0"",""3575""
","
","
","""event"",""trial"",""time""
""fullscreenenter"",""0"",""3575""
","
","null","<div style=""font-size:60px;"">+</div>","","null","fixation","2021-04-02 17:26:29.241","","","","",""
"","mars-trial","60","221501","0.0-10.0-1.23","A107","""event"",""trial"",""time""
""fullscreenenter"",""0"",""3575""
","
","
","""event"",""trial"",""time""
""fullscreenenter"",""0"",""3575""
","
","1590.3799999978219","<img style='border: 4px solid darkgrey;' src='img/tf1_24_M_ss2.jpeg'></img>","3","","exp","","2","<img src='img/tf1_24_T1_ss2_md.jpeg'></img>","0","false",""
"","html-keyboard-response","61","222007","0.0-10.0-0.24","A107","""event"",""trial"",""time""
""fullscreenenter"",""0"",""3575""
","
","
","""event"",""trial"",""time""
""fullscreenenter"",""0"",""3575""
","
","null","<div style=""font-size:60px;"">+</div>","","null","fixation","2021-04-02 17:26:31.941","","","","",""
"","mars-trial","62","223261","0.0-10.0-1.24","A107","""event"",""trial"",""time""
""fullscreenenter"",""0"",""3575""
","
","
","""event"",""trial"",""time""
""fullscreenenter"",""0"",""3575""
","
","645.0999999979103","<img style='border: 4px solid darkgrey;' src='img/tf1_25_M_ss3.jpeg'></img>","2","","exp","","1","<img src='img/tf1_25_T1_ss3_md.jpeg'></img>","0","false",""
"","html-keyboard-response","63","223763","0.0-10.0-0.25","A107","""event"",""trial"",""time""
""fullscreenenter"",""0"",""3575""
","
","
","""event"",""trial"",""time""
""fullscreenenter"",""0"",""3575""
","
","null","<div style=""font-size:60px;"">+</div>","","null","fixation","2021-04-02 17:26:33.697","","","","",""
"","mars-trial","64","224808","0.0-10.0-1.25","A107","""event"",""trial"",""time""
""fullscreenenter"",""0"",""3575""
","
","
","""event"",""trial"",""time""
""fullscreenenter"",""0"",""3575""
","
","432.8299999979208","<img style='border: 4px solid darkgrey;' src='img/tf1_26_M_ss1.jpeg'></img>","3","","exp","","0","<img src='img/tf1_26_T1_ss1_md.jpeg'></img>","0","true",""
"","html-keyboard-response","65","225309","0.0-10.0-0.26","A107","""event"",""trial"",""time""
""fullscreenenter"",""0"",""3575""
","
","
","""event"",""trial"",""time""
""fullscreenenter"",""0"",""3575""
","
","null","<div style=""font-size:60px;"">+</div>","","null","fixation","2021-04-02 17:26:35.243","","","","",""
"","mars-trial","66","228493","0.0-10.0-1.26","A107","""event"",""trial"",""time""
""fullscreenenter"",""0"",""3575""
","
","
","""event"",""trial"",""time""
""fullscreenenter"",""0"",""3575""
","
","2578.545000000304","<img style='border: 4px solid darkgrey;' src='img/tf1_27_M_ss2.jpeg'></img>","3","","exp","","3","<img src='img/tf1_27_T1_ss2_md.jpeg'></img>","0","false",""
"","html-keyboard-response","67","228995","0.0-10.0-0.27","A107","""event"",""trial"",""time""
""fullscreenenter"",""0"",""3575""
","
","
","""event"",""trial"",""time""
""fullscreenenter"",""0"",""3575""
","
","null","<div style=""font-size:60px;"">+</div>","","null","fixation","2021-04-02 17:26:38.929","","","","",""
"","mars-trial","68","230840","0.0-10.0-1.27","A107","""event"",""trial"",""time""
""fullscreenenter"",""0"",""3575""
","
","
","""event"",""trial"",""time""
""fullscreenenter"",""0"",""3575""
","
","1239.2599999984668","<img style='border: 4px solid darkgrey;' src='img/tf1_28_M_ss3.jpeg'></img>","3","","exp","","3","<img src='img/tf1_28_T1_ss3_md.jpeg'></img>","0","false",""
"","html-keyboard-response","69","231344","0.0-10.0-0.28","A107","""event"",""trial"",""time""
""fullscreenenter"",""0"",""3575""
","
","
","""event"",""trial"",""time""
""fullscreenenter"",""0"",""3575""
","
","null","<div style=""font-size:60px;"">+</div>","","null","fixation","2021-04-02 17:26:41.278","","","","",""
"","mars-trial","70","232408","0.0-10.0-1.28","A107","""event"",""trial"",""time""
""fullscreenenter"",""0"",""3575""
","
","
","""event"",""trial"",""time""
""fullscreenenter"",""0"",""3575""
","
","455.56500000020606","<img style='border: 4px solid darkgrey;' src='img/tf1_29_M_ss1.jpeg'></img>","3","","exp","","1","<img src='img/tf1_29_T1_ss1_md.jpeg'></img>","0","false",""
"","html-keyboard-response","71","232910","0.0-10.0-0.29","A107","""event"",""trial"",""time""
""fullscreenenter"",""0"",""3575""
","
","
","""event"",""trial"",""time""
""fullscreenenter"",""0"",""3575""
","
","null","<div style=""font-size:60px;"">+</div>","","null","fixation","2021-04-02 17:26:42.844","","","","",""
"","mars-trial","72","233959","0.0-10.0-1.29","A107","""event"",""trial"",""time""
""fullscreenenter"",""0"",""3575""
","
","
","""event"",""trial"",""time""
""fullscreenenter"",""0"",""3575""
","
","441.9999999990978","<img style='border: 4px solid darkgrey;' src='img/tf1_30_M_ss2.jpeg'></img>","3","","exp","","1","<img src='img/tf1_30_T1_ss2_md.jpeg'></img>","0","false",""
"","html-keyboard-response","73","234461","0.0-10.0-0.30","A107","""event"",""trial"",""time""
""fullscreenenter"",""0"",""3575""
","
","
","""event"",""trial"",""time""
""fullscreenenter"",""0"",""3575""
","
","null","<div style=""font-size:60px;"">+</div>","","null","fixation","2021-04-02 17:26:44.395","","","","",""
"","mars-trial","74","235697","0.0-10.0-1.30","A107","""event"",""trial"",""time""
""fullscreenenter"",""0"",""3575""
","
","
","""event"",""trial"",""time""
""fullscreenenter"",""0"",""3575""
","
","626.7399999996996","<img style='border: 4px solid darkgrey;' src='img/tf1_31_M_ss3.jpeg'></img>","3","","exp","","3","<img src='img/tf1_31_T1_ss3_md.jpeg'></img>","0","false",""
"","html-keyboard-response","75","236200","0.0-10.0-0.31","A107","""event"",""trial"",""time""
""fullscreenenter"",""0"",""3575""
","
","
","""event"",""trial"",""time""
""fullscreenenter"",""0"",""3575""
","
","null","<div style=""font-size:60px;"">+</div>","","null","fixation","2021-04-02 17:26:46.134","","","","",""
"","mars-trial","76","237407","0.0-10.0-1.31","A107","""event"",""trial"",""time""
""fullscreenenter"",""0"",""3575""
","
","
","""event"",""trial"",""time""
""fullscreenenter"",""0"",""3575""
","
","600.3899999996065","<img style='border: 4px solid darkgrey;' src='img/tf1_32_M_ss1.jpeg'></img>","3","","exp","","2","<img src='img/tf1_32_T1_ss1_md.jpeg'></img>","0","false",""
"","html-keyboard-response","77","237912","0.0-10.0-0.32","A107","""event"",""trial"",""time""
""fullscreenenter"",""0"",""3575""
","
","
","""event"",""trial"",""time""
""fullscreenenter"",""0"",""3575""
","
","null","<div style=""font-size:60px;"">+</div>","","null","fixation","2021-04-02 17:26:47.846","","","","",""
"","mars-trial","78","239167","0.0-10.0-1.32","A107","""event"",""trial"",""time""
""fullscreenenter"",""0"",""3575""
","
","
","""event"",""trial"",""time""
""fullscreenenter"",""0"",""3575""
","
","648.2949999990524","<img style='border: 4px solid darkgrey;' src='img/tf1_33_M_ss2.jpeg'></img>","1","","exp","","1","<img src='img/tf1_33_T1_ss2_md.jpeg'></img>","0","false",""
"","html-keyboard-response","79","239669","0.0-10.0-0.33","A107","""event"",""trial"",""time""
""fullscreenenter"",""0"",""3575""
","
","
","""event"",""trial"",""time""
""fullscreenenter"",""0"",""3575""
","
","null","<div style=""font-size:60px;"">+</div>","","null","fixation","2021-04-02 17:26:49.605","","","","",""
"","mars-trial","80","241304","0.0-10.0-1.33","A107","""event"",""trial"",""time""
""fullscreenenter"",""0"",""3575""
","
","
","""event"",""trial"",""time""
""fullscreenenter"",""0"",""3575""
","
","1026.9250000019383","<img style='border: 4px solid darkgrey;' src='img/tf1_34_M_ss3.jpeg'></img>","0","","exp","","3","<img src='img/tf1_34_T1_ss3_md.jpeg'></img>","0","false",""
"","html-keyboard-response","81","241806","0.0-10.0-0.34","A107","""event"",""trial"",""time""
""fullscreenenter"",""0"",""3575""
","
","
","""event"",""trial"",""time""
""fullscreenenter"",""0"",""3575""
","
","null","<div style=""font-size:60px;"">+</div>","","null","fixation","2021-04-02 17:26:51.740","","","","",""
"","mars-trial","82","242722","0.0-10.0-1.34","A107","""event"",""trial"",""time""
""fullscreenenter"",""0"",""3575""
","
","
","""event"",""trial"",""time""
""fullscreenenter"",""0"",""3575""
","
","306.36500000033993","<img style='border: 4px solid darkgrey;' src='img/tf1_35_M_ss1.jpeg'></img>","2","","exp","","0","<img src='img/tf1_35_T1_ss1_md.jpeg'></img>","0","true",""
"","html-keyboard-response","83","243224","0.0-10.0-0.35","A107","""event"",""trial"",""time""
""fullscreenenter"",""0"",""3575""
","
","
","""event"",""trial"",""time""
""fullscreenenter"",""0"",""3575""
","
","null","<div style=""font-size:60px;"">+</div>","","null","fixation","2021-04-02 17:26:53.159","","","","",""
"","mars-trial","84","244471","0.0-10.0-1.35","A107","""event"",""trial"",""time""
""fullscreenenter"",""0"",""3575""
","
","
","""event"",""trial"",""time""
""fullscreenenter"",""0"",""3575""
","
","636.9149999991641","<img style='border: 4px solid darkgrey;' src='img/tf1_36_M_ss2.jpeg'></img>","1","","exp","","2","<img src='img/tf1_36_T1_ss2_md.jpeg'></img>","0","false",""
"","html-keyboard-response","85","244974","0.0-10.0-0.36","A107","""event"",""trial"",""time""
""fullscreenenter"",""0"",""3575""
","
","
","""event"",""trial"",""time""
""fullscreenenter"",""0"",""3575""
","
","null","<div style=""font-size:60px;"">+</div>","","null","fixation","2021-04-02 17:26:54.908","","","","",""
"","mars-trial","86","246390","0.0-10.0-1.36","A107","""event"",""trial"",""time""
""fullscreenenter"",""0"",""3575""
","
","
","""event"",""trial"",""time""
""fullscreenenter"",""0"",""3575""
","
","808.8900000002468","<img style='border: 4px solid darkgrey;' src='img/tf1_37_M_ss3.jpeg'></img>","3","","exp","","1","<img src='img/tf1_37_T1_ss3_md.jpeg'></img>","0","false",""
"","html-keyboard-response","87","246894","0.0-10.0-0.37","A107","""event"",""trial"",""time""
""fullscreenenter"",""0"",""3575""
","
","
","""event"",""trial"",""time""
""fullscreenenter"",""0"",""3575""
","
","null","<div style=""font-size:60px;"">+</div>","","null","fixation","2021-04-02 17:26:56.828","","","","",""
"","mars-trial","88","247753","0.0-10.0-1.37","A107","""event"",""trial"",""time""
""fullscreenenter"",""0"",""3575""
","
","
","""event"",""trial"",""time""
""fullscreenenter"",""0"",""3575""
","
","249.83000000065658","<img style='border: 4px solid darkgrey;' src='img/tf1_38_M_ss1.jpeg'></img>","2","","exp","","3","<img src='img/tf1_38_T1_ss1_md.jpeg'></img>","0","false",""
"","html-keyboard-response","89","248255","0.0-10.0-0.38","A107","""event"",""trial"",""time""
""fullscreenenter"",""0"",""3575""
","
","
","""event"",""trial"",""time""
""fullscreenenter"",""0"",""3575""
","
","null","<div style=""font-size:60px;"">+</div>","","null","fixation","2021-04-02 17:26:58.189","","","","",""
"","mars-trial","90","249230","0.0-10.0-1.38","A107","""event"",""trial"",""time""
""fullscreenenter"",""0"",""3575""
","
","
","""event"",""trial"",""time""
""fullscreenenter"",""0"",""3575""
","
","366.79999999981374","<img style='border: 4px solid darkgrey;' src='img/tf1_39_M_ss2.jpeg'></img>","1","","exp","","2","<img src='img/tf1_39_T1_ss2_md.jpeg'></img>","0","false",""
"","html-keyboard-response","91","249737","0.0-10.0-0.39","A107","""event"",""trial"",""time""
""fullscreenenter"",""0"",""3575""
","
","
","""event"",""trial"",""time""
""fullscreenenter"",""0"",""3575""
","
","null","<div style=""font-size:60px;"">+</div>","","null","fixation","2021-04-02 17:26:59.671","","","","",""
"","mars-trial","92","251913","0.0-10.0-1.39","A107","""event"",""trial"",""time""
""fullscreenenter"",""0"",""3575""
","
","
","""event"",""trial"",""time""
""fullscreenenter"",""0"",""3575""
","
","1570.5799999996088","<img style='border: 4px solid darkgrey;' src='img/tf1_40_M_ss3.jpeg'></img>","0","","exp","","3","<img src='img/tf1_40_T1_ss3_md.jpeg'></img>","0","false",""
"","html-keyboard-response","93","252417","0.0-10.0-0.40","A107","""event"",""trial"",""time""
""fullscreenenter"",""0"",""3575""
","
","
","""event"",""trial"",""time""
""fullscreenenter"",""0"",""3575""
","
","null","<div style=""font-size:60px;"">+</div>","","null","fixation","2021-04-02 17:27:02.351","","","","",""
"","mars-trial","94","253376","0.0-10.0-1.40","A107","""event"",""trial"",""time""
""fullscreenenter"",""0"",""3575""
","
","
","""event"",""trial"",""time""
""fullscreenenter"",""0"",""3575""
","
","352.00999999872874","<img style='border: 4px solid darkgrey;' src='img/tf1_41_M_ss1.jpeg'></img>","2","","exp","","1","<img src='img/tf1_41_T1_ss1_md.jpeg'></img>","0","false",""
"","html-keyboard-response","95","253878","0.0-10.0-0.41","A107","""event"",""trial"",""time""
""fullscreenenter"",""0"",""3575""
","
","
","""event"",""trial"",""time""
""fullscreenenter"",""0"",""3575""
","
","null","<div style=""font-size:60px;"">+</div>","","null","fixation","2021-04-02 17:27:03.812","","","","",""
"","mars-trial","96","255393","0.0-10.0-1.41","A107","""event"",""trial"",""time""
""fullscreenenter"",""0"",""3575""
","
","
","""event"",""trial"",""time""
""fullscreenenter"",""0"",""3575""
","
","906.1899999979069","<img style='border: 4px solid darkgrey;' src='img/tf1_42_M_ss2.jpeg'></img>","2","","exp","","3","<img src='img/tf1_42_T1_ss2_md.jpeg'></img>","0","false",""
"","html-keyboard-response","97","255894","0.0-10.0-0.42","A107","""event"",""trial"",""time""
""fullscreenenter"",""0"",""3575""
","
","
","""event"",""trial"",""time""
""fullscreenenter"",""0"",""3575""
","
","null","<div style=""font-size:60px;"">+</div>","","null","fixation","2021-04-02 17:27:05.828","","","","",""
"","mars-trial","98","257044","0.0-10.0-1.42","A107","""event"",""trial"",""time""
""fullscreenenter"",""0"",""3575""
","
","
","""event"",""trial"",""time""
""fullscreenenter"",""0"",""3575""
","
","542.2099999996135","<img style='border: 4px solid darkgrey;' src='img/tf1_43_M_ss3.jpeg'></img>","1","","exp","","2","<img src='img/tf1_43_T1_ss3_md.jpeg'></img>","0","false",""
"","html-keyboard-response","99","257550","0.0-10.0-0.43","A107","""event"",""trial"",""time""
""fullscreenenter"",""0"",""3575""
","
","
","""event"",""trial"",""time""
""fullscreenenter"",""0"",""3575""
","
","null","<div style=""font-size:60px;"">+</div>","","null","fixation","2021-04-02 17:27:07.484","","","","",""
"","mars-trial","100","264927","0.0-10.0-1.43","A107","""event"",""trial"",""time""
""fullscreenenter"",""0"",""3575""
","
","
","""event"",""trial"",""time""
""fullscreenenter"",""0"",""3575""
","
","6767.745000001043","<img style='border: 4px solid darkgrey;' src='img/tf1_44_M_ss1.jpeg'></img>","2","","exp","","2","<img src='img/tf1_44_T1_ss1_md.jpeg'></img>","0","false",""
"","html-keyboard-response","101","265433","0.0-10.0-0.44","A107","""event"",""trial"",""time""
""fullscreenenter"",""0"",""3575""
","
","
","""event"",""trial"",""time""
""fullscreenenter"",""0"",""3575""
","
","null","<div style=""font-size:60px;"">+</div>","","null","fixation","2021-04-02 17:27:15.367","","","","",""
"","mars-trial","102","273349","0.0-10.0-1.44","A107","""event"",""trial"",""time""
""fullscreenenter"",""0"",""3575""
","
","
","""event"",""trial"",""time""
""fullscreenenter"",""0"",""3575""
","
","7307.0950000000885","<img style='border: 4px solid darkgrey;' src='img/tf1_45_M_ss2.jpeg'></img>","1","","exp","","0","<img src='img/tf1_45_T1_ss2_md.jpeg'></img>","0","true",""
"","html-keyboard-response","103","273855","0.0-10.0-0.45","A107","""event"",""trial"",""time""
""fullscreenenter"",""0"",""3575""
","
","
","""event"",""trial"",""time""
""fullscreenenter"",""0"",""3575""
","
","null","<div style=""font-size:60px;"">+</div>","","null","fixation","2021-04-02 17:27:23.789","","","","",""
"","mars-trial","104","275721","0.0-10.0-1.45","A107","""event"",""trial"",""time""
""fullscreenenter"",""0"",""3575""
","
","
","""event"",""trial"",""time""
""fullscreenenter"",""0"",""3575""
","
","1251.6800000012154","<img style='border: 4px solid darkgrey;' src='img/tf1_46_M_ss3.jpeg'></img>","1","","exp","","3","<img src='img/tf1_46_T1_ss3_md.jpeg'></img>","0","false",""
"","html-keyboard-response","105","276223","0.0-10.0-0.46","A107","""event"",""trial"",""time""
""fullscreenenter"",""0"",""3575""
","
","
","""event"",""trial"",""time""
""fullscreenenter"",""0"",""3575""
","
","null","<div style=""font-size:60px;"">+</div>","","null","fixation","2021-04-02 17:27:26.157","","","","",""
"","mars-trial","106","281866","0.0-10.0-1.46","A107","""event"",""trial"",""time""
""fullscreenenter"",""0"",""3575""
","
","
","""event"",""trial"",""time""
""fullscreenenter"",""0"",""3575""
","
","5037.625000000873","<img style='border: 4px solid darkgrey;' src='img/tf1_47_M_ss1.jpeg'></img>","2","","exp","","1","<img src='img/tf1_47_T1_ss1_md.jpeg'></img>","0","false",""
"","html-keyboard-response","107","282369","0.0-10.0-0.47","A107","""event"",""trial"",""time""
""fullscreenenter"",""0"",""3575""
","
","
","""event"",""trial"",""time""
""fullscreenenter"",""0"",""3575""
","
","null","<div style=""font-size:60px;"">+</div>","","null","fixation","2021-04-02 17:27:32.303","","","","",""
"","mars-trial","108","283837","0.0-10.0-1.47","A107","""event"",""trial"",""time""
""fullscreenenter"",""0"",""3575""
","
","
","""event"",""trial"",""time""
""fullscreenenter"",""0"",""3575""
","
","857.8150000030291","<img style='border: 4px solid darkgrey;' src='img/tf1_48_M_ss2.jpeg'></img>","3","","exp","","1","<img src='img/tf1_48_T1_ss2_md.jpeg'></img>","0","false",""
"","html-keyboard-response","109","284341","0.0-10.0-0.48","A107","""event"",""trial"",""time""
""fullscreenenter"",""0"",""3575""
","
","
","""event"",""trial"",""time""
""fullscreenenter"",""0"",""3575""
","
","null","<div style=""font-size:60px;"">+</div>","","null","fixation","2021-04-02 17:27:34.275","","","","",""
"","mars-trial","110","285290","0.0-10.0-1.48","A107","""event"",""trial"",""time""
""fullscreenenter"",""0"",""3575""
","
","
","""event"",""trial"",""time""
""fullscreenenter"",""0"",""3575""
","
","336.55999999976484","<img style='border: 4px solid darkgrey;' src='img/tf1_49_M_ss3.jpeg'></img>","2","","exp","","1","<img src='img/tf1_49_T1_ss3_md.jpeg'></img>","0","false",""
"","html-keyboard-response","111","285792","0.0-10.0-0.49","A107","""event"",""trial"",""time""
""fullscreenenter"",""0"",""3575""
","
","
","""event"",""trial"",""time""
""fullscreenenter"",""0"",""3575""
","
","null","<div style=""font-size:60px;"">+</div>","","null","fixation","2021-04-02 17:27:35.726","","","","",""
"","mars-trial","112","286631","0.0-10.0-1.49","A107","""event"",""trial"",""time""
""fullscreenenter"",""0"",""3575""
","
","
","""event"",""trial"",""time""
""fullscreenenter"",""0"",""3575""
","
","232.81499999942025","<img style='border: 4px solid darkgrey;' src='img/tf1_50_M_ss1.jpeg'></img>","3","","exp","","0","<img src='img/tf1_50_T1_ss1_md.jpeg'></img>","0","true",""
"","html-keyboard-response","113","287135","0.0-10.0-0.50","A107","""event"",""trial"",""time""
""fullscreenenter"",""0"",""3575""
","
","
","""event"",""trial"",""time""
""fullscreenenter"",""0"",""3575""
","
","null","<div style=""font-size:60px;"">+</div>","","null","fixation","2021-04-02 17:27:37.069","","","","",""
"","mars-trial","114","290351","0.0-10.0-1.50","A107","""event"",""trial"",""time""
""fullscreenenter"",""0"",""3575""
","
","
","""event"",""trial"",""time""
""fullscreenenter"",""0"",""3575""
","
","2609.9299999987124","<img style='border: 4px solid darkgrey;' src='img/tf1_51_M_ss2.jpeg'></img>","1","","exp","","2","<img src='img/tf1_51_T1_ss2_md.jpeg'></img>","0","false",""
"","html-keyboard-response","115","290858","0.0-10.0-0.51","A107","""event"",""trial"",""time""
""fullscreenenter"",""0"",""3575""
","
","
","""event"",""trial"",""time""
""fullscreenenter"",""0"",""3575""
","
","null","<div style=""font-size:60px;"">+</div>","","null","fixation","2021-04-02 17:27:40.792","","","","",""
"","mars-trial","116","292296","0.0-10.0-1.51","A107","""event"",""trial"",""time""
""fullscreenenter"",""0"",""3575""
","
","
","""event"",""trial"",""time""
""fullscreenenter"",""0"",""3575""
","
","831.7700000007171","<img style='border: 4px solid darkgrey;' src='img/tf1_52_M_ss3.jpeg'></img>","2","","exp","","1","<img src='img/tf1_52_T1_ss3_md.jpeg'></img>","0","false",""
"","html-keyboard-response","117","292797","0.0-10.0-0.52","A107","""event"",""trial"",""time""
""fullscreenenter"",""0"",""3575""
","
","
","""event"",""trial"",""time""
""fullscreenenter"",""0"",""3575""
","
","null","<div style=""font-size:60px;"">+</div>","","null","fixation","2021-04-02 17:27:42.732","","","","",""
"","mars-trial","118","300230","0.0-10.0-1.52","A107","""event"",""trial"",""time""
""fullscreenenter"",""0"",""3575""
","
","
","""event"",""trial"",""time""
""fullscreenenter"",""0"",""3575""
","
","6823.304999998072","<img style='border: 4px solid darkgrey;' src='img/tf1_53_M_ss1.jpeg'></img>","0","","exp","","0","<img src='img/tf1_53_T1_ss1_md.jpeg'></img>","0","true",""
"","html-keyboard-response","119","300736","0.0-10.0-0.53","A107","""event"",""trial"",""time""
""fullscreenenter"",""0"",""3575""
","
","
","""event"",""trial"",""time""
""fullscreenenter"",""0"",""3575""
","
","null","<div style=""font-size:60px;"">+</div>","","null","fixation","2021-04-02 17:27:50.670","","","","",""
"","mars-trial","120","302581","0.0-10.0-1.53","A107","""event"",""trial"",""time""
""fullscreenenter"",""0"",""3575""
","
","
","""event"",""trial"",""time""
""fullscreenenter"",""0"",""3575""
","
","1238.6799999985378","<img style='border: 4px solid darkgrey;' src='img/tf1_54_M_ss2.jpeg'></img>","2","","exp","","3","<img src='img/tf1_54_T1_ss2_md.jpeg'></img>","0","false",""
"","html-keyboard-response","121","303082","0.0-10.0-0.54","A107","""event"",""trial"",""time""
""fullscreenenter"",""0"",""3575""
","
","
","""event"",""trial"",""time""
""fullscreenenter"",""0"",""3575""
","
","null","<div style=""font-size:60px;"">+</div>","","null","fixation","2021-04-02 17:27:53.016","","","","",""
"","mars-trial","122","304376","0.0-10.0-1.54","A107","""event"",""trial"",""time""
""fullscreenenter"",""0"",""3575""
","
","
","""event"",""trial"",""time""
""fullscreenenter"",""0"",""3575""
","
","684.399999998277","<img style='border: 4px solid darkgrey;' src='img/tf1_55_M_ss3.jpeg'></img>","1","","exp","","0","<img src='img/tf1_55_T1_ss3_md.jpeg'></img>","0","true",""
"","html-keyboard-response","123","304879","0.0-10.0-0.55","A107","""event"",""trial"",""time""
""fullscreenenter"",""0"",""3575""
","
","
","""event"",""trial"",""time""
""fullscreenenter"",""0"",""3575""
","
","null","<div style=""font-size:60px;"">+</div>","","null","fixation","2021-04-02 17:27:54.814","","","","",""
"","mars-trial","124","309961","0.0-10.0-1.55","A107","""event"",""trial"",""time""
""fullscreenenter"",""0"",""3575""
","
","
","""event"",""trial"",""time""
""fullscreenenter"",""0"",""3575""
","
","4472.249999998894","<img style='border: 4px solid darkgrey;' src='img/tf1_56_M_ss1.jpeg'></img>","2","","exp","","1","<img src='img/tf1_56_T1_ss1_md.jpeg'></img>","0","false",""
"","html-keyboard-response","125","310464","0.0-10.0-0.56","A107","""event"",""trial"",""time""
""fullscreenenter"",""0"",""3575""
","
","
","""event"",""trial"",""time""
""fullscreenenter"",""0"",""3575""
","
","null","<div style=""font-size:60px;"">+</div>","","null","fixation","2021-04-02 17:28:00.398","","","","",""
"","mars-trial","126","311839","0.0-10.0-1.56","A107","""event"",""trial"",""time""
""fullscreenenter"",""0"",""3575""
","
","
","""event"",""trial"",""time""
""fullscreenenter"",""0"",""3575""
","
","768.0849999997299","<img style='border: 4px solid darkgrey;' src='img/tf1_57_M_ss2.jpeg'></img>","2","","exp","","1","<img src='img/tf1_57_T1_ss2_md.jpeg'></img>","0","false",""
"","html-keyboard-response","127","312341","0.0-10.0-0.57","A107","""event"",""trial"",""time""
""fullscreenenter"",""0"",""3575""
","
","
","""event"",""trial"",""time""
""fullscreenenter"",""0"",""3575""
","
","null","<div style=""font-size:60px;"">+</div>","","null","fixation","2021-04-02 17:28:02.275","","","","",""
"","mars-trial","128","313425","0.0-10.0-1.57","A107","""event"",""trial"",""time""
""fullscreenenter"",""0"",""3575""
","
","
","""event"",""trial"",""time""
""fullscreenenter"",""0"",""3575""
","
","471.67500000074506","<img style='border: 4px solid darkgrey;' src='img/tf1_58_M_ss3.jpeg'></img>","2","","exp","","0","<img src='img/tf1_58_T1_ss3_md.jpeg'></img>","0","true",""
"","html-keyboard-response","129","313927","0.0-10.0-0.58","A107","""event"",""trial"",""time""
""fullscreenenter"",""0"",""3575""
","
","
","""event"",""trial"",""time""
""fullscreenenter"",""0"",""3575""
","
","null","<div style=""font-size:60px;"">+</div>","","null","fixation","2021-04-02 17:28:03.862","","","","",""
"","mars-trial","130","315760","0.0-10.0-1.58","A107","""event"",""trial"",""time""
""fullscreenenter"",""0"",""3575""
","
","
","""event"",""trial"",""time""
""fullscreenenter"",""0"",""3575""
","
","1223.9750000007916","<img style='border: 4px solid darkgrey;' src='img/tf1_59_M_ss1.jpeg'></img>","1","","exp","","0","<img src='img/tf1_59_T1_ss1_md.jpeg'></img>","0","true",""
"","html-keyboard-response","131","316262","0.0-10.0-0.59","A107","""event"",""trial"",""time""
""fullscreenenter"",""0"",""3575""
","
","
","""event"",""trial"",""time""
""fullscreenenter"",""0"",""3575""
","
","null","<div style=""font-size:60px;"">+</div>","","null","fixation","2021-04-02 17:28:06.196","","","","",""
"","mars-trial","132","317763","0.0-10.0-1.59","A107","""event"",""trial"",""time""
""fullscreenenter"",""0"",""3575""
","
","
","""event"",""trial"",""time""
""fullscreenenter"",""0"",""3575""
","
","891.6849999986589","<img style='border: 4px solid darkgrey;' src='img/tf1_60_M_ss2.jpeg'></img>","2","","exp","","3","<img src='img/tf1_60_T1_ss2_md.jpeg'></img>","0","false",""
"","html-keyboard-response","133","318267","0.0-10.0-0.60","A107","""event"",""trial"",""time""
""fullscreenenter"",""0"",""3575""
","
","
","""event"",""trial"",""time""
""fullscreenenter"",""0"",""3575""
","
","null","<div style=""font-size:60px;"">+</div>","","null","fixation","2021-04-02 17:28:08.201","","","","",""
"","mars-trial","134","319458","0.0-10.0-1.60","A107","""event"",""trial"",""time""
""fullscreenenter"",""0"",""3575""
","
","
","""event"",""trial"",""time""
""fullscreenenter"",""0"",""3575""
","
","584.4050000014249","<img style='border: 4px solid darkgrey;' src='img/tf1_61_M_ss3.jpeg'></img>","3","","exp","","1","<img src='img/tf1_61_T1_ss3_md.jpeg'></img>","0","false",""
"","html-keyboard-response","135","319960","0.0-10.0-0.61","A107","""event"",""trial"",""time""
""fullscreenenter"",""0"",""3575""
","
","
","""event"",""trial"",""time""
""fullscreenenter"",""0"",""3575""
","
","null","<div style=""font-size:60px;"">+</div>","","null","fixation","2021-04-02 17:28:09.894","","","","",""
"","mars-trial","136","321615","0.0-10.0-1.61","A107","""event"",""trial"",""time""
""fullscreenenter"",""0"",""3575""
","
","
","""event"",""trial"",""time""
""fullscreenenter"",""0"",""3575""
","
","1043.775000001886","<img style='border: 4px solid darkgrey;' src='img/tf1_62_M_ss1.jpeg'></img>","3","","exp","","3","<img src='img/tf1_62_T1_ss1_md.jpeg'></img>","0","false",""
"","html-keyboard-response","137","322117","0.0-10.0-0.62","A107","""event"",""trial"",""time""
""fullscreenenter"",""0"",""3575""
","
","
","""event"",""trial"",""time""
""fullscreenenter"",""0"",""3575""
","
","null","<div style=""font-size:60px;"">+</div>","","null","fixation","2021-04-02 17:28:12.051","","","","",""
"","mars-trial","138","323164","0.0-10.0-1.62","A107","""event"",""trial"",""time""
""fullscreenenter"",""0"",""3575""
","
","
","""event"",""trial"",""time""
""fullscreenenter"",""0"",""3575""
","
","439.445000000007","<img style='border: 4px solid darkgrey;' src='img/tf1_63_M_ss2.jpeg'></img>","2","","exp","","1","<img src='img/tf1_63_T1_ss2_md.jpeg'></img>","0","false",""
"","html-keyboard-response","139","323666","0.0-10.0-0.63","A107","""event"",""trial"",""time""
""fullscreenenter"",""0"",""3575""
","
","
","""event"",""trial"",""time""
""fullscreenenter"",""0"",""3575""
","
","null","<div style=""font-size:60px;"">+</div>","","null","fixation","2021-04-02 17:28:13.600","","","","",""
"","mars-trial","140","324775","0.0-10.0-1.63","A107","""event"",""trial"",""time""
""fullscreenenter"",""0"",""3575""
","
","
","""event"",""trial"",""time""
""fullscreenenter"",""0"",""3575""
","
","503.7950000005658","<img style='border: 4px solid darkgrey;' src='img/tf1_64_M_ss3.jpeg'></img>","0","","exp","","2","<img src='img/tf1_64_T1_ss3_md.jpeg'></img>","0","false",""
"","html-keyboard-response","141","325277","0.0-10.0-0.64","A107","""event"",""trial"",""time""
""fullscreenenter"",""0"",""3575""
","
","
","""event"",""trial"",""time""
""fullscreenenter"",""0"",""3575""
","
","null","<div style=""font-size:60px;"">+</div>","","null","fixation","2021-04-02 17:28:15.211","","","","",""
"","mars-trial","142","326380","0.0-10.0-1.64","A107","""event"",""trial"",""time""
""fullscreenenter"",""0"",""3575""
","
","
","""event"",""trial"",""time""
""fullscreenenter"",""0"",""3575""
","
","489.3599999996368","<img style='border: 4px solid darkgrey;' src='img/tf1_65_M_ss1.jpeg'></img>","2","","exp","","1","<img src='img/tf1_65_T1_ss1_md.jpeg'></img>","0","false",""
"","html-keyboard-response","143","326883","0.0-10.0-0.65","A107","""event"",""trial"",""time""
""fullscreenenter"",""0"",""3575""
","
","
","""event"",""trial"",""time""
""fullscreenenter"",""0"",""3575""
","
","null","<div style=""font-size:60px;"">+</div>","","null","fixation","2021-04-02 17:28:16.817","","","","",""
"","mars-trial","144","327912","0.0-10.0-1.65","A107","""event"",""trial"",""time""
""fullscreenenter"",""0"",""3575""
","
","
","""event"",""trial"",""time""
""fullscreenenter"",""0"",""3575""
","
","422.15000000217697","<img style='border: 4px solid darkgrey;' src='img/tf1_66_M_ss2.jpeg'></img>","3","","exp","","0","<img src='img/tf1_66_T1_ss2_md.jpeg'></img>","0","true",""
"","html-keyboard-response","145","328414","0.0-10.0-0.66","A107","""event"",""trial"",""time""
""fullscreenenter"",""0"",""3575""
","
","
","""event"",""trial"",""time""
""fullscreenenter"",""0"",""3575""
","
","null","<div style=""font-size:60px;"">+</div>","","null","fixation","2021-04-02 17:28:18.348","","","","",""
"","mars-trial","146","329817","0.0-10.0-1.66","A107","""event"",""trial"",""time""
""fullscreenenter"",""0"",""3575""
","
","
","""event"",""trial"",""time""
""fullscreenenter"",""0"",""3575""
","
","794.59499999939","<img style='border: 4px solid darkgrey;' src='img/tf1_67_M_ss3.jpeg'></img>","3","","exp","","3","<img src='img/tf1_67_T1_ss3_md.jpeg'></img>","0","false",""
"","html-keyboard-response","147","330319","0.0-10.0-0.67","A107","""event"",""trial"",""time""
""fullscreenenter"",""0"",""3575""
","
","
","""event"",""trial"",""time""
""fullscreenenter"",""0"",""3575""
","
","null","<div style=""font-size:60px;"">+</div>","","null","fixation","2021-04-02 17:28:20.253","","","","",""
"","mars-trial","148","331313","0.0-10.0-1.67","A107","""event"",""trial"",""time""
""fullscreenenter"",""0"",""3575""
","
","
","""event"",""trial"",""time""
""fullscreenenter"",""0"",""3575""
","
","384.96000000304775","<img style='border: 4px solid darkgrey;' src='img/tf1_68_M_ss1.jpeg'></img>","2","","exp","","2","<img src='img/tf1_68_T1_ss1_md.jpeg'></img>","0","false",""
"","html-keyboard-response","149","331814","0.0-10.0-0.68","A107","""event"",""trial"",""time""
""fullscreenenter"",""0"",""3575""
","
","
","""event"",""trial"",""time""
""fullscreenenter"",""0"",""3575""
","
","null","<div style=""font-size:60px;"">+</div>","","null","fixation","2021-04-02 17:28:21.748","","","","",""
"","mars-trial","150","333153","0.0-10.0-1.68","A107","""event"",""trial"",""time""
""fullscreenenter"",""0"",""3575""
","
","
","""event"",""trial"",""time""
""fullscreenenter"",""0"",""3575""
","
","730.0949999989243","<img style='border: 4px solid darkgrey;' src='img/tf1_69_M_ss2.jpeg'></img>","2","","exp","","2","<img src='img/tf1_69_T1_ss2_md.jpeg'></img>","0","false",""
"","html-keyboard-response","151","333657","0.0-10.0-0.69","A107","""event"",""trial"",""time""
""fullscreenenter"",""0"",""3575""
","
","
","""event"",""trial"",""time""
""fullscreenenter"",""0"",""3575""
","
","null","<div style=""font-size:60px;"">+</div>","","null","fixation","2021-04-02 17:28:23.591","","","","",""
"","mars-trial","152","334781","0.0-10.0-1.69","A107","""event"",""trial"",""time""
""fullscreenenter"",""0"",""3575""
","
","
","""event"",""trial"",""time""
""fullscreenenter"",""0"",""3575""
","
","511.7150000005495","<img style='border: 4px solid darkgrey;' src='img/tf1_70_M_ss3.jpeg'></img>","1","","exp","","1","<img src='img/tf1_70_T1_ss3_md.jpeg'></img>","0","false",""
"","html-keyboard-response","153","335283","0.0-10.0-0.70","A107","""event"",""trial"",""time""
""fullscreenenter"",""0"",""3575""
","
","
","""event"",""trial"",""time""
""fullscreenenter"",""0"",""3575""
","
","null","<div style=""font-size:60px;"">+</div>","","null","fixation","2021-04-02 17:28:25.217","","","","",""
"","mars-trial","154","342182","0.0-10.0-1.70","A107","""event"",""trial"",""time""
""fullscreenenter"",""0"",""3575""
","
","
","""event"",""trial"",""time""
""fullscreenenter"",""0"",""3575""
","
","6288.984999999229","<img style='border: 4px solid darkgrey;' src='img/tf1_71_M_ss1.jpeg'></img>","2","","exp","","0","<img src='img/tf1_71_T1_ss1_md.jpeg'></img>","0","true",""
"","html-keyboard-response","155","342689","0.0-10.0-0.71","A107","""event"",""trial"",""time""
""fullscreenenter"",""0"",""3575""
","
","
","""event"",""trial"",""time""
""fullscreenenter"",""0"",""3575""
","
","null","<div style=""font-size:60px;"">+</div>","","null","fixation","2021-04-02 17:28:32.623","","","","",""
"","mars-trial","156","344918","0.0-10.0-1.71","A107","""event"",""trial"",""time""
""fullscreenenter"",""0"",""3575""
","
","
","""event"",""trial"",""time""
""fullscreenenter"",""0"",""3575""
","
","1622.7749999997905","<img style='border: 4px solid darkgrey;' src='img/tf1_72_M_ss2.jpeg'></img>","1","","exp","","3","<img src='img/tf1_72_T1_ss2_md.jpeg'></img>","0","false",""
"","html-keyboard-response","157","345420","0.0-10.0-0.72","A107","""event"",""trial"",""time""
""fullscreenenter"",""0"",""3575""
","
","
","""event"",""trial"",""time""
""fullscreenenter"",""0"",""3575""
","
","null","<div style=""font-size:60px;"">+</div>","","null","fixation","2021-04-02 17:28:35.355","","","","",""
"","mars-trial","158","349052","0.0-10.0-1.72","A107","""event"",""trial"",""time""
""fullscreenenter"",""0"",""3575""
","
","
","""event"",""trial"",""time""
""fullscreenenter"",""0"",""3575""
","
","3020.5299999979907","<img style='border: 4px solid darkgrey;' src='img/tf1_73_M_ss3.jpeg'></img>","2","","exp","","0","<img src='img/tf1_73_T1_ss3_md.jpeg'></img>","0","true",""
"","html-keyboard-response","159","349558","0.0-10.0-0.73","A107","""event"",""trial"",""time""
""fullscreenenter"",""0"",""3575""
","
","
","""event"",""trial"",""time""
""fullscreenenter"",""0"",""3575""
","
","null","<div style=""font-size:60px;"">+</div>","","null","fixation","2021-04-02 17:28:39.492","","","","",""
"","mars-trial","160","351705","0.0-10.0-1.73","A107","""event"",""trial"",""time""
""fullscreenenter"",""0"",""3575""
","
","
","""event"",""trial"",""time""
""fullscreenenter"",""0"",""3575""
","
","1535.4999999981374","<img style='border: 4px solid darkgrey;' src='img/tf1_74_M_ss1.jpeg'></img>","1","","exp","","1","<img src='img/tf1_74_T1_ss1_md.jpeg'></img>","0","false",""
"","html-keyboard-response","161","352208","0.0-10.0-0.74","A107","""event"",""trial"",""time""
""fullscreenenter"",""0"",""3575""
","
","
","""event"",""trial"",""time""
""fullscreenenter"",""0"",""3575""
","
","null","<div style=""font-size:60px;"">+</div>","","null","fixation","2021-04-02 17:28:42.142","","","","",""
"","mars-trial","162","354483","0.0-10.0-1.74","A107","""event"",""trial"",""time""
""fullscreenenter"",""0"",""3575""
","
","
","""event"",""trial"",""time""
""fullscreenenter"",""0"",""3575""
","
","1668.8499999981723","<img style='border: 4px solid darkgrey;' src='img/tf1_75_M_ss2.jpeg'></img>","3","","exp","","1","<img src='img/tf1_75_T1_ss2_md.jpeg'></img>","0","false",""
"","html-keyboard-response","163","354984","0.0-10.0-0.75","A107","""event"",""trial"",""time""
""fullscreenenter"",""0"",""3575""
","
","
","""event"",""trial"",""time""
""fullscreenenter"",""0"",""3575""
","
","null","<div style=""font-size:60px;"">+</div>","","null","fixation","2021-04-02 17:28:44.918","","","","",""
"","mars-trial","164","357057","0.0-10.0-1.75","A107","""event"",""trial"",""time""
""fullscreenenter"",""0"",""3575""
","
","
","""event"",""trial"",""time""
""fullscreenenter"",""0"",""3575""
","
","1460.9500000005355","<img style='border: 4px solid darkgrey;' src='img/tf1_76_M_ss3.jpeg'></img>","2","","exp","","3","<img src='img/tf1_76_T1_ss3_md.jpeg'></img>","0","false",""
"","html-keyboard-response","165","357564","0.0-10.0-0.76","A107","""event"",""trial"",""time""
""fullscreenenter"",""0"",""3575""
","
","
","""event"",""trial"",""time""
""fullscreenenter"",""0"",""3575""
","
","null","<div style=""font-size:60px;"">+</div>","","null","fixation","2021-04-02 17:28:47.498","","","","",""
"","mars-trial","166","359329","0.0-10.0-1.76","A107","""event"",""trial"",""time""
""fullscreenenter"",""0"",""3575""
","
","
","""event"",""trial"",""time""
""fullscreenenter"",""0"",""3575""
","
","1159.1849999967963","<img style='border: 4px solid darkgrey;' src='img/tf1_77_M_ss1.jpeg'></img>","2","","exp","","3","<img src='img/tf1_77_T1_ss1_md.jpeg'></img>","0","false",""
"","html-keyboard-response","167","359831","0.0-10.0-0.77","A107","""event"",""trial"",""time""
""fullscreenenter"",""0"",""3575""
","
","
","""event"",""trial"",""time""
""fullscreenenter"",""0"",""3575""
","
","null","<div style=""font-size:60px;"">+</div>","","null","fixation","2021-04-02 17:28:49.765","","","","",""
"","mars-trial","168","361484","0.0-10.0-1.77","A107","""event"",""trial"",""time""
""fullscreenenter"",""0"",""3575""
","
","
","""event"",""trial"",""time""
""fullscreenenter"",""0"",""3575""
","
","1046.7349999999278","<img style='border: 4px solid darkgrey;' src='img/tf1_78_M_ss2.jpeg'></img>","3","","exp","","0","<img src='img/tf1_78_T1_ss2_md.jpeg'></img>","0","true",""
"","html-keyboard-response","169","361986","0.0-10.0-0.78","A107","""event"",""trial"",""time""
""fullscreenenter"",""0"",""3575""
","
","
","""event"",""trial"",""time""
""fullscreenenter"",""0"",""3575""
","
","null","<div style=""font-size:60px;"">+</div>","","null","fixation","2021-04-02 17:28:51.920","","","","",""
"","mars-trial","170","365408","0.0-10.0-1.78","A107","""event"",""trial"",""time""
""fullscreenenter"",""0"",""3575""
","
","
","""event"",""trial"",""time""
""fullscreenenter"",""0"",""3575""
","
","2811.519999999262","<img style='border: 4px solid darkgrey;' src='img/tf1_79_M_ss3.jpeg'></img>","2","","exp","","1","<img src='img/tf1_79_T1_ss3_md.jpeg'></img>","0","false",""
"","html-keyboard-response","171","365911","0.0-10.0-0.79","A107","""event"",""trial"",""time""
""fullscreenenter"",""0"",""3575""
","
","
","""event"",""trial"",""time""
""fullscreenenter"",""0"",""3575""
","
","null","<div style=""font-size:60px;"">+</div>","","null","fixation","2021-04-02 17:28:55.845","","","","",""
"","mars-trial","172","370445","0.0-10.0-1.79","A107","""event"",""trial"",""time""
""fullscreenenter"",""0"",""3575""
","
","
","""event"",""trial"",""time""
""fullscreenenter"",""0"",""3575""
","
","3926.260000000184","<img style='border: 4px solid darkgrey;' src='img/tf1_80_M_ss1.jpeg'></img>","0","","exp","","2","<img src='img/tf1_80_T1_ss1_md.jpeg'></img>","0","false",""
"","audio-button-response","173","374419","0.0-11.0","A107","""event"",""trial"",""time""
""fullscreenenter"",""0"",""3575""
","
","
","""event"",""trial"",""time""
""fullscreenenter"",""0"",""3575""
","
","3972.1800000006915","audio/mars_instructions_slide5.wav","0","","","","","","","",""
